timestamp,ax,ay,az
1475754353818,-6.321290969848633,-8.331223487854004,1.5065513849258423
1475754353998,-6.661866188049316,-7.405265808105469,1.1534066200256348
1475754354179,-5.361216068267822,-7.620145320892334,0.8475474119186401
1475754354359,-4.076726913452148,-7.644087314605713,4.727949619293213
1475754354540,-3.9929299354553223,-9.944316864013672,0.9672574996948242
1475754354720,-3.0160956382751465,-9.90241813659668,2.163161277770996
1475754354902,-1.8740613460540771,-9.412803649902344,1.7747019529342651
1475754355080,-1.8249802589416504,-9.026140213012695,1.8704700469970703
1475754355264,0.12210428714752197,-9.727641105651855,1.1929110288619995
1475754355451,1.9375077486038208,-9.129091262817383,0.9624691009521484
1475754355622,2.539050817489624,-9.31045150756836,1.5292962789535522
1475754355800,1.0773907899856567,-10.863091468811035,2.8215668201446533
1475754355986,2.1086931228637695,-8.67598819732666,1.6262614727020264
1475754356163,0.1041477769613266,-5.804741859436035,4.8931498527526855
1475754356341,-0.20231004059314728,-5.2480902671813965,6.288370609283447
1475754356522,1.569997787475586,-4.234744071960449,6.970119476318359
1475754356705,0.6171054840087891,-10.205883026123047,1.0217255353927612
1475754356886,1.1665748357772827,-9.198522567749023,0.45429977774620056
1475754357063,1.127070426940918,-10.146626472473145,0.09696517139673233
1475754357246,2.8802247047424316,-9.511565208435059,0.7332242727279663
1475754357426,4.43705415725708,-11.899182319641113,-1.5005658864974976
1475754357607,4.620210647583008,-10.475829124450684,2.3529016971588135
1475754357785,4.3843817710876465,-8.38808536529541,1.0348936319351196
1475754357964,1.3491326570510864,-6.028599739074707,3.117250680923462
1475754358146,-1.8112136125564575,-6.6145806312561035,3.8756139278411865
1475754358326,0.9654618501663208,-6.35301399230957,1.824381709098816
1475754358504,2.697068214416504,-9.511565208435059,0.12689268589019775
1475754358744,1.8351556062698364,-8.702922821044922,0.4273650050163269
1475754358863,2.4893712997436523,-9.233837127685547,-0.50876784324646
1475754359044,3.26688814163208,-10.06582260131836,-0.424970805644989
1475754359227,2.9436709880828857,-10.326790809631348,0.36332011222839355
1475754359405,2.204461097717285,-10.366294860839844,-2.940678119659424
1475754359588,3.445854902267456,-6.421248912811279,1.5658079385757446
1475754359768,0.4836287498474121,-5.178658485412598,3.6846764087677
1475754359948,-1.6268600225448608,-15.589844703674316,3.9887399673461914
1475754360124,3.8546648025512695,-9.078812599182129,0.7015010714530945
1475754360310,0.23104046285152435,-8.377311706542969,0.7631517648696899
1475754360486,3.444059133529663,-9.777320861816406,0.6649895310401917
1475754360668,2.2002713680267334,-10.073603630065918,-1.0743980407714844
1475754360852,5.609614372253418,-11.566388130187988,2.9879636764526367
1475754361042,2.2146365642547607,-9.051877975463867,-3.4793736934661865
1475754361205,3.2848446369171143,-7.621342658996582,2.293645143508911
1475754361389,0.8541314601898193,-6.35301399230957,3.670311212539673
1475754361567,-0.5303156971931458,-8.257002830505371,7.385513782501221
1475754361748,1.081580638885498,-10.694300651550293,1.9345149993896484
1475754361930,1.236605167388916,-9.100958824157715,0.47465047240257263
1475754362110,1.3910311460494995,-9.405621528625488,-0.5530605912208557
1475754362290,3.8780081272125244,-9.57860279083252,0.6063315868377686
1475754362472,5.432443618774414,-10.775104522705078,3.332130193710327
1475754362648,2.249951124191284,-10.175955772399902,-1.868674397468567
1475754362830,2.005143880844116,-6.507440090179443,2.473809003829956
1475754363011,0.05626374110579491,-6.538564682006836,4.519654273986816
1475754363191,-0.7110779285430908,-17.0203800201416,5.176862716674805
1475754363371,4.6956281661987305,-7.807491779327393,0.4920084476470947
1475754363549,1.6735470294952393,-7.8314337730407715,0.6236895322799683
1475754363729,2.677914619445801,-8.87829875946045,-0.08559270948171616
1475754363912,4.614823818206787,-12.161946296691895,0.7936778664588928
1475754364089,2.0242974758148193,-10.860697746276855,-2.0883424282073975
1475754364272,2.7700912952423096,-9.24940013885498,2.253542423248291
1475754364452,-1.9207483530044556,-0.11192893236875534,4.211400985717773
1475754364632,3.291428804397583,-19.608510971069336,2.5761611461639404
1475754364810,-1.2773065567016602,-8.292916297912598,1.7513585090637207
1475754364993,1.6502034664154053,-9.120711326599121,0.8409633636474609
1475754365173,0.3280056416988373,-12.166135787963867,0.669179379940033
1475754365353,0.5141547918319702,-12.123639106750488,-7.711723804473877
1475754365531,7.723694801330566,-9.410409927368164,-0.6524199843406677
1475754365714,-4.498106479644775,-6.98508358001709,4.4825439453125
1475754365891,2.807800054550171,-16.530166625976563,-1.8040310144424438
1475754366072,4.794987678527832,-5.344456672668457,-0.03770867735147476
1475754366252,2.830544948577881,-8.759186744689941,1.371279001235962
1475754366434,2.9718029499053955,-9.900622367858887,0.1975216418504715
1475754366612,3.737947463989258,-10.556035041809082,0.7972691655158997
1475754366795,2.735974073410034,-9.751583099365234,-0.17657238245010376
1475754366975,2.8209681510925293,-6.915052890777588,2.1505916118621826
1475754367153,-0.37169981002807617,-6.877344608306885,2.675520420074463
1475754367336,0.6937199234962463,-14.420276641845703,0.9522937536239624
1475754367516,3.8798038959503174,-8.857349395751953,-1.1306617259979248
1475754367691,2.191891670227051,-8.038532257080078,-1.114500880241394
1475754367875,3.1453824043273926,-9.078214645385742,-0.517746090888977
1475754368054,2.0907366275787354,-9.61331844329834,-1.6304513216018677
1475754368236,5.119401931762695,-11.981184005737305,1.149815320968628
1475754368416,2.18770170211792,-9.780313491821289,-1.6496049165725708
1475754368594,3.3010056018829346,-7.297526836395264,0.5973533391952515
1475754368776,0.93254154920578,-6.418854713439941,2.2409727573394775
1475754368955,-2.1577742099761963,-9.601945877075195,5.098452568054199
1475754369137,3.3686418533325195,-11.018115997314453,0.32441434264183044
1475754369316,1.8860323429107666,-9.059659004211426,-0.24899697303771973
1475754369496,3.1441853046417236,-9.218873977661133,-0.3489548861980438
1475754369677,2.542043685913086,-9.92097282409668,-0.983418345451355
1475754369857,3.0376434326171875,-11.897985458374023,0.9361328482627869
1475754370044,2.429516077041626,-8.5903959274292,-1.0863690376281738
1475754370217,2.2014684677124023,-8.188169479370117,2.984971046447754
1475754370398,0.09816227108240128,-6.304531574249268,3.1645359992980957
1475754370575,-0.5201402902603149,-4.46518611907959,4.034828186035156
1475754370757,2.0260932445526123,-14.07730770111084,0.27892449498176575
1475754370936,0.9313444495201111,-9.594164848327637,0.3926490843296051
1475754371116,2.8652608394622803,-8.431779861450195,-0.7679402232170105
1475754371298,3.0148985385894775,-8.538920402526855,-1.1881226301193237
1475754371477,5.632957935333252,-11.411962509155273,-3.0585925579071045
1475754371657,1.9704279899597168,-10.683526992797852,3.648763418197632
1475754371839,2.2840683460235596,-8.214506149291992,1.0402805805206299
1475754372019,0.48243165016174316,-6.835445880889893,2.8425159454345703
1475754372199,-0.6200982332229614,-5.2235493659973145,4.065953254699707
1475754372379,0.6200982332229614,-5.953182697296143,1.368884801864624
1475754372556,1.5646108388900757,-10.906187057495117,0.6470330357551575
1475754372741,1.7196353673934937,-8.713098526000977,-0.9229647517204285
1475754372922,2.647388458251953,-10.314221382141113,0.304063618183136
1475754373097,2.6198551654815674,-13.347075462341309,2.9203274250030518
1475754373280,1.238999366760254,-14.733318328857422,-5.673060894012451
1475754373460,1.1408370733261108,-3.9151182174682617,0.7194576263427734
1475754373637,-5.872378349304199,-8.768165588378906,5.394734859466553
1475754373821,1.6519991159439087,-0.9840168952941895,1.445499300956726
1475754374007,-2.6611552238464355,-11.455058097839355,2.145204782485962
1475754374180,5.770026206970215,-8.524555206298828,-0.06643909960985184
1475754374361,1.7088614702224731,-13.860033988952637,-1.1976994276046753
1475754374540,2.934692621231079,-16.845603942871094,-4.733935356140137
1475754374722,3.845088005065918,-2.9466638565063477,2.3145945072174072
1475754374901,-1.6747441291809082,-4.746504783630371,5.547964096069336
1475754375085,3.7660791873931885,-3.47039532661438,-0.8439561128616333
1475754375260,2.9071593284606934,-10.450690269470215,-1.7920600175857544
1475754375442,0.9654618501663208,-9.144054412841797,-3.341108560562134
1475754375620,2.362478494644165,-9.75397777557373,-1.0935516357421875
1475754375800,3.3470940589904785,-10.582371711730957,0.7631517648696899
1475754375981,3.1028854846954346,-10.358513832092285,-0.9463081955909729
1475754376160,1.382651448249817,-7.638700485229492,1.6412252187728882
1475754376341,-0.9528923034667969,-5.692214488983154,3.3632547855377197
1475754376523,0.9941922426223755,-13.55237865447998,3.1022868156433105
1475754376701,3.840898036956787,-8.522759437561035,-0.4578910768032074
1475754376882,2.279878616333008,-7.539939880371094,0.13706804811954498
1475754377064,3.555389642715454,-9.069235801696777,-0.5542576909065247
1475754377243,2.801814556121826,-10.559626579284668,-0.1885433793067932
1475754377453,2.3552958965301514,-9.47146224975586,1.6621745824813843
1475754377602,2.6126725673675537,-11.758522987365723,3.4386723041534424
1475754377785,0.8684966564178467,-6.710947513580322,2.3062148094177246
1475754377968,-0.40222588181495667,-5.506065368652344,3.9019501209259033
1475754378142,0.8571242094039917,-7.5662760734558105,-0.03651157766580582
1475754378325,2.895787000656128,-10.644620895385742,-0.5734112858772278
1475754378505,2.1978771686553955,-7.497442722320557,-0.6434416770935059
1475754378683,3.1759085655212402,-9.041104316711426,-0.25677812099456787
1475754378866,2.078765630722046,-12.15296745300293,-1.9662381410598755
1475754379041,4.094084739685059,-8.863334655761719,2.1703438758850098
1475754379226,1.7585411071777344,-10.54406452178955,4.467580318450928
1475754379405,0.829590916633606,-6.655282020568848,2.213439464569092
1475754379587,-1.1001356840133667,-5.453991413116455,2.5528175830841064
1475754379767,1.2545616626739502,-8.907029151916504,1.7322049140930176
1475754379946,1.1228805780410767,-10.421361923217773,0.4471171796321869
1475754380125,1.953070044517517,-8.884882926940918,-0.20769700407981873
1475754380307,2.2164323329925537,-10.142436981201172,-0.5835866928100586
1475754380487,4.159327030181885,-11.074978828430176,1.3766659498214722
1475754380665,3.028066635131836,-8.453926086425781,-1.800439715385437
1475754380847,1.9458874464035034,-8.179191589355469,1.2964602708816528
1475754381027,-1.1797429323196411,-4.924274444580078,2.5025393962860107
1475754381206,-0.14484919607639313,-17.060482025146484,2.823961019515991
1475754381388,3.3740286827087402,-8.004414558410645,-0.5237316489219666
1475754381567,1.4712369441986084,-7.83921480178833,-0.6613982319831848
1475754381747,3.515286684036255,-8.628703117370605,-0.22505496442317963
1475754381928,2.9161376953125,-13.316550254821777,-0.9965864419937134
1475754382108,3.0400376319885254,-10.547057151794434,3.3303346633911133
1475754382288,2.8125884532928467,-12.187085151672363,0.9385270476341248
1475754382469,0.6356605291366577,-6.2398881912231445,1.713649868965149
1475754382647,-6.038176536560059,-4.247313976287842,4.4723687171936035
1475754382829,8.133103370666504,-6.666056156158447,4.226364612579346
1475754383009,0.8702923059463501,-5.499481201171875,-0.4985924959182739
1475754383189,0.9379284977912903,-8.159439086914063,-2.667739152908325
1475754383370,-0.03292027488350868,-12.441469192504883,-1.933916449546814
1475754383550,5.315726280212402,-11.442488670349121,-4.914099216461182
1475754383727,0.36152446269989014,-13.598466873168945,-2.5037364959716797
1475754383911,3.113060712814331,-5.8616042137146,1.0947487354278564
1475754384091,-1.2922704219818115,-6.536769390106201,4.87639045715332
1475754384269,3.6547489166259766,-5.530605792999268,-0.7194576263427734
1475754384451,3.870227098464966,-10.421361923217773,-0.7200561761856079
1475754384630,1.1085153818130493,-9.056666374206543,-2.098517894744873
1475754384812,2.559401512145996,-9.311050415039063,0.3878606855869293
1475754384991,5.343858242034912,-12.807183265686035,2.0590133666992188
1475754385169,0.861314058303833,-9.571419715881348,0.5398924946784973
1475754385352,3.529053211212158,-8.49941635131836,1.2713210582733154
1475754385532,0.4854243993759155,-5.8209028244018555,2.694075345993042
1475754385709,-1.1671733856201172,-5.905298709869385,2.738966703414917
1475754385892,-0.4728548228740692,-14.040796279907227,-0.1933317929506302
1475754386079,0.09277531504631042,-10.656591415405273,-0.2082955539226532
1475754386250,2.738368272781372,-8.838793754577637,0.3758896589279175
1475754386433,2.035670042037964,-9.510966300964355,-0.44352585077285767
1475754386611,3.2309751510620117,-12.86703872680664,-2.0871453285217285
1475754386793,0.8619126081466675,-9.893440246582031,0.5578489899635315
1475754386973,1.913565754890442,-9.308655738830566,0.7733271718025208
1475754387151,-0.30705636739730835,-6.6391215324401855,2.5492262840270996
1475754387333,-1.6382324695587158,-6.831255912780762,3.5188779830932617
1475754387514,0.9570821523666382,-12.953827857971191,0.9522937536239624
1475754387691,0.20350714027881622,-11.25454330444336,0.7852981686592102
1475754387874,3.0107085704803467,-7.51779317855835,0.010773907415568829
1475754388052,2.270900249481201,-9.154829025268555,-1.2856862545013428
1475754388232,2.890399932861328,-12.9927339553833,-3.2118215560913086
1475754388414,4.123414039611816,-9.549273490905762,2.9281086921691895
1475754388594,2.7976245880126953,-8.480860710144043,1.6735470294952393
1475754388809,-0.884058952331543,-5.452794551849365,1.8608932495117188
1475754388955,-2.562992811203003,-12.148179054260254,1.7872716188430786
1475754389133,0.2890998423099518,-9.958083152770996,0.8732850551605225
1475754389315,0.38067805767059326,-9.165602684020996,0.6302735805511475
1475754389495,1.1318588256835938,-9.366117477416992,-0.9463081955909729
1475754389676,2.609679937362671,-11.328165054321289,-0.20530278980731964
1475754389856,2.1948843002319336,-9.583391189575195,0.690727174282074
1475754390039,-0.42616790533065796,-11.617264747619629,5.884947776794434
1475754390214,1.094150185585022,-6.165069580078125,1.8369512557983398
1475754390398,-0.33758243918418884,-4.626794815063477,2.4187421798706055
1475754390578,2.9694087505340576,-10.253767013549805,0.535702645778656
1475754390754,-0.25917232036590576,-10.169371604919434,0.3645172119140625
1475754390936,1.7088614702224731,-9.624691009521484,0.3555389642715454
1475754391117,2.3977930545806885,-10.54645824432373,-0.1496376097202301
1475754391294,3.5721490383148193,-11.79024600982666,2.801215887069702
1475754391477,1.4832079410552979,-10.657190322875977,2.427720546722412
1475754391657,0.37469255924224854,-5.673060894012451,1.3748703002929688
1475754391837,-4.003703594207764,-4.674678802490234,4.674678802490234
1475754392017,-8.967482566833496,-19.608510971069336,6.831854343414307
1475754392198,-0.2214636504650116,-8.727463722229004,-0.2944868206977844
1475754392377,-0.7445967197418213,-8.470087051391602,1.0115501880645752
1475754392558,1.0648212432861328,-9.125499725341797,-1.0480618476867676
1475754392736,-0.37409400939941406,-11.766304016113281,0.19632454216480255
1475754392918,7.13891077041626,-13.84147834777832,-4.055777549743652
1475754393097,3.620033025741577,-4.739322185516357,0.9205705523490906
1475754393275,-4.48134708404541,-9.062053680419922,8.846575736999512
1475754393458,1.4742296934127808,-19.608510971069336,0.3531447649002075
1475754393639,1.3527239561080933,-12.333131790161133,2.2876596450805664
1475754393817,-0.37169981002807617,-10.19151782989502,-1.8477251529693604
1475754393999,2.5450363159179688,-12.760496139526367,-1.5418659448623657
1475754394180,3.4745852947235107,-9.835979461669922,-0.9774328470230103
1475754394357,3.180696964263916,-7.44297456741333,1.9812018871307373
1475754394540,-3.0184898376464844,-5.594650745391846,3.245939016342163
1475754394725,-0.04967968538403511,-7.694365501403809,2.807800054550171
1475754394900,3.178901195526123,-9.090784072875977,-0.6596025824546814
1475754395080,3.777451753616333,-7.690774440765381,0.3860650360584259
1475754395258,1.5490485429763794,-10.483012199401855,-1.136048674583435
1475754395439,3.405153274536133,-10.721235275268555,-1.2419921159744263
1475754395619,1.7274165153503418,-9.41519832611084,-2.1104888916015625
1475754395798,2.693476915359497,-7.313088893890381,2.100313425064087
1475754395981,-2.0841526985168457,-4.332906723022461,2.9520506858825684
1475754396161,-1.1480196714401245,-9.617507934570313,-0.03711012750864029
1475754396341,1.4113819599151611,-8.9064302444458,-0.05686229094862938
1475754396522,2.4145524501800537,-7.206547260284424,1.3102269172668457
1475754396702,2.497750997543335,-9.349956512451172,0.043095629662275314
1475754396882,3.934870481491089,-12.298415184020996,-2.8640637397766113
1475754397062,1.6723499298095703,-11.373655319213867,2.846705913543701
1475754397245,2.387019157409668,-8.722675323486328,1.8465280532836914
1475754397421,0.5536591410636902,-6.607996463775635,1.965639591217041
1475754397604,-2.628833532333374,-6.514024257659912,3.775057554244995
1475754397780,2.430713176727295,-11.222222328186035,1.1414356231689453
1475754397963,0.3076549172401428,-10.120290756225586,0.4794389009475708
1475754398143,2.983175277709961,-9.281123161315918,0.5542576909065247
1475754398320,2.589329242706299,-10.383652687072754,-1.136048674583435
1475754398502,4.902127742767334,-11.07138729095459,2.455852508544922
1475754398684,1.4012064933776855,-10.52670669555664,4.005499362945557
1475754398862,0.20290859043598175,-7.312490463256836,1.7860745191574097
1475754399044,-1.316810965538025,-4.799776077270508,1.4915876388549805
1475754399222,2.431311845779419,-10.074800491333008,0.9552865028381348
1475754399402,-0.7068880796432495,-10.973823547363281,-0.38965633511543274
1475754399585,1.9536685943603516,-8.971672058105469,0.1586158573627472
1475754399766,2.051830768585205,-9.476848602294922,-0.3627215623855591
1475754399946,2.563591480255127,-11.561599731445313,-0.13587094843387604
1475754400125,-0.6494272351264954,-10.821791648864746,-2.500145196914673
1475754400303,1.0923545360565186,-9.145252227783203,1.6615760326385498
1475754400486,-0.8984242081642151,-2.5276784896850586,2.5336639881134033
1475754400666,-4.228758811950684,-6.517615795135498,6.764218330383301
1475754400843,2.2906525135040283,-16.69536781311035,-0.5650315880775452
1475754401025,-1.4383167028427124,-8.897452354431152,1.8495208024978638
1475754401207,1.459265947341919,-9.488221168518066,0.7368155717849731
1475754401386,-0.46746787428855896,-11.912949562072754,4.726752758026123
1475754401568,4.647744178771973,-10.718242645263672,-3.3931822776794434
1475754401747,1.1869255304336548,-13.57632064819336,-0.5560533404350281
1475754401927,1.3102269172668457,-4.5406036376953125,1.6699557304382324
1475754402109,-0.8834604024887085,-6.530783653259277,5.601833343505859
1475754402320,1.8926163911819458,-9.50617790222168,-1.1617863178253174
1475754402467,2.6150667667388916,-15.316307067871094,-1.2856862545013428
1475754402647,1.7130513191223145,-8.943540573120117,-1.1725603342056274
1475754402825,2.142810583114624,-11.368866920471191,0.09277531504631042
1475754403008,3.869628429412842,-10.43931770324707,1.5885528326034546
1475754403188,-1.20368492603302,-11.595717430114746,7.243657112121582
1475754403367,-0.3585317134857178,-8.525752067565918,2.382230758666992
1475754403548,0.30945056676864624,-4.520252704620361,3.0400376319885254
1475754403728,2.337938070297241,-3.6116533279418945,-0.4165911078453064
1475754403908,0.2819172441959381,-10.354323387145996,0.4118026793003082
1475754404089,1.7244237661361694,-9.39903736114502,0.44831427931785583
1475754404269,1.4502876996994019,-10.565013885498047,-0.09816227108240128
1475754404447,3.2830491065979004,-11.552022933959961,0.2585737705230713
1475754404627,1.0324994325637817,-10.166977882385254,0.8194155097007751
1475754404807,2.583942174911499,-8.358757019042969,-0.23523031175136566
1475754404989,0.19033902883529663,-6.797737121582031,1.8596961498260498
1475754405170,-1.778891921043396,-7.666832447052002,5.450400352478027
1475754405347,0.8523358106613159,-11.226411819458008,0.40880993008613586
1475754405529,2.3535003662109375,-9.500192642211914,0.12389993667602539
1475754405711,1.1354501247406006,-9.376891136169434,-0.2777273952960968
1475754405888,1.8381483554840088,-10.741585731506348,-0.8289923667907715
1475754406071,5.058948040008545,-10.355521202087402,2.719813108444214
1475754406251,2.8592753410339355,-9.443329811096191,0.4854243993759155
1475754406431,0.8319851160049438,-8.070255279541016,1.8908207416534424
1475754406611,-0.4339490532875061,-5.767632007598877,3.4374752044677734
1475754406791,1.0372878313064575,-14.769830703735352,3.706224203109741
1475754406971,4.092289447784424,-8.289923667907715,-0.4704606235027313
1475754407151,1.7286136150360107,-7.860762596130371,-1.0743980407714844
1475754407335,2.5504233837127686,-8.635885238647461,-2.0219032764434814
1475754407512,1.6873136758804321,-9.998785018920898,-0.6937199234962463
1475754407692,3.732560396194458,-11.8225679397583,1.7369933128356934
1475754407870,1.3401544094085693,-9.292495727539063,-3.582324266433716
1475754408049,3.2806549072265625,-8.094796180725098,0.9953893423080444
1475754408232,-0.9540894031524658,-6.366780757904053,2.3786394596099854
1475754408410,-2.5947160720825195,-9.634865760803223,7.142502307891846
1475754408592,-0.3663128614425659,-11.959635734558105,1.6675615310668945
1475754408771,-0.38067805767059326,-9.777320861816406,0.25318682193756104
1475754408952,2.1140801906585693,-8.195352554321289,-1.1222820281982422
1475754409134,2.3953988552093506,-9.191340446472168,-1.4293384552001953
1475754409314,2.276287317276001,-10.277709007263184,-0.406415730714798
1475754409494,2.3259668350219727,-11.812392234802246,0.04369417950510979
1475754409674,2.492962598800659,-8.3521728515625,-2.2649147510528564
1475754409853,-0.02274491637945175,-9.142857551574707,1.974617838859558
1475754410036,-0.8529343605041504,-4.1210198402404785,2.8347349166870117
1475754410215,-3.6822822093963623,-6.054935932159424,5.6910176277160645
1475754410397,0.7044938206672668,-0.17717093229293823,-0.6039373874664307
1475754410576,0.7433996200561523,-6.45357084274292,-0.2537853717803955
1475754410755,0.606930136680603,-10.313023567199707,0.973242998123169
1475754410932,0.9534908533096313,-9.221267700195313,-0.5135562419891357
1475754411116,-1.0749965906143188,-10.651205062866211,0.8122329115867615
1475754411296,3.336320161819458,-10.660781860351563,-1.259350061416626
1475754411476,1.3012486696243286,-12.911930084228516,-1.6178817749023438
1475754411655,-1.058835744857788,-6.633734226226807,2.4630351066589355
1475754411836,-6.968324184417725,-15.776592254638672,9.525930404663086
1475754412017,-0.9540894031524658,-10.988188743591309,1.1109095811843872
1475754412196,0.9672574996948242,-10.855310440063477,1.1504138708114624
1475754412375,1.688510775566101,-10.381856918334961,1.8525135517120361
1475754412555,1.4987702369689941,-9.335591316223145,-0.7703344225883484
1475754412737,3.3291375637054443,-12.351686477661133,0.6607996821403503
1475754412914,2.8616695404052734,-8.487444877624512,-1.3275848627090454
1475754413098,2.3032219409942627,-7.350199222564697,2.2643163204193115
1475754413277,-0.36810851097106934,-5.229535102844238,2.760514497756958
1475754413456,-3.5895068645477295,-13.781024932861328,2.4666264057159424
1475754413636,0.679354727268219,-8.378508567810059,1.062427043914795
1475754413817,0.7152677774429321,-9.27334213256836,0.22744916379451752
1475754413998,3.0998926162719727,-8.600570678710938,0.7026981711387634
1475754414177,2.1978771686553955,-10.362703323364258,-1.103128433227539
1475754414358,3.3865983486175537,-10.596736907958984,1.5670050382614136
1475754414537,1.334767460823059,-9.929951667785645,-1.4059948921203613
1475754414718,1.2168530225753784,-8.54909610748291,1.6065093278884888
1475754414896,-0.6985083222389221,-5.70777702331543,2.390610456466675
1475754415079,-2.1493945121765137,-16.20694923400879,-0.2256535142660141
1475754415259,3.3865983486175537,-7.999027729034424,-0.8277952671051025
1475754415436,2.8868086338043213,-8.349180221557617,0.22206220030784607
1475754415618,3.0358476638793945,-8.853158950805664,-0.3555389642715454
1475754415799,2.233790159225464,-9.476848602294922,-1.359906554222107
1475754415978,4.082113742828369,-11.259331703186035,-0.39624038338661194
1475754416160,2.5755624771118164,-10.471040725708008,2.853888511657715
1475754416341,0.9343371987342834,-10.94808578491211,3.6080620288848877
1475754416518,-0.008978256024420261,-8.966883659362793,1.9291280508041382
1475754416700,-1.3569138050079346,-6.121973514556885,2.6587610244750977
1475754416888,0.4513070285320282,-12.431892395019531,6.059125900268555
1475754417061,2.072181463241577,-8.106766700744629,-0.8194155097007751
1475754417240,1.4867992401123047,-8.928576469421387,-1.4658499956130981
1475754417420,2.849100112915039,-8.291120529174805,-0.9756371974945068
1475754417601,2.006340980529785,-9.732429504394531,-1.502361536026001
1475754417781,3.4536359310150146,-12.275671005249023,-0.5165489912033081
1475754417959,2.3798365592956543,-10.524910926818848,2.934094190597534
1475754418141,2.721608877182007,-8.148665428161621,2.6647465229034424
1475754418322,-1.304241418838501,-9.546280860900879,1.5131354331970215
1475754418500,-1.5658079385757446,-5.78798246383667,3.1848866939544678
1475754418681,-1.1390414237976074,-13.232752799987793,5.542576789855957
1475754418862,3.0615854263305664,-6.593631267547607,0.06165069341659546
1475754419041,1.1749545335769653,-8.990825653076172,-0.3016694188117981
1475754419221,2.5312697887420654,-9.27453899383545,0.40701428055763245
1475754419407,2.853888511657715,-9.551667213439941,-0.729034423828125
1475754419579,2.938283920288086,-13.211803436279297,-0.5542576909065247
1475754419759,0.42377370595932007,-8.636484146118164,-4.735132217407227
1475754419941,2.492962598800659,-8.60775375366211,-0.889445960521698
1475754420119,-0.2585737705230713,-3.7403416633605957,2.213439464569092
1475754420303,-4.783016681671143,-8.375515937805176,6.677428722381592
1475754420480,2.7676970958709717,-7.218518257141113,9.418190956115723
1475754420663,-1.4838064908981323,-9.81263542175293,2.1571757793426514
1475754420842,-1.9195512533187866,-9.179967880249023,-1.446696400642395
1475754421024,-0.6518214344978333,-9.080010414123535,-1.7004817724227905
1475754421202,2.783858060836792,-12.558186531066895,1.4664485454559326
1475754421385,-0.811634361743927,-15.631144523620605,-1.5490485429763794
1475754421566,3.3488895893096924,-7.052121162414551,-0.10594342648983002
1475754421746,-4.426280498504639,-5.931035995483398,2.7886464595794678
1475754421930,-0.3100491166114807,-12.734758377075195,0.3992331326007843
1475754422107,2.5791537761688232,-10.776301383972168,-1.125873327255249
1475754422286,1.7262194156646729,-8.966883659362793,-0.921169102191925
1475754422485,1.6651673316955566,-9.510367393493652,-0.04489128291606903
1475754422645,3.558980941772461,-11.838129997253418,-2.25473952293396
1475754422825,3.8121676445007324,-9.106346130371094,1.8010382652282715
1475754423003,4.439448356628418,-9.096769332885742,5.535394191741943
1475754423186,0.6159083843231201,-8.24503231048584,1.1965023279190063
1475754423366,-1.5933412313461304,-6.898892402648926,2.2457611560821533
1475754423547,1.6023194789886475,-7.393893241882324,3.9258923530578613
1475754423727,3.8355112075805664,-8.526350975036621,-0.5213374495506287
1475754423910,3.0334534645080566,-8.346187591552734,-0.30466216802597046
1475754424087,2.40736985206604,-9.494805335998535,-1.0402805805206299
1475754424267,1.1510124206542969,-9.697115898132324,-1.5783774852752686
1475754424445,2.5318682193756104,-11.653178215026855,-1.9357120990753174
1475754424626,2.4229321479797363,-9.30686092376709,0.6141127347946167
1475754424806,2.8227639198303223,-7.70274543762207,2.008735179901123
1475754424985,-0.25917232036590576,-8.91540813446045,1.8710685968399048
1475754425167,-2.0159177780151367,-6.733692169189453,2.6557681560516357
1475754425348,-4.124610900878906,-14.532804489135742,0.9882067441940308
1475754425526,0.8421604633331299,-8.004414558410645,0.4776432514190674
1475754425709,1.3886369466781616,-9.865906715393066,-0.43993455171585083
1475754425889,2.961029052734375,-8.543708801269531,-0.07721300423145294
1475754426069,2.5097219944000244,-9.445724487304688,-0.8738836050033569
1475754426248,2.479794502258301,-10.380061149597168,-1.1953052282333374
1475754426430,2.293046712875366,-10.119093894958496,0.17058686912059784
1475754426609,1.161187767982483,-8.677783966064453,-2.1308395862579346
1475754426789,1.9333178997039795,-9.992799758911133,3.0813376903533936
1475754426969,-0.24420857429504395,-7.12035608291626,2.430713176727295
1475754427149,-1.878849744796753,-6.484096527099609,2.7754783630371094
1475754427330,0.547075092792511,-5.726930618286133,-0.38486793637275696
1475754427506,2.33913516998291,-10.411186218261719,-0.19153612852096558
1475754427690,2.9969420433044434,-8.616133689880371,0.7422025203704834
1475754427870,2.4145524501800537,-8.954314231872559,-0.7416039705276489
1475754428048,2.233790159225464,-9.533112525939941,0.6625953316688538
1475754428231,3.8815994262695313,-12.787431716918945,-1.0708067417144775
1475754428411,3.79840087890625,-10.220847129821777,4.217386245727539
1475754428591,1.8668787479400635,-8.927379608154297,3.8367083072662354
1475754428772,-0.5518634915351868,-8.284536361694336,2.1978771686553955
1475754428952,-1.1994950771331787,-6.426037311553955,3.337517261505127
1475754429129,-3.268085241317749,-11.98597240447998,2.320580005645752
1475754429312,1.789067268371582,-7.730278968811035,1.7304092645645142
1475754429490,1.9165585041046143,-9.537900924682617,0.6159083843231201
1475754429671,2.1990742683410645,-8.544307708740234,0.11312603205442429
1475754429852,0.6332663297653198,-9.403226852416992,-2.1553800106048584
1475754430030,2.5701754093170166,-11.017518043518066,-1.6394295692443848
1475754430212,1.6765397787094116,-10.235212326049805,0.10055647045373917
1475754430393,-1.4927847385406494,-13.03164005279541,5.05715274810791
1475754430570,-0.2388216257095337,-7.289745807647705,2.011728048324585
1475754430753,-2.6366145610809326,-2.9724013805389404,3.6170401573181152
1475754430933,2.165555477142334,-5.245696067810059,8.630498886108398
1475754431113,1.1689690351486206,-16.95573616027832,-1.6496049165725708
1475754431291,-1.9626468420028687,-11.949460983276367,2.1045033931732178
1475754431474,1.6927006244659424,-8.590993881225586,-1.6166846752166748
1475754431656,-0.7104793787002563,-14.901511192321777,1.5622166395187378
1475754431834,2.1697452068328857,-9.816226959228516,-1.3012486696243286
1475754432015,6.445190906524658,-12.994529724121094,-1.9548656940460205
1475754432194,0.5542576909065247,-5.392340660095215,1.0480618476867676
1475754432375,-1.1222820281982422,-18.228254318237305,0.3100491166114807
1475754432554,1.6615760326385498,-6.14950704574585,-0.3292027413845062
1475754432735,-1.2282254695892334,-8.648454666137695,0.023942016065120697
1475754432916,2.381632089614868,-9.113529205322266,-1.245583415031433
1475754433093,2.8844144344329834,-10.047865867614746,-0.043095629662275314
1475754433276,3.5422213077545166,-10.280701637268066,0.39205053448677063
1475754433456,1.6831238269805908,-8.832808494567871,-1.3563152551651
1475754433634,1.613093376159668,-8.40963363647461,2.2020668983459473
1475754433816,-0.1346738487482071,-6.539762020111084,2.2170307636260986
1475754433996,-3.6517560482025146,-14.34366226196289,-5.985504249110818E-4
1475754434176,1.8770540952682495,-7.86734676361084,0.4141969084739685
1475754434356,-0.016759412363171577,-9.706692695617676,0.2017114907503128
1475754434536,2.9029695987701416,-9.1847562789917,0.44592007994651794
1475754434718,1.4317326545715332,-9.800065994262695,-1.6388310194015503
1475754434897,3.4141316413879395,-11.232995986938477,0.6356605291366577
1475754435075,2.122459888458252,-9.44991397857666,0.8864531517028809
1475754435257,2.7293899059295654,-8.605359077453613,1.215057373046875
1475754435437,0.2885012924671173,-7.575852870941162,2.2373814582824707
1475754435616,-1.9039889574050903,-5.626972675323486,1.9728221893310547
1475754435798,-0.15322890877723694,-11.043853759765625,0.6877344250679016
1475754435979,1.581370234489441,-10.913370132446289,0.0071826050989329815
1475754436158,0.8319851160049438,-8.822632789611816,-0.3884592354297638
1475754436338,2.565387010574341,-9.123703956604004,-0.619499683380127
1475754436517,2.9891607761383057,-12.454038619995117,-1.4574702978134155
1475754436699,2.9059622287750244,-10.416572570800781,3.8923733234405518
1475754436879,2.8131868839263916,-9.7605619430542,5.648520469665527
1475754437057,0.6189011335372925,-8.458115577697754,1.7818846702575684
1475754437238,-1.0947487354278564,-6.1070098876953125,2.2254104614257813
1475754437419,0.9349357485771179,-5.822698593139648,-0.2867056429386139
1475754437597,1.2300211191177368,-9.860519409179688,0.23582886159420013
1475754437778,0.7092822790145874,-9.289502143859863,-0.6871358752250671
1475754437960,2.6366145610809326,-9.481637001037598,0.32022446393966675
1475754438137,2.1775264739990234,-11.734580993652344,-0.8846575021743774
1475754438320,3.5709519386291504,-9.95209789276123,1.5610195398330688
1475754438498,0.9522937536239624,-10.985196113586426,4.107851505279541
1475754438681,-0.5997475385665894,-8.972270965576172,1.4844050407409668
1475754438861,-1.7004817724227905,-5.889736175537109,2.250549554824829
1475754439042,-0.04668693244457245,-13.922881126403809,6.405087947845459
1475754439221,2.24935245513916,-9.668983459472656,-0.5746083855628967
1475754439399,2.0177135467529297,-8.653243064880371,-0.9582792520523071
1475754439583,2.8993782997131348,-9.006388664245605,-0.6165069341659546
1475754439761,1.7537527084350586,-9.710283279418945,-0.4572925269603729
1475754439941,2.544437885284424,-12.146982192993164,2.4151508808135986
1475754440119,-0.15442600846290588,-11.922526359558105,-3.5901055335998535
1475754440302,1.0546458959579468,-7.976881504058838,0.5626373887062073
1475754440482,-3.269881010055542,-3.069366693496704,3.2986114025115967
1475754440658,0.02513911761343479,-5.510255336761475,12.022483825683594
1475754440842,-0.40880993008613586,-12.858658790588379,0.055665191262960434
1475754441022,-0.6584054827690125,-6.903680801391602,-0.46986207365989685
1475754441201,2.7024552822113037,-8.983044624328613,-0.9882067441940308
1475754441383,-2.160168409347534,-13.093889236450195,0.4800374507904053
1475754441565,1.2204443216323853,-11.959037780761719,0.1364694982767105
1475754441742,1.9841946363449097,-10.645218849182129,-0.5392939448356628
1475754441923,-2.3696610927581787,-4.931457042694092,2.275090217590332
1475754442104,4.809352874755859,-3.7223851680755615,-0.9522937536239624
1475754442284,5.844844818115234,-8.580220222473145,-0.5746083855628967
1475754442462,1.1103110313415527,-9.403226852416992,-0.35434186458587646
1475754442642,2.057217836380005,-9.454702377319336,-0.8900445103645325
1475754442824,4.072536945343018,-11.727398872375488,-1.701080322265625
1475754443002,2.7030537128448486,-7.612364292144775,0.4297592043876648
1475754443182,3.4380736351013184,-8.427590370178223,2.717418909072876
1475754443365,-0.011372458189725876,-8.724471092224121,1.3563152551651
1475754443547,-1.3940238952636719,-6.598419666290283,2.580350875854492
1475754443725,0.1149216815829277,-7.26221227645874,1.7717092037200928
1475754443905,3.6595373153686523,-9.50857162475586,-0.7158663272857666
1475754444085,1.7609353065490723,-8.701127052307129,-1.5951368808746338
1475754444266,3.1064767837524414,-8.674192428588867,-0.6320692300796509
1475754444446,2.983175277709961,-10.688913345336914,-0.70090252161026
1475754444639,3.5003228187561035,-9.102754592895508,0.1801636815071106
1475754444807,1.7830817699432373,-9.023147583007813,-0.8792705535888672
1475754444987,0.8732850551605225,-9.256582260131836,2.2631192207336426
1475754445164,-0.19931729137897491,-6.1991868019104,2.1098902225494385
1475754445347,-0.4231751561164856,-12.734758377075195,1.4856021404266357
1475754445527,2.6186580657958984,-10.8505220413208,-1.692102074623108
1475754445704,2.209848165512085,-7.430405139923096,-0.9666589498519897
1475754445887,2.76350736618042,-9.148244857788086,-1.0462661981582642
1475754446067,2.564788579940796,-9.807249069213867,-0.9828197956085205
1475754446246,3.001131772994995,-10.770316123962402,0.023343466222286224
1475754446428,2.036268472671509,-9.305065155029297,-0.10115502029657364
1475754446607,2.2146365642547607,-9.102156639099121,1.7812861204147339
1475754446788,0.015562310814857483,-6.5044474601745605,2.0859482288360596
1475754446968,-3.3494882583618164,-9.426570892333984,5.5760955810546875
1475754447147,2.3092074394226074,-10.034697532653809,1.1647791862487793
1475754447328,0.6697779297828674,-9.665990829467773,-0.07422025501728058
1475754447515,1.3365631103515625,-9.188945770263672,-0.6159083843231201
1475754447687,1.7753005027770996,-9.616909980773926,-0.36152446269989014
1475754447869,2.850895643234253,-10.81700325012207,-1.3090298175811768
1475754448048,3.9863457679748535,-8.612542152404785,0.6033388376235962
1475754448228,2.3499090671539307,-9.023147583007813,1.470638394355774
1475754448409,1.14742112159729,-8.678980827331543,2.2876596450805664
1475754448589,-1.0426748991012573,-6.176441669464111,3.006518840789795
1475754448770,-1.6573861837387085,-5.264250755310059,3.552995204925537
1475754448950,-0.44173020124435425,-10.930129051208496,1.670554280281067
1475754449138,1.4879963397979736,-13.64335823059082,0.14425064623355865
1475754449309,1.4520833492279053,-8.812458038330078,0.16639702022075653
1475754449491,2.3235726356506348,-8.836400032043457,-0.739209771156311
1475754449684,2.4875755310058594,-10.399813652038574,-0.645237386226654
1475754449848,2.4833858013153076,-10.359710693359375,2.182913303375244
1475754450031,-0.9163807034492493,-13.57751750946045,-0.5841852426528931
1475754450208,1.5861586332321167,-5.699995517730713,1.1863269805908203
1475754450391,-3.7666778564453125,-5.100846767425537,4.976946830749512
1475754450580,4.614225387573242,-12.301408767700195,12.137405395507813
1475754450751,-3.098097085952759,-6.929418087005615,-0.8948329091072083
1475754450932,0.5488707423210144,-9.819818496704102,-1.8884265422821045
1475754451112,0.228047713637352,-9.013570785522461,-1.2779051065444946
1475754451292,-2.874837636947632,-11.16236686706543,-2.0865468978881836
1475754451472,0.35913026332855225,-17.163433074951172,0.67815762758255
1475754451653,0.5201402902603149,-4.677671432495117,1.27191960811615
1475754451832,-5.652111530303955,-14.580089569091797,6.842030048370361
1475754452013,1.4293384552001953,-7.2370734214782715,-0.1215057373046875
1475754452190,1.3000515699386597,-9.838373184204102,2.1344308853149414
1475754452373,1.314416766166687,-9.485827445983887,0.9546879529953003
1475754452553,1.3545196056365967,-10.232219696044922,-0.5351040959358215
1475754452731,3.9432501792907715,-10.235212326049805,1.082777738571167
1475754452913,1.511339783668518,-8.556877136230469,0.17238251864910126
1475754453093,1.5257049798965454,-8.982446670532227,2.1781249046325684
1475754453272,-0.38307225704193115,-5.898116111755371,2.5540146827697754
1475754453454,-3.729567766189575,-10.646416664123535,3.7421371936798096
1475754453632,-0.6596025824546814,-13.68106746673584,1.2054805755615234
1475754453813,1.1288660764694214,-9.712677955627441,-0.5327098965644836
1475754453995,2.1541829109191895,-8.886079788208008,-0.912190854549408
1475754454178,1.8567034006118774,-9.633070945739746,-0.24420857429504395
1475754454354,3.842095136642456,-10.972626686096191,-0.4016273319721222
1475754454536,3.2082302570343018,-8.592191696166992,0.36332011222839355
1475754454712,1.8956091403961182,-8.762179374694824,1.192312479019165
1475754454894,0.2124854028224945,-9.171587944030762,1.5478514432907104
1475754455076,-0.27234044671058655,-5.211578369140625,2.4139537811279297
1475754455253,-2.4851813316345215,-19.599533081054688,3.7618894577026367
1475754455437,2.82515811920166,-8.098387718200684,-1.6603789329528809
1475754455612,3.053205728530884,-8.403648376464844,-0.9169792532920837
1475754455796,3.3680431842803955,-8.876502990722656,0.24001872539520264
1475754455979,2.0404584407806396,-10.128670692443848,-1.0552444458007813
1475754456157,3.0190882682800293,-10.623671531677246,-0.07062894850969315
1475754456337,1.9345149993896484,-9.627683639526367,-0.30705636739730835
1475754456517,2.032078742980957,-9.374496459960938,1.434126853942871
1475754456697,0.15981295704841614,-6.320094108581543,2.5695769786834717
1475754456877,-1.8465280532836914,-6.254851818084717,0.7751228213310242
1475754457057,3.199252128601074,-15.078083992004395,2.450465440750122
1475754457235,-0.8966285586357117,-9.848548889160156,-0.4602852761745453
1475754457418,2.1080946922302246,-8.586804389953613,-0.1628057211637497
1475754457598,1.8046295642852783,-9.588777542114258,-1.1959037780761719
1475754457775,3.2160115242004395,-11.604097366333008,-1.978209137916565
1475754457958,3.5494039058685303,-9.838972091674805,2.9676129817962646
1475754458138,2.276885747909546,-9.1045503616333,3.2609026432037354
1475754458319,-0.406415730714798,-8.772355079650879,1.6274585723876953
1475754458499,-1.4634557962417603,-5.965752124786377,2.6862943172454834
1475754458681,2.0883424282073975,-8.667010307312012,2.890399932861328
1475754458858,1.5430630445480347,-9.998785018920898,-2.609081268310547
1475754459082,2.5133132934570313,-8.708909034729004,-1.8034324645996094
1475754459217,1.0330979824066162,-9.96825885772705,0.2932897210121155
1475754459399,3.399167776107788,-11.396998405456543,-0.6661866307258606
1475754459578,2.0608091354370117,-10.522516250610352,2.094327926635742
1475754459757,-3.1525650024414063,-14.923657417297363,2.411559581756592
1475754459941,-0.002992752008140087,-7.969698905944824,1.8668787479400635
1475754460120,-4.2096052169799805,-3.201047658920288,3.974973440170288
1475754460298,-6.27400541305542,-17.444751739501953,13.344681739807129
1475754460481,0.5333084464073181,-6.185420036315918,-1.8872294425964355
1475754460661,1.3533225059509277,-7.313088893890381,0.70090252161026
1475754460841,2.7281928062438965,-8.29590892791748,-1.581370234489441
1475754461021,-0.39145198464393616,-10.952874183654785,1.2180501222610474
1475754461202,5.007472991943359,-13.246519088745117,-3.292027235031128
1475754461383,7.406463146209717,-10.202890396118164,-4.395754337310791
1475754461561,-0.7158663272857666,-4.937442302703857,2.161964178085327
1475754461739,2.2691047191619873,-18.85852813720703,1.2838906049728394
1475754461922,2.475006103515625,-4.8931498527526855,-0.6943184733390808
1475754462100,2.0596120357513428,-8.759186744689941,0.22924481332302094
1475754462279,2.4199392795562744,-8.537723541259766,1.0947487354278564
1475754462463,1.6502034664154053,-10.975020408630371,-1.7938556671142578
1475754462642,3.1046810150146484,-9.336788177490234,0.9367313981056213
1475754462820,2.2433669567108154,-9.75936508178711,3.4841620922088623
1475754463001,0.7864952683448792,-8.592789649963379,2.410961151123047
1475754463182,-1.3832499980926514,-5.620388507843018,2.30022931098938
1475754463361,-4.243722438812256,-17.515380859375,-2.0602104663848877
1475754463543,1.2210428714752197,-6.497264862060547,-0.49320554733276367
1475754463721,2.3523032665252686,-8.728660583496094,-0.4950011968612671
1475754463902,2.2625205516815186,-9.028534889221191,-0.27054479718208313
1475754464080,0.6613982319831848,-10.069414138793945,-1.845929503440857
1475754464262,3.5709519386291504,-11.54124927520752,-1.6077064275741577
1475754464445,1.833359956741333,-10.149619102478027,1.8997989892959595
1475754464625,3.1872811317443848,-8.687959671020508,1.1426327228546143
1475754464802,0.10235211998224258,-8.895057678222656,1.6166846752166748
1475754464984,-2.0691888332366943,-5.6227827072143555,3.1046810150146484
1475754465165,-0.6973112225532532,-6.397905349731445,-0.6805518269538879
1475754465344,0.8864531517028809,-10.474632263183594,-0.7158663272857666
1475754465525,1.6819267272949219,-9.388861656188965,-0.17178396880626678
1475754465703,2.342726469039917,-9.042900085449219,-0.4357447028160095
1475754465886,2.7988216876983643,-10.072406768798828,-0.07661445438861847
1475754466063,3.5212721824645996,-10.489596366882324,0.08379705995321274
1475754466246,1.035492181777954,-9.042301177978516,-1.171961784362793
1475754466427,3.154360771179199,-8.158841133117676,2.319981336593628
1475754466606,0.5159504413604736,-7.375936985015869,2.2224178314208984
1475754466784,-0.9690531492233276,-4.963180065155029,2.16495680809021
1475754466967,0.5440823435783386,-13.475165367126465,1.9734207391738892
1475754467147,1.2120646238327026,-10.015543937683105,0.41359832882881165
1475754467324,1.0402805805206299,-9.53969669342041,-1.3539210557937622
1475754467534,2.3026235103607178,-9.55585765838623,-1.1617863178253174
1475754467687,1.823184609413147,-10.481216430664063,-1.468244194984436
1475754467866,2.7688941955566406,-10.087968826293945,-0.6350619792938232
1475754468047,1.8453309535980225,-8.600570678710938,-1.447893500328064
1475754468228,3.0310592651367188,-9.937732696533203,2.786850690841675
1475754468408,-0.0035913025494664907,-7.834426403045654,2.476203203201294
1475754468588,-2.4414870738983154,-5.9735331535339355,2.9939491748809814
1475754468771,-0.3106476664543152,-9.588179588317871,4.411316394805908
1475754468949,2.164358377456665,-8.148665428161621,-0.49140989780426025
1475754469128,1.0558429956436157,-9.66299819946289,-1.3419500589370728
1475754469307,1.941697597503662,-9.365518569946289,0.12449848651885986
1475754469488,1.9548656940460205,-9.512163162231445,0.09935937076807022
1475754469669,2.6671407222747803,-10.62427043914795,-0.6374561786651611
1475754469847,2.671330451965332,-9.712079048156738,0.456095427274704
1475754470029,0.6278793811798096,-9.721057891845703,2.1362264156341553
1475754470209,0.16101007163524628,-8.215105056762695,1.533486247062683
1475754470389,-1.3467384576797485,-2.765302896499634,2.9215245246887207
1475754470570,-2.5264813899993896,-6.305728912353516,5.12000036239624
1475754470750,0.04010287672281265,-19.561824798583984,1.5286977291107178
1475754470928,-1.4335283041000366,-10.153809547424316,1.9177556037902832
1475754471110,0.7116764783859253,-9.107542991638184,0.2472013235092163
1475754471290,1.9800047874450684,-10.593744277954102,2.25473952293396
1475754471471,2.760514497756958,-13.13758373260498,-2.186504602432251
1475754471651,8.477270126342773,-13.905523300170898,-3.401561975479126
1475754471828,1.478419542312622,-5.649717330932617,1.644816517829895
1475754472011,-3.9624037742614746,-5.819705963134766,4.194042682647705
1475754472191,-1.653794765472412,-15.69997787475586,0.7858967185020447
1475754472369,0.9062053561210632,-12.532448768615723,0.8684966564178467
1475754472551,1.834557056427002,-9.747393608093262,-0.4537012279033661
1475754472734,0.8493430614471436,-11.530475616455078,-1.1198878288269043
1475754472911,3.3961751461029053,-9.278728485107422,-0.3130418658256531
1475754473091,2.100912094116211,-10.123882293701172,1.3215993642807007
1475754473272,0.4572925269603729,-8.507795333862305,2.1344308853149414
1475754473453,-0.8595184087753296,-6.014833450317383,3.0819361209869385
1475754473633,-3.6326024532318115,-17.31965446472168,0.4495113790035248
1475754473849,3.7636849880218506,-6.700771808624268,-0.353743314743042
