timestamp,ax,ay,az
1481637051187,7.293323516845703,6.290730953216553,-6.673582077026367
1481637051400,8.025527954101562,7.432106971740723,3.0340991020202637
1481637051652,6.527620315551758,7.188039302825928,1.2083754539489746
1481637051881,3.34995174407959,9.628718376159668,4.713860511779785
1481637052102,10.590633392333984,3.5222349166870117,-3.7160534858703613
1481637052319,10.552348136901855,3.28773832321167,-1.4620146751403809
1481637052587,8.499305725097656,1.7539390325546265,-2.3330020904541016
1481637052797,8.662017822265625,2.5674986839294434,-2.5292134284973145
1481637052999,9.796216011047363,4.469792366027832,-1.8161523342132568
1481637053249,12.232110023498535,2.5603203773498535,-0.10767702758312225
1481637053477,7.776673316955566,2.139183282852173,-0.02153540588915348
1481637053690,8.403593063354492,4.168296813964844,-0.8566305041313171
1481637053900,11.73440170288086,5.733203411102295,-1.2442678213119507
1481637054116,6.69990348815918,1.495514154434204,-0.09571290016174316
1481637054355,7.207180976867676,2.170289993286133,-1.3663017749786377
1481637054595,7.901099681854248,3.414557933807373,-3.1058835983276367
1481637054846,9.958927154541016,3.2063822746276855,-2.9455647468566895
1481637055074,7.6666035652160645,1.8233308792114258,-1.0169496536254883
1481637055300,7.719245910644531,1.6199408769607544,0.3493521213531494
1481637055514,9.628718376159668,2.187039852142334,0.5144568681716919
1481637055752,9.375079154968262,3.2518460750579834,-0.8685945868492126
1481637055992,14.079368591308594,2.909672498703003,-1.277767300605774
1481637056240,6.824329853057861,1.0863415002822876,-1.0193424224853516
1481637056482,8.652446746826172,1.4739787578582764,-2.4287149906158447
1481637056694,8.819944381713867,2.730210542678833,-3.2614171504974365
1481637056908,13.887943267822266,2.4837498664855957,-2.335394859313965
1481637057114,7.800601959228516,1.4165509939193726,-0.15074782073497772
1481637057348,8.934800148010254,2.352144718170166,0.08374878764152527
1481637057587,8.906085968017578,3.2470602989196777,-0.916451096534729
1481637057840,11.887543678283691,2.8761727809906006,-1.0169496536254883
1481637058084,8.461020469665527,1.361515998840332,-0.8901299238204956
1481637058306,8.585447311401367,1.6677974462509155,-1.8664016723632812
1481637058546,8.12123966217041,2.5148565769195557,-2.321038007736206
1481637058787,10.834701538085938,1.5361920595169067,-2.9455647468566895
1481637059035,7.671389579772949,1.7730815410614014,-0.8015955686569214
1481637059281,8.475377082824707,1.3495519161224365,0.8446664214134216
1481637059486,9.499505043029785,3.1896328926086426,-0.22013968229293823
1481637059704,12.753745079040527,1.5649060010910034,-1.5481561422348022
1481637059944,8.240880966186523,0.34217363595962524,-1.3208380937576294
1481637060184,7.451249599456787,1.777867317199707,-1.373480200767517
1481637060432,8.891729354858398,2.266003131866455,-2.744567632675171
1481637060640,12.533604621887207,2.352144718170166,-2.5746772289276123
1481637060877,8.288737297058105,1.428515076637268,0.21296121180057526
1481637061101,7.609175682067871,3.2231321334838867,-0.3493521213531494
1481637061342,9.159724235534668,3.156132936477661,-0.48813584446907043
1481637061582,12.969098091125488,2.967100143432617,-0.49292147159576416
1481637061833,8.264809608459473,0.7417750358581543,-0.9355936050415039
1481637062073,7.724031925201416,0.11246266961097717,-1.8185452222824097
1481637062277,8.824729919433594,1.8161523342132568,-3.1130621433258057
1481637062497,11.552547454833984,1.947757601737976,-2.746960401535034
1481637062741,8.901299476623535,1.0193424224853516,-1.2227323055267334
1481637062972,8.250452041625977,2.2372891902923584,0.24885354936122894
1481637063178,9.891928672790527,2.641676187515259,-0.27756744623184204
1481637063425,8.95394229888916,3.0963122844696045,-0.8733802437782288
1481637063656,11.748759269714355,3.1058835983276367,-1.4452648162841797
1481637063876,7.623533248901367,0.4331009089946747,-0.7585247755050659
1481637064096,7.637890338897705,1.6869399547576904,-1.7706886529922485
1481637064335,8.786444664001465,2.5459630489349365,-1.5960125923156738
1481637064574,10.360921859741211,2.124826431274414,-2.4981069564819336
1481637064825,11.035696983337402,1.2849457263946533,-1.6941183805465698
1481637065056,8.336593627929688,1.4931212663650513,0.3278167247772217
1481637065280,8.733802795410156,1.8089739084243774,-0.30628129839897156
1481637065492,8.528019905090332,2.400001049041748,-0.6819544434547424
1481637065732,9.705288887023926,2.991028308868408,-0.7824530005455017
1481637065934,13.174880981445312,2.2755744457244873,-1.196411371231079
1481637066164,7.719245910644531,0.8015955686569214,-1.031306505203247
1481637066372,7.791030406951904,2.3617160320281982,-1.8664016723632812
1481637066622,8.58066177368164,2.5459630489349365,-2.476571559906006
1481637066850,10.078569412231445,2.2372891902923584,-3.1657044887542725
1481637067055,11.710474014282227,1.3471590280532837,-1.794616937637329
1481637067287,8.465806007385254,1.2490534782409668,-0.2512463629245758
1481637067526,8.365307807922363,1.9381862878799438,-0.8733802437782288
1481637067783,9.212367057800293,2.967100143432617,-0.6747759580612183
1481637068019,12.830314636230469,2.6799612045288086,-1.9597216844558716
1481637068247,7.599604606628418,1.6654045581817627,-0.5742774605751038
1481637068468,7.934599876403809,2.2947168350219727,-1.8903299570083618
1481637068711,8.71466064453125,2.170289993286133,-2.53399920463562
1481637068953,11.361122131347656,2.2396819591522217,-3.3954150676727295
1481637069166,8.078168869018555,1.2299107313156128,-1.0791629552841187
1481637069417,8.599804878234863,1.6271194219589233,-0.4713860750198364
1481637069643,9.198010444641113,2.6153552532196045,-1.3112668991088867
1481637069857,13.921442031860352,1.7635102272033691,-1.6199408769607544
1481637070082,7.331608772277832,1.1772687435150146,-0.607776939868927
1481637070284,8.585447311401367,1.1461620330810547,-2.122433662414551
1481637070520,9.269794464111328,2.1535403728485107,-2.2612173557281494
1481637070723,8.82951545715332,2.0482561588287354,-3.067598581314087
1481637070961,12.820744514465332,2.1032910346984863,-1.428515076637268
1481637071163,8.255237579345703,0.9571290016174316,-0.30149564146995544
1481637071411,8.992227554321289,1.5553346872329712,-0.605384111404419
1481637071642,9.221939086914062,2.263610363006592,-0.49531427025794983
1481637071844,9.791430473327637,2.935993194580078,-1.3423734903335571
1481637072079,12.969098091125488,1.6582260131835938,-1.447657585144043
1481637072281,8.283952713012695,0.7728817462921143,-0.9690931439399719
1481637072520,8.561518669128418,1.8831514120101929,-2.266003131866455
1481637072756,8.757731437683105,2.3641088008880615,-2.194218397140503
1481637072957,8.50887680053711,2.4406790733337402,-2.6057839393615723
1481637073158,11.375478744506836,2.122433662414551,-3.1274189949035645
1481637073409,8.805586814880371,1.6127625703811646,-1.0743772983551025
1481637073637,7.8819580078125,2.1415762901306152,-0.42831525206565857
1481637073876,9.121439933776855,3.060420036315918,-0.7657032012939453
1481637074116,13.14138126373291,2.3162522315979004,-1.5050854682922363
1481637074342,8.202595710754395,1.3543376922607422,-1.4093725681304932
1481637074556,8.063812255859375,1.868794322013855,-1.9884356260299683
1481637074805,8.575876235961914,2.335394859313965,-2.912065029144287
1481637075037,11.499905586242676,2.6727826595306396,-2.431107759475708
1481637075251,8.915657043457031,1.368694543838501,-0.5742774605751038
1481637075472,8.513663291931152,2.4263222217559814,-0.3732803165912628
1481637075675,10.686346054077148,2.8283162117004395,-1.5553346872329712
1481637075911,6.57547664642334,0.6604190468788147,-1.2729815244674683
1481637076112,6.977471351623535,1.3280165195465088,-1.935793399810791
1481637076351,8.652446746826172,2.390429735183716,-2.2468602657318115
1481637076601,10.839487075805664,2.0123636722564697,-2.5052852630615234
1481637076804,8.207381248474121,1.0217353105545044,-1.8616160154342651
1481637077047,7.858029365539551,1.2993026971817017,0.1339980661869049
1481637077267,9.035298347473145,2.1678972244262695,-0.30628129839897156
1481637077469,8.791230201721191,4.058227062225342,-0.7968099117279053
1481637077710,14.026725769042969,6.20219612121582,-0.6891329884529114
1481637077949,7.968099594116211,-1.1485549211502075,-1.2634103298187256
1481637078201,8.853443145751953,2.5986053943634033,-1.4787644147872925
1481637078436,8.685946464538574,3.1992037296295166,-2.289931058883667
1481637078641,7.953742504119873,3.486342430114746,-2.1822540760040283
1481637078866,13.596017837524414,2.3545374870300293,-3.0317063331604004
1481637079107,7.939385414123535,-0.4833501875400543,-0.13160523772239685
1481637079346,8.556733131408691,0.9690931439399719,-0.42831525206565857
1481637079564,10.097711563110352,1.6462620496749878,-0.5455635190010071
1481637079796,15.744772911071777,1.8041881322860718,-0.9834501147270203
1481637080036,7.379465103149414,0.8207381367683411,-1.3974084854125977
1481637080263,9.3128662109375,2.194218397140503,-2.390429735183716
1481637080502,8.891729354858398,1.5601203441619873,-2.4598214626312256
1481637080704,12.873385429382324,1.435693621635437,-2.007578134536743
1481637080941,8.63330364227295,1.0648061037063599,-0.11964112520217896
1481637081190,7.987241268157959,1.703689694404602,0.07896314561367035
1481637081391,9.944571495056152,2.65842604637146,-1.0408778190612793
1481637081593,15.323636054992676,2.416750907897949,-2.342573404312134
1481637081796,6.771688461303711,1.3471590280532837,-0.7274181246757507
1481637082021,8.767301559448242,1.7874385118484497,-2.531606435775757
1481637082258,8.571090698242188,2.7086753845214844,-3.8596229553222656
1481637082500,13.557732582092285,1.8759729862213135,-1.7491532564163208
1481637082739,8.341379165649414,2.139183282852173,-0.8542376756668091
1481637082955,9.001798629760742,1.7922240495681763,-0.48813584446907043
1481637083191,8.963513374328613,3.0005996227264404,-0.8853443264961243
1481637083435,14.256437301635742,1.7874385118484497,-1.5672988891601562
1481637083657,7.417750358581543,1.5601203441619873,-1.368694543838501
1481637083894,8.882158279418945,1.6175479888916016,-2.115255117416382
1481637084135,12.63888931274414,1.7324036359786987,-2.636890411376953
1481637084387,7.934599876403809,0.8303093910217285,-1.3328022956848145
1481637084616,8.63330364227295,1.514656662940979,-0.4977070987224579
1481637084828,9.035298347473145,2.562713146209717,-0.6843472719192505
1481637085052,13.428520202636719,1.179661512374878,-1.294516921043396
1481637085323,6.996613025665283,1.2179466485977173,-0.9667003750801086
1481637085550,8.733802795410156,1.4452648162841797,-1.8472589254379272
1481637085782,9.18843936920166,1.7395820617675781,-2.8594231605529785
1481637085983,10.169495582580566,2.5148565769195557,-3.1058835983276367
1481637086221,9.30329418182373,2.3569302558898926,-1.0887343883514404
1481637086435,7.733603000640869,1.7802598476409912,-0.7130610942840576
1481637086653,8.973085403442383,2.383251428604126,0.004785645287483931
1481637086891,14.112868309020996,2.6727826595306396,-0.5024927258491516
1481637087131,7.436892509460449,1.7802598476409912,-1.1748759746551514
1481637087381,9.394222259521484,1.2705888748168945,-1.6342979669570923
1481637087619,10.37527847290039,1.6821542978286743,-2.8737800121307373
1481637087836,9.796216011047363,1.1270195245742798,-1.5840486288070679
1481637088049,8.752944946289062,1.0552347898483276,0.27756744623184204
1481637088289,9.437292098999023,1.184447169303894,-0.10049854964017868
1481637088529,9.714859962463379,2.242074966430664,-0.9044869542121887
1481637088777,13.672589302062988,1.8472589254379272,-0.760917603969574
1481637088979,8.126025199890137,0.6412764191627502,-1.234696388244629
1481637089225,8.810372352600098,0.9188438653945923,-1.727617859840393
1481637089445,10.710273742675781,1.864008903503418,-3.2614171504974365
1481637089686,7.15932559967041,1.856830358505249,-1.7347965240478516
1481637089925,8.709875106811523,1.4333008527755737,0.04785645008087158
1481637090174,9.355937004089355,1.6869399547576904,-0.7178468108177185
1481637090376,16.094125747680664,2.0243279933929443,-1.3543376922607422
1481637090604,7.322037220001221,0.5766702890396118,-1.5170495510101318
1481637090817,8.666803359985352,1.0408778190612793,-2.2923240661621094
1481637091044,8.71466064453125,1.636690616607666,-3.4719858169555664
1481637091309,7.75753116607666,2.5196423530578613,-1.65583336353302
1481637091520,8.590232849121094,1.4763716459274292,-0.2225324809551239
1481637091722,10.088139533996582,1.8065810203552246,-0.4331009089946747
1481637091968,8.963513374328613,3.1441688537597656,-0.696311354637146
1481637092172,12.67717456817627,2.7565319538116455,-1.730010747909546
1481637092430,8.370094299316406,1.062413215637207,-1.131805181503296
1481637092644,6.872186660766602,1.2059825658798218,-2.0267207622528076
1481637092862,9.083154678344727,1.782652735710144,-2.2372891902923584
1481637093079,9.040083885192871,3.2542388439178467,-3.680161237716675
1481637093320,13.63908863067627,2.4406790733337402,-2.0745770931243896
1481637093572,8.09252643585205,0.05024927482008934,-0.6867401003837585
1481637093832,9.418149948120117,1.0480562448501587,-0.5479563474655151
1481637094037,9.20279598236084,3.0556347370147705,-1.2586246728897095
1481637094276,14.055439949035645,1.660618782043457,-1.3016955852508545
1481637094516,9.020941734313965,0.8566305041313171,-1.4452648162841797
1481637094768,9.298508644104004,1.1820544004440308,-2.603391170501709
1481637094995,9.820144653320312,1.574477195739746,-2.6321046352386475
1481637095199,14.203795433044434,0.4498506784439087,-2.00518536567688
1481637095412,9.260223388671875,0.397208571434021,-0.6843472719192505
1481637095636,8.437092781066895,0.7274181246757507,-0.380458801984787
1481637095840,8.949156761169434,1.7395820617675781,-0.861416220664978
1481637096073,16.051055908203125,2.7804601192474365,-2.407179594039917
1481637096312,7.556533336639404,0.12442677468061447,-0.49531427025794983
1481637096562,8.863015174865723,1.3304094076156616,-2.579463005065918
1481637096814,8.997013092041016,2.196611166000366,-2.746960401535034
1481637097030,14.093725204467773,1.447657585144043,-2.935993194580078
1481637097270,8.183453559875488,1.1700903177261353,-1.1676974296569824
1481637097511,9.571290969848633,1.160519003868103,0.24646073579788208
1481637097727,9.422935485839844,2.1846470832824707,-1.2921242713928223
1481637097961,16.051055908203125,-0.7393822073936462,-1.9812570810317993
1481637098189,7.350750923156738,1.1724830865859985,-0.3613162040710449
1481637098425,8.00638484954834,-0.519242525100708,-3.1513471603393555
1481637098627,8.389235496520996,0.6221339106559753,-2.9216365814208984
1481637098867,12.021540641784668,1.514656662940979,-2.943171739578247
1481637099106,11.212766647338867,1.275374412536621,-0.18185453116893768
1481637099307,7.948956489562988,1.3519448041915894,0.34217363595962524
1481637099554,9.226724624633789,2.5866410732269287,-1.0552347898483276
1481637099756,14.648860931396484,3.280559778213501,-1.8257235288619995
1481637099985,6.829115867614746,0.6412764191627502,-2.069791555404663
1481637100228,8.949156761169434,1.5074783563613892,-2.579463005065918
1481637100491,12.198609352111816,2.280359983444214,-2.6847469806671143
1481637100702,7.9585280418396,3.2135608196258545,-1.9932212829589844
1481637100903,8.446663856506348,2.51007080078125,-0.2153540551662445
1481637101133,9.10229778289795,2.3712873458862305,-0.43549373745918274
1481637101352,13.170096397399902,1.6295121908187866,-2.2755744457244873
1481637101601,8.178668022155762,1.3974084854125977,-1.526620864868164
1481637101821,8.288737297058105,0.9523434042930603,-1.56969153881073
1481637102060,9.183652877807617,1.6654045581817627,-3.840480089187622
1481637102301,13.165310859680176,1.7682960033416748,-2.2205395698547363
1481637102552,9.006584167480469,-0.4091726541519165,-0.31824538111686707
1481637102793,9.480363845825195,0.5814558863639832,-0.12203396111726761
1481637103018,10.13599681854248,1.3351951837539673,-0.9236294627189636
1481637103258,14.912071228027344,0.916451096534729,-0.6819544434547424
1481637103499,7.264609336853027,0.2392822504043579,-1.8975083827972412
1481637103749,8.599804878234863,0.1627119481563568,-2.053041696548462
1481637103977,12.806386947631836,1.9621145725250244,-3.1106693744659424
1481637104184,9.705288887023926,0.04307081177830696,-1.1724830865859985
1481637104397,8.71466064453125,0.11724831163883209,-0.06699903309345245
1481637104614,9.437292098999023,2.00518536567688,-0.8303093910217285
1481637104856,15.457633018493652,1.9740787744522095,-2.390429735183716
1481637105095,8.159524917602539,-0.33020952343940735,-0.8757730722427368
1481637105342,8.638089179992676,0.5240281224250793,-2.2947168350219727
1481637105571,10.140782356262207,1.4931212663650513,-3.2374887466430664
1481637105795,6.824329853057861,1.4045867919921875,-1.8113667964935303
1481637106014,8.910871505737305,0.9930213689804077,-0.5000999569892883
1481637106252,10.518847465515137,0.8015955686569214,-1.2323036193847656
1481637106492,9.150154113769531,0.44745784997940063,-1.8711872100830078
1481637106742,6.379265785217285,0.6436693072319031,-1.2538390159606934
1481637106983,9.542576789855957,1.4644075632095337,-3.297309637069702
1481637107190,12.222538948059082,2.7014968395233154,-1.947757601737976
1481637107410,7.724031925201416,0.6891329884529114,0.1339980661869049
1481637107621,9.714859962463379,0.7393822073936462,-0.26081767678260803
1481637107853,17.132610321044922,0.9954141974449158,-2.366501569747925
1481637108089,7.556533336639404,0.3756731450557709,-1.098305583000183
1481637108357,8.86780071258545,0.5000999569892883,-2.115255117416382
1481637108590,8.465806007385254,2.8833510875701904,-2.3712873458862305
1481637108807,13.36152172088623,2.242074966430664,-1.856830358505249
1481637109008,10.389636039733887,-4.728217601776123,-1.2705888748168945
1481637109247,6.029913425445557,1.3399806022644043,0.2225324809551239
1481637109487,8.365307807922363,3.1178479194641113,-2.3066811561584473
1481637109738,12.275179862976074,3.493520975112915,-3.225525140762329
1481637109969,10.403992652893066,-2.8283162117004395,-0.5814558863639832
1481637110196,8.504091262817383,2.5986053943634033,-1.6151552200317383
1481637110403,8.49452018737793,2.455036163330078,-2.833101987838745
1481637110644,11.648260116577148,0.6867401003837585,-2.3018953800201416
1481637110884,8.441878318786621,0.9140582084655762,-0.7130610942840576
1481637111134,8.63330364227295,0.5790630578994751,0.18185453116893768
1481637111401,9.997212409973145,0.33738797903060913,-0.11485548317432404
1481637111669,14.816357612609863,2.076970100402832,-0.8039883971214294
1481637111882,8.657232284545898,-1.0241280794143677,-1.4691929817199707
1481637112132,8.853443145751953,0.11485548317432404,-1.576870083808899
1481637112360,10.336994171142578,0.6221339106559753,-2.100898265838623
1481637112572,8.379664421081543,-0.3517449200153351,-1.3471590280532837
1481637112788,8.609375953674316,0.20099709928035736,-0.2799602448940277
1481637113000,9.111868858337402,0.9978070855140686,-0.5790630578994751
1481637113238,13.567303657531738,0.016749758273363113,-1.497907042503357
1481637113439,7.082754611968994,-1.495514154434204,-1.868794322013855
1481637113671,7.551748275756836,-0.05503492057323456,-1.4668002128601074
1481637113876,8.86780071258545,0.8638089299201965,-2.627319574356079
1481637114129,8.968299865722656,1.4021940231323242,-2.2755744457244873
1481637114357,13.15573787689209,2.6967110633850098,-2.4741785526275635
1481637114595,8.685946464538574,1.8352948427200317,-0.17228324711322784
1481637114796,8.360522270202637,2.014756679534912,-0.07178468257188797
1481637115036,9.327221870422363,2.7254250049591064,-0.6269195079803467
1481637115273,15.237494468688965,2.8139593601226807,-1.2586246728897095
1481637115525,7.154539585113525,1.428515076637268,-1.2251251935958862
1481637115766,8.925228118896484,1.435693621635437,-2.0338993072509766
1481637115992,10.576275825500488,1.660618782043457,-2.3234307765960693
1481637116265,7.657032012939453,1.947757601737976,-1.3782659769058228
1481637116472,7.99681282043457,2.043470621109009,-0.18903298676013947
1481637116720,9.226724624633789,2.4741785526275635,-0.18424734473228455
1481637116921,15.17049503326416,1.730010747909546,-1.5002998113632202
1481637117122,7.896315097808838,0.6771688461303711,-1.6965112686157227
1481637117368,8.082954406738281,0.8901299238204956,-1.782652735710144
1481637117590,9.121439933776855,0.7513462901115417,-2.2396819591522217
1481637117827,13.404592514038086,2.3880369663238525,-2.3473589420318604
1481637118030,8.523234367370605,1.5936198234558105,0.2153540551662445
1481637118244,9.533005714416504,1.9621145725250244,0.1986042857170105
1481637118469,10.322636604309082,2.541177749633789,-0.8087739944458008
1481637118720,8.872586250305176,2.63449764251709,-1.6079767942428589
1481637118948,6.953542709350586,1.8041881322860718,-1.1078768968582153
1481637119186,8.317451477050781,0.6364907622337341,-2.227717876434326
1481637119426,12.744174003601074,1.6127625703811646,-2.2229323387145996
1481637119666,9.049654960632324,-0.9547362923622131,-0.787238597869873
1481637119915,7.412964344024658,0.39481574296951294,0.2991028428077698
1481637120117,9.595218658447266,3.8811583518981934,-1.3543376922607422
1481637120345,12.76810073852539,-0.22492533922195435,0.8805587291717529
1481637120551,8.341379165649414,-1.3232309818267822,-1.8376877307891846
1481637120785,9.040083885192871,1.038485050201416,-0.9379864931106567
1481637121023,8.0350980758667,2.0865414142608643,-1.6342979669570923
1481637121262,13.438091278076172,4.596612453460693,-1.574477195739746
1481637121514,7.982456684112549,-1.9214365482330322,-0.5982056856155396
1481637121755,8.992227554321289,0.1052841916680336,-0.3756731450557709
1481637121979,10.045069694519043,-0.07657032459974289,0.3756731450557709
1481637122181,12.485749244689941,0.6484549045562744,-0.2512463629245758
1481637122421,8.910871505737305,-0.18424734473228455,-1.0360921621322632
1481637122661,8.082954406738281,0.5814558863639832,-1.526620864868164
1481637122886,8.24566650390625,1.1581261157989502,-1.5337992906570435
1481637123111,12.485749244689941,2.4957141876220703,-2.754138946533203
1481637123339,8.240880966186523,1.1724830865859985,-0.3278167247772217
1481637123552,8.757731437683105,0.6843472719192505,0.6795615553855896
1481637123754,9.667003631591797,1.3423734903335571,-0.014356935396790504
1481637123978,11.911470413208008,2.1583259105682373,-1.0839486122131348
1481637124216,7.317252159118652,0.5072783827781677,-0.9140582084655762
1481637124417,6.910471439361572,0.8207381367683411,-1.6630116701126099
1481637124643,9.207581520080566,1.2921242713928223,-1.887937068939209
1481637124856,10.269994735717773,2.2396819591522217,-2.3856441974639893
1481637125107,7.542177200317383,2.5363922119140625,-0.9451649785041809
1481637125335,8.513663291931152,1.588834285736084,-0.12681959569454193
1481637125539,9.542576789855957,1.2059825658798218,0.6484549045562744
1481637125755,12.04068374633789,2.6536402702331543,-0.7202396392822266
1481637125973,6.604190349578857,2.0003998279571533,-0.9882357716560364
1481637126242,6.967899799346924,2.2205395698547363,-1.727617859840393
1481637126466,8.456235885620117,1.6271194219589233,-2.3736801147460938
1481637126703,13.95972728729248,3.974478244781494,-4.0247273445129395
1481637126932,8.346165657043457,1.4668002128601074,-1.5553346872329712
1481637127172,8.82951545715332,2.1104695796966553,-0.7202396392822266
1481637127411,9.992427825927734,2.715853452682495,-1.672582983970642
1481637127651,6.302694320678711,0.4163511395454407,-1.1724830865859985
1481637127903,6.963113307952881,1.7682960033416748,-1.3854442834854126
1481637128167,8.891729354858398,3.129812002182007,-3.16331148147583
1481637128435,13.02652645111084,1.2993026971817017,-1.7994027137756348
1481637128648,8.853443145751953,-0.5407779216766357,0.15074782073497772
1481637128899,9.523433685302734,1.3423734903335571,0.3397807776927948
1481637129126,9.480363845825195,1.7060824632644653,-0.10767702758312225
1481637129366,12.882957458496094,1.7611174583435059,-0.9906285405158997
1481637129567,8.073383331298828,-0.4091726541519165,-1.7539390325546265
1481637129806,7.345965385437012,1.356730580329895,-1.6965112686157227
1481637130014,8.757731437683105,1.4668002128601074,-2.5363922119140625
1481637130245,9.499505043029785,1.8448662757873535,-2.799602746963501
1481637130497,10.74855899810791,0.861416220664978,-2.139183282852173
1481637130725,8.0350980758667,0.9308080077171326,0.05503492057323456
1481637130945,9.4660062789917,2.4430718421936035,-0.26081767678260803
1481637131162,10.968698501586914,2.636890411376953,-1.239482045173645
1481637131403,7.288537979125977,-0.5312066078186035,-1.8735800981521606
1481637131643,7.331608772277832,0.8015955686569214,-1.0600204467773438
1481637131900,8.341379165649414,2.029113531112671,-2.744567632675171
1481637132136,10.064212799072266,0.6795615553855896,-3.0388848781585693
1481637132362,8.858229637145996,1.215553879737854,-2.1655044555664062
1481637132601,9.528220176696777,2.196611166000366,0.5264209508895874
1481637132841,8.772088050842285,2.218146562576294,-0.05742774158716202
1481637133089,12.634103775024414,3.919443368911743,-1.6893328428268433
1481637133290,6.671189785003662,0.7800601720809937,-0.3732803165912628
1481637133519,7.824529647827148,0.5838487148284912,-1.3974084854125977
1481637133725,9.245866775512695,1.7156537771224976,-2.0482561588287354
1481637133934,13.414163589477539,1.4021940231323242,-1.8711872100830078
1481637134157,8.752944946289062,1.5050854682922363,0.16510476171970367
1481637134425,8.322237014770508,1.9525433778762817,-0.10767702758312225
1481637134634,10.016355514526367,2.3784656524658203,0.18424734473228455
1481637134836,10.8969144821167,2.548356056213379,-0.784845769405365
1481637135087,6.632904052734375,0.8063812851905823,-1.1198409795761108
1481637135314,10.006784439086914,0.1746760606765747,-1.576870083808899
1481637135554,12.098111152648926,3.2781667709350586,-2.3952155113220215
1481637135795,9.06401252746582,-0.18903298676013947,0.6173481941223145
1481637136033,9.355937004089355,0.17706887423992157,0.4905286431312561
1481637136282,9.882357597351074,2.531606435775757,-0.5934200286865234
1481637136483,9.370293617248535,2.699103832244873,-0.5144568681716919
1481637136684,12.102896690368652,1.782652735710144,-0.5455635190010071
1481637136913,9.049654960632324,0.5503491759300232,-1.2299107313156128
1481637137151,8.303093910217285,0.9954141974449158,-2.1511476039886475
1481637137391,8.757731437683105,2.1607186794281006,-1.5409778356552124
1481637137628,12.284751892089844,2.218146562576294,-2.4119651317596436
1481637137829,8.566305160522461,0.09571290016174316,-0.6508477926254272
1481637138030,9.729216575622559,-0.0526420958340168,0.8422735333442688
1481637138277,9.57607650756836,1.5601203441619873,-1.0097711086273193
1481637138481,9.255437850952148,2.706282377243042,-0.6675975918769836
1481637138684,14.519647598266602,2.4023938179016113,-1.2801601886749268
1481637138909,7.527820110321045,-0.5670989155769348,-1.6582260131835938
1481637139116,9.111868858337402,0.48813584446907043,-2.062613010406494
1481637139345,9.044869422912598,2.2013967037200928,-2.6392831802368164
1481637139546,8.528019905090332,2.3066811561584473,-2.5292134284973145
1481637139747,13.414163589477539,0.6149553656578064,-3.1034913063049316
1481637139986,7.929814338684082,0.014356935396790504,-0.4977070987224579
1481637140225,8.925228118896484,0.7561319470405579,0.3756731450557709
1481637140440,9.710074424743652,2.2923240661621094,-0.2584248483181
1481637140675,10.456634521484375,2.486142873764038,-0.8063812851905823
1481637140917,8.111669540405273,1.4763716459274292,-0.8494520783424377
1481637141143,7.537391662597656,0.47617170214653015,-1.423729419708252
1481637141380,8.901299476623535,1.7252250909805298,-2.5674986839294434
1481637141583,8.700303077697754,2.830709218978882,-2.177468776702881
1481637141822,14.878570556640625,3.1250264644622803,-2.2779672145843506
1481637142077,8.437092781066895,0.39481574296951294,0.4043869972229004
1481637142302,9.710074424743652,1.8376877307891846,-0.004785645287483931
1481637142539,8.303093910217285,3.7112677097320557,0.14356936514377594
1481637142741,11.801401138305664,2.847458839416504,-1.3280165195465088
1481637143010,7.872386455535889,-0.12681959569454193,-1.3830513954162598
1481637143219,7.786244869232178,2.1894328594207764,-1.4715858697891235
1481637143468,9.159724235534668,1.9908283948898315,-2.909672498703003
1481637143671,13.624732971191406,0.8638089299201965,-1.765903115272522
1481637143899,8.437092781066895,1.9453648328781128,-1.7156537771224976
1481637144103,8.685946464538574,1.423729419708252,1.3136597871780396
1481637144319,9.260223388671875,2.971885919570923,-0.552742063999176
1481637144537,11.863614082336426,3.0891339778900146,-2.5818557739257812
1481637144777,8.791230201721191,1.1341978311538696,-0.8470591902732849
1481637145016,8.475377082824707,2.043470621109009,-2.062613010406494
1481637145262,9.30329418182373,1.6582260131835938,-3.7710886001586914
1481637145466,12.882957458496094,1.794616937637329,-1.6342979669570923
1481637145694,7.810173511505127,1.3782659769058228,-0.24406792223453522
1481637145915,9.025726318359375,2.100898265838623,-0.7034898400306702
1481637146133,13.758729934692383,1.2610174417495728,-0.42831525206565857
1481637146373,6.8482584953308105,0.9044869542121887,-1.495514154434204
1481637146602,7.9728851318359375,1.0695916414260864,-1.124626636505127
1481637146811,9.10229778289795,2.344966173171997,-2.538784980773926
1481637147013,12.174681663513184,1.8305093050003052,-2.65842604637146
1481637147262,7.948956489562988,0.9762716889381409,-0.31106695532798767
1481637147530,9.073582649230957,1.373480200767517,0.07417750358581543