,timestamp,ax,ay,az
0,7000.0,-1.2921242713928225,-1.765903115272522,-9.822537422180176
1,7100.0,-1.2921242713928225,-1.765903115272522,-9.822537422180176
2,7200.0,-1.2921242713928225,-1.765903115272522,-9.822537422180176
3,7300.0,-1.813759446144104,-1.7874385118484497,-9.437292098999023
4,7400.0,-1.813759446144104,-1.7874385118484497,-9.437292098999023
5,7500.0,-1.813759446144104,-1.7874385118484497,-9.437292098999023
6,7600.0,-0.5024927258491516,-1.931007981300354,-9.568897247314453
7,7700.0,-0.5024927258491516,-1.931007981300354,-9.568897247314453
8,7800.0,-0.8757730722427368,-1.0336993932724001,-9.322437286376953
9,7900.0,-0.8757730722427368,-1.0336993932724001,-9.322437286376953
10,8000.0,-1.8233308792114256,-1.8616160154342647,-10.200602531433104
11,8100.0,-1.8233308792114256,-1.8616160154342647,-10.200602531433104
12,8200.0,-0.6604190468788147,-2.8713872432708736,-9.351150512695312
13,8300.0,-0.6604190468788147,-2.8713872432708736,-9.351150512695312
14,8400.0,-1.871187210083008,-1.0959126949310305,-9.489934921264648
15,8500.0,-1.871187210083008,-1.0959126949310305,-9.489934921264648
16,8600.0,-1.871187210083008,-1.0959126949310305,-9.489934921264648
17,8700.0,-1.9669002294540403,-1.6151552200317385,-9.578469276428224
18,8800.0,-1.9669002294540403,-1.6151552200317385,-9.578469276428224
19,8900.0,-1.9094725847244265,-3.6131620407104488,-9.652647018432617
20,8000.0,-1.8233308792114256,-1.8616160154342647,-10.200602531433104
21,8100.0,-1.8233308792114256,-1.8616160154342647,-10.200602531433104
22,8200.0,-0.6604190468788147,-2.8713872432708736,-9.351150512695312
23,8300.0,-0.6604190468788147,-2.8713872432708736,-9.351150512695312
24,8400.0,-1.871187210083008,-1.0959126949310305,-9.489934921264648
25,8500.0,-1.871187210083008,-1.0959126949310305,-9.489934921264648
26,8600.0,-1.871187210083008,-1.0959126949310305,-9.489934921264648
27,8700.0,-1.9669002294540403,-1.6151552200317385,-9.578469276428224
28,8800.0,-1.9669002294540403,-1.6151552200317385,-9.578469276428224
29,8900.0,-1.9094725847244265,-3.6131620407104488,-9.652647018432617
30,9000.0,-1.9094725847244265,-3.6131620407104488,-9.652647018432617
31,9100.0,-1.6941183805465698,-1.8257235288619995,-9.34875774383545
32,9200.0,-1.6941183805465698,-1.8257235288619995,-9.34875774383545
33,9300.0,-1.6941183805465698,-1.8257235288619995,-9.34875774383545
34,9400.0,-1.761117458343506,-1.2705888748168943,-9.265008926391602
35,9500.0,-1.761117458343506,-1.2705888748168943,-9.265008926391602
36,9600.0,-1.6223337650299072,-1.4931212663650513,-9.597611427307127
37,9700.0,-1.6223337650299072,-1.4931212663650513,-9.597611427307127
38,9800.0,-0.9140582084655762,-2.0961124897003174,-9.602396965026855
39,9900.0,-0.9140582084655762,-2.0961124897003174,-9.602396965026855
40,9000.0,-1.9094725847244265,-3.6131620407104488,-9.652647018432617
41,9100.0,-1.6941183805465698,-1.8257235288619995,-9.34875774383545
42,9200.0,-1.6941183805465698,-1.8257235288619995,-9.34875774383545
43,9300.0,-1.6941183805465698,-1.8257235288619995,-9.34875774383545
44,9400.0,-1.761117458343506,-1.2705888748168943,-9.265008926391602
45,9500.0,-1.761117458343506,-1.2705888748168943,-9.265008926391602
46,9600.0,-1.6223337650299072,-1.4931212663650513,-9.597611427307127
47,9700.0,-1.6223337650299072,-1.4931212663650513,-9.597611427307127
48,9800.0,-0.9140582084655762,-2.0961124897003174,-9.602396965026855
49,9900.0,-0.9140582084655762,-2.0961124897003174,-9.602396965026855
50,10000.0,-0.9140582084655762,-2.0961124897003174,-9.602396965026855
51,10100.0,-1.6175479888916016,-1.8640089035034182,-9.291330337524414
52,10200.0,-1.6175479888916016,-1.8640089035034182,-9.291330337524414
53,10300.0,-1.0241280794143677,-0.8231310248374939,-9.008977890014648
54,10400.0,-1.0241280794143677,-0.8231310248374939,-9.008977890014648
55,10500.0,-1.4213367700576782,-1.6199408769607544,-9.257830619812012
56,10600.0,-1.4213367700576782,-1.6199408769607544,-9.257830619812012
57,10700.0,-1.4213367700576782,-1.6199408769607544,-9.257830619812012
58,10800.0,0.8470591902732849,-3.084348201751709,-10.351350784301758
59,10900.0,0.8470591902732849,-3.084348201751709,-10.351350784301758
60,10000.0,-0.9140582084655762,-2.0961124897003174,-9.602396965026855
61,10100.0,-1.6175479888916016,-1.8640089035034182,-9.291330337524414
62,10200.0,-1.6175479888916016,-1.8640089035034182,-9.291330337524414
63,10300.0,-1.0241280794143677,-0.8231310248374939,-9.008977890014648
64,10400.0,-1.0241280794143677,-0.8231310248374939,-9.008977890014648
65,10500.0,-1.4213367700576782,-1.6199408769607544,-9.257830619812012
66,10600.0,-1.4213367700576782,-1.6199408769607544,-9.257830619812012
67,10700.0,-1.4213367700576782,-1.6199408769607544,-9.257830619812012
68,10800.0,0.8470591902732849,-3.084348201751709,-10.351350784301758
69,10900.0,0.8470591902732849,-3.084348201751709,-10.351350784301758
70,11000.0,-1.0001999139785769,-2.8498516082763667,-9.832108497619627
71,11100.0,-1.0001999139785769,-2.8498516082763667,-9.832108497619627
72,11200.0,-2.2253248691558842,-0.9786643981933594,-9.415757179260254
73,11300.0,-2.2253248691558842,-0.9786643981933594,-9.415757179260254
74,11400.0,-1.741974949836731,-3.7710886001586914,-9.992427825927734
75,11500.0,-1.741974949836731,-3.7710886001586914,-9.992427825927734
76,11600.0,-1.741974949836731,-3.7710886001586914,-9.992427825927734
77,11700.0,-1.9334007501602173,-1.4093725681304932,-9.38943576812744
78,11800.0,-1.9334007501602173,-1.4093725681304932,-9.38943576812744
79,11900.0,-1.8185452222824097,-1.710868239402771,-9.518648147583008
80,11000.0,-1.0001999139785769,-2.8498516082763667,-9.832108497619627
81,11100.0,-1.0001999139785769,-2.8498516082763667,-9.832108497619627
82,11200.0,-2.2253248691558842,-0.9786643981933594,-9.415757179260254
83,11300.0,-2.2253248691558842,-0.9786643981933594,-9.415757179260254
84,11400.0,-1.741974949836731,-3.7710886001586914,-9.992427825927734
85,11500.0,-1.741974949836731,-3.7710886001586914,-9.992427825927734
86,11600.0,-1.741974949836731,-3.7710886001586914,-9.992427825927734
87,11700.0,-1.9334007501602173,-1.4093725681304932,-9.38943576812744
88,11800.0,-1.9334007501602173,-1.4093725681304932,-9.38943576812744
89,11900.0,-1.8185452222824097,-1.710868239402771,-9.518648147583008
90,12000.0,-1.8185452222824097,-1.710868239402771,-9.518648147583008
91,12100.0,-1.8185452222824097,-1.710868239402771,-9.518648147583008
92,12200.0,-1.5074783563613892,-1.9573287963867188,-9.719645500183104
93,12300.0,-1.5074783563613892,-1.9573287963867188,-9.719645500183104
94,12400.0,-1.5457634925842283,-1.1102697849273682,-9.272188186645508
95,12500.0,-1.5457634925842283,-1.1102697849273682,-9.272188186645508
96,12600.0,-1.636690616607666,-0.4498506784439087,-9.415757179260254
97,12700.0,-1.636690616607666,-0.4498506784439087,-9.415757179260254
98,12800.0,-1.6893328428268433,-1.6582260131835938,-9.832108497619627
99,12900.0,-1.6893328428268433,-1.6582260131835938,-9.832108497619627
100,12000.0,-1.8185452222824097,-1.710868239402771,-9.518648147583008
101,12100.0,-1.8185452222824097,-1.710868239402771,-9.518648147583008
102,12200.0,-1.5074783563613892,-1.9573287963867188,-9.719645500183104
103,12300.0,-1.5074783563613892,-1.9573287963867188,-9.719645500183104
104,12400.0,-1.5457634925842283,-1.1102697849273682,-9.272188186645508
105,12500.0,-1.5457634925842283,-1.1102697849273682,-9.272188186645508
106,12600.0,-1.636690616607666,-0.4498506784439087,-9.415757179260254
107,12700.0,-1.636690616607666,-0.4498506784439087,-9.415757179260254
108,12800.0,-1.6893328428268433,-1.6582260131835938,-9.832108497619627
109,12900.0,-1.6893328428268433,-1.6582260131835938,-9.832108497619627
110,13000.0,-1.6893328428268433,-1.6582260131835938,-9.832108497619627
111,13100.0,-1.832902193069458,-1.356730580329895,-9.523433685302734
112,13200.0,-1.832902193069458,-1.356730580329895,-9.523433685302734
113,13300.0,-2.1822540760040283,-1.6917256116867063,-8.877371788024902
114,13400.0,-2.1822540760040283,-1.6917256116867063,-8.877371788024902
115,13500.0,-2.1822540760040283,-1.6917256116867063,-8.877371788024902
116,13600.0,-1.9142580032348635,-0.033499516546726234,-8.621339797973633
117,13700.0,-1.9142580032348635,-0.033499516546726234,-8.621339797973633
118,13800.0,-1.6941183805465698,-1.325623631477356,-9.399007797241213
119,13900.0,-1.6941183805465698,-1.325623631477356,-9.399007797241213
120,13000.0,-1.6893328428268433,-1.6582260131835938,-9.832108497619627
121,13100.0,-1.832902193069458,-1.356730580329895,-9.523433685302734
122,13200.0,-1.832902193069458,-1.356730580329895,-9.523433685302734
123,13300.0,-2.1822540760040283,-1.6917256116867063,-8.877371788024902
124,13400.0,-2.1822540760040283,-1.6917256116867063,-8.877371788024902
125,13500.0,-2.1822540760040283,-1.6917256116867063,-8.877371788024902
126,13600.0,-1.9142580032348635,-0.033499516546726234,-8.621339797973633
127,13700.0,-1.9142580032348635,-0.033499516546726234,-8.621339797973633
128,13800.0,-1.6941183805465698,-1.325623631477356,-9.399007797241213
129,13900.0,-1.6941183805465698,-1.325623631477356,-9.399007797241213
130,14000.0,0.7752745151519775,-3.239881753921509,-9.054441452026367
131,14100.0,0.7752745151519775,-3.239881753921509,-9.054441452026367
132,14200.0,0.7752745151519775,-3.239881753921509,-9.054441452026367
133,14300.0,-1.4739787578582764,-1.7563319206237793,-9.332008361816406
134,14400.0,-1.4739787578582764,-1.7563319206237793,-9.332008361816406
135,14500.0,-1.7132610082626345,-1.4404792785644531,-9.375079154968262
136,14600.0,-1.7132610082626345,-1.4404792785644531,-9.375079154968262
137,14700.0,-1.7132610082626345,-1.4404792785644531,-9.375079154968262
138,14800.0,-1.1676974296569824,-2.620140790939331,-9.425328254699707
139,14900.0,-1.1676974296569824,-2.620140790939331,-9.425328254699707
140,14000.0,0.7752745151519775,-3.239881753921509,-9.054441452026367
141,14100.0,0.7752745151519775,-3.239881753921509,-9.054441452026367
142,14200.0,0.7752745151519775,-3.239881753921509,-9.054441452026367
143,14300.0,-1.4739787578582764,-1.7563319206237793,-9.332008361816406
144,14400.0,-1.4739787578582764,-1.7563319206237793,-9.332008361816406
145,14500.0,-1.7132610082626345,-1.4404792785644531,-9.375079154968262
146,14600.0,-1.7132610082626345,-1.4404792785644531,-9.375079154968262
147,14700.0,-1.7132610082626345,-1.4404792785644531,-9.375079154968262
148,14800.0,-1.1676974296569824,-2.620140790939331,-9.425328254699707
149,14900.0,-1.1676974296569824,-2.620140790939331,-9.425328254699707
150,15000.0,-1.7563319206237793,-1.5672988891601562,-9.31047248840332
151,15100.0,-1.7563319206237793,-1.5672988891601562,-9.31047248840332
152,15200.0,-0.9667003750801086,-1.3471590280532837,-9.461220741271973
153,15300.0,-0.9667003750801086,-1.3471590280532837,-9.461220741271973
154,15400.0,-0.9667003750801086,-1.3471590280532837,-9.461220741271973
155,15500.0,-2.75174617767334,-4.364508152008057,-12.299108505249025
156,15600.0,-2.75174617767334,-4.364508152008057,-12.299108505249025
157,15700.0,-2.7182462215423584,-0.20099709928035736,-8.96112060546875
158,15800.0,-2.7182462215423584,-0.20099709928035736,-8.96112060546875
159,15900.0,-1.3830513954162598,-1.2059825658798218,-9.566505432128906
160,15000.0,-1.7563319206237793,-1.5672988891601562,-9.31047248840332
161,15100.0,-1.7563319206237793,-1.5672988891601562,-9.31047248840332
162,15200.0,-0.9667003750801086,-1.3471590280532837,-9.461220741271973
163,15300.0,-0.9667003750801086,-1.3471590280532837,-9.461220741271973
164,15400.0,-0.9667003750801086,-1.3471590280532837,-9.461220741271973
165,15500.0,-2.75174617767334,-4.364508152008057,-12.299108505249025
166,15600.0,-2.75174617767334,-4.364508152008057,-12.299108505249025
167,15700.0,-2.7182462215423584,-0.20099709928035736,-8.96112060546875
168,15800.0,-2.7182462215423584,-0.20099709928035736,-8.96112060546875
169,15900.0,-1.3830513954162598,-1.2059825658798218,-9.566505432128906
170,16000.0,-1.3830513954162598,-1.2059825658798218,-9.566505432128906
171,16100.0,-1.3830513954162598,-1.2059825658798218,-9.566505432128906
172,16200.0,-1.9812570810317995,-1.4476575851440432,-9.276973724365234
173,16300.0,-1.9812570810317995,-1.4476575851440432,-9.276973724365234
174,16400.0,-1.88075852394104,-1.495514154434204,-9.678967475891113
175,16500.0,-1.88075852394104,-1.495514154434204,-9.678967475891113
176,16600.0,-1.8185452222824097,-1.1509476900100708,-9.17886734008789
177,16700.0,-1.8185452222824097,-1.1509476900100708,-9.17886734008789
178,16800.0,-1.7994027137756348,-1.8065810203552248,-9.487542152404783
179,16900.0,-1.7994027137756348,-1.8065810203552248,-9.487542152404783
180,16000.0,-1.3830513954162598,-1.2059825658798218,-9.566505432128906
181,16100.0,-1.3830513954162598,-1.2059825658798218,-9.566505432128906
182,16200.0,-1.9812570810317995,-1.4476575851440432,-9.276973724365234
183,16300.0,-1.9812570810317995,-1.4476575851440432,-9.276973724365234
184,16400.0,-1.88075852394104,-1.495514154434204,-9.678967475891113
185,16500.0,-1.88075852394104,-1.495514154434204,-9.678967475891113
186,16600.0,-1.8185452222824097,-1.1509476900100708,-9.17886734008789
187,16700.0,-1.8185452222824097,-1.1509476900100708,-9.17886734008789
188,16800.0,-1.7994027137756348,-1.8065810203552248,-9.487542152404783
189,16900.0,-1.7994027137756348,-1.8065810203552248,-9.487542152404783
190,17000.0,-1.7994027137756348,-1.8065810203552248,-9.487542152404783
191,17100.0,-1.8233308792114256,-1.4093725681304932,-9.375079154968262
192,17200.0,-1.8233308792114256,-1.4093725681304932,-9.375079154968262
193,17300.0,-1.804188132286072,-1.529013752937317,-9.131011009216307
194,17400.0,-1.804188132286072,-1.529013752937317,-9.131011009216307
195,17500.0,-1.636690616607666,-0.4259224236011505,-9.31765079498291
196,17600.0,-1.636690616607666,-0.4259224236011505,-9.31765079498291
197,17700.0,-1.636690616607666,-0.4259224236011505,-9.31765079498291
198,17800.0,-1.6031911373138428,1.868794322013855,-8.750552177429201
199,17900.0,-1.6031911373138428,1.868794322013855,-8.750552177429201
200,17000.0,-1.7994027137756348,-1.8065810203552248,-9.487542152404783
201,17100.0,-1.8233308792114256,-1.4093725681304932,-9.375079154968262
202,17200.0,-1.8233308792114256,-1.4093725681304932,-9.375079154968262
203,17300.0,-1.804188132286072,-1.529013752937317,-9.131011009216307
204,17400.0,-1.804188132286072,-1.529013752937317,-9.131011009216307
205,17500.0,-1.636690616607666,-0.4259224236011505,-9.31765079498291
206,17600.0,-1.636690616607666,-0.4259224236011505,-9.31765079498291
207,17700.0,-1.636690616607666,-0.4259224236011505,-9.31765079498291
208,17800.0,-1.6031911373138428,1.868794322013855,-8.750552177429201
209,17900.0,-1.6031911373138428,1.868794322013855,-8.750552177429201
210,18000.0,-1.2729815244674685,-1.9669002294540403,-9.549755096435547
211,18100.0,-1.2729815244674685,-1.9669002294540403,-9.549755096435547
212,18200.0,-1.761117458343506,-1.00259268283844,-9.528220176696776
213,18300.0,-1.761117458343506,-1.00259268283844,-9.528220176696776
214,18400.0,-1.832902193069458,-0.15074782073497772,-9.162117958068848
215,18500.0,-1.832902193069458,-0.15074782073497772,-9.162117958068848
216,18600.0,-1.832902193069458,-0.15074782073497772,-9.162117958068848
217,18700.0,-1.856830358505249,-1.22033953666687,-9.418149948120117
218,18800.0,-1.856830358505249,-1.22033953666687,-9.418149948120117
219,18900.0,-1.8233308792114256,-1.641476273536682,-9.355937004089355
220,18000.0,-1.2729815244674685,-1.9669002294540403,-9.549755096435547
221,18100.0,-1.2729815244674685,-1.9669002294540403,-9.549755096435547
222,18200.0,-1.761117458343506,-1.00259268283844,-9.528220176696776
223,18300.0,-1.761117458343506,-1.00259268283844,-9.528220176696776
224,18400.0,-1.832902193069458,-0.15074782073497772,-9.162117958068848
225,18500.0,-1.832902193069458,-0.15074782073497772,-9.162117958068848
226,18600.0,-1.832902193069458,-0.15074782073497772,-9.162117958068848
227,18700.0,-1.856830358505249,-1.22033953666687,-9.418149948120117
228,18800.0,-1.856830358505249,-1.22033953666687,-9.418149948120117
229,18900.0,-1.8233308792114256,-1.641476273536682,-9.355937004089355
230,19000.0,-1.8233308792114256,-1.641476273536682,-9.355937004089355
231,19100.0,-1.7994027137756348,-1.8855443000793457,-9.425328254699707
232,19200.0,-1.7994027137756348,-1.8855443000793457,-9.425328254699707
233,19300.0,-1.7994027137756348,-1.8855443000793457,-9.425328254699707
234,19400.0,-1.794616937637329,-1.6271194219589231,-9.585646629333496
235,19500.0,-1.794616937637329,-1.6271194219589231,-9.585646629333496
236,19600.0,-1.8185452222824097,-1.325623631477356,-9.382257461547852
237,19700.0,-1.8185452222824097,-1.325623631477356,-9.382257461547852
238,19800.0,-1.761117458343506,0.0263210479170084,-8.858229637145996
239,19900.0,-1.761117458343506,0.0263210479170084,-8.858229637145996
240,19000.0,-1.8233308792114256,-1.641476273536682,-9.355937004089355
241,19100.0,-1.7994027137756348,-1.8855443000793457,-9.425328254699707
242,19200.0,-1.7994027137756348,-1.8855443000793457,-9.425328254699707
243,19300.0,-1.7994027137756348,-1.8855443000793457,-9.425328254699707
244,19400.0,-1.794616937637329,-1.6271194219589231,-9.585646629333496
245,19500.0,-1.794616937637329,-1.6271194219589231,-9.585646629333496
246,19600.0,-1.8185452222824097,-1.325623631477356,-9.382257461547852
247,19700.0,-1.8185452222824097,-1.325623631477356,-9.382257461547852
248,19800.0,-1.761117458343506,0.0263210479170084,-8.858229637145996
249,19900.0,-1.761117458343506,0.0263210479170084,-8.858229637145996
250,20000.0,-1.761117458343506,0.0263210479170084,-8.858229637145996
251,20100.0,-1.6797614097595217,-1.7347965240478516,-9.470791816711426
252,20200.0,-1.6797614097595217,-1.7347965240478516,-9.470791816711426
253,20300.0,-1.6797614097595217,-1.8400806188583372,-9.937392234802246
254,20400.0,-1.6797614097595217,-1.8400806188583372,-9.937392234802246
255,20500.0,-2.8809585571289062,1.9262222051620483,-8.169095993041992
256,20600.0,-2.8809585571289062,1.9262222051620483,-8.169095993041992
257,20700.0,-2.8809585571289062,1.9262222051620483,-8.169095993041992
258,20800.0,-1.6941183805465698,-1.7347965240478516,-9.781858444213867
259,20900.0,-1.6941183805465698,-1.7347965240478516,-9.781858444213867
260,20000.0,-1.761117458343506,0.0263210479170084,-8.858229637145996
261,20100.0,-1.6797614097595217,-1.7347965240478516,-9.470791816711426
262,20200.0,-1.6797614097595217,-1.7347965240478516,-9.470791816711426
263,20300.0,-1.6797614097595217,-1.8400806188583372,-9.937392234802246
264,20400.0,-1.6797614097595217,-1.8400806188583372,-9.937392234802246
265,20500.0,-2.8809585571289062,1.9262222051620483,-8.169095993041992
266,20600.0,-2.8809585571289062,1.9262222051620483,-8.169095993041992
267,20700.0,-2.8809585571289062,1.9262222051620483,-8.169095993041992
268,20800.0,-1.6941183805465698,-1.7347965240478516,-9.781858444213867
269,20900.0,-1.6941183805465698,-1.7347965240478516,-9.781858444213867
270,21000.0,-1.8759729862213133,-1.3328022956848145,-9.439685821533203
271,21100.0,-1.8759729862213133,-1.3328022956848145,-9.439685821533203
272,21200.0,-2.0434706211090092,-2.1200408935546875,-9.571290969848633
273,21300.0,-2.0434706211090092,-2.1200408935546875,-9.571290969848633
274,21400.0,-2.0434706211090092,-2.1200408935546875,-9.571290969848633
275,21500.0,-1.526620864868164,-1.34476637840271,-9.635896682739258
276,21600.0,-1.526620864868164,-1.34476637840271,-9.635896682739258
277,21700.0,-1.6989041566848757,0.6939185857772827,-8.468198776245117
278,21800.0,-1.6989041566848757,0.6939185857772827,-8.468198776245117
279,21900.0,-1.4548362493515017,-0.5048855543136597,-9.322437286376953
280,21000.0,-1.8759729862213133,-1.3328022956848145,-9.439685821533203
281,21100.0,-1.8759729862213133,-1.3328022956848145,-9.439685821533203
282,21200.0,-2.0434706211090092,-2.1200408935546875,-9.571290969848633
283,21300.0,-2.0434706211090092,-2.1200408935546875,-9.571290969848633
284,21400.0,-2.0434706211090092,-2.1200408935546875,-9.571290969848633
285,21500.0,-1.526620864868164,-1.34476637840271,-9.635896682739258
286,21600.0,-1.526620864868164,-1.34476637840271,-9.635896682739258
287,21700.0,-1.6989041566848757,0.6939185857772827,-8.468198776245117
288,21800.0,-1.6989041566848757,0.6939185857772827,-8.468198776245117
289,21900.0,-1.4548362493515017,-0.5048855543136597,-9.322437286376953
290,22000.0,-1.4548362493515017,-0.5048855543136597,-9.322437286376953
291,22100.0,-1.4548362493515017,-0.5048855543136597,-9.322437286376953
292,22200.0,-1.0001999139785769,-0.007178467698395251,-9.789037704467773
293,22300.0,-1.0001999139785769,-0.007178467698395251,-9.789037704467773
294,22400.0,-1.3208380937576294,0.9236294627189636,-9.329615592956543
295,22500.0,-1.3208380937576294,0.9236294627189636,-9.329615592956543
296,22600.0,-1.105484127998352,-0.15553347766399386,-9.640682220458984
297,22700.0,-1.105484127998352,-0.15553347766399386,-9.640682220458984
298,22800.0,-1.105484127998352,-0.15553347766399386,-9.640682220458984
299,22900.0,-1.1102697849273682,-0.007178467698395251,-9.53779125213623
300,22000.0,-1.4548362493515017,-0.5048855543136597,-9.322437286376953
301,22100.0,-1.4548362493515017,-0.5048855543136597,-9.322437286376953
302,22200.0,-1.0001999139785769,-0.007178467698395251,-9.789037704467773
303,22300.0,-1.0001999139785769,-0.007178467698395251,-9.789037704467773
304,22400.0,-1.3208380937576294,0.9236294627189636,-9.329615592956543
305,22500.0,-1.3208380937576294,0.9236294627189636,-9.329615592956543
306,22600.0,-1.105484127998352,-0.15553347766399386,-9.640682220458984
307,22700.0,-1.105484127998352,-0.15553347766399386,-9.640682220458984
308,22800.0,-1.105484127998352,-0.15553347766399386,-9.640682220458984
309,22900.0,-1.1102697849273682,-0.007178467698395251,-9.53779125213623
310,23000.0,-1.1102697849273682,-0.007178467698395251,-9.53779125213623
311,23100.0,-0.7992027401924133,2.7086753845214844,-8.563912391662598
312,23200.0,-0.7992027401924133,2.7086753845214844,-8.563912391662598
313,23300.0,-1.9908283948898315,0.9092726111412048,-8.901299476623535
314,23400.0,-1.9908283948898315,0.9092726111412048,-8.901299476623535
315,23500.0,-1.9908283948898315,0.9092726111412048,-8.901299476623535
316,23600.0,-1.7515461444854736,0.5359922647476196,-9.437292098999023
317,23700.0,-1.7515461444854736,0.5359922647476196,-9.437292098999023
318,23800.0,-1.2873386144638062,-0.15553347766399386,-9.686145782470703
319,23900.0,-1.2873386144638062,-0.15553347766399386,-9.686145782470703
320,23000.0,-1.1102697849273682,-0.007178467698395251,-9.53779125213623
321,23100.0,-0.7992027401924133,2.7086753845214844,-8.563912391662598
322,23200.0,-0.7992027401924133,2.7086753845214844,-8.563912391662598
323,23300.0,-1.9908283948898315,0.9092726111412048,-8.901299476623535
324,23400.0,-1.9908283948898315,0.9092726111412048,-8.901299476623535
325,23500.0,-1.9908283948898315,0.9092726111412048,-8.901299476623535
326,23600.0,-1.7515461444854736,0.5359922647476196,-9.437292098999023
327,23700.0,-1.7515461444854736,0.5359922647476196,-9.437292098999023
328,23800.0,-1.2873386144638062,-0.15553347766399386,-9.686145782470703
329,23900.0,-1.2873386144638062,-0.15553347766399386,-9.686145782470703
330,24000.0,-1.2538390159606934,-0.02153540588915348,-9.607183456420898
331,24100.0,-1.2538390159606934,-0.02153540588915348,-9.607183456420898
332,24200.0,-1.2538390159606934,-0.02153540588915348,-9.607183456420898
333,24300.0,0.861416220664978,1.519442439079285,-8.496913909912111
334,24400.0,0.861416220664978,1.519442439079285,-8.496913909912111
335,24500.0,-0.8374879360198975,-0.4689932465553284,-9.698110580444336
336,24600.0,-0.8374879360198975,-0.4689932465553284,-9.698110580444336
337,24700.0,-0.7178468108177185,0.08374878764152527,-9.396614074707033
338,24800.0,-0.7178468108177185,0.08374878764152527,-9.396614074707033
339,24900.0,-0.5934200286865234,0.2943171858787537,-9.564111709594727
340,24000.0,-1.2538390159606934,-0.02153540588915348,-9.607183456420898
341,24100.0,-1.2538390159606934,-0.02153540588915348,-9.607183456420898
342,24200.0,-1.2538390159606934,-0.02153540588915348,-9.607183456420898
343,24300.0,0.861416220664978,1.519442439079285,-8.496913909912111
344,24400.0,0.861416220664978,1.519442439079285,-8.496913909912111
345,24500.0,-0.8374879360198975,-0.4689932465553284,-9.698110580444336
346,24600.0,-0.8374879360198975,-0.4689932465553284,-9.698110580444336
347,24700.0,-0.7178468108177185,0.08374878764152527,-9.396614074707033
348,24800.0,-0.7178468108177185,0.08374878764152527,-9.396614074707033
349,24900.0,-0.5934200286865234,0.2943171858787537,-9.564111709594727
350,25000.0,-0.5934200286865234,0.2943171858787537,-9.564111709594727
351,25100.0,-0.5934200286865234,0.2943171858787537,-9.564111709594727
352,25200.0,-0.8327022790908813,-0.2416750937700272,-9.997212409973145
353,25300.0,-0.8327022790908813,-0.2416750937700272,-9.997212409973145
354,25400.0,-0.9332008361816406,-0.6652047038078308,-9.65503978729248
355,25500.0,-0.9332008361816406,-0.6652047038078308,-9.65503978729248
356,25600.0,-1.057627558708191,-0.34217363595962524,-9.671788215637207
357,25700.0,-1.057627558708191,-0.34217363595962524,-9.671788215637207
358,25800.0,-1.1006983518600464,-0.3349951505661011,-9.628718376159668
359,25900.0,-1.1006983518600464,-0.3349951505661011,-9.628718376159668
360,25000.0,-0.5934200286865234,0.2943171858787537,-9.564111709594727
361,25100.0,-0.5934200286865234,0.2943171858787537,-9.564111709594727
362,25200.0,-0.8327022790908813,-0.2416750937700272,-9.997212409973145
363,25300.0,-0.8327022790908813,-0.2416750937700272,-9.997212409973145
364,25400.0,-0.9332008361816406,-0.6652047038078308,-9.65503978729248
365,25500.0,-0.9332008361816406,-0.6652047038078308,-9.65503978729248
366,25600.0,-1.057627558708191,-0.34217363595962524,-9.671788215637207
367,25700.0,-1.057627558708191,-0.34217363595962524,-9.671788215637207
368,25800.0,-1.1006983518600464,-0.3349951505661011,-9.628718376159668
369,25900.0,-1.1006983518600464,-0.3349951505661011,-9.628718376159668
370,26000.0,-1.1006983518600464,-0.3349951505661011,-9.628718376159668
371,26100.0,-1.0863415002822876,-0.3206382095813751,-9.645467758178713
372,26200.0,-1.0863415002822876,-0.3206382095813751,-9.645467758178713
373,26300.0,-1.191625714302063,-0.3493521213531494,-9.650253295898438
374,26400.0,-1.191625714302063,-0.3493521213531494,-9.650253295898438
375,26500.0,-1.1150553226470947,0.8159525394439697,-9.059226989746094
376,26600.0,-1.1150553226470947,0.8159525394439697,-9.059226989746094
377,26700.0,-1.1150553226470947,0.8159525394439697,-9.059226989746094
378,26800.0,-1.1198409795761108,0.34695929288864136,-9.487542152404783
379,26900.0,-1.1198409795761108,0.34695929288864136,-9.487542152404783
380,26000.0,-1.1006983518600464,-0.3349951505661011,-9.628718376159668
381,26100.0,-1.0863415002822876,-0.3206382095813751,-9.645467758178713
382,26200.0,-1.0863415002822876,-0.3206382095813751,-9.645467758178713
383,26300.0,-1.191625714302063,-0.3493521213531494,-9.650253295898438
384,26400.0,-1.191625714302063,-0.3493521213531494,-9.650253295898438
385,26500.0,-1.1150553226470947,0.8159525394439697,-9.059226989746094
386,26600.0,-1.1150553226470947,0.8159525394439697,-9.059226989746094
387,26700.0,-1.1150553226470947,0.8159525394439697,-9.059226989746094
388,26800.0,-1.1198409795761108,0.34695929288864136,-9.487542152404783
389,26900.0,-1.1198409795761108,0.34695929288864136,-9.487542152404783
390,27000.0,-1.215553879737854,0.2464607357978821,-9.525827407836914
391,27100.0,-1.215553879737854,0.2464607357978821,-9.525827407836914
392,27200.0,-1.7802598476409912,1.031306505203247,-8.963513374328613
393,27300.0,-1.7802598476409912,1.031306505203247,-8.963513374328613
394,27400.0,-1.7802598476409912,1.031306505203247,-8.963513374328613
395,27500.0,-0.9906285405158995,0.20338992774486545,-9.664610862731934
396,27600.0,-0.9906285405158995,0.20338992774486545,-9.664610862731934
397,27700.0,-0.6556334495544434,0.7585247755050659,-9.609575271606444
398,27800.0,-0.6556334495544434,0.7585247755050659,-9.609575271606444
399,27900.0,-0.8231310248374939,0.7250252366065979,-9.461220741271973
400,27000.0,-1.215553879737854,0.2464607357978821,-9.525827407836914
401,27100.0,-1.215553879737854,0.2464607357978821,-9.525827407836914
402,27200.0,-1.7802598476409912,1.031306505203247,-8.963513374328613
403,27300.0,-1.7802598476409912,1.031306505203247,-8.963513374328613
404,27400.0,-1.7802598476409912,1.031306505203247,-8.963513374328613
405,27500.0,-0.9906285405158995,0.20338992774486545,-9.664610862731934
406,27600.0,-0.9906285405158995,0.20338992774486545,-9.664610862731934
407,27700.0,-0.6556334495544434,0.7585247755050659,-9.609575271606444
408,27800.0,-0.6556334495544434,0.7585247755050659,-9.609575271606444
409,27900.0,-0.8231310248374939,0.7250252366065979,-9.461220741271973
410,28000.0,-0.8231310248374939,0.7250252366065979,-9.461220741271973
411,28100.0,-0.8231310248374939,0.7250252366065979,-9.461220741271973
412,28200.0,-0.8662018179893494,-0.04785645008087158,-9.954142570495604
413,28300.0,-0.8662018179893494,-0.04785645008087158,-9.954142570495604
414,28400.0,-0.8566305041313171,0.25363919138908386,-10.16231918334961
415,28500.0,-0.8566305041313171,0.25363919138908386,-10.16231918334961
416,28600.0,-0.8566305041313171,0.25363919138908386,-10.16231918334961
417,28700.0,-1.6319050788879397,1.0384850502014158,-9.499505043029783
418,28800.0,-1.6319050788879397,1.0384850502014158,-9.499505043029783
419,28900.0,-0.9571290016174316,0.4618147313594818,-9.846465110778807
420,28000.0,-0.8231310248374939,0.7250252366065979,-9.461220741271973
421,28100.0,-0.8231310248374939,0.7250252366065979,-9.461220741271973
422,28200.0,-0.8662018179893494,-0.04785645008087158,-9.954142570495604
423,28300.0,-0.8662018179893494,-0.04785645008087158,-9.954142570495604
424,28400.0,-0.8566305041313171,0.25363919138908386,-10.16231918334961
425,28500.0,-0.8566305041313171,0.25363919138908386,-10.16231918334961
426,28600.0,-0.8566305041313171,0.25363919138908386,-10.16231918334961
427,28700.0,-1.6319050788879397,1.0384850502014158,-9.499505043029783
428,28800.0,-1.6319050788879397,1.0384850502014158,-9.499505043029783
429,28900.0,-0.9571290016174316,0.4618147313594818,-9.846465110778807
430,29000.0,-0.9571290016174316,0.4618147313594818,-9.846465110778807
431,29100.0,-1.1772687435150146,1.6821542978286743,-9.214759826660156
432,29200.0,-1.1772687435150146,1.6821542978286743,-9.214759826660156
433,29300.0,-1.1772687435150146,1.6821542978286743,-9.214759826660156
434,29400.0,-1.196411371231079,0.36370906233787537,-9.446864128112793
435,29500.0,-1.196411371231079,0.36370906233787537,-9.446864128112793
436,29600.0,-1.1389836072921753,1.730010747909546,-9.20997428894043
437,29700.0,-1.1389836072921753,1.730010747909546,-9.20997428894043
438,29800.0,-0.9906285405158995,-1.964507341384888,-10.04985523223877
439,29900.0,-0.9906285405158995,-1.964507341384888,-10.04985523223877
440,29000.0,-0.9571290016174316,0.4618147313594818,-9.846465110778807
441,29100.0,-1.1772687435150146,1.6821542978286743,-9.214759826660156
442,29200.0,-1.1772687435150146,1.6821542978286743,-9.214759826660156
443,29300.0,-1.1772687435150146,1.6821542978286743,-9.214759826660156
444,29400.0,-1.196411371231079,0.36370906233787537,-9.446864128112793
445,29500.0,-1.196411371231079,0.36370906233787537,-9.446864128112793
446,29600.0,-1.1389836072921753,1.730010747909546,-9.20997428894043
447,29700.0,-1.1389836072921753,1.730010747909546,-9.20997428894043
448,29800.0,-0.9906285405158995,-1.964507341384888,-10.04985523223877
449,29900.0,-0.9906285405158995,-1.964507341384888,-10.04985523223877
450,30000.0,-0.9906285405158995,-1.964507341384888,-10.04985523223877
451,30100.0,-0.9427721500396729,0.6771688461303711,-9.485149383544922
452,30200.0,-0.9427721500396729,0.6771688461303711,-9.485149383544922
453,30300.0,-1.057627558708191,-0.0047856452874839315,-9.442078590393066
454,30400.0,-1.057627558708191,-0.0047856452874839315,-9.442078590393066
455,30500.0,-1.0241280794143677,-0.055034920573234565,-9.734003067016602
456,30600.0,-1.0241280794143677,-0.055034920573234565,-9.734003067016602
457,30700.0,-1.0193424224853516,-0.4498506784439087,-9.853643417358398
458,30800.0,-1.0193424224853516,-0.4498506784439087,-9.853643417358398
459,30900.0,-1.0193424224853516,-0.4498506784439087,-9.853643417358398
460,30000.0,-0.9906285405158995,-1.964507341384888,-10.04985523223877
461,30100.0,-0.9427721500396729,0.6771688461303711,-9.485149383544922
462,30200.0,-0.9427721500396729,0.6771688461303711,-9.485149383544922
463,30300.0,-1.057627558708191,-0.0047856452874839315,-9.442078590393066
464,30400.0,-1.057627558708191,-0.0047856452874839315,-9.442078590393066
465,30500.0,-1.0241280794143677,-0.055034920573234565,-9.734003067016602
466,30600.0,-1.0241280794143677,-0.055034920573234565,-9.734003067016602
467,30700.0,-1.0193424224853516,-0.4498506784439087,-9.853643417358398
468,30800.0,-1.0193424224853516,-0.4498506784439087,-9.853643417358398
469,30900.0,-1.0193424224853516,-0.4498506784439087,-9.853643417358398
470,31000.0,-1.1102697849273682,0.82791668176651,-9.7938232421875
471,31100.0,-1.1102697849273682,0.82791668176651,-9.7938232421875
472,31200.0,-1.0815558433532717,1.0480562448501587,-9.384650230407717
473,31300.0,-1.0815558433532717,1.0480562448501587,-9.384650230407717
474,31400.0,-1.2251251935958862,0.21296121180057528,-9.530611991882324
475,31500.0,-1.2251251935958862,0.21296121180057528,-9.530611991882324
476,31600.0,-1.2346963882446291,0.3613162040710449,-9.597611427307127
477,31700.0,-1.2346963882446291,0.3613162040710449,-9.597611427307127
478,31800.0,-1.2346963882446291,0.3613162040710449,-9.597611427307127
479,31900.0,-0.4259224236011505,1.7467604875564575,-9.650253295898438
480,31000.0,-1.1102697849273682,0.82791668176651,-9.7938232421875
481,31100.0,-1.1102697849273682,0.82791668176651,-9.7938232421875
482,31200.0,-1.0815558433532717,1.0480562448501587,-9.384650230407717
483,31300.0,-1.0815558433532717,1.0480562448501587,-9.384650230407717
484,31400.0,-1.2251251935958862,0.21296121180057528,-9.530611991882324
485,31500.0,-1.2251251935958862,0.21296121180057528,-9.530611991882324
486,31600.0,-1.2346963882446291,0.3613162040710449,-9.597611427307127
487,31700.0,-1.2346963882446291,0.3613162040710449,-9.597611427307127
488,31800.0,-1.2346963882446291,0.3613162040710449,-9.597611427307127
489,31900.0,-0.4259224236011505,1.7467604875564575,-9.650253295898438
490,32000.0,-0.4259224236011505,1.7467604875564575,-9.650253295898438
491,32100.0,-0.5120640397071838,-2.648854732513428,-9.698110580444336
492,32200.0,-0.5120640397071838,-2.648854732513428,-9.698110580444336
493,32300.0,-0.5120640397071838,-2.648854732513428,-9.698110580444336
494,32400.0,-0.8087739944458008,0.5024927258491516,-9.410971641540527
495,32500.0,-0.8087739944458008,0.5024927258491516,-9.410971641540527
496,32600.0,-1.6797614097595217,-0.3254238963127136,-9.489934921264648
497,32700.0,-1.6797614097595217,-0.3254238963127136,-9.489934921264648
498,32800.0,-2.493321180343628,4.1587257385253915,-9.743573188781738
499,32900.0,-2.493321180343628,4.1587257385253915,-9.743573188781738
500,32000.0,-0.4259224236011505,1.7467604875564575,-9.650253295898438
501,32100.0,-0.5120640397071838,-2.648854732513428,-9.698110580444336
502,32200.0,-0.5120640397071838,-2.648854732513428,-9.698110580444336
503,32300.0,-0.5120640397071838,-2.648854732513428,-9.698110580444336
504,32400.0,-0.8087739944458008,0.5024927258491516,-9.410971641540527
505,32500.0,-0.8087739944458008,0.5024927258491516,-9.410971641540527
506,32600.0,-1.6797614097595217,-0.3254238963127136,-9.489934921264648
507,32700.0,-1.6797614097595217,-0.3254238963127136,-9.489934921264648
508,32800.0,-2.493321180343628,4.1587257385253915,-9.743573188781738
509,32900.0,-2.493321180343628,4.1587257385253915,-9.743573188781738
510,33000.0,-1.8472589254379272,1.5912269353866575,-9.339186668395996
511,33100.0,-1.8472589254379272,1.5912269353866575,-9.339186668395996
512,33200.0,-1.8472589254379272,1.5912269353866575,-9.339186668395996
513,33300.0,-0.4067798554897308,-1.739582061767578,-11.736795425415039
514,33400.0,-0.4067798554897308,-1.739582061767578,-11.736795425415039
515,33500.0,0.09571290016174316,-0.6699903011322021,-9.899106979370117
516,33600.0,0.09571290016174316,-0.6699903011322021,-9.899106979370117
517,33700.0,0.09571290016174316,-0.6699903011322021,-9.899106979370117
518,33800.0,-5.45563554763794,1.7754744291305542,-5.32403039932251
519,33900.0,-5.45563554763794,1.7754744291305542,-5.32403039932251
520,33000.0,-1.8472589254379272,1.5912269353866575,-9.339186668395996
521,33100.0,-1.8472589254379272,1.5912269353866575,-9.339186668395996
522,33200.0,-1.8472589254379272,1.5912269353866575,-9.339186668395996
523,33300.0,-0.4067798554897308,-1.739582061767578,-11.736795425415039
524,33400.0,-0.4067798554897308,-1.739582061767578,-11.736795425415039
525,33500.0,0.09571290016174316,-0.6699903011322021,-9.899106979370117
526,33600.0,0.09571290016174316,-0.6699903011322021,-9.899106979370117
527,33700.0,0.09571290016174316,-0.6699903011322021,-9.899106979370117
528,33800.0,-5.45563554763794,1.7754744291305542,-5.32403039932251
529,33900.0,-5.45563554763794,1.7754744291305542,-5.32403039932251
530,34000.0,-1.7515461444854736,-0.430708110332489,-10.959127426147461
531,34100.0,-1.7515461444854736,-0.430708110332489,-10.959127426147461
532,34200.0,-0.5599204897880554,-2.392822742462158,-9.645467758178713
533,34300.0,-0.5599204897880554,-2.392822742462158,-9.645467758178713
534,34400.0,-2.569891452789306,0.4833501875400543,-10.248459815979004
535,34500.0,-2.569891452789306,0.4833501875400543,-10.248459815979004
536,34600.0,-2.2157537937164307,-0.969093143939972,-9.719645500183104
537,34700.0,-2.2157537937164307,-0.969093143939972,-9.719645500183104
538,34800.0,-2.2157537937164307,-0.969093143939972,-9.719645500183104
539,34900.0,-2.115255117416382,-0.2440679222345352,-9.449256896972656
540,34000.0,-1.7515461444854736,-0.430708110332489,-10.959127426147461
541,34100.0,-1.7515461444854736,-0.430708110332489,-10.959127426147461
542,34200.0,-0.5599204897880554,-2.392822742462158,-9.645467758178713
543,34300.0,-0.5599204897880554,-2.392822742462158,-9.645467758178713
544,34400.0,-2.569891452789306,0.4833501875400543,-10.248459815979004
545,34500.0,-2.569891452789306,0.4833501875400543,-10.248459815979004
546,34600.0,-2.2157537937164307,-0.969093143939972,-9.719645500183104
547,34700.0,-2.2157537937164307,-0.969093143939972,-9.719645500183104
548,34800.0,-2.2157537937164307,-0.969093143939972,-9.719645500183104
549,34900.0,-2.115255117416382,-0.2440679222345352,-9.449256896972656
550,35000.0,-2.115255117416382,-0.2440679222345352,-9.449256896972656
551,35100.0,-2.0769701004028316,-0.1052841916680336,-9.549755096435547
552,35200.0,-2.0769701004028316,-0.1052841916680336,-9.549755096435547
553,35300.0,-2.0769701004028316,-0.1052841916680336,-9.549755096435547
554,35400.0,-2.627319574356079,-0.2512463629245758,-8.233702659606934
555,35500.0,-2.627319574356079,-0.2512463629245758,-8.233702659606934
556,35600.0,-2.6799612045288086,0.6532405614852905,-9.750752449035645
557,35700.0,-2.6799612045288086,0.6532405614852905,-9.750752449035645
558,35800.0,-0.11485548317432405,1.3375877141952517,-8.884550094604492
559,35900.0,-0.11485548317432405,1.3375877141952517,-8.884550094604492
560,35000.0,-2.115255117416382,-0.2440679222345352,-9.449256896972656
561,35100.0,-2.0769701004028316,-0.1052841916680336,-9.549755096435547
562,35200.0,-2.0769701004028316,-0.1052841916680336,-9.549755096435547
563,35300.0,-2.0769701004028316,-0.1052841916680336,-9.549755096435547
564,35400.0,-2.627319574356079,-0.2512463629245758,-8.233702659606934
565,35500.0,-2.627319574356079,-0.2512463629245758,-8.233702659606934
566,35600.0,-2.6799612045288086,0.6532405614852905,-9.750752449035645
567,35700.0,-2.6799612045288086,0.6532405614852905,-9.750752449035645
568,35800.0,-0.11485548317432405,1.3375877141952517,-8.884550094604492
569,35900.0,-0.11485548317432405,1.3375877141952517,-8.884550094604492
570,36000.0,-0.11485548317432405,1.3375877141952517,-8.884550094604492
571,36100.0,-2.368894338607788,0.34217363595962524,-10.466205596923828
572,36200.0,-2.368894338607788,0.34217363595962524,-10.466205596923828
573,36300.0,-3.3020951747894287,-0.34695929288864136,-8.446663856506348
574,36400.0,-3.3020951747894287,-0.34695929288864136,-8.446663856506348
575,36500.0,-2.4981069564819336,4.666004180908203,-8.863015174865723
576,36600.0,-2.4981069564819336,4.666004180908203,-8.863015174865723
577,36700.0,-2.6560330390930176,0.0406779870390892,-9.588040351867676
578,36800.0,-2.6560330390930176,0.0406779870390892,-9.588040351867676
579,36900.0,-2.6560330390930176,0.0406779870390892,-9.588040351867676
580,36000.0,-0.11485548317432405,1.3375877141952517,-8.884550094604492
581,36100.0,-2.368894338607788,0.34217363595962524,-10.466205596923828
582,36200.0,-2.368894338607788,0.34217363595962524,-10.466205596923828
583,36300.0,-3.3020951747894287,-0.34695929288864136,-8.446663856506348
584,36400.0,-3.3020951747894287,-0.34695929288864136,-8.446663856506348
585,36500.0,-2.4981069564819336,4.666004180908203,-8.863015174865723
586,36600.0,-2.4981069564819336,4.666004180908203,-8.863015174865723
587,36700.0,-2.6560330390930176,0.0406779870390892,-9.588040351867676
588,36800.0,-2.6560330390930176,0.0406779870390892,-9.588040351867676
589,36900.0,-2.6560330390930176,0.0406779870390892,-9.588040351867676
590,37000.0,-3.0436704158782963,0.4737788736820221,-9.521041870117188
591,37100.0,-3.0436704158782963,0.4737788736820221,-9.521041870117188
592,37200.0,-3.7567315101623535,-2.3712873458862305,-12.162715911865234
593,37300.0,-3.7567315101623535,-2.3712873458862305,-12.162715911865234
594,37400.0,-2.7038896083831787,0.6029912829399109,-9.207581520080566
595,37500.0,-2.7038896083831787,0.6029912829399109,-9.207581520080566
596,37600.0,-2.7038896083831787,0.6029912829399109,-9.207581520080566
597,37700.0,-2.4598214626312256,0.15074782073497772,-9.506684303283693
598,37800.0,-2.4598214626312256,0.15074782073497772,-9.506684303283693
599,37900.0,-3.259024381637573,-0.4235295951366425,-10.006784439086914
600,37000.0,-3.0436704158782963,0.4737788736820221,-9.521041870117188
601,37100.0,-3.0436704158782963,0.4737788736820221,-9.521041870117188
602,37200.0,-3.7567315101623535,-2.3712873458862305,-12.162715911865234
603,37300.0,-3.7567315101623535,-2.3712873458862305,-12.162715911865234
604,37400.0,-2.7038896083831787,0.6029912829399109,-9.207581520080566
605,37500.0,-2.7038896083831787,0.6029912829399109,-9.207581520080566
606,37600.0,-2.7038896083831787,0.6029912829399109,-9.207581520080566
607,37700.0,-2.4598214626312256,0.15074782073497772,-9.506684303283693
608,37800.0,-2.4598214626312256,0.15074782073497772,-9.506684303283693
609,37900.0,-3.259024381637573,-0.4235295951366425,-10.006784439086914
610,38000.0,-3.259024381637573,-0.4235295951366425,-10.006784439086914
611,38100.0,-2.627319574356079,-0.20099709928035736,-9.4061861038208
612,38200.0,-2.627319574356079,-0.20099709928035736,-9.4061861038208
613,38300.0,-2.9718859195709233,0.8949156999588013,-8.499305725097656
614,38400.0,-2.9718859195709233,0.8949156999588013,-8.499305725097656
615,38500.0,-2.9718859195709233,0.8949156999588013,-8.499305725097656
616,38600.0,-2.177468776702881,-0.7585247755050659,-12.478569984436035
617,38700.0,-2.177468776702881,-0.7585247755050659,-12.478569984436035
618,38800.0,-1.0959126949310305,0.16749757528305054,-9.571290969848633
619,38900.0,-1.0959126949310305,0.16749757528305054,-9.571290969848633
620,38000.0,-3.259024381637573,-0.4235295951366425,-10.006784439086914
621,38100.0,-2.627319574356079,-0.20099709928035736,-9.4061861038208
622,38200.0,-2.627319574356079,-0.20099709928035736,-9.4061861038208
623,38300.0,-2.9718859195709233,0.8949156999588013,-8.499305725097656
624,38400.0,-2.9718859195709233,0.8949156999588013,-8.499305725097656
625,38500.0,-2.9718859195709233,0.8949156999588013,-8.499305725097656
626,38600.0,-2.177468776702881,-0.7585247755050659,-12.478569984436035
627,38700.0,-2.177468776702881,-0.7585247755050659,-12.478569984436035
628,38800.0,-1.0959126949310305,0.16749757528305054,-9.571290969848633
629,38900.0,-1.0959126949310305,0.16749757528305054,-9.571290969848633
630,39000.0,-2.823530912399292,0.2679961323738098,-9.60478973388672
631,39100.0,-2.823530912399292,0.2679961323738098,-9.60478973388672
632,39200.0,-2.823530912399292,0.2679961323738098,-9.60478973388672
633,39300.0,-2.569891452789306,-2.909672498703003,-7.70249605178833
634,39400.0,-2.569891452789306,-2.909672498703003,-7.70249605178833
635,39500.0,-2.2396819591522217,-0.5934200286865234,-9.82971477508545
636,39600.0,-2.2396819591522217,-0.5934200286865234,-9.82971477508545
637,39700.0,-1.325623631477356,-0.014356935396790503,-9.33440113067627
638,39800.0,-1.325623631477356,-0.014356935396790503,-9.33440113067627
639,39900.0,-1.325623631477356,-0.014356935396790503,-9.33440113067627
640,39000.0,-2.823530912399292,0.2679961323738098,-9.60478973388672
641,39100.0,-2.823530912399292,0.2679961323738098,-9.60478973388672
642,39200.0,-2.823530912399292,0.2679961323738098,-9.60478973388672
643,39300.0,-2.569891452789306,-2.909672498703003,-7.70249605178833
644,39400.0,-2.569891452789306,-2.909672498703003,-7.70249605178833
645,39500.0,-2.2396819591522217,-0.5934200286865234,-9.82971477508545
646,39600.0,-2.2396819591522217,-0.5934200286865234,-9.82971477508545
647,39700.0,-1.325623631477356,-0.014356935396790503,-9.33440113067627
648,39800.0,-1.325623631477356,-0.014356935396790503,-9.33440113067627
649,39900.0,-1.325623631477356,-0.014356935396790503,-9.33440113067627
650,40000.0,-2.6608188152313232,1.0983055830001829,-8.896513938903809
651,40100.0,-2.6608188152313232,1.0983055830001829,-8.896513938903809
652,40200.0,-3.086741209030152,1.9262222051620483,-8.082954406738281
653,40300.0,-3.086741209030152,1.9262222051620483,-8.082954406738281
654,40400.0,-2.531606435775757,0.7728817462921143,-9.454042434692383
655,40500.0,-2.531606435775757,0.7728817462921143,-9.454042434692383
656,40600.0,-2.565105676651001,0.8111668825149536,-9.497113227844238
657,40700.0,-2.565105676651001,0.8111668825149536,-9.497113227844238
658,40800.0,-1.411765456199646,1.06480610370636,-9.269794464111328
659,40900.0,-1.411765456199646,1.06480610370636,-9.269794464111328
660,40000.0,-2.6608188152313232,1.0983055830001829,-8.896513938903809
661,40100.0,-2.6608188152313232,1.0983055830001829,-8.896513938903809
662,40200.0,-3.086741209030152,1.9262222051620483,-8.082954406738281
663,40300.0,-3.086741209030152,1.9262222051620483,-8.082954406738281
664,40400.0,-2.531606435775757,0.7728817462921143,-9.454042434692383
665,40500.0,-2.531606435775757,0.7728817462921143,-9.454042434692383
666,40600.0,-2.565105676651001,0.8111668825149536,-9.497113227844238
667,40700.0,-2.565105676651001,0.8111668825149536,-9.497113227844238
668,40800.0,-1.411765456199646,1.06480610370636,-9.269794464111328
669,40900.0,-1.411765456199646,1.06480610370636,-9.269794464111328
670,41000.0,-1.411765456199646,1.06480610370636,-9.269794464111328
671,41100.0,-2.7182462215423584,-0.6412764191627502,-8.145168304443361
672,41200.0,-2.7182462215423584,-0.6412764191627502,-8.145168304443361
673,41300.0,-0.9954141974449158,0.007178467698395251,-8.338986396789549
674,41400.0,-0.9954141974449158,0.007178467698395251,-8.338986396789549
675,41500.0,-3.1345977783203125,1.3543376922607422,-9.568897247314453
676,41600.0,-3.1345977783203125,1.3543376922607422,-9.568897247314453
677,41700.0,-3.1345977783203125,1.3543376922607422,-9.568897247314453
678,41800.0,-2.9527432918548584,1.8065810203552248,-9.784252166748047
679,41900.0,-2.9527432918548584,1.8065810203552248,-9.784252166748047
680,41000.0,-1.411765456199646,1.06480610370636,-9.269794464111328
681,41100.0,-2.7182462215423584,-0.6412764191627502,-8.145168304443361
682,41200.0,-2.7182462215423584,-0.6412764191627502,-8.145168304443361
683,41300.0,-0.9954141974449158,0.007178467698395251,-8.338986396789549
684,41400.0,-0.9954141974449158,0.007178467698395251,-8.338986396789549
685,41500.0,-3.1345977783203125,1.3543376922607422,-9.568897247314453
686,41600.0,-3.1345977783203125,1.3543376922607422,-9.568897247314453
687,41700.0,-3.1345977783203125,1.3543376922607422,-9.568897247314453
688,41800.0,-2.9527432918548584,1.8065810203552248,-9.784252166748047
689,41900.0,-2.9527432918548584,1.8065810203552248,-9.784252166748047
690,42000.0,-1.1724830865859983,0.0933200791478157,-8.865407943725586
691,42100.0,-1.1724830865859983,0.0933200791478157,-8.865407943725586
692,42200.0,-3.1968109607696533,1.581655740737915,-9.262616157531738
693,42300.0,-3.1968109607696533,1.581655740737915,-9.262616157531738
694,42400.0,-3.1968109607696533,1.581655740737915,-9.262616157531738
695,42500.0,-2.541177749633789,0.7824530005455017,-9.63828945159912
696,42600.0,-2.541177749633789,0.7824530005455017,-9.63828945159912
697,42700.0,-3.0101709365844727,0.7992027401924133,-9.315258979797363
698,42800.0,-3.0101709365844727,0.7992027401924133,-9.315258979797363
699,42900.0,-2.9288151264190674,0.3278167247772217,-8.934800148010254
700,42000.0,-1.1724830865859983,0.0933200791478157,-8.865407943725586
701,42100.0,-1.1724830865859983,0.0933200791478157,-8.865407943725586
702,42200.0,-3.1968109607696533,1.581655740737915,-9.262616157531738
703,42300.0,-3.1968109607696533,1.581655740737915,-9.262616157531738
704,42400.0,-3.1968109607696533,1.581655740737915,-9.262616157531738
705,42500.0,-2.541177749633789,0.7824530005455017,-9.63828945159912
706,42600.0,-2.541177749633789,0.7824530005455017,-9.63828945159912
707,42700.0,-3.0101709365844727,0.7992027401924133,-9.315258979797363
708,42800.0,-3.0101709365844727,0.7992027401924133,-9.315258979797363
709,42900.0,-2.9288151264190674,0.3278167247772217,-8.934800148010254
710,43000.0,-2.9288151264190674,0.3278167247772217,-8.934800148010254
711,43100.0,-2.9288151264190674,0.3278167247772217,-8.934800148010254
712,43200.0,-2.68953275680542,0.7178468108177185,-9.176474571228027
713,43300.0,-2.68953275680542,0.7178468108177185,-9.176474571228027
714,43400.0,-6.0394840240478525,7.4608211517333975,-4.687539577484131
715,43500.0,-6.0394840240478525,7.4608211517333975,-4.687539577484131
716,43600.0,-2.991028308868408,0.7561319470405579,-8.800802230834961
717,43700.0,-2.991028308868408,0.7561319470405579,-8.800802230834961
718,43800.0,-2.991028308868408,0.7561319470405579,-8.800802230834961
719,43900.0,-3.3068809509277344,1.00259268283844,-9.24825954437256
720,43000.0,-2.9288151264190674,0.3278167247772217,-8.934800148010254
721,43100.0,-2.9288151264190674,0.3278167247772217,-8.934800148010254
722,43200.0,-2.68953275680542,0.7178468108177185,-9.176474571228027
723,43300.0,-2.68953275680542,0.7178468108177185,-9.176474571228027
724,43400.0,-6.0394840240478525,7.4608211517333975,-4.687539577484131
725,43500.0,-6.0394840240478525,7.4608211517333975,-4.687539577484131
726,43600.0,-2.991028308868408,0.7561319470405579,-8.800802230834961
727,43700.0,-2.991028308868408,0.7561319470405579,-8.800802230834961
728,43800.0,-2.991028308868408,0.7561319470405579,-8.800802230834961
729,43900.0,-3.3068809509277344,1.00259268283844,-9.24825954437256
730,44000.0,-3.3068809509277344,1.00259268283844,-9.24825954437256
731,44100.0,-1.5170495510101318,-1.210768222808838,-7.539783954620361
732,44200.0,-1.5170495510101318,-1.210768222808838,-7.539783954620361
733,44300.0,-2.617748022079468,0.5048855543136597,-9.77707290649414
734,44400.0,-2.617748022079468,0.5048855543136597,-9.77707290649414
735,44500.0,-2.617748022079468,0.5048855543136597,-9.77707290649414
736,44600.0,-2.651247262954712,-0.11246266961097716,-9.401400566101074
737,44700.0,-2.651247262954712,-0.11246266961097716,-9.401400566101074
738,44800.0,-2.9862425327301025,0.5120640397071838,-9.363115310668944
739,44900.0,-2.9862425327301025,0.5120640397071838,-9.363115310668944
740,44000.0,-3.3068809509277344,1.00259268283844,-9.24825954437256
741,44100.0,-1.5170495510101318,-1.210768222808838,-7.539783954620361
742,44200.0,-1.5170495510101318,-1.210768222808838,-7.539783954620361
743,44300.0,-2.617748022079468,0.5048855543136597,-9.77707290649414
744,44400.0,-2.617748022079468,0.5048855543136597,-9.77707290649414
745,44500.0,-2.617748022079468,0.5048855543136597,-9.77707290649414
746,44600.0,-2.651247262954712,-0.11246266961097716,-9.401400566101074
747,44700.0,-2.651247262954712,-0.11246266961097716,-9.401400566101074
748,44800.0,-2.9862425327301025,0.5120640397071838,-9.363115310668944
749,44900.0,-2.9862425327301025,0.5120640397071838,-9.363115310668944
750,45000.0,-3.445664882659912,0.14117653667926788,-9.992427825927734
751,45100.0,-3.445664882659912,0.14117653667926788,-9.992427825927734
752,45200.0,-3.445664882659912,0.14117653667926788,-9.992427825927734
753,45300.0,-0.35892340540885925,3.0388848781585693,-7.848458290100098
754,45400.0,-0.35892340540885925,3.0388848781585693,-7.848458290100098
755,45500.0,-2.517249345779419,-0.09810572117567062,-9.784252166748047
756,45600.0,-2.517249345779419,-0.09810572117567062,-9.784252166748047
757,45700.0,-2.531606435775757,-0.09092726558446884,-10.767702102661133
758,45800.0,-2.531606435775757,-0.09092726558446884,-10.767702102661133
759,45900.0,-2.531606435775757,-0.09092726558446884,-10.767702102661133
760,45000.0,-3.445664882659912,0.14117653667926788,-9.992427825927734
761,45100.0,-3.445664882659912,0.14117653667926788,-9.992427825927734
762,45200.0,-3.445664882659912,0.14117653667926788,-9.992427825927734
763,45300.0,-0.35892340540885925,3.0388848781585693,-7.848458290100098
764,45400.0,-0.35892340540885925,3.0388848781585693,-7.848458290100098
765,45500.0,-2.517249345779419,-0.09810572117567062,-9.784252166748047
766,45600.0,-2.517249345779419,-0.09810572117567062,-9.784252166748047
767,45700.0,-2.531606435775757,-0.09092726558446884,-10.767702102661133
768,45800.0,-2.531606435775757,-0.09092726558446884,-10.767702102661133
769,45900.0,-2.531606435775757,-0.09092726558446884,-10.767702102661133
770,46000.0,-1.4404792785644531,-0.20817556977272034,-8.365307807922362
771,46100.0,-1.4404792785644531,-0.20817556977272034,-8.365307807922362
772,46200.0,-3.5270204544067383,4.25922441482544,-8.305487632751465
773,46300.0,-3.5270204544067383,4.25922441482544,-8.305487632751465
774,46400.0,-2.1583259105682373,4.065405368804932,-9.631111145019533
775,46500.0,-2.1583259105682373,4.065405368804932,-9.631111145019533
776,46600.0,-2.579463005065918,0.8853443264961243,-9.382257461547852
777,46700.0,-2.579463005065918,0.8853443264961243,-9.382257461547852
778,46800.0,-2.579463005065918,0.8853443264961243,-9.382257461547852
779,46900.0,-3.594019651412964,2.6560330390930176,-9.083154678344727
780,46000.0,-1.4404792785644531,-0.20817556977272034,-8.365307807922362
781,46100.0,-1.4404792785644531,-0.20817556977272034,-8.365307807922362
782,46200.0,-3.5270204544067383,4.25922441482544,-8.305487632751465
783,46300.0,-3.5270204544067383,4.25922441482544,-8.305487632751465
784,46400.0,-2.1583259105682373,4.065405368804932,-9.631111145019533
785,46500.0,-2.1583259105682373,4.065405368804932,-9.631111145019533
786,46600.0,-2.579463005065918,0.8853443264961243,-9.382257461547852
787,46700.0,-2.579463005065918,0.8853443264961243,-9.382257461547852
788,46800.0,-2.579463005065918,0.8853443264961243,-9.382257461547852
789,46900.0,-3.594019651412964,2.6560330390930176,-9.083154678344727
790,47000.0,-3.594019651412964,2.6560330390930176,-9.083154678344727
791,47100.0,-2.421536445617676,0.7968099117279053,-10.009177207946776
792,47200.0,-2.421536445617676,0.7968099117279053,-10.009177207946776
793,47300.0,-2.421536445617676,0.7968099117279053,-10.009177207946776
794,47400.0,-1.7706886529922483,-1.289731502532959,-9.276973724365234
795,47500.0,-1.7706886529922483,-1.289731502532959,-9.276973724365234
796,47600.0,-2.8043880462646484,-0.11724831163883208,-9.26740264892578
797,47700.0,-2.8043880462646484,-0.11724831163883208,-9.26740264892578
798,47800.0,-2.4502503871917725,0.0813559740781784,-10.021141052246094
799,47900.0,-2.4502503871917725,0.0813559740781784,-10.021141052246094
800,47000.0,-3.594019651412964,2.6560330390930176,-9.083154678344727
801,47100.0,-2.421536445617676,0.7968099117279053,-10.009177207946776
802,47200.0,-2.421536445617676,0.7968099117279053,-10.009177207946776
803,47300.0,-2.421536445617676,0.7968099117279053,-10.009177207946776
804,47400.0,-1.7706886529922483,-1.289731502532959,-9.276973724365234
805,47500.0,-1.7706886529922483,-1.289731502532959,-9.276973724365234
806,47600.0,-2.8043880462646484,-0.11724831163883208,-9.26740264892578
807,47700.0,-2.8043880462646484,-0.11724831163883208,-9.26740264892578
808,47800.0,-2.4502503871917725,0.0813559740781784,-10.021141052246094
809,47900.0,-2.4502503871917725,0.0813559740781784,-10.021141052246094
810,48000.0,-1.129412293434143,-2.452643394470215,-11.365907669067385
811,48100.0,-1.129412293434143,-2.452643394470215,-11.365907669067385
812,48200.0,-1.129412293434143,-2.452643394470215,-11.365907669067385
813,48300.0,-2.9814569950103764,0.5144568681716919,-8.920442581176758
814,48400.0,-2.9814569950103764,0.5144568681716919,-8.920442581176758
815,48500.0,-2.933600425720215,0.7680960297584534,-9.530611991882324
816,48600.0,-2.933600425720215,0.7680960297584534,-9.530611991882324
817,48700.0,-2.933600425720215,0.7680960297584534,-9.530611991882324
818,48800.0,-3.5700912475585938,-0.906879723072052,-9.62393283843994
819,48900.0,-3.5700912475585938,-0.906879723072052,-9.62393283843994
820,48000.0,-1.129412293434143,-2.452643394470215,-11.365907669067385
821,48100.0,-1.129412293434143,-2.452643394470215,-11.365907669067385
822,48200.0,-1.129412293434143,-2.452643394470215,-11.365907669067385
823,48300.0,-2.9814569950103764,0.5144568681716919,-8.920442581176758
824,48400.0,-2.9814569950103764,0.5144568681716919,-8.920442581176758
825,48500.0,-2.933600425720215,0.7680960297584534,-9.530611991882324
826,48600.0,-2.933600425720215,0.7680960297584534,-9.530611991882324
827,48700.0,-2.933600425720215,0.7680960297584534,-9.530611991882324
828,48800.0,-3.5700912475585938,-0.906879723072052,-9.62393283843994
829,48900.0,-3.5700912475585938,-0.906879723072052,-9.62393283843994
830,49000.0,-3.239881753921509,-0.20817556977272034,-9.820144653320312
831,49100.0,-3.239881753921509,-0.20817556977272034,-9.820144653320312
832,49200.0,-3.5365920066833496,-0.9284151792526244,-9.681360244750977
833,49300.0,-3.5365920066833496,-0.9284151792526244,-9.681360244750977
834,49400.0,-3.0005996227264404,0.4211367666721344,-9.212367057800293
835,49500.0,-3.0005996227264404,0.4211367666721344,-9.212367057800293
836,49600.0,-2.785245418548584,0.17706887423992154,-9.245866775512695
837,49700.0,-2.785245418548584,0.17706887423992154,-9.245866775512695
838,49800.0,-2.785245418548584,0.17706887423992154,-9.245866775512695
839,49900.0,-1.641476273536682,-0.16749757528305054,-8.920442581176758
840,49000.0,-3.239881753921509,-0.20817556977272034,-9.820144653320312
841,49100.0,-3.239881753921509,-0.20817556977272034,-9.820144653320312
842,49200.0,-3.5365920066833496,-0.9284151792526244,-9.681360244750977
843,49300.0,-3.5365920066833496,-0.9284151792526244,-9.681360244750977
844,49400.0,-3.0005996227264404,0.4211367666721344,-9.212367057800293
845,49500.0,-3.0005996227264404,0.4211367666721344,-9.212367057800293
846,49600.0,-2.785245418548584,0.17706887423992154,-9.245866775512695
847,49700.0,-2.785245418548584,0.17706887423992154,-9.245866775512695
848,49800.0,-2.785245418548584,0.17706887423992154,-9.245866775512695
849,49900.0,-1.641476273536682,-0.16749757528305054,-8.920442581176758
850,50000.0,-1.641476273536682,-0.16749757528305054,-8.920442581176758
851,50100.0,-3.0963122844696045,-0.3349951505661011,-9.322437286376953
852,50200.0,-3.0963122844696045,-0.3349951505661011,-9.322437286376953
853,50300.0,-3.0963122844696045,-0.3349951505661011,-9.322437286376953
854,50400.0,-3.0963122844696045,0.03828516229987145,-9.205188751220703
855,50500.0,-3.0963122844696045,0.03828516229987145,-9.205188751220703
856,50600.0,-1.2538390159606934,-0.5288137793540955,-11.327622413635256
857,50700.0,-1.2538390159606934,-0.5288137793540955,-11.327622413635256
858,50800.0,-3.3164520263671875,-2.476571559906006,-12.48574924468994
859,50900.0,-3.3164520263671875,-2.476571559906006,-12.48574924468994
860,50000.0,-1.641476273536682,-0.16749757528305054,-8.920442581176758
861,50100.0,-3.0963122844696045,-0.3349951505661011,-9.322437286376953
862,50200.0,-3.0963122844696045,-0.3349951505661011,-9.322437286376953
863,50300.0,-3.0963122844696045,-0.3349951505661011,-9.322437286376953
864,50400.0,-3.0963122844696045,0.03828516229987145,-9.205188751220703
865,50500.0,-3.0963122844696045,0.03828516229987145,-9.205188751220703
866,50600.0,-1.2538390159606934,-0.5288137793540955,-11.327622413635256
867,50700.0,-1.2538390159606934,-0.5288137793540955,-11.327622413635256
868,50800.0,-3.3164520263671875,-2.476571559906006,-12.48574924468994
869,50900.0,-3.3164520263671875,-2.476571559906006,-12.48574924468994
870,51000.0,-3.1058835983276367,0.9499505758285522,-9.18126106262207
871,51100.0,-3.1058835983276367,0.9499505758285522,-9.18126106262207
872,51200.0,-3.034099102020264,-0.016749758273363113,-11.487940788269045
873,51300.0,-3.034099102020264,-0.016749758273363113,-11.487940788269045
874,51400.0,-3.034099102020264,-0.016749758273363113,-11.487940788269045
875,51500.0,-3.062812805175781,-1.2873386144638062,-8.49452018737793
876,51600.0,-3.062812805175781,-1.2873386144638062,-8.49452018737793
877,51700.0,-2.560320377349853,-1.5553346872329712,-9.702895164489746
878,51800.0,-2.560320377349853,-1.5553346872329712,-9.702895164489746
879,51900.0,-2.699103832244873,-0.9475577473640442,-9.205188751220703
880,51000.0,-3.1058835983276367,0.9499505758285522,-9.18126106262207
881,51100.0,-3.1058835983276367,0.9499505758285522,-9.18126106262207
882,51200.0,-3.034099102020264,-0.016749758273363113,-11.487940788269045
883,51300.0,-3.034099102020264,-0.016749758273363113,-11.487940788269045
884,51400.0,-3.034099102020264,-0.016749758273363113,-11.487940788269045
885,51500.0,-3.062812805175781,-1.2873386144638062,-8.49452018737793
886,51600.0,-3.062812805175781,-1.2873386144638062,-8.49452018737793
887,51700.0,-2.560320377349853,-1.5553346872329712,-9.702895164489746
888,51800.0,-2.560320377349853,-1.5553346872329712,-9.702895164489746
889,51900.0,-2.699103832244873,-0.9475577473640442,-9.205188751220703
890,52000.0,-2.699103832244873,-0.9475577473640442,-9.205188751220703
891,52100.0,-2.699103832244873,-0.9475577473640442,-9.205188751220703
892,52200.0,-2.5507488250732417,-0.4378865361213684,-9.327221870422363
893,52300.0,-2.5507488250732417,-0.4378865361213684,-9.327221870422363
894,52400.0,-2.651247262954712,-1.1940184831619265,-9.853643417358398
895,52500.0,-2.651247262954712,-1.1940184831619265,-9.853643417358398
896,52600.0,-1.7802598476409912,-0.11485548317432405,-8.975478172302246
897,52700.0,-1.7802598476409912,-0.11485548317432405,-8.975478172302246
898,52800.0,-1.7802598476409912,-0.11485548317432405,-8.975478172302246
899,52900.0,-2.0003998279571533,-2.4023938179016118,-10.054640769958496
900,52000.0,-2.699103832244873,-0.9475577473640442,-9.205188751220703
901,52100.0,-2.699103832244873,-0.9475577473640442,-9.205188751220703
902,52200.0,-2.5507488250732417,-0.4378865361213684,-9.327221870422363
903,52300.0,-2.5507488250732417,-0.4378865361213684,-9.327221870422363
904,52400.0,-2.651247262954712,-1.1940184831619265,-9.853643417358398
905,52500.0,-2.651247262954712,-1.1940184831619265,-9.853643417358398
906,52600.0,-1.7802598476409912,-0.11485548317432405,-8.975478172302246
907,52700.0,-1.7802598476409912,-0.11485548317432405,-8.975478172302246
908,52800.0,-1.7802598476409912,-0.11485548317432405,-8.975478172302246
909,52900.0,-2.0003998279571533,-2.4023938179016118,-10.054640769958496
910,53000.0,-2.0003998279571533,-2.4023938179016118,-10.054640769958496
911,53100.0,-1.8616160154342647,-0.4354937374591827,-9.33440113067627
912,53200.0,-1.8616160154342647,-0.4354937374591827,-9.33440113067627
913,53300.0,-2.115255117416382,-0.7465606331825256,-9.647860527038574
914,53400.0,-2.115255117416382,-0.7465606331825256,-9.647860527038574
915,53500.0,-2.115255117416382,-0.7465606331825256,-9.647860527038574
916,53600.0,-2.0195422172546387,-0.7872385978698729,-9.44447135925293
917,53700.0,-2.0195422172546387,-0.7872385978698729,-9.44447135925293
918,53800.0,-1.8376877307891848,-0.7106683850288391,-9.485149383544922
919,53900.0,-1.8376877307891848,-0.7106683850288391,-9.485149383544922
920,53000.0,-2.0003998279571533,-2.4023938179016118,-10.054640769958496
921,53100.0,-1.8616160154342647,-0.4354937374591827,-9.33440113067627
922,53200.0,-1.8616160154342647,-0.4354937374591827,-9.33440113067627
923,53300.0,-2.115255117416382,-0.7465606331825256,-9.647860527038574
924,53400.0,-2.115255117416382,-0.7465606331825256,-9.647860527038574
925,53500.0,-2.115255117416382,-0.7465606331825256,-9.647860527038574
926,53600.0,-2.0195422172546387,-0.7872385978698729,-9.44447135925293
927,53700.0,-2.0195422172546387,-0.7872385978698729,-9.44447135925293
928,53800.0,-1.8376877307891848,-0.7106683850288391,-9.485149383544922
929,53900.0,-1.8376877307891848,-0.7106683850288391,-9.485149383544922
930,54000.0,-1.7850456237792969,0.1579262912273407,-9.564111709594727
931,54100.0,-1.7850456237792969,0.1579262912273407,-9.564111709594727
932,54200.0,-1.804188132286072,-0.1866401582956314,-9.827322006225586
933,54300.0,-1.804188132286072,-0.1866401582956314,-9.827322006225586
934,54400.0,-1.804188132286072,-0.1866401582956314,-9.827322006225586
935,54500.0,-1.5314064025878906,-0.4259224236011505,-9.710074424743652
936,54600.0,-1.5314064025878906,-0.4259224236011505,-9.710074424743652
937,54700.0,-1.2538390159606934,0.16749757528305054,-9.7005033493042
938,54800.0,-1.2538390159606934,0.16749757528305054,-9.7005033493042
939,54900.0,0.3493521213531494,0.7824530005455017,-10.045069694519043
940,54000.0,-1.7850456237792969,0.1579262912273407,-9.564111709594727
941,54100.0,-1.7850456237792969,0.1579262912273407,-9.564111709594727
942,54200.0,-1.804188132286072,-0.1866401582956314,-9.827322006225586
943,54300.0,-1.804188132286072,-0.1866401582956314,-9.827322006225586
944,54400.0,-1.804188132286072,-0.1866401582956314,-9.827322006225586
945,54500.0,-1.5314064025878906,-0.4259224236011505,-9.710074424743652
946,54600.0,-1.5314064025878906,-0.4259224236011505,-9.710074424743652
947,54700.0,-1.2538390159606934,0.16749757528305054,-9.7005033493042
948,54800.0,-1.2538390159606934,0.16749757528305054,-9.7005033493042
949,54900.0,0.3493521213531494,0.7824530005455017,-10.045069694519043
950,55000.0,0.3493521213531494,0.7824530005455017,-10.045069694519043
951,55100.0,0.3493521213531494,0.7824530005455017,-10.045069694519043
952,55200.0,-1.3208380937576294,0.6795615553855896,-9.353544235229492
953,55300.0,-1.3208380937576294,0.6795615553855896,-9.353544235229492
954,55400.0,-1.741974949836731,0.5599204897880554,-9.482755661010742
955,55500.0,-1.741974949836731,0.5599204897880554,-9.482755661010742
956,55600.0,-1.5409778356552124,0.5264209508895874,-9.57607650756836
957,55700.0,-1.5409778356552124,0.5264209508895874,-9.57607650756836
958,55800.0,-1.5409778356552124,0.5264209508895874,-9.57607650756836
959,55900.0,-1.5170495510101318,0.3565305471420288,-9.363115310668944
960,55000.0,0.3493521213531494,0.7824530005455017,-10.045069694519043
961,55100.0,0.3493521213531494,0.7824530005455017,-10.045069694519043
962,55200.0,-1.3208380937576294,0.6795615553855896,-9.353544235229492
963,55300.0,-1.3208380937576294,0.6795615553855896,-9.353544235229492
964,55400.0,-1.741974949836731,0.5599204897880554,-9.482755661010742
965,55500.0,-1.741974949836731,0.5599204897880554,-9.482755661010742
966,55600.0,-1.5409778356552124,0.5264209508895874,-9.57607650756836
967,55700.0,-1.5409778356552124,0.5264209508895874,-9.57607650756836
968,55800.0,-1.5409778356552124,0.5264209508895874,-9.57607650756836
969,55900.0,-1.5170495510101318,0.3565305471420288,-9.363115310668944
970,56000.0,-1.5170495510101318,0.3565305471420288,-9.363115310668944
971,56100.0,-0.818345308303833,0.6149553656578064,-9.384650230407717
972,56200.0,-0.818345308303833,0.6149553656578064,-9.384650230407717
973,56300.0,-1.5409778356552124,0.07417750358581543,-10.045069694519043
974,56400.0,-1.5409778356552124,0.07417750358581543,-10.045069694519043
975,56500.0,-1.9094725847244265,1.026520848274231,-9.336793899536133
976,56600.0,-1.9094725847244265,1.026520848274231,-9.336793899536133
977,56700.0,-1.9094725847244265,1.026520848274231,-9.336793899536133
978,56800.0,0.18185453116893768,-0.1220339611172676,-9.54496955871582
979,56900.0,0.18185453116893768,-0.1220339611172676,-9.54496955871582
980,56000.0,-1.5170495510101318,0.3565305471420288,-9.363115310668944
981,56100.0,-0.818345308303833,0.6149553656578064,-9.384650230407717
982,56200.0,-0.818345308303833,0.6149553656578064,-9.384650230407717
983,56300.0,-1.5409778356552124,0.07417750358581543,-10.045069694519043
984,56400.0,-1.5409778356552124,0.07417750358581543,-10.045069694519043
985,56500.0,-1.9094725847244265,1.026520848274231,-9.336793899536133
986,56600.0,-1.9094725847244265,1.026520848274231,-9.336793899536133
987,56700.0,-1.9094725847244265,1.026520848274231,-9.336793899536133
988,56800.0,0.18185453116893768,-0.1220339611172676,-9.54496955871582
989,56900.0,0.18185453116893768,-0.1220339611172676,-9.54496955871582
990,57000.0,-1.1389836072921753,0.6269195079803467,-9.425328254699707
991,57100.0,-1.1389836072921753,0.6269195079803467,-9.425328254699707
992,57200.0,-1.1389836072921753,0.6269195079803467,-9.425328254699707
993,57300.0,-1.6701902151107788,1.2299107313156128,-8.922836303710938
994,57400.0,-1.6701902151107788,1.2299107313156128,-8.922836303710938
995,57500.0,-1.5218352079391482,0.2512463629245758,-9.784252166748047
996,57600.0,-1.5218352079391482,0.2512463629245758,-9.784252166748047
997,57700.0,-0.8805587291717529,0.8494520783424377,-9.399007797241213
998,57800.0,-0.8805587291717529,0.8494520783424377,-9.399007797241213
999,57900.0,-0.8805587291717529,0.8494520783424377,-9.399007797241213
1000,57000.0,-1.1389836072921753,0.6269195079803467,-9.425328254699707
1001,57100.0,-1.1389836072921753,0.6269195079803467,-9.425328254699707
1002,57200.0,-1.1389836072921753,0.6269195079803467,-9.425328254699707
1003,57300.0,-1.6701902151107788,1.2299107313156128,-8.922836303710938
1004,57400.0,-1.6701902151107788,1.2299107313156128,-8.922836303710938
1005,57500.0,-1.5218352079391482,0.2512463629245758,-9.784252166748047
1006,57600.0,-1.5218352079391482,0.2512463629245758,-9.784252166748047
1007,57700.0,-0.8805587291717529,0.8494520783424377,-9.399007797241213
1008,57800.0,-0.8805587291717529,0.8494520783424377,-9.399007797241213
1009,57900.0,-0.8805587291717529,0.8494520783424377,-9.399007797241213
1010,58000.0,-1.3974084854125977,0.6843472719192505,-9.492327690124512
1011,58100.0,-1.3974084854125977,0.6843472719192505,-9.492327690124512
1012,58200.0,-0.9284151792526244,0.8925228118896484,-9.23390293121338
1013,58300.0,-0.9284151792526244,0.8925228118896484,-9.23390293121338
1014,58400.0,-1.674975872039795,0.4977070987224579,-9.860822677612305
1015,58500.0,-1.674975872039795,0.4977070987224579,-9.860822677612305
1016,58600.0,-1.674975872039795,0.4977070987224579,-9.860822677612305
1017,58700.0,-2.1726830005645748,0.4426721632480621,-10.064212799072266
1018,58800.0,-2.1726830005645748,0.4426721632480621,-10.064212799072266
1019,58900.0,-1.7802598476409912,0.4091726541519165,-9.803394317626953
1020,58000.0,-1.3974084854125977,0.6843472719192505,-9.492327690124512
1021,58100.0,-1.3974084854125977,0.6843472719192505,-9.492327690124512
1022,58200.0,-0.9284151792526244,0.8925228118896484,-9.23390293121338
1023,58300.0,-0.9284151792526244,0.8925228118896484,-9.23390293121338
1024,58400.0,-1.674975872039795,0.4977070987224579,-9.860822677612305
1025,58500.0,-1.674975872039795,0.4977070987224579,-9.860822677612305
1026,58600.0,-1.674975872039795,0.4977070987224579,-9.860822677612305
1027,58700.0,-2.1726830005645748,0.4426721632480621,-10.064212799072266
1028,58800.0,-2.1726830005645748,0.4426721632480621,-10.064212799072266
1029,58900.0,-1.7802598476409912,0.4091726541519165,-9.803394317626953
1030,59000.0,-1.7802598476409912,0.4091726541519165,-9.803394317626953
1031,59100.0,-1.8376877307891848,0.8709874749183655,-9.784252166748047
1032,59200.0,-1.8376877307891848,0.8709874749183655,-9.784252166748047
1033,59300.0,-2.2205395698547363,1.4524433612823486,-9.640682220458984
1034,59400.0,-2.2205395698547363,1.4524433612823486,-9.640682220458984
1035,59500.0,-1.6893328428268433,-1.3328022956848145,-10.336994171142578
1036,59600.0,-1.6893328428268433,-1.3328022956848145,-10.336994171142578
1037,59700.0,-1.6893328428268433,-1.3328022956848145,-10.336994171142578
1038,59800.0,-0.8997013568878174,0.3708875179290772,-9.05683422088623
1039,59900.0,-0.8997013568878174,0.3708875179290772,-9.05683422088623
1040,59000.0,-1.7802598476409912,0.4091726541519165,-9.803394317626953
1041,59100.0,-1.8376877307891848,0.8709874749183655,-9.784252166748047
1042,59200.0,-1.8376877307891848,0.8709874749183655,-9.784252166748047
1043,59300.0,-2.2205395698547363,1.4524433612823486,-9.640682220458984
1044,59400.0,-2.2205395698547363,1.4524433612823486,-9.640682220458984
1045,59500.0,-1.6893328428268433,-1.3328022956848145,-10.336994171142578
1046,59600.0,-1.6893328428268433,-1.3328022956848145,-10.336994171142578
1047,59700.0,-1.6893328428268433,-1.3328022956848145,-10.336994171142578
1048,59800.0,-0.8997013568878174,0.3708875179290772,-9.05683422088623
1049,59900.0,-0.8997013568878174,0.3708875179290772,-9.05683422088623
1050,60000.0,-1.3639088869094849,0.6580261588096619,-9.74835968017578
1051,60100.0,-1.3639088869094849,0.6580261588096619,-9.74835968017578
1052,60200.0,-1.3639088869094849,0.6580261588096619,-9.74835968017578
1053,60300.0,-1.794616937637329,1.2011969089508057,-9.643074989318848
1054,60400.0,-1.794616937637329,1.2011969089508057,-9.643074989318848
1055,60500.0,-0.7896314859390259,2.108076810836792,-8.898907661437988
1056,60600.0,-0.7896314859390259,2.108076810836792,-8.898907661437988
1057,60700.0,-1.0671988725662231,2.1631116867065434,-9.028119087219238
1058,60800.0,-1.0671988725662231,2.1631116867065434,-9.028119087219238
1059,60900.0,-0.9810572862625122,3.1058835983276367,-9.633503913879396
1060,60000.0,-1.3639088869094849,0.6580261588096619,-9.74835968017578
1061,60100.0,-1.3639088869094849,0.6580261588096619,-9.74835968017578
1062,60200.0,-1.3639088869094849,0.6580261588096619,-9.74835968017578
1063,60300.0,-1.794616937637329,1.2011969089508057,-9.643074989318848
1064,60400.0,-1.794616937637329,1.2011969089508057,-9.643074989318848
1065,60500.0,-0.7896314859390259,2.108076810836792,-8.898907661437988
1066,60600.0,-0.7896314859390259,2.108076810836792,-8.898907661437988
1067,60700.0,-1.0671988725662231,2.1631116867065434,-9.028119087219238
1068,60800.0,-1.0671988725662231,2.1631116867065434,-9.028119087219238
1069,60900.0,-0.9810572862625122,3.1058835983276367,-9.633503913879396
1070,61000.0,-0.9810572862625122,3.1058835983276367,-9.633503913879396
1071,61100.0,-0.9810572862625122,3.1058835983276367,-9.633503913879396
1072,61200.0,-1.191625714302063,0.6340980529785156,-10.092925071716307
1073,61300.0,-1.191625714302063,0.6340980529785156,-10.092925071716307
1074,61400.0,-3.1824538707733154,-0.12442677468061447,-8.760124206542969
1075,61500.0,-3.1824538707733154,-0.12442677468061447,-8.760124206542969
1076,61600.0,-2.100898265838623,-1.0959126949310305,-9.832108497619627
1077,61700.0,-2.100898265838623,-1.0959126949310305,-9.832108497619627
1078,61800.0,-2.100898265838623,-1.0959126949310305,-9.832108497619627
1079,61900.0,-1.3782659769058228,-0.5264209508895874,-10.22931671142578
1080,61000.0,-0.9810572862625122,3.1058835983276367,-9.633503913879396
1081,61100.0,-0.9810572862625122,3.1058835983276367,-9.633503913879396
1082,61200.0,-1.191625714302063,0.6340980529785156,-10.092925071716307
1083,61300.0,-1.191625714302063,0.6340980529785156,-10.092925071716307
1084,61400.0,-3.1824538707733154,-0.12442677468061447,-8.760124206542969
1085,61500.0,-3.1824538707733154,-0.12442677468061447,-8.760124206542969
1086,61600.0,-2.100898265838623,-1.0959126949310305,-9.832108497619627
1087,61700.0,-2.100898265838623,-1.0959126949310305,-9.832108497619627
1088,61800.0,-2.100898265838623,-1.0959126949310305,-9.832108497619627
1089,61900.0,-1.3782659769058228,-0.5264209508895874,-10.22931671142578
1090,62000.0,-1.3782659769058228,-0.5264209508895874,-10.22931671142578
1091,62100.0,-1.65583336353302,0.4043869972229004,-9.231510162353516
1092,62200.0,-1.65583336353302,0.4043869972229004,-9.231510162353516
1093,62300.0,-1.5457634925842283,-0.09571290016174316,-9.844072341918944
1094,62400.0,-1.5457634925842283,-0.09571290016174316,-9.844072341918944
1095,62500.0,-2.210968255996704,0.3780659735202789,-9.186046600341797
1096,62600.0,-2.210968255996704,0.3780659735202789,-9.186046600341797
1097,62700.0,-2.210968255996704,0.3780659735202789,-9.186046600341797
1098,62800.0,-1.3543376922607422,-0.08374878764152527,-9.396614074707033
1099,62900.0,-1.3543376922607422,-0.08374878764152527,-9.396614074707033
1100,62000.0,-1.3782659769058228,-0.5264209508895874,-10.22931671142578
1101,62100.0,-1.65583336353302,0.4043869972229004,-9.231510162353516
1102,62200.0,-1.65583336353302,0.4043869972229004,-9.231510162353516
1103,62300.0,-1.5457634925842283,-0.09571290016174316,-9.844072341918944
1104,62400.0,-1.5457634925842283,-0.09571290016174316,-9.844072341918944
1105,62500.0,-2.210968255996704,0.3780659735202789,-9.186046600341797
1106,62600.0,-2.210968255996704,0.3780659735202789,-9.186046600341797
1107,62700.0,-2.210968255996704,0.3780659735202789,-9.186046600341797
1108,62800.0,-1.3543376922607422,-0.08374878764152527,-9.396614074707033
1109,62900.0,-1.3543376922607422,-0.08374878764152527,-9.396614074707033
1110,63000.0,-1.741974949836731,0.09092726558446884,-9.803394317626953
1111,63100.0,-1.741974949836731,0.09092726558446884,-9.803394317626953
1112,63200.0,-1.741974949836731,0.09092726558446884,-9.803394317626953
1113,63300.0,-1.1389836072921753,-0.48574298620224,-10.202995300292967
1114,63400.0,-1.1389836072921753,-0.48574298620224,-10.202995300292967
1115,63500.0,-2.029113531112671,0.031106693670153618,-9.896714210510254
1116,63600.0,-2.029113531112671,0.031106693670153618,-9.896714210510254
1117,63700.0,-2.00518536567688,0.3206382095813751,-9.439685821533203
1118,63800.0,-2.00518536567688,0.3206382095813751,-9.439685821533203
1119,63900.0,-1.8185452222824097,-0.2273181527853012,-9.499505043029783
1120,63000.0,-1.741974949836731,0.09092726558446884,-9.803394317626953
1121,63100.0,-1.741974949836731,0.09092726558446884,-9.803394317626953
1122,63200.0,-1.741974949836731,0.09092726558446884,-9.803394317626953
1123,63300.0,-1.1389836072921753,-0.48574298620224,-10.202995300292967
1124,63400.0,-1.1389836072921753,-0.48574298620224,-10.202995300292967
1125,63500.0,-2.029113531112671,0.031106693670153618,-9.896714210510254
1126,63600.0,-2.029113531112671,0.031106693670153618,-9.896714210510254
1127,63700.0,-2.00518536567688,0.3206382095813751,-9.439685821533203
1128,63800.0,-2.00518536567688,0.3206382095813751,-9.439685821533203
1129,63900.0,-1.8185452222824097,-0.2273181527853012,-9.499505043029783
1130,64000.0,-1.8185452222824097,-0.2273181527853012,-9.499505043029783
1131,64100.0,-1.8185452222824097,-0.2273181527853012,-9.499505043029783
1132,64200.0,0.2967100143432617,-2.0817556381225586,-10.047462463378906
1133,64300.0,0.2967100143432617,-2.0817556381225586,-10.047462463378906
1134,64400.0,-1.6175479888916016,0.6484549045562744,-9.67657470703125
1135,64500.0,-1.6175479888916016,0.6484549045562744,-9.67657470703125
1136,64600.0,-1.9908283948898315,0.7393822073936462,-9.394222259521484
1137,64700.0,-1.9908283948898315,0.7393822073936462,-9.394222259521484
1138,64800.0,-1.1341978311538696,-0.1698903888463974,-9.657432556152344
1139,64900.0,-1.1341978311538696,-0.1698903888463974,-9.657432556152344
1140,64000.0,-1.8185452222824097,-0.2273181527853012,-9.499505043029783
1141,64100.0,-1.8185452222824097,-0.2273181527853012,-9.499505043029783
1142,64200.0,0.2967100143432617,-2.0817556381225586,-10.047462463378906
1143,64300.0,0.2967100143432617,-2.0817556381225586,-10.047462463378906
1144,64400.0,-1.6175479888916016,0.6484549045562744,-9.67657470703125
1145,64500.0,-1.6175479888916016,0.6484549045562744,-9.67657470703125
1146,64600.0,-1.9908283948898315,0.7393822073936462,-9.394222259521484
1147,64700.0,-1.9908283948898315,0.7393822073936462,-9.394222259521484
1148,64800.0,-1.1341978311538696,-0.1698903888463974,-9.657432556152344
1149,64900.0,-1.1341978311538696,-0.1698903888463974,-9.657432556152344
1150,65000.0,-1.1341978311538696,-0.1698903888463974,-9.657432556152344
1151,65100.0,-1.871187210083008,0.033499516546726234,-9.439685821533203
1152,65200.0,-1.871187210083008,0.033499516546726234,-9.439685821533203
1153,65300.0,-1.674975872039795,-1.1892328262329102,-10.205389022827148
1154,65400.0,-1.674975872039795,-1.1892328262329102,-10.205389022827148
1155,65500.0,-1.674975872039795,-1.1892328262329102,-10.205389022827148
1156,65600.0,-2.062613010406494,0.2632104754447937,-9.372685432434082
1157,65700.0,-2.062613010406494,0.2632104754447937,-9.372685432434082
1158,65800.0,-2.115255117416382,0.00957129057496786,-9.571290969848633
1159,65900.0,-2.115255117416382,0.00957129057496786,-9.571290969848633
1160,65000.0,-1.1341978311538696,-0.1698903888463974,-9.657432556152344
1161,65100.0,-1.871187210083008,0.033499516546726234,-9.439685821533203
1162,65200.0,-1.871187210083008,0.033499516546726234,-9.439685821533203
1163,65300.0,-1.674975872039795,-1.1892328262329102,-10.205389022827148
1164,65400.0,-1.674975872039795,-1.1892328262329102,-10.205389022827148
1165,65500.0,-1.674975872039795,-1.1892328262329102,-10.205389022827148
1166,65600.0,-2.062613010406494,0.2632104754447937,-9.372685432434082
1167,65700.0,-2.062613010406494,0.2632104754447937,-9.372685432434082
1168,65800.0,-2.115255117416382,0.00957129057496786,-9.571290969848633
1169,65900.0,-2.115255117416382,0.00957129057496786,-9.571290969848633
1170,66000.0,-2.115255117416382,0.00957129057496786,-9.571290969848633
1171,66100.0,-1.9334007501602173,-0.18185453116893768,-9.664610862731934
1172,66200.0,-1.9334007501602173,-0.18185453116893768,-9.664610862731934
1173,66300.0,-1.9621145725250244,0.19142580032348636,-9.387042999267578
1174,66400.0,-1.9621145725250244,0.19142580032348636,-9.387042999267578
1175,66500.0,-2.0195422172546387,-0.2105683833360672,-9.408578872680664
1176,66600.0,-2.0195422172546387,-0.2105683833360672,-9.408578872680664
1177,66700.0,-2.091326951980591,-0.3780659735202789,-9.45164966583252
1178,66800.0,-2.091326951980591,-0.3780659735202789,-9.45164966583252
1179,66900.0,-2.091326951980591,-0.3780659735202789,-9.45164966583252
1180,66000.0,-2.115255117416382,0.00957129057496786,-9.571290969848633
1181,66100.0,-1.9334007501602173,-0.18185453116893768,-9.664610862731934
1182,66200.0,-1.9334007501602173,-0.18185453116893768,-9.664610862731934
1183,66300.0,-1.9621145725250244,0.19142580032348636,-9.387042999267578
1184,66400.0,-1.9621145725250244,0.19142580032348636,-9.387042999267578
1185,66500.0,-2.0195422172546387,-0.2105683833360672,-9.408578872680664
1186,66600.0,-2.0195422172546387,-0.2105683833360672,-9.408578872680664
1187,66700.0,-2.091326951980591,-0.3780659735202789,-9.45164966583252
1188,66800.0,-2.091326951980591,-0.3780659735202789,-9.45164966583252
1189,66900.0,-2.091326951980591,-0.3780659735202789,-9.45164966583252
1190,67000.0,-1.7467604875564575,-1.179661512374878,-9.954142570495604
1191,67100.0,-1.7467604875564575,-1.179661512374878,-9.954142570495604
1192,67200.0,-1.6606187820434568,-0.2919243574142456,-9.23390293121338
1193,67300.0,-1.6606187820434568,-0.2919243574142456,-9.23390293121338
1194,67400.0,-2.0961124897003174,0.4067798554897308,-9.150154113769533
1195,67500.0,-2.0961124897003174,0.4067798554897308,-9.150154113769533
1196,67600.0,-1.4644075632095337,1.227518081665039,-8.870193481445312
1197,67700.0,-1.4644075632095337,1.227518081665039,-8.870193481445312
1198,67800.0,-1.4644075632095337,1.227518081665039,-8.870193481445312
1199,67900.0,-1.7563319206237793,0.2703889608383179,-9.473184585571287
1200,67000.0,-1.7467604875564575,-1.179661512374878,-9.954142570495604
1201,67100.0,-1.7467604875564575,-1.179661512374878,-9.954142570495604
1202,67200.0,-1.6606187820434568,-0.2919243574142456,-9.23390293121338
1203,67300.0,-1.6606187820434568,-0.2919243574142456,-9.23390293121338
1204,67400.0,-2.0961124897003174,0.4067798554897308,-9.150154113769533
1205,67500.0,-2.0961124897003174,0.4067798554897308,-9.150154113769533
1206,67600.0,-1.4644075632095337,1.227518081665039,-8.870193481445312
1207,67700.0,-1.4644075632095337,1.227518081665039,-8.870193481445312
1208,67800.0,-1.4644075632095337,1.227518081665039,-8.870193481445312
1209,67900.0,-1.7563319206237793,0.2703889608383179,-9.473184585571287
1210,68000.0,-1.7563319206237793,0.2703889608383179,-9.473184585571287
1211,68100.0,-1.761117458343506,0.00957129057496786,-9.55214786529541
1212,68200.0,-1.761117458343506,0.00957129057496786,-9.55214786529541
1213,68300.0,-1.9094725847244265,-0.16749757528305054,-9.38943576812744
1214,68400.0,-1.9094725847244265,-0.16749757528305054,-9.38943576812744
1215,68500.0,-1.9094725847244265,-0.16749757528305054,-9.38943576812744
1216,68600.0,-2.493321180343628,2.1439690589904785,-8.037490844726562
1217,68700.0,-2.493321180343628,2.1439690589904785,-8.037490844726562
1218,68800.0,-2.368894338607788,0.10289137810468674,-9.530611991882324
1219,68900.0,-2.368894338607788,0.10289137810468674,-9.530611991882324
1220,68000.0,-1.7563319206237793,0.2703889608383179,-9.473184585571287
1221,68100.0,-1.761117458343506,0.00957129057496786,-9.55214786529541
1222,68200.0,-1.761117458343506,0.00957129057496786,-9.55214786529541
1223,68300.0,-1.9094725847244265,-0.16749757528305054,-9.38943576812744
1224,68400.0,-1.9094725847244265,-0.16749757528305054,-9.38943576812744
1225,68500.0,-1.9094725847244265,-0.16749757528305054,-9.38943576812744
1226,68600.0,-2.493321180343628,2.1439690589904785,-8.037490844726562
1227,68700.0,-2.493321180343628,2.1439690589904785,-8.037490844726562
1228,68800.0,-2.368894338607788,0.10289137810468674,-9.530611991882324
1229,68900.0,-2.368894338607788,0.10289137810468674,-9.530611991882324
1230,69000.0,-1.9525433778762815,0.1627119481563568,-9.602396965026855
1231,69100.0,-1.9525433778762815,0.1627119481563568,-9.602396965026855
1232,69200.0,-1.9525433778762815,0.1627119481563568,-9.602396965026855
1233,69300.0,-1.4691929817199707,0.4666004180908203,-9.719645500183104
1234,69400.0,-1.4691929817199707,0.4666004180908203,-9.719645500183104
1235,69500.0,-0.5838487148284912,0.7728817462921143,-9.499505043029783
1236,69600.0,-0.5838487148284912,0.7728817462921143,-9.499505043029783
1237,69700.0,-1.306481122970581,-0.25842484831810003,-9.865608215332033
1238,69800.0,-1.306481122970581,-0.25842484831810003,-9.865608215332033
1239,69900.0,-1.306481122970581,-0.25842484831810003,-9.865608215332033
1240,69000.0,-1.9525433778762815,0.1627119481563568,-9.602396965026855
1241,69100.0,-1.9525433778762815,0.1627119481563568,-9.602396965026855
1242,69200.0,-1.9525433778762815,0.1627119481563568,-9.602396965026855
1243,69300.0,-1.4691929817199707,0.4666004180908203,-9.719645500183104
1244,69400.0,-1.4691929817199707,0.4666004180908203,-9.719645500183104
1245,69500.0,-0.5838487148284912,0.7728817462921143,-9.499505043029783
1246,69600.0,-0.5838487148284912,0.7728817462921143,-9.499505043029783
1247,69700.0,-1.306481122970581,-0.25842484831810003,-9.865608215332033
1248,69800.0,-1.306481122970581,-0.25842484831810003,-9.865608215332033
1249,69900.0,-1.306481122970581,-0.25842484831810003,-9.865608215332033
1250,70000.0,-1.4931212663650513,-0.16031910479068756,-9.643074989318848
1251,70100.0,-1.4931212663650513,-0.16031910479068756,-9.643074989318848
1252,70200.0,-1.7802598476409912,-0.25363919138908386,-9.664610862731934
1253,70300.0,-1.7802598476409912,-0.25363919138908386,-9.664610862731934
1254,70400.0,-0.2297109663486481,-2.9168508052825928,-9.844072341918944
1255,70500.0,-0.2297109663486481,-2.9168508052825928,-9.844072341918944
1256,70600.0,-1.3208380937576294,-1.2705888748168943,-10.37527847290039
1257,70700.0,-1.3208380937576294,-1.2705888748168943,-10.37527847290039
1258,70800.0,-1.3208380937576294,-1.2705888748168943,-10.37527847290039
1259,70900.0,-1.8089739084243772,0.3613162040710449,-9.413363456726074
1260,70000.0,-1.4931212663650513,-0.16031910479068756,-9.643074989318848
1261,70100.0,-1.4931212663650513,-0.16031910479068756,-9.643074989318848
1262,70200.0,-1.7802598476409912,-0.25363919138908386,-9.664610862731934
1263,70300.0,-1.7802598476409912,-0.25363919138908386,-9.664610862731934
1264,70400.0,-0.2297109663486481,-2.9168508052825928,-9.844072341918944
1265,70500.0,-0.2297109663486481,-2.9168508052825928,-9.844072341918944
1266,70600.0,-1.3208380937576294,-1.2705888748168943,-10.37527847290039
1267,70700.0,-1.3208380937576294,-1.2705888748168943,-10.37527847290039
1268,70800.0,-1.3208380937576294,-1.2705888748168943,-10.37527847290039
1269,70900.0,-1.8089739084243772,0.3613162040710449,-9.413363456726074
1270,71000.0,-1.8089739084243772,0.3613162040710449,-9.413363456726074
1271,71100.0,-1.6223337650299072,0.1938186287879944,-9.66939640045166
1272,71200.0,-1.6223337650299072,0.1938186287879944,-9.66939640045166
1273,71300.0,-1.56969153881073,0.8662018179893494,-9.20279598236084
1274,71400.0,-1.56969153881073,0.8662018179893494,-9.20279598236084
1275,71500.0,-2.0434706211090092,-0.7872385978698729,-9.367900848388672
1276,71600.0,-2.0434706211090092,-0.7872385978698729,-9.367900848388672
1277,71700.0,-2.0434706211090092,-0.7872385978698729,-9.367900848388672
1278,71800.0,-0.8901299238204956,0.8542376756668091,-9.286543846130373
1279,71900.0,-0.8901299238204956,0.8542376756668091,-9.286543846130373
1280,71000.0,-1.8089739084243772,0.3613162040710449,-9.413363456726074
1281,71100.0,-1.6223337650299072,0.1938186287879944,-9.66939640045166
1282,71200.0,-1.6223337650299072,0.1938186287879944,-9.66939640045166
1283,71300.0,-1.56969153881073,0.8662018179893494,-9.20279598236084
1284,71400.0,-1.56969153881073,0.8662018179893494,-9.20279598236084
1285,71500.0,-2.0434706211090092,-0.7872385978698729,-9.367900848388672
1286,71600.0,-2.0434706211090092,-0.7872385978698729,-9.367900848388672
1287,71700.0,-2.0434706211090092,-0.7872385978698729,-9.367900848388672
1288,71800.0,-0.8901299238204956,0.8542376756668091,-9.286543846130373
1289,71900.0,-0.8901299238204956,0.8542376756668091,-9.286543846130373
1290,72000.0,-0.7369893789291382,-0.9379864931106568,-9.387042999267578
1291,72100.0,-0.7369893789291382,-0.9379864931106568,-9.387042999267578
1292,72200.0,-1.5553346872329712,-0.4618147313594818,-9.518648147583008
1293,72300.0,-1.5553346872329712,-0.4618147313594818,-9.518648147583008
1294,72400.0,-1.0241280794143677,2.2157537937164307,-8.255237579345701
1295,72500.0,-1.0241280794143677,2.2157537937164307,-8.255237579345701
1296,72600.0,-1.0241280794143677,2.2157537937164307,-8.255237579345701
1297,72700.0,-1.804188132286072,-0.3349951505661011,-9.650253295898438
1298,72800.0,-1.804188132286072,-0.3349951505661011,-9.650253295898438
1299,72900.0,-1.6845470666885376,-0.5216353535652161,-9.891928672790527
1300,72000.0,-0.7369893789291382,-0.9379864931106568,-9.387042999267578
1301,72100.0,-0.7369893789291382,-0.9379864931106568,-9.387042999267578
1302,72200.0,-1.5553346872329712,-0.4618147313594818,-9.518648147583008
1303,72300.0,-1.5553346872329712,-0.4618147313594818,-9.518648147583008
1304,72400.0,-1.0241280794143677,2.2157537937164307,-8.255237579345701
1305,72500.0,-1.0241280794143677,2.2157537937164307,-8.255237579345701
1306,72600.0,-1.0241280794143677,2.2157537937164307,-8.255237579345701
1307,72700.0,-1.804188132286072,-0.3349951505661011,-9.650253295898438
1308,72800.0,-1.804188132286072,-0.3349951505661011,-9.650253295898438
1309,72900.0,-1.6845470666885376,-0.5216353535652161,-9.891928672790527
1310,73000.0,-1.6845470666885376,-0.5216353535652161,-9.891928672790527
1311,73100.0,-1.7563319206237793,-1.2227323055267334,-9.781858444213867
1312,73200.0,-1.7563319206237793,-1.2227323055267334,-9.781858444213867
1313,73300.0,-1.7563319206237793,-1.2227323055267334,-9.781858444213867
1314,73400.0,-1.7898313999176023,-0.5718846321105957,-9.645467758178713
1315,73500.0,-1.7898313999176023,-0.5718846321105957,-9.645467758178713
1316,73600.0,-1.3016955852508545,0.7393822073936462,-9.521041870117188
1317,73700.0,-1.3016955852508545,0.7393822073936462,-9.521041870117188
1318,73800.0,-1.4787644147872925,0.8901299238204956,-9.475577354431152
1319,73900.0,-1.4787644147872925,0.8901299238204956,-9.475577354431152
1320,73000.0,-1.6845470666885376,-0.5216353535652161,-9.891928672790527
1321,73100.0,-1.7563319206237793,-1.2227323055267334,-9.781858444213867
1322,73200.0,-1.7563319206237793,-1.2227323055267334,-9.781858444213867
1323,73300.0,-1.7563319206237793,-1.2227323055267334,-9.781858444213867
1324,73400.0,-1.7898313999176023,-0.5718846321105957,-9.645467758178713
1325,73500.0,-1.7898313999176023,-0.5718846321105957,-9.645467758178713
1326,73600.0,-1.3016955852508545,0.7393822073936462,-9.521041870117188
1327,73700.0,-1.3016955852508545,0.7393822073936462,-9.521041870117188
1328,73800.0,-1.4787644147872925,0.8901299238204956,-9.475577354431152
1329,73900.0,-1.4787644147872925,0.8901299238204956,-9.475577354431152
1330,74000.0,-1.4787644147872925,0.8901299238204956,-9.475577354431152
1331,74100.0,-1.1198409795761108,0.1339980661869049,-9.844072341918944
1332,74200.0,-1.1198409795761108,0.1339980661869049,-9.844072341918944
1333,74300.0,-1.1389836072921753,1.1341978311538696,-9.497113227844238
1334,74400.0,-1.1389836072921753,1.1341978311538696,-9.497113227844238
1335,74500.0,-1.2921242713928225,0.4354937374591827,-9.54496955871582
1336,74600.0,-1.2921242713928225,0.4354937374591827,-9.54496955871582
1337,74700.0,-1.1724830865859983,2.0865414142608643,-9.162117958068848
1338,74800.0,-1.1724830865859983,2.0865414142608643,-9.162117958068848
1339,74900.0,-1.1724830865859983,2.0865414142608643,-9.162117958068848
1340,74000.0,-1.4787644147872925,0.8901299238204956,-9.475577354431152
1341,74100.0,-1.1198409795761108,0.1339980661869049,-9.844072341918944
1342,74200.0,-1.1198409795761108,0.1339980661869049,-9.844072341918944
1343,74300.0,-1.1389836072921753,1.1341978311538696,-9.497113227844238
1344,74400.0,-1.1389836072921753,1.1341978311538696,-9.497113227844238
1345,74500.0,-1.2921242713928225,0.4354937374591827,-9.54496955871582
1346,74600.0,-1.2921242713928225,0.4354937374591827,-9.54496955871582
1347,74700.0,-1.1724830865859983,2.0865414142608643,-9.162117958068848
1348,74800.0,-1.1724830865859983,2.0865414142608643,-9.162117958068848
1349,74900.0,-1.1724830865859983,2.0865414142608643,-9.162117958068848
1350,75000.0,-1.2634103298187256,0.607776939868927,-10.02592658996582
1351,75100.0,-1.2634103298187256,0.607776939868927,-10.02592658996582
1352,75200.0,-0.430708110332489,1.727617859840393,-9.480363845825195
1353,75300.0,-0.430708110332489,1.727617859840393,-9.480363845825195
1354,75400.0,-0.4737788736820221,-0.03589234128594398,-9.734003067016602
1355,75500.0,-0.4737788736820221,-0.03589234128594398,-9.734003067016602
1356,75600.0,-0.4737788736820221,-0.03589234128594398,-9.734003067016602
1357,75700.0,-0.7561319470405579,0.5934200286865234,-9.848857879638672
1358,75800.0,-0.7561319470405579,0.5934200286865234,-9.848857879638672
1359,75900.0,-1.3830513954162598,1.6151552200317385,-8.858229637145996
1360,75000.0,-1.2634103298187256,0.607776939868927,-10.02592658996582
1361,75100.0,-1.2634103298187256,0.607776939868927,-10.02592658996582
1362,75200.0,-0.430708110332489,1.727617859840393,-9.480363845825195
1363,75300.0,-0.430708110332489,1.727617859840393,-9.480363845825195
1364,75400.0,-0.4737788736820221,-0.03589234128594398,-9.734003067016602
1365,75500.0,-0.4737788736820221,-0.03589234128594398,-9.734003067016602
1366,75600.0,-0.4737788736820221,-0.03589234128594398,-9.734003067016602
1367,75700.0,-0.7561319470405579,0.5934200286865234,-9.848857879638672
1368,75800.0,-0.7561319470405579,0.5934200286865234,-9.848857879638672
1369,75900.0,-1.3830513954162598,1.6151552200317385,-8.858229637145996
1370,76000.0,-1.3830513954162598,1.6151552200317385,-8.858229637145996
1371,76100.0,-1.0480562448501587,0.6604190468788147,-9.511469841003418
1372,76200.0,-1.0480562448501587,0.6604190468788147,-9.511469841003418
1373,76300.0,-1.0480562448501587,0.6604190468788147,-9.511469841003418
1374,76400.0,-1.057627558708191,0.9523434042930604,-9.528220176696776
1375,76500.0,-1.057627558708191,0.9523434042930604,-9.528220176696776
1376,76600.0,0.4163511395454407,0.6484549045562744,-9.657432556152344
1377,76700.0,0.4163511395454407,0.6484549045562744,-9.657432556152344
1378,76800.0,-0.6747759580612183,0.6556334495544434,-9.652647018432617
1379,76900.0,-0.6747759580612183,0.6556334495544434,-9.652647018432617
1380,76000.0,-1.3830513954162598,1.6151552200317385,-8.858229637145996
1381,76100.0,-1.0480562448501587,0.6604190468788147,-9.511469841003418
1382,76200.0,-1.0480562448501587,0.6604190468788147,-9.511469841003418
1383,76300.0,-1.0480562448501587,0.6604190468788147,-9.511469841003418
1384,76400.0,-1.057627558708191,0.9523434042930604,-9.528220176696776
1385,76500.0,-1.057627558708191,0.9523434042930604,-9.528220176696776
1386,76600.0,0.4163511395454407,0.6484549045562744,-9.657432556152344
1387,76700.0,0.4163511395454407,0.6484549045562744,-9.657432556152344
1388,76800.0,-0.6747759580612183,0.6556334495544434,-9.652647018432617
1389,76900.0,-0.6747759580612183,0.6556334495544434,-9.652647018432617
1390,77000.0,-0.6747759580612183,0.6556334495544434,-9.652647018432617
1391,77100.0,-0.8901299238204956,0.4809573292732239,-9.719645500183104
1392,77200.0,-0.8901299238204956,0.4809573292732239,-9.719645500183104
1393,77300.0,-0.6604190468788147,2.2755744457244877,-8.614161491394043
1394,77400.0,-0.6604190468788147,2.2755744457244877,-8.614161491394043
1395,77500.0,-1.244267821311951,0.7106683850288391,-9.621540069580078
1396,77600.0,-1.244267821311951,0.7106683850288391,-9.621540069580078
1397,77700.0,0.15314064919948578,0.9882357716560364,-9.762716293334961
1398,77800.0,0.15314064919948578,0.9882357716560364,-9.762716293334961
1399,77900.0,0.15314064919948578,0.9882357716560364,-9.762716293334961
1400,77000.0,-0.6747759580612183,0.6556334495544434,-9.652647018432617
1401,77100.0,-0.8901299238204956,0.4809573292732239,-9.719645500183104
1402,77200.0,-0.8901299238204956,0.4809573292732239,-9.719645500183104
1403,77300.0,-0.6604190468788147,2.2755744457244877,-8.614161491394043
1404,77400.0,-0.6604190468788147,2.2755744457244877,-8.614161491394043
1405,77500.0,-1.244267821311951,0.7106683850288391,-9.621540069580078
1406,77600.0,-1.244267821311951,0.7106683850288391,-9.621540069580078
1407,77700.0,0.15314064919948578,0.9882357716560364,-9.762716293334961
1408,77800.0,0.15314064919948578,0.9882357716560364,-9.762716293334961
1409,77900.0,0.15314064919948578,0.9882357716560364,-9.762716293334961
1410,78000.0,-0.9044869542121888,0.605384111404419,-9.927821159362793
1411,78100.0,-0.9044869542121888,0.605384111404419,-9.927821159362793
1412,78200.0,-1.1676974296569824,1.8903299570083616,-9.487542152404783
1413,78300.0,-1.1676974296569824,1.8903299570083616,-9.487542152404783
1414,78400.0,-0.057427741587162025,1.117448091506958,-9.135796546936037
1415,78500.0,-0.057427741587162025,1.117448091506958,-9.135796546936037
1416,78600.0,-0.057427741587162025,1.117448091506958,-9.135796546936037
1417,78700.0,-1.0959126949310305,0.9738788008689879,-9.762716293334961
1418,78800.0,-1.0959126949310305,0.9738788008689879,-9.762716293334961
1419,78900.0,0.062213387340307236,1.7084753513336182,-8.958727836608887
1420,78000.0,-0.9044869542121888,0.605384111404419,-9.927821159362793
1421,78100.0,-0.9044869542121888,0.605384111404419,-9.927821159362793
1422,78200.0,-1.1676974296569824,1.8903299570083616,-9.487542152404783
1423,78300.0,-1.1676974296569824,1.8903299570083616,-9.487542152404783
1424,78400.0,-0.057427741587162025,1.117448091506958,-9.135796546936037
1425,78500.0,-0.057427741587162025,1.117448091506958,-9.135796546936037
1426,78600.0,-0.057427741587162025,1.117448091506958,-9.135796546936037
1427,78700.0,-1.0959126949310305,0.9738788008689879,-9.762716293334961
1428,78800.0,-1.0959126949310305,0.9738788008689879,-9.762716293334961
1429,78900.0,0.062213387340307236,1.7084753513336182,-8.958727836608887
1430,79000.0,0.062213387340307236,1.7084753513336182,-8.958727836608887
1431,79100.0,-1.0863415002822876,1.1748759746551514,-9.470791816711426
1432,79200.0,-1.0863415002822876,1.1748759746551514,-9.470791816711426
1433,79300.0,-1.0863415002822876,1.1748759746551514,-9.470791816711426
1434,79400.0,-1.062413215637207,0.7824530005455017,-9.667003631591797
1435,79500.0,-1.062413215637207,0.7824530005455017,-9.667003631591797
1436,79600.0,-0.8327022790908813,0.3158525824546814,-9.92542839050293
1437,79700.0,-0.8327022790908813,0.3158525824546814,-9.92542839050293
1438,79800.0,-1.0671988725662231,0.4833501875400543,-9.554540634155273
1439,79900.0,-1.0671988725662231,0.4833501875400543,-9.554540634155273
1440,79000.0,0.062213387340307236,1.7084753513336182,-8.958727836608887
1441,79100.0,-1.0863415002822876,1.1748759746551514,-9.470791816711426
1442,79200.0,-1.0863415002822876,1.1748759746551514,-9.470791816711426
1443,79300.0,-1.0863415002822876,1.1748759746551514,-9.470791816711426
1444,79400.0,-1.062413215637207,0.7824530005455017,-9.667003631591797
1445,79500.0,-1.062413215637207,0.7824530005455017,-9.667003631591797
1446,79600.0,-0.8327022790908813,0.3158525824546814,-9.92542839050293
1447,79700.0,-0.8327022790908813,0.3158525824546814,-9.92542839050293
1448,79800.0,-1.0671988725662231,0.4833501875400543,-9.554540634155273
1449,79900.0,-1.0671988725662231,0.4833501875400543,-9.554540634155273
1450,80000.0,-1.0671988725662231,0.4833501875400543,-9.554540634155273
1451,80100.0,-1.4548362493515017,0.8111668825149536,-9.71485996246338
1452,80200.0,-1.4548362493515017,0.8111668825149536,-9.71485996246338
1453,80300.0,-1.373480200767517,1.0504491329193115,-9.521041870117188
1454,80400.0,-1.373480200767517,1.0504491329193115,-9.521041870117188
1455,80500.0,-0.4785645008087158,0.3278167247772217,-9.573683738708496
1456,80600.0,-0.4785645008087158,0.3278167247772217,-9.573683738708496
1457,80700.0,-0.4785645008087158,0.3278167247772217,-9.573683738708496
1458,80800.0,-1.0911270380020142,0.7034898400306702,-9.82971477508545
1459,80900.0,-1.0911270380020142,0.7034898400306702,-9.82971477508545
1460,80000.0,-1.0671988725662231,0.4833501875400543,-9.554540634155273
1461,80100.0,-1.4548362493515017,0.8111668825149536,-9.71485996246338
1462,80200.0,-1.4548362493515017,0.8111668825149536,-9.71485996246338
1463,80300.0,-1.373480200767517,1.0504491329193115,-9.521041870117188
1464,80400.0,-1.373480200767517,1.0504491329193115,-9.521041870117188
1465,80500.0,-0.4785645008087158,0.3278167247772217,-9.573683738708496
1466,80600.0,-0.4785645008087158,0.3278167247772217,-9.573683738708496
1467,80700.0,-0.4785645008087158,0.3278167247772217,-9.573683738708496
1468,80800.0,-1.0911270380020142,0.7034898400306702,-9.82971477508545
1469,80900.0,-1.0911270380020142,0.7034898400306702,-9.82971477508545
1470,81000.0,-1.584048628807068,0.5096712112426758,-9.57607650756836
1471,81100.0,-1.584048628807068,0.5096712112426758,-9.57607650756836
1472,81200.0,-1.832902193069458,1.22033953666687,-9.611968994140623
1473,81300.0,-1.832902193069458,1.22033953666687,-9.611968994140623
1474,81400.0,-1.832902193069458,1.22033953666687,-9.611968994140623
1475,81500.0,-1.2011969089508057,1.246660590171814,-9.547362327575684
1476,81600.0,-1.2011969089508057,1.246660590171814,-9.547362327575684
1477,81700.0,-1.22033953666687,0.6556334495544434,-9.607183456420898
1478,81800.0,-1.22033953666687,0.6556334495544434,-9.607183456420898
1479,81900.0,-1.2011969089508057,0.4211367666721344,-9.688538551330566
1480,81000.0,-1.584048628807068,0.5096712112426758,-9.57607650756836
1481,81100.0,-1.584048628807068,0.5096712112426758,-9.57607650756836
1482,81200.0,-1.832902193069458,1.22033953666687,-9.611968994140623
1483,81300.0,-1.832902193069458,1.22033953666687,-9.611968994140623
1484,81400.0,-1.832902193069458,1.22033953666687,-9.611968994140623
1485,81500.0,-1.2011969089508057,1.246660590171814,-9.547362327575684
1486,81600.0,-1.2011969089508057,1.246660590171814,-9.547362327575684
1487,81700.0,-1.22033953666687,0.6556334495544434,-9.607183456420898
1488,81800.0,-1.22033953666687,0.6556334495544434,-9.607183456420898
1489,81900.0,-1.2011969089508057,0.4211367666721344,-9.688538551330566
1490,82000.0,-1.2011969089508057,0.4211367666721344,-9.688538551330566
1491,82100.0,-1.1006983518600464,0.5383850932121277,-9.571290969848633
1492,82200.0,-1.1006983518600464,0.5383850932121277,-9.571290969848633
1493,82300.0,-1.1006983518600464,0.5383850932121277,-9.571290969848633
1494,82400.0,-1.4356936216354368,0.9451649785041808,-9.942178726196287
1495,82500.0,-1.4356936216354368,0.9451649785041808,-9.942178726196287
1496,82600.0,-1.3304094076156616,0.09092726558446884,-9.645467758178713
1497,82700.0,-1.3304094076156616,0.09092726558446884,-9.645467758178713
1498,82800.0,-1.3304094076156616,0.09092726558446884,-9.645467758178713
1499,82900.0,-1.7084753513336182,0.9786643981933594,-9.418149948120117
1500,82000.0,-1.2011969089508057,0.4211367666721344,-9.688538551330566
1501,82100.0,-1.1006983518600464,0.5383850932121277,-9.571290969848633
1502,82200.0,-1.1006983518600464,0.5383850932121277,-9.571290969848633
1503,82300.0,-1.1006983518600464,0.5383850932121277,-9.571290969848633
1504,82400.0,-1.4356936216354368,0.9451649785041808,-9.942178726196287
1505,82500.0,-1.4356936216354368,0.9451649785041808,-9.942178726196287
1506,82600.0,-1.3304094076156616,0.09092726558446884,-9.645467758178713
1507,82700.0,-1.3304094076156616,0.09092726558446884,-9.645467758178713
1508,82800.0,-1.3304094076156616,0.09092726558446884,-9.645467758178713
1509,82900.0,-1.7084753513336182,0.9786643981933594,-9.418149948120117
1510,83000.0,-1.7084753513336182,0.9786643981933594,-9.418149948120117
1511,83100.0,-0.5168496966362001,2.8666017055511475,-8.824729919433594
1512,83200.0,-0.5168496966362001,2.8666017055511475,-8.824729919433594
1513,83300.0,-1.325623631477356,-3.4241292476654053,-10.547561645507812
1514,83400.0,-1.325623631477356,-3.4241292476654053,-10.547561645507812
1515,83500.0,-1.062413215637207,-0.3493521213531494,-9.573683738708496
1516,83600.0,-1.062413215637207,-0.3493521213531494,-9.573683738708496
1517,83700.0,-1.062413215637207,-0.3493521213531494,-9.573683738708496
1518,83800.0,-1.325623631477356,1.0193424224853516,-9.434900283813477
1519,83900.0,-1.325623631477356,1.0193424224853516,-9.434900283813477
1520,83000.0,-1.7084753513336182,0.9786643981933594,-9.418149948120117
1521,83100.0,-0.5168496966362001,2.8666017055511475,-8.824729919433594
1522,83200.0,-0.5168496966362001,2.8666017055511475,-8.824729919433594
1523,83300.0,-1.325623631477356,-3.4241292476654053,-10.547561645507812
1524,83400.0,-1.325623631477356,-3.4241292476654053,-10.547561645507812
1525,83500.0,-1.062413215637207,-0.3493521213531494,-9.573683738708496
1526,83600.0,-1.062413215637207,-0.3493521213531494,-9.573683738708496
1527,83700.0,-1.062413215637207,-0.3493521213531494,-9.573683738708496
1528,83800.0,-1.325623631477356,1.0193424224853516,-9.434900283813477
1529,83900.0,-1.325623631477356,1.0193424224853516,-9.434900283813477
1530,84000.0,-1.215553879737854,0.5694918036460876,-9.540184020996094
1531,84100.0,-1.215553879737854,0.5694918036460876,-9.540184020996094
1532,84200.0,-1.215553879737854,0.5694918036460876,-9.540184020996094
1533,84300.0,-0.8853443264961243,0.3852444589138031,-9.640682220458984
1534,84400.0,-0.8853443264961243,0.3852444589138031,-9.640682220458984
1535,84500.0,-0.7465606331825256,1.868794322013855,-9.169296264648438
1536,84600.0,-0.7465606331825256,1.868794322013855,-9.169296264648438
1537,84700.0,-1.0719845294952393,-0.13878372311592102,-9.927821159362793
1538,84800.0,-1.0719845294952393,-0.13878372311592102,-9.927821159362793
1539,84900.0,-0.8757730722427368,0.22492533922195435,-10.181459426879883
1540,84000.0,-1.215553879737854,0.5694918036460876,-9.540184020996094
1541,84100.0,-1.215553879737854,0.5694918036460876,-9.540184020996094
1542,84200.0,-1.215553879737854,0.5694918036460876,-9.540184020996094
1543,84300.0,-0.8853443264961243,0.3852444589138031,-9.640682220458984
1544,84400.0,-0.8853443264961243,0.3852444589138031,-9.640682220458984
1545,84500.0,-0.7465606331825256,1.868794322013855,-9.169296264648438
1546,84600.0,-0.7465606331825256,1.868794322013855,-9.169296264648438
1547,84700.0,-1.0719845294952393,-0.13878372311592102,-9.927821159362793
1548,84800.0,-1.0719845294952393,-0.13878372311592102,-9.927821159362793
1549,84900.0,-0.8757730722427368,0.22492533922195435,-10.181459426879883
1550,85000.0,-0.8757730722427368,0.22492533922195435,-10.181459426879883
1551,85100.0,-0.8757730722427368,0.22492533922195435,-10.181459426879883
1552,85200.0,-1.34476637840271,0.8470591902732849,-9.556933403015137
1553,85300.0,-1.34476637840271,0.8470591902732849,-9.556933403015137
1554,85400.0,-0.16749757528305054,0.5575276613235474,-9.951749801635742
1555,85500.0,-0.16749757528305054,0.5575276613235474,-9.951749801635742
1556,85600.0,-0.16749757528305054,0.5575276613235474,-9.951749801635742
1557,85700.0,-0.27278175950050354,0.2297109663486481,-9.812965393066406
1558,85800.0,-0.27278175950050354,0.2297109663486481,-9.812965393066406
1559,85900.0,-0.7178468108177185,-0.12921242415905002,-9.879963874816896
1560,85000.0,-0.8757730722427368,0.22492533922195435,-10.181459426879883
1561,85100.0,-0.8757730722427368,0.22492533922195435,-10.181459426879883
1562,85200.0,-1.34476637840271,0.8470591902732849,-9.556933403015137
1563,85300.0,-1.34476637840271,0.8470591902732849,-9.556933403015137
1564,85400.0,-0.16749757528305054,0.5575276613235474,-9.951749801635742
1565,85500.0,-0.16749757528305054,0.5575276613235474,-9.951749801635742
1566,85600.0,-0.16749757528305054,0.5575276613235474,-9.951749801635742
1567,85700.0,-0.27278175950050354,0.2297109663486481,-9.812965393066406
1568,85800.0,-0.27278175950050354,0.2297109663486481,-9.812965393066406
1569,85900.0,-0.7178468108177185,-0.12921242415905002,-9.879963874816896
1570,86000.0,-0.7178468108177185,-0.12921242415905002,-9.879963874816896
1571,86100.0,0.27756744623184204,0.3254238963127136,-9.489934921264648
1572,86200.0,0.27756744623184204,0.3254238963127136,-9.489934921264648
1573,86300.0,-1.0384850502014158,0.2416750937700272,-9.753145217895508
1574,86400.0,-1.0384850502014158,0.2416750937700272,-9.753145217895508
1575,86500.0,-1.0384850502014158,0.2416750937700272,-9.753145217895508
1576,86600.0,-1.0480562448501587,0.5383850932121277,-9.695716857910156
1577,86700.0,-1.0480562448501587,0.5383850932121277,-9.695716857910156
1578,86800.0,0.7752745151519775,0.7322037816047668,-9.77946662902832
1579,86900.0,0.7752745151519775,0.7322037816047668,-9.77946662902832
1580,86000.0,-0.7178468108177185,-0.12921242415905002,-9.879963874816896
1581,86100.0,0.27756744623184204,0.3254238963127136,-9.489934921264648
1582,86200.0,0.27756744623184204,0.3254238963127136,-9.489934921264648
1583,86300.0,-1.0384850502014158,0.2416750937700272,-9.753145217895508
1584,86400.0,-1.0384850502014158,0.2416750937700272,-9.753145217895508
1585,86500.0,-1.0384850502014158,0.2416750937700272,-9.753145217895508
1586,86600.0,-1.0480562448501587,0.5383850932121277,-9.695716857910156
1587,86700.0,-1.0480562448501587,0.5383850932121277,-9.695716857910156
1588,86800.0,0.7752745151519775,0.7322037816047668,-9.77946662902832
1589,86900.0,0.7752745151519775,0.7322037816047668,-9.77946662902832
1590,87000.0,0.7752745151519775,0.7322037816047668,-9.77946662902832
1591,87100.0,-0.7513462901115417,0.8542376756668091,-9.554540634155273
1592,87200.0,-0.7513462901115417,0.8542376756668091,-9.554540634155273
1593,87300.0,-0.062213387340307236,0.3038884699344635,-9.77707290649414
1594,87400.0,-0.062213387340307236,0.3038884699344635,-9.77707290649414
1595,87500.0,-1.0384850502014158,0.6317051649093628,-9.566505432128906
1596,87600.0,-1.0384850502014158,0.6317051649093628,-9.566505432128906
1597,87700.0,-1.0767701864242554,0.5838487148284912,-9.647860527038574
1598,87800.0,-1.0767701864242554,0.5838487148284912,-9.647860527038574
1599,87900.0,-1.0767701864242554,0.5838487148284912,-9.647860527038574
1600,87000.0,0.7752745151519775,0.7322037816047668,-9.77946662902832
1601,87100.0,-0.7513462901115417,0.8542376756668091,-9.554540634155273
1602,87200.0,-0.7513462901115417,0.8542376756668091,-9.554540634155273
1603,87300.0,-0.062213387340307236,0.3038884699344635,-9.77707290649414
1604,87400.0,-0.062213387340307236,0.3038884699344635,-9.77707290649414
1605,87500.0,-1.0384850502014158,0.6317051649093628,-9.566505432128906
1606,87600.0,-1.0384850502014158,0.6317051649093628,-9.566505432128906
1607,87700.0,-1.0767701864242554,0.5838487148284912,-9.647860527038574
1608,87800.0,-1.0767701864242554,0.5838487148284912,-9.647860527038574
1609,87900.0,-1.0767701864242554,0.5838487148284912,-9.647860527038574
1610,88000.0,-1.22033953666687,0.3708875179290772,-9.722038269042967
1611,88100.0,-1.22033953666687,0.3708875179290772,-9.722038269042967
1612,88200.0,-1.5601203441619873,1.6247265338897705,-9.475577354431152
1613,88300.0,-1.5601203441619873,1.6247265338897705,-9.475577354431152
1614,88400.0,-1.6845470666885376,1.871187210083008,-9.365508079528807
1615,88500.0,-1.6845470666885376,1.871187210083008,-9.365508079528807
1616,88600.0,-1.6845470666885376,1.871187210083008,-9.365508079528807
1617,88700.0,-1.2538390159606934,1.392622709274292,-9.659825325012207
1618,88800.0,-1.2538390159606934,1.392622709274292,-9.659825325012207
1619,88900.0,-1.4069796800613403,-0.2321037948131561,-10.688737869262695
1620,88000.0,-1.22033953666687,0.3708875179290772,-9.722038269042967
1621,88100.0,-1.22033953666687,0.3708875179290772,-9.722038269042967
1622,88200.0,-1.5601203441619873,1.6247265338897705,-9.475577354431152
1623,88300.0,-1.5601203441619873,1.6247265338897705,-9.475577354431152
1624,88400.0,-1.6845470666885376,1.871187210083008,-9.365508079528807
1625,88500.0,-1.6845470666885376,1.871187210083008,-9.365508079528807
1626,88600.0,-1.6845470666885376,1.871187210083008,-9.365508079528807
1627,88700.0,-1.2538390159606934,1.392622709274292,-9.659825325012207
1628,88800.0,-1.2538390159606934,1.392622709274292,-9.659825325012207
1629,88900.0,-1.4069796800613403,-0.2321037948131561,-10.688737869262695
1630,89000.0,-1.4069796800613403,-0.2321037948131561,-10.688737869262695
1631,89100.0,-1.4069796800613403,-0.2321037948131561,-10.688737869262695
1632,89200.0,0.9284151792526244,-0.5431707501411438,-8.616554260253906
1633,89300.0,0.9284151792526244,-0.5431707501411438,-8.616554260253906
1634,89400.0,-1.871187210083008,0.35892340540885925,-9.678967475891113
1635,89500.0,-1.871187210083008,0.35892340540885925,-9.678967475891113
1636,89600.0,-0.7465606331825256,-0.2703889608383179,-9.363115310668944
1637,89700.0,-0.7465606331825256,-0.2703889608383179,-9.363115310668944
1638,89800.0,-0.7465606331825256,-0.2703889608383179,-9.363115310668944
1639,89900.0,-0.7369893789291382,-1.2753744125366209,-8.34855842590332
1640,89000.0,-1.4069796800613403,-0.2321037948131561,-10.688737869262695
1641,89100.0,-1.4069796800613403,-0.2321037948131561,-10.688737869262695
1642,89200.0,0.9284151792526244,-0.5431707501411438,-8.616554260253906
1643,89300.0,0.9284151792526244,-0.5431707501411438,-8.616554260253906
1644,89400.0,-1.871187210083008,0.35892340540885925,-9.678967475891113
1645,89500.0,-1.871187210083008,0.35892340540885925,-9.678967475891113
1646,89600.0,-0.7465606331825256,-0.2703889608383179,-9.363115310668944
1647,89700.0,-0.7465606331825256,-0.2703889608383179,-9.363115310668944
1648,89800.0,-0.7465606331825256,-0.2703889608383179,-9.363115310668944
1649,89900.0,-0.7369893789291382,-1.2753744125366209,-8.34855842590332
1650,90000.0,-0.7369893789291382,-1.2753744125366209,-8.34855842590332
1651,90100.0,-1.043270707130432,-1.636690616607666,-9.66939640045166
1652,90200.0,-1.043270707130432,-1.636690616607666,-9.66939640045166
1653,90300.0,0.3302095234394073,0.9906285405158995,-8.930014610290527
1654,90400.0,0.3302095234394073,0.9906285405158995,-8.930014610290527
1655,90500.0,0.3302095234394073,0.9906285405158995,-8.930014610290527
1656,90600.0,-1.2346963882446291,-0.5647061467170715,-9.66939640045166
1657,90700.0,-1.2346963882446291,-0.5647061467170715,-9.66939640045166
1658,90800.0,-1.2059825658798218,0.4666004180908203,-11.009377479553224
1659,90900.0,-1.2059825658798218,0.4666004180908203,-11.009377479553224
1660,90000.0,-0.7369893789291382,-1.2753744125366209,-8.34855842590332
1661,90100.0,-1.043270707130432,-1.636690616607666,-9.66939640045166
1662,90200.0,-1.043270707130432,-1.636690616607666,-9.66939640045166
1663,90300.0,0.3302095234394073,0.9906285405158995,-8.930014610290527
1664,90400.0,0.3302095234394073,0.9906285405158995,-8.930014610290527
1665,90500.0,0.3302095234394073,0.9906285405158995,-8.930014610290527
1666,90600.0,-1.2346963882446291,-0.5647061467170715,-9.66939640045166
1667,90700.0,-1.2346963882446291,-0.5647061467170715,-9.66939640045166
1668,90800.0,-1.2059825658798218,0.4666004180908203,-11.009377479553224
1669,90900.0,-1.2059825658798218,0.4666004180908203,-11.009377479553224
1670,91000.0,-0.7130610942840576,0.07657032459974289,-9.03290557861328
1671,91100.0,-0.7130610942840576,0.07657032459974289,-9.03290557861328
1672,91200.0,-0.7130610942840576,0.07657032459974289,-9.03290557861328
1673,91300.0,-4.000799655914307,-5.266602516174316,-12.837493896484375
1674,91400.0,-4.000799655914307,-5.266602516174316,-12.837493896484375
1675,91500.0,-0.7130610942840576,0.06699903309345245,-9.66939640045166
1676,91600.0,-0.7130610942840576,0.06699903309345245,-9.66939640045166
1677,91700.0,-1.043270707130432,1.0743772983551023,-9.109475135803224
1678,91800.0,-1.043270707130432,1.0743772983551023,-9.109475135803224
1679,91900.0,-0.430708110332489,1.2634103298187256,-9.384650230407717
1680,91000.0,-0.7130610942840576,0.07657032459974289,-9.03290557861328
1681,91100.0,-0.7130610942840576,0.07657032459974289,-9.03290557861328
1682,91200.0,-0.7130610942840576,0.07657032459974289,-9.03290557861328
1683,91300.0,-4.000799655914307,-5.266602516174316,-12.837493896484375
1684,91400.0,-4.000799655914307,-5.266602516174316,-12.837493896484375
1685,91500.0,-0.7130610942840576,0.06699903309345245,-9.66939640045166
1686,91600.0,-0.7130610942840576,0.06699903309345245,-9.66939640045166
1687,91700.0,-1.043270707130432,1.0743772983551023,-9.109475135803224
1688,91800.0,-1.043270707130432,1.0743772983551023,-9.109475135803224
1689,91900.0,-0.430708110332489,1.2634103298187256,-9.384650230407717
1690,92000.0,-0.430708110332489,1.2634103298187256,-9.384650230407717
1691,92100.0,-0.430708110332489,1.2634103298187256,-9.384650230407717
1692,92200.0,-0.6843472719192505,0.4426721632480621,-9.521041870117188
1693,92300.0,-0.6843472719192505,0.4426721632480621,-9.521041870117188
1694,92400.0,-0.5599204897880554,0.8135597109794617,-9.875179290771484
1695,92500.0,-0.5599204897880554,0.8135597109794617,-9.875179290771484
1696,92600.0,-0.3206382095813751,0.28953152894973755,-10.478169441223145
1697,92700.0,-0.3206382095813751,0.28953152894973755,-10.478169441223145
1698,92800.0,-0.3206382095813751,0.28953152894973755,-10.478169441223145
1699,92900.0,-0.7992027401924133,0.7106683850288391,-9.554540634155273
1700,92000.0,-0.430708110332489,1.2634103298187256,-9.384650230407717
1701,92100.0,-0.430708110332489,1.2634103298187256,-9.384650230407717
1702,92200.0,-0.6843472719192505,0.4426721632480621,-9.521041870117188
