,Unnamed: 0,timestamp,ax,ay,az
0,0.0,5000.0,-3.9864425659179688,5.335994720458984,-7.176074504852295
1,1.0,5100.0,-3.9864425659179688,5.335994720458984,-7.176074504852295
2,2.0,5200.0,-3.9864425659179688,5.335994720458984,-7.176074504852295
3,3.0,5300.0,-3.9864425659179688,5.335994720458984,-7.176074504852295
4,4.0,5400.0,-4.091726779937743,5.5345988273620605,-7.087540626525879
5,5.0,5500.0,-4.091726779937743,5.5345988273620605,-7.087540626525879
6,6.0,5600.0,-4.072584152221681,5.532205581665039,-6.8315086364746085
7,7.0,5700.0,-4.072584152221681,5.532205581665039,-6.8315086364746085
8,8.0,5800.0,-4.072584152221681,5.532205581665039,-6.8315086364746085
9,9.0,5900.0,-4.072584152221681,5.589633941650392,-6.917649745941162
10,10.0,6000.0,-4.072584152221681,5.589633941650392,-6.917649745941162
11,11.0,6100.0,-4.139583110809326,5.424529075622559,-6.75493860244751
12,12.0,6200.0,-4.139583110809326,5.424529075622559,-6.75493860244751
13,13.0,6300.0,-4.139583110809326,5.343173027038574,-7.259823799133301
14,14.0,6400.0,-4.139583110809326,5.343173027038574,-7.259823799133301
15,15.0,6500.0,-4.158725738525392,5.529813289642334,-6.721438884735107
16,16.0,6600.0,-4.158725738525392,5.529813289642334,-6.721438884735107
17,17.0,6700.0,-4.158725738525392,5.529813289642334,-6.721438884735107
18,18.0,6800.0,-4.321437358856201,5.9030938148498535,-6.7692952156066895
19,19.0,6900.0,-4.321437358856201,5.9030938148498535,-6.7692952156066895
20,10.0,6000.0,-4.072584152221681,5.589633941650392,-6.917649745941162
21,11.0,6100.0,-4.139583110809326,5.424529075622559,-6.75493860244751
22,12.0,6200.0,-4.139583110809326,5.424529075622559,-6.75493860244751
23,13.0,6300.0,-4.139583110809326,5.343173027038574,-7.259823799133301
24,14.0,6400.0,-4.139583110809326,5.343173027038574,-7.259823799133301
25,15.0,6500.0,-4.158725738525392,5.529813289642334,-6.721438884735107
26,16.0,6600.0,-4.158725738525392,5.529813289642334,-6.721438884735107
27,17.0,6700.0,-4.158725738525392,5.529813289642334,-6.721438884735107
28,18.0,6800.0,-4.321437358856201,5.9030938148498535,-6.7692952156066895
29,19.0,6900.0,-4.321437358856201,5.9030938148498535,-6.7692952156066895
30,20.0,7000.0,-4.187439441680908,5.982056617736816,-7.152146816253662
31,21.0,7100.0,-4.187439441680908,5.982056617736816,-7.152146816253662
32,22.0,7200.0,-4.8813581466674805,4.242474555969238,-7.451249599456787
33,23.0,7300.0,-4.8813581466674805,4.242474555969238,-7.451249599456787
34,24.0,7400.0,-4.8813581466674805,4.242474555969238,-7.451249599456787
35,25.0,7500.0,-4.847858428955078,4.5367913246154785,-7.487142086029053
36,26.0,7600.0,-4.847858428955078,4.5367913246154785,-7.487142086029053
37,27.0,7700.0,-5.422136306762695,3.5198421478271484,-5.737988471984862
38,28.0,7800.0,-5.422136306762695,3.5198421478271484,-5.737988471984862
39,29.0,7900.0,-5.737988471984862,4.527220726013184,-6.403193473815918
40,20.0,7000.0,-4.187439441680908,5.982056617736816,-7.152146816253662
41,21.0,7100.0,-4.187439441680908,5.982056617736816,-7.152146816253662
42,22.0,7200.0,-4.8813581466674805,4.242474555969238,-7.451249599456787
43,23.0,7300.0,-4.8813581466674805,4.242474555969238,-7.451249599456787
44,24.0,7400.0,-4.8813581466674805,4.242474555969238,-7.451249599456787
45,25.0,7500.0,-4.847858428955078,4.5367913246154785,-7.487142086029053
46,26.0,7600.0,-4.847858428955078,4.5367913246154785,-7.487142086029053
47,27.0,7700.0,-5.422136306762695,3.5198421478271484,-5.737988471984862
48,28.0,7800.0,-5.422136306762695,3.5198421478271484,-5.737988471984862
49,29.0,7900.0,-5.737988471984862,4.527220726013184,-6.403193473815918
50,30.0,8000.0,-5.737988471984862,4.527220726013184,-6.403193473815918
51,31.0,8100.0,-4.675575256347656,2.366501569747925,-8.3629150390625
52,32.0,8200.0,-4.675575256347656,2.366501569747925,-8.3629150390625
53,33.0,8300.0,-4.675575256347656,2.366501569747925,-8.3629150390625
54,34.0,8400.0,-3.6323046684265137,0.1698903888463974,-9.226724624633787
55,35.0,8500.0,-3.6323046684265137,0.1698903888463974,-9.226724624633787
56,36.0,8600.0,-4.4027934074401855,3.9290146827697767,-8.262415885925293
57,37.0,8700.0,-4.4027934074401855,3.9290146827697767,-8.262415885925293
58,38.0,8800.0,-4.130012035369873,4.917250633239746,-8.161917686462402
59,39.0,8900.0,-4.130012035369873,4.917250633239746,-8.161917686462402
60,30.0,8000.0,-5.737988471984862,4.527220726013184,-6.403193473815918
61,31.0,8100.0,-4.675575256347656,2.366501569747925,-8.3629150390625
62,32.0,8200.0,-4.675575256347656,2.366501569747925,-8.3629150390625
63,33.0,8300.0,-4.675575256347656,2.366501569747925,-8.3629150390625
64,34.0,8400.0,-3.6323046684265137,0.1698903888463974,-9.226724624633787
65,35.0,8500.0,-3.6323046684265137,0.1698903888463974,-9.226724624633787
66,36.0,8600.0,-4.4027934074401855,3.9290146827697767,-8.262415885925293
67,37.0,8700.0,-4.4027934074401855,3.9290146827697767,-8.262415885925293
68,38.0,8800.0,-4.130012035369873,4.917250633239746,-8.161917686462402
69,39.0,8900.0,-4.130012035369873,4.917250633239746,-8.161917686462402
70,40.0,9000.0,-3.665804386138916,5.005784511566162,-7.93699312210083
71,41.0,9100.0,-3.665804386138916,5.005784511566162,-7.93699312210083
72,42.0,9200.0,-3.665804386138916,5.005784511566162,-7.93699312210083
73,43.0,9300.0,-4.120440483093262,5.955735206604004,-6.044269561767577
74,44.0,9400.0,-4.120440483093262,5.955735206604004,-6.044269561767577
75,45.0,9500.0,-4.144368648529054,5.391028881072998,-6.649653911590576
76,46.0,9600.0,-4.144368648529054,5.391028881072998,-6.649653911590576
77,47.0,9700.0,-4.168296813964844,5.749952793121338,-6.558726787567139
78,48.0,9800.0,-4.168296813964844,5.749952793121338,-6.558726787567139
79,49.0,9900.0,-4.168296813964844,5.749952793121338,-6.558726787567139
80,40.0,9000.0,-3.665804386138916,5.005784511566162,-7.93699312210083
81,41.0,9100.0,-3.665804386138916,5.005784511566162,-7.93699312210083
82,42.0,9200.0,-3.665804386138916,5.005784511566162,-7.93699312210083
83,43.0,9300.0,-4.120440483093262,5.955735206604004,-6.044269561767577
84,44.0,9400.0,-4.120440483093262,5.955735206604004,-6.044269561767577
85,45.0,9500.0,-4.144368648529054,5.391028881072998,-6.649653911590576
86,46.0,9600.0,-4.144368648529054,5.391028881072998,-6.649653911590576
87,47.0,9700.0,-4.168296813964844,5.749952793121338,-6.558726787567139
88,48.0,9800.0,-4.168296813964844,5.749952793121338,-6.558726787567139
89,49.0,9900.0,-4.168296813964844,5.749952793121338,-6.558726787567139
90,50.0,10000.0,-4.192224979400635,5.599205493927002,-6.994220733642577
91,51.0,10100.0,-4.192224979400635,5.599205493927002,-6.994220733642577
92,52.0,10200.0,-4.115654945373535,5.6997032165527335,-6.826723098754883
93,53.0,10300.0,-4.115654945373535,5.6997032165527335,-6.826723098754883
94,54.0,10400.0,-4.115654945373535,5.6997032165527335,-6.826723098754883
95,55.0,10500.0,-4.053441524505615,5.67338228225708,-6.759723663330077
96,56.0,10600.0,-4.053441524505615,5.67338228225708,-6.759723663330077
97,57.0,10700.0,-4.19701099395752,5.66620397567749,-6.843472957611084
98,58.0,10800.0,-4.19701099395752,5.66620397567749,-6.843472957611084
99,59.0,10900.0,-4.139583110809326,5.783452033996582,-6.805188179016112
100,50.0,10000.0,-4.192224979400635,5.599205493927002,-6.994220733642577
101,51.0,10100.0,-4.192224979400635,5.599205493927002,-6.994220733642577
102,52.0,10200.0,-4.115654945373535,5.6997032165527335,-6.826723098754883
103,53.0,10300.0,-4.115654945373535,5.6997032165527335,-6.826723098754883
104,54.0,10400.0,-4.115654945373535,5.6997032165527335,-6.826723098754883
105,55.0,10500.0,-4.053441524505615,5.67338228225708,-6.759723663330077
106,56.0,10600.0,-4.053441524505615,5.67338228225708,-6.759723663330077
107,57.0,10700.0,-4.19701099395752,5.66620397567749,-6.843472957611084
108,58.0,10800.0,-4.19701099395752,5.66620397567749,-6.843472957611084
109,59.0,10900.0,-4.139583110809326,5.783452033996582,-6.805188179016112
110,60.0,11000.0,-4.139583110809326,5.783452033996582,-6.805188179016112
111,61.0,11100.0,-4.139583110809326,5.783452033996582,-6.805188179016112
112,62.0,11200.0,-4.153940200805663,5.769095420837402,-6.759723663330077
113,63.0,11300.0,-4.153940200805663,5.769095420837402,-6.759723663330077
114,64.0,11400.0,-4.23529577255249,5.773881435394287,-6.881758213043213
115,65.0,11500.0,-4.23529577255249,5.773881435394287,-6.881758213043213
116,66.0,11600.0,-4.101297855377196,5.6207404136657715,-6.7070817947387695
117,67.0,11700.0,-4.101297855377196,5.6207404136657715,-6.7070817947387695
118,68.0,11800.0,-4.168296813964844,5.644669055938723,-6.687938690185548
119,69.0,11900.0,-4.168296813964844,5.644669055938723,-6.687938690185548
120,60.0,11000.0,-4.139583110809326,5.783452033996582,-6.805188179016112
121,61.0,11100.0,-4.139583110809326,5.783452033996582,-6.805188179016112
122,62.0,11200.0,-4.153940200805663,5.769095420837402,-6.759723663330077
123,63.0,11300.0,-4.153940200805663,5.769095420837402,-6.759723663330077
124,64.0,11400.0,-4.23529577255249,5.773881435394287,-6.881758213043213
125,65.0,11500.0,-4.23529577255249,5.773881435394287,-6.881758213043213
126,66.0,11600.0,-4.101297855377196,5.6207404136657715,-6.7070817947387695
127,67.0,11700.0,-4.101297855377196,5.6207404136657715,-6.7070817947387695
128,68.0,11800.0,-4.168296813964844,5.644669055938723,-6.687938690185548
129,69.0,11900.0,-4.168296813964844,5.644669055938723,-6.687938690185548
130,70.0,12000.0,-4.168296813964844,5.644669055938723,-6.687938690185548
131,71.0,12100.0,-4.106083393096924,5.749952793121338,-6.759723663330077
132,72.0,12200.0,-4.106083393096924,5.749952793121338,-6.759723663330077
133,73.0,12300.0,-4.201796531677246,5.697310447692871,-6.802794933319093
134,74.0,12400.0,-4.201796531677246,5.697310447692871,-6.802794933319093
135,75.0,12500.0,-4.249652862548828,5.6997032165527335,-6.7310099601745605
136,76.0,12600.0,-4.249652862548828,5.6997032165527335,-6.7310099601745605
137,77.0,12700.0,-4.249652862548828,5.6997032165527335,-6.7310099601745605
138,78.0,12800.0,-4.2687954902648935,5.6207404136657715,-6.826723098754883
139,79.0,12900.0,-4.2687954902648935,5.6207404136657715,-6.826723098754883
140,70.0,12000.0,-4.168296813964844,5.644669055938723,-6.687938690185548
141,71.0,12100.0,-4.106083393096924,5.749952793121338,-6.759723663330077
142,72.0,12200.0,-4.106083393096924,5.749952793121338,-6.759723663330077
143,73.0,12300.0,-4.201796531677246,5.697310447692871,-6.802794933319093
144,74.0,12400.0,-4.201796531677246,5.697310447692871,-6.802794933319093
145,75.0,12500.0,-4.249652862548828,5.6997032165527335,-6.7310099601745605
146,76.0,12600.0,-4.249652862548828,5.6997032165527335,-6.7310099601745605
147,77.0,12700.0,-4.249652862548828,5.6997032165527335,-6.7310099601745605
148,78.0,12800.0,-4.2687954902648935,5.6207404136657715,-6.826723098754883
149,79.0,12900.0,-4.2687954902648935,5.6207404136657715,-6.826723098754883
150,80.0,13000.0,-3.8907296657562256,5.592026710510254,-6.867401123046875
151,81.0,13100.0,-3.8907296657562256,5.592026710510254,-6.867401123046875
152,82.0,13200.0,-4.153940200805663,5.694917678833008,-6.223731517791747
153,83.0,13300.0,-4.153940200805663,5.694917678833008,-6.223731517791747
154,84.0,13400.0,-3.976871252059937,5.824130058288574,-6.589833736419678
155,85.0,13500.0,-3.976871252059937,5.824130058288574,-6.589833736419678
156,86.0,13600.0,-4.244867324829103,5.647061824798584,-6.632904052734375
157,87.0,13700.0,-4.244867324829103,5.647061824798584,-6.632904052734375
158,88.0,13800.0,-4.244867324829103,5.647061824798584,-6.632904052734375
159,89.0,13900.0,-4.240081787109375,5.615954875946045,-6.6927247047424325
160,80.0,13000.0,-3.8907296657562256,5.592026710510254,-6.867401123046875
161,81.0,13100.0,-3.8907296657562256,5.592026710510254,-6.867401123046875
162,82.0,13200.0,-4.153940200805663,5.694917678833008,-6.223731517791747
163,83.0,13300.0,-4.153940200805663,5.694917678833008,-6.223731517791747
164,84.0,13400.0,-3.976871252059937,5.824130058288574,-6.589833736419678
165,85.0,13500.0,-3.976871252059937,5.824130058288574,-6.589833736419678
166,86.0,13600.0,-4.244867324829103,5.647061824798584,-6.632904052734375
167,87.0,13700.0,-4.244867324829103,5.647061824798584,-6.632904052734375
168,88.0,13800.0,-4.244867324829103,5.647061824798584,-6.632904052734375
169,89.0,13900.0,-4.240081787109375,5.615954875946045,-6.6927247047424325
170,90.0,14000.0,-4.240081787109375,5.615954875946045,-6.6927247047424325
171,91.0,14100.0,-4.144368648529054,5.67338228225708,-6.709475040435791
172,92.0,14200.0,-4.144368648529054,5.67338228225708,-6.709475040435791
173,93.0,14300.0,-4.273581027984618,5.680561065673827,-6.7932233810424805
174,94.0,14400.0,-4.273581027984618,5.680561065673827,-6.7932233810424805
175,95.0,14500.0,-4.273581027984618,5.680561065673827,-6.7932233810424805
176,96.0,14600.0,-4.240081787109375,5.570490837097168,-6.721438884735107
177,97.0,14700.0,-4.240081787109375,5.570490837097168,-6.721438884735107
178,98.0,14800.0,-4.211367607116698,5.742774486541747,-6.87697172164917
179,99.0,14900.0,-4.211367607116698,5.742774486541747,-6.87697172164917
180,90.0,14000.0,-4.240081787109375,5.615954875946045,-6.6927247047424325
181,91.0,14100.0,-4.144368648529054,5.67338228225708,-6.709475040435791
182,92.0,14200.0,-4.144368648529054,5.67338228225708,-6.709475040435791
183,93.0,14300.0,-4.273581027984618,5.680561065673827,-6.7932233810424805
184,94.0,14400.0,-4.273581027984618,5.680561065673827,-6.7932233810424805
185,95.0,14500.0,-4.273581027984618,5.680561065673827,-6.7932233810424805
186,96.0,14600.0,-4.240081787109375,5.570490837097168,-6.721438884735107
187,97.0,14700.0,-4.240081787109375,5.570490837097168,-6.721438884735107
188,98.0,14800.0,-4.211367607116698,5.742774486541747,-6.87697172164917
189,99.0,14900.0,-4.211367607116698,5.742774486541747,-6.87697172164917
190,100.0,15000.0,-4.283152580261231,5.759523868560791,-6.917649745941162
191,101.0,15100.0,-4.283152580261231,5.759523868560791,-6.917649745941162
192,102.0,15200.0,-4.29750919342041,5.685347080230713,-6.8099732398986825
193,103.0,15300.0,-4.29750919342041,5.685347080230713,-6.8099732398986825
194,104.0,15400.0,-4.096512317657472,5.694917678833008,-6.26440954208374
195,105.0,15500.0,-4.096512317657472,5.694917678833008,-6.26440954208374
196,106.0,15600.0,-4.096512317657472,5.694917678833008,-6.26440954208374
197,107.0,15700.0,-4.187439441680908,6.171089172363281,-6.537191867828369
198,108.0,15800.0,-4.187439441680908,6.171089172363281,-6.537191867828369
199,109.0,15900.0,-3.9720854759216313,6.5491557121276855,-6.6352972984313965
200,100.0,15000.0,-4.283152580261231,5.759523868560791,-6.917649745941162
201,101.0,15100.0,-4.283152580261231,5.759523868560791,-6.917649745941162
202,102.0,15200.0,-4.29750919342041,5.685347080230713,-6.8099732398986825
203,103.0,15300.0,-4.29750919342041,5.685347080230713,-6.8099732398986825
204,104.0,15400.0,-4.096512317657472,5.694917678833008,-6.26440954208374
205,105.0,15500.0,-4.096512317657472,5.694917678833008,-6.26440954208374
206,106.0,15600.0,-4.096512317657472,5.694917678833008,-6.26440954208374
207,107.0,15700.0,-4.187439441680908,6.171089172363281,-6.537191867828369
208,108.0,15800.0,-4.187439441680908,6.171089172363281,-6.537191867828369
209,109.0,15900.0,-3.9720854759216313,6.5491557121276855,-6.6352972984313965
210,110.0,16000.0,-3.9720854759216313,6.5491557121276855,-6.6352972984313965
211,111.0,16100.0,-3.9720854759216313,6.5491557121276855,-6.6352972984313965
212,112.0,16200.0,-4.149154186248778,4.8095736503601065,-6.314659118652344
213,113.0,16300.0,-4.149154186248778,4.8095736503601065,-6.314659118652344
214,114.0,16400.0,-4.091726779937743,5.912664413452148,-6.118447780609131
215,115.0,16500.0,-4.091726779937743,5.912664413452148,-6.118447780609131
216,116.0,16600.0,-4.225724697113037,5.821736812591553,-6.470191955566406
217,117.0,16700.0,-4.225724697113037,5.821736812591553,-6.470191955566406
218,118.0,16800.0,-4.8191447257995605,6.178267955780027,-6.238089084625244
219,119.0,16900.0,-4.8191447257995605,6.178267955780027,-6.238089084625244
220,110.0,16000.0,-3.9720854759216313,6.5491557121276855,-6.6352972984313965
221,111.0,16100.0,-3.9720854759216313,6.5491557121276855,-6.6352972984313965
222,112.0,16200.0,-4.149154186248778,4.8095736503601065,-6.314659118652344
223,113.0,16300.0,-4.149154186248778,4.8095736503601065,-6.314659118652344
224,114.0,16400.0,-4.091726779937743,5.912664413452148,-6.118447780609131
225,115.0,16500.0,-4.091726779937743,5.912664413452148,-6.118447780609131
226,116.0,16600.0,-4.225724697113037,5.821736812591553,-6.470191955566406
227,117.0,16700.0,-4.225724697113037,5.821736812591553,-6.470191955566406
228,118.0,16800.0,-4.8191447257995605,6.178267955780027,-6.238089084625244
229,119.0,16900.0,-4.8191447257995605,6.178267955780027,-6.238089084625244
230,120.0,17000.0,-4.8191447257995605,6.178267955780027,-6.238089084625244
231,121.0,17100.0,-4.704289436340332,5.6542396545410165,-6.917649745941162
232,122.0,17200.0,-4.704289436340332,5.6542396545410165,-6.917649745941162
233,123.0,17300.0,-5.61834716796875,4.6061835289001465,-6.553941249847412
234,124.0,17400.0,-5.61834716796875,4.6061835289001465,-6.553941249847412
235,125.0,17500.0,-6.144768238067628,4.316651821136476,-5.046462535858153
236,126.0,17600.0,-6.144768238067628,4.316651821136476,-5.046462535858153
237,127.0,17700.0,-6.144768238067628,4.316651821136476,-5.046462535858153
238,128.0,17800.0,-3.814159393310547,1.06480610370636,-10.382457733154297
239,129.0,17900.0,-3.814159393310547,1.06480610370636,-10.382457733154297
240,120.0,17000.0,-4.8191447257995605,6.178267955780027,-6.238089084625244
241,121.0,17100.0,-4.704289436340332,5.6542396545410165,-6.917649745941162
242,122.0,17200.0,-4.704289436340332,5.6542396545410165,-6.917649745941162
243,123.0,17300.0,-5.61834716796875,4.6061835289001465,-6.553941249847412
244,124.0,17400.0,-5.61834716796875,4.6061835289001465,-6.553941249847412
245,125.0,17500.0,-6.144768238067628,4.316651821136476,-5.046462535858153
246,126.0,17600.0,-6.144768238067628,4.316651821136476,-5.046462535858153
247,127.0,17700.0,-6.144768238067628,4.316651821136476,-5.046462535858153
248,128.0,17800.0,-3.814159393310547,1.06480610370636,-10.382457733154297
249,129.0,17900.0,-3.814159393310547,1.06480610370636,-10.382457733154297
250,130.0,18000.0,-3.1968109607696533,1.5529417991638184,-8.729016304016112
251,131.0,18100.0,-3.1968109607696533,1.5529417991638184,-8.729016304016112
252,132.0,18200.0,-2.991028308868408,1.356730580329895,-8.987441062927246
253,133.0,18300.0,-2.991028308868408,1.356730580329895,-8.987441062927246
254,134.0,18400.0,-2.991028308868408,1.356730580329895,-8.987441062927246
255,135.0,18500.0,-4.7569313049316415,0.6795615553855896,-8.855835914611816
256,136.0,18600.0,-4.7569313049316415,0.6795615553855896,-8.855835914611816
257,137.0,18700.0,-3.206382274627685,0.3349951505661011,-8.941977500915527
258,138.0,18800.0,-3.206382274627685,0.3349951505661011,-8.941977500915527
259,139.0,18900.0,-3.206382274627685,0.3349951505661011,-8.941977500915527
260,130.0,18000.0,-3.1968109607696533,1.5529417991638184,-8.729016304016112
261,131.0,18100.0,-3.1968109607696533,1.5529417991638184,-8.729016304016112
262,132.0,18200.0,-2.991028308868408,1.356730580329895,-8.987441062927246
263,133.0,18300.0,-2.991028308868408,1.356730580329895,-8.987441062927246
264,134.0,18400.0,-2.991028308868408,1.356730580329895,-8.987441062927246
265,135.0,18500.0,-4.7569313049316415,0.6795615553855896,-8.855835914611816
266,136.0,18600.0,-4.7569313049316415,0.6795615553855896,-8.855835914611816
267,137.0,18700.0,-3.206382274627685,0.3349951505661011,-8.941977500915527
268,138.0,18800.0,-3.206382274627685,0.3349951505661011,-8.941977500915527
269,139.0,18900.0,-3.206382274627685,0.3349951505661011,-8.941977500915527
270,140.0,19000.0,-3.086741209030152,-0.4881358444690704,-9.51386260986328
271,141.0,19100.0,-3.086741209030152,-0.4881358444690704,-9.51386260986328
272,142.0,19200.0,-3.1537401676177983,-0.007178467698395251,-9.322437286376953
273,143.0,19300.0,-3.1537401676177983,-0.007178467698395251,-9.322437286376953
274,144.0,19400.0,-3.603590488433838,0.7776673436164856,-8.930014610290527
275,145.0,19500.0,-3.603590488433838,0.7776673436164856,-8.930014610290527
276,146.0,19600.0,-3.603590488433838,0.7776673436164856,-8.930014610290527
277,147.0,19700.0,-3.230310440063477,0.6149553656578064,-9.059226989746094
278,148.0,19800.0,-3.230310440063477,0.6149553656578064,-9.059226989746094
279,149.0,19900.0,-3.2542388439178467,0.6412764191627502,-9.109475135803224
280,140.0,19000.0,-3.086741209030152,-0.4881358444690704,-9.51386260986328
281,141.0,19100.0,-3.086741209030152,-0.4881358444690704,-9.51386260986328
282,142.0,19200.0,-3.1537401676177983,-0.007178467698395251,-9.322437286376953
283,143.0,19300.0,-3.1537401676177983,-0.007178467698395251,-9.322437286376953
284,144.0,19400.0,-3.603590488433838,0.7776673436164856,-8.930014610290527
285,145.0,19500.0,-3.603590488433838,0.7776673436164856,-8.930014610290527
286,146.0,19600.0,-3.603590488433838,0.7776673436164856,-8.930014610290527
287,147.0,19700.0,-3.230310440063477,0.6149553656578064,-9.059226989746094
288,148.0,19800.0,-3.230310440063477,0.6149553656578064,-9.059226989746094
289,149.0,19900.0,-3.2542388439178467,0.6412764191627502,-9.109475135803224
290,150.0,20000.0,-3.2542388439178467,0.6412764191627502,-9.109475135803224
291,151.0,20100.0,-3.3547375202178955,0.4450649619102478,-9.052047729492188
292,152.0,20200.0,-3.3547375202178955,0.4450649619102478,-9.052047729492188
293,153.0,20300.0,-3.3547375202178955,0.4450649619102478,-9.052047729492188
294,154.0,20400.0,-3.3978083133697514,0.4594219326972962,-8.908478736877441
295,155.0,20500.0,-3.3978083133697514,0.4594219326972962,-8.908478736877441
296,156.0,20600.0,-3.31166672706604,0.607776939868927,-8.975478172302246
297,157.0,20700.0,-3.31166672706604,0.607776939868927,-8.975478172302246
298,158.0,20800.0,-3.455235719680786,0.7824530005455017,-9.174081802368164
299,159.0,20900.0,-3.455235719680786,0.7824530005455017,-9.174081802368164
300,150.0,20000.0,-3.2542388439178467,0.6412764191627502,-9.109475135803224
301,151.0,20100.0,-3.3547375202178955,0.4450649619102478,-9.052047729492188
302,152.0,20200.0,-3.3547375202178955,0.4450649619102478,-9.052047729492188
303,153.0,20300.0,-3.3547375202178955,0.4450649619102478,-9.052047729492188
304,154.0,20400.0,-3.3978083133697514,0.4594219326972962,-8.908478736877441
305,155.0,20500.0,-3.3978083133697514,0.4594219326972962,-8.908478736877441
306,156.0,20600.0,-3.31166672706604,0.607776939868927,-8.975478172302246
307,157.0,20700.0,-3.31166672706604,0.607776939868927,-8.975478172302246
308,158.0,20800.0,-3.455235719680786,0.7824530005455017,-9.174081802368164
309,159.0,20900.0,-3.455235719680786,0.7824530005455017,-9.174081802368164
310,160.0,21000.0,-3.5365920066833496,0.861416220664978,-8.95394229888916
311,161.0,21100.0,-3.5365920066833496,0.861416220664978,-8.95394229888916
312,162.0,21200.0,-3.5365920066833496,0.861416220664978,-8.95394229888916
313,163.0,21300.0,-3.211168050765991,0.9308080077171326,-9.131011009216307
314,164.0,21400.0,-3.211168050765991,0.9308080077171326,-9.131011009216307
315,165.0,21500.0,-3.455235719680786,0.7896314859390259,-9.147761344909668
316,166.0,21600.0,-3.455235719680786,0.7896314859390259,-9.147761344909668
317,167.0,21700.0,-3.460021495819092,0.6317051649093628,-9.047262191772461
318,168.0,21800.0,-3.460021495819092,0.6317051649093628,-9.047262191772461
319,169.0,21900.0,-3.460021495819092,0.6317051649093628,-9.047262191772461
320,160.0,21000.0,-3.5365920066833496,0.861416220664978,-8.95394229888916
321,161.0,21100.0,-3.5365920066833496,0.861416220664978,-8.95394229888916
322,162.0,21200.0,-3.5365920066833496,0.861416220664978,-8.95394229888916
323,163.0,21300.0,-3.211168050765991,0.9308080077171326,-9.131011009216307
324,164.0,21400.0,-3.211168050765991,0.9308080077171326,-9.131011009216307
325,165.0,21500.0,-3.455235719680786,0.7896314859390259,-9.147761344909668
326,166.0,21600.0,-3.455235719680786,0.7896314859390259,-9.147761344909668
327,167.0,21700.0,-3.460021495819092,0.6317051649093628,-9.047262191772461
328,168.0,21800.0,-3.460021495819092,0.6317051649093628,-9.047262191772461
329,169.0,21900.0,-3.460021495819092,0.6317051649093628,-9.047262191772461
330,170.0,22000.0,-3.5461630821228027,0.9619146585464478,-9.166903495788574
331,171.0,22100.0,-3.5461630821228027,0.9619146585464478,-9.166903495788574
332,172.0,22200.0,-3.88594388961792,0.8494520783424377,-8.805586814880371
333,173.0,22300.0,-3.88594388961792,0.8494520783424377,-8.805586814880371
334,174.0,22400.0,-3.6562328338623047,0.882951557636261,-8.925228118896484
335,175.0,22500.0,-3.6562328338623047,0.882951557636261,-8.925228118896484
336,176.0,22600.0,-3.665804386138916,0.9284151792526244,-8.956335067749023
337,177.0,22700.0,-3.665804386138916,0.9284151792526244,-8.956335067749023
338,178.0,22800.0,-3.665804386138916,0.9284151792526244,-8.956335067749023
339,179.0,22900.0,-3.694517850875856,1.0169496536254885,-9.06401252746582
340,170.0,22000.0,-3.5461630821228027,0.9619146585464478,-9.166903495788574
341,171.0,22100.0,-3.5461630821228027,0.9619146585464478,-9.166903495788574
342,172.0,22200.0,-3.88594388961792,0.8494520783424377,-8.805586814880371
343,173.0,22300.0,-3.88594388961792,0.8494520783424377,-8.805586814880371
344,174.0,22400.0,-3.6562328338623047,0.882951557636261,-8.925228118896484
345,175.0,22500.0,-3.6562328338623047,0.882951557636261,-8.925228118896484
346,176.0,22600.0,-3.665804386138916,0.9284151792526244,-8.956335067749023
347,177.0,22700.0,-3.665804386138916,0.9284151792526244,-8.956335067749023
348,178.0,22800.0,-3.665804386138916,0.9284151792526244,-8.956335067749023
349,179.0,22900.0,-3.694517850875856,1.0169496536254885,-9.06401252746582
350,180.0,23000.0,-3.694517850875856,1.0169496536254885,-9.06401252746582
351,181.0,23100.0,-3.641876220703125,0.935593605041504,-9.059226989746094
352,182.0,23200.0,-3.641876220703125,0.935593605041504,-9.059226989746094
353,183.0,23300.0,-3.6370904445648193,0.9499505758285522,-8.975478172302246
354,184.0,23400.0,-3.6370904445648193,0.9499505758285522,-8.975478172302246
355,185.0,23500.0,-3.579662799835205,1.026520848274231,-9.030512809753418
356,186.0,23600.0,-3.579662799835205,1.026520848274231,-9.030512809753418
357,187.0,23700.0,-3.579662799835205,1.026520848274231,-9.030512809753418
358,188.0,23800.0,-3.6562328338623047,1.0169496536254885,-9.042476654052734
359,189.0,23900.0,-3.6562328338623047,1.0169496536254885,-9.042476654052734
360,180.0,23000.0,-3.694517850875856,1.0169496536254885,-9.06401252746582
361,181.0,23100.0,-3.641876220703125,0.935593605041504,-9.059226989746094
362,182.0,23200.0,-3.641876220703125,0.935593605041504,-9.059226989746094
363,183.0,23300.0,-3.6370904445648193,0.9499505758285522,-8.975478172302246
364,184.0,23400.0,-3.6370904445648193,0.9499505758285522,-8.975478172302246
365,185.0,23500.0,-3.579662799835205,1.026520848274231,-9.030512809753418
366,186.0,23600.0,-3.579662799835205,1.026520848274231,-9.030512809753418
367,187.0,23700.0,-3.579662799835205,1.026520848274231,-9.030512809753418
368,188.0,23800.0,-3.6562328338623047,1.0169496536254885,-9.042476654052734
369,189.0,23900.0,-3.6562328338623047,1.0169496536254885,-9.042476654052734
370,190.0,24000.0,-3.684947013854982,1.0767701864242554,-8.903693199157715
371,191.0,24100.0,-3.684947013854982,1.0767701864242554,-8.903693199157715
372,192.0,24200.0,-3.565305471420288,1.124626636505127,-8.891729354858398
373,193.0,24300.0,-3.565305471420288,1.124626636505127,-8.891729354858398
374,194.0,24400.0,-3.565305471420288,1.124626636505127,-8.891729354858398
375,195.0,24500.0,-3.1345977783203125,0.6604190468788147,-9.214759826660156
376,196.0,24600.0,-3.1345977783203125,0.6604190468788147,-9.214759826660156
377,197.0,24700.0,-3.2781667709350586,0.16749757528305054,-9.03290557861328
378,198.0,24800.0,-3.2781667709350586,0.16749757528305054,-9.03290557861328
379,199.0,24900.0,-3.5557346343994136,0.5790630578994751,-8.580661773681639
380,190.0,24000.0,-3.684947013854982,1.0767701864242554,-8.903693199157715
381,191.0,24100.0,-3.684947013854982,1.0767701864242554,-8.903693199157715
382,192.0,24200.0,-3.565305471420288,1.124626636505127,-8.891729354858398
383,193.0,24300.0,-3.565305471420288,1.124626636505127,-8.891729354858398
384,194.0,24400.0,-3.565305471420288,1.124626636505127,-8.891729354858398
385,195.0,24500.0,-3.1345977783203125,0.6604190468788147,-9.214759826660156
386,196.0,24600.0,-3.1345977783203125,0.6604190468788147,-9.214759826660156
387,197.0,24700.0,-3.2781667709350586,0.16749757528305054,-9.03290557861328
388,198.0,24800.0,-3.2781667709350586,0.16749757528305054,-9.03290557861328
389,199.0,24900.0,-3.5557346343994136,0.5790630578994751,-8.580661773681639
390,200.0,25000.0,-3.5557346343994136,0.5790630578994751,-8.580661773681639
391,201.0,25100.0,-3.5557346343994136,0.5790630578994751,-8.580661773681639
392,202.0,25200.0,-4.302295207977295,-0.04546363279223442,-9.207581520080566
393,203.0,25300.0,-4.302295207977295,-0.04546363279223442,-9.207581520080566
394,204.0,25400.0,-3.622733592987061,0.04546363279223442,-10.794021606445312
395,205.0,25500.0,-3.622733592987061,0.04546363279223442,-10.794021606445312
396,206.0,25600.0,-3.6131620407104488,1.7563319206237793,-8.374878883361816
397,207.0,25700.0,-3.6131620407104488,1.7563319206237793,-8.374878883361816
398,208.0,25800.0,-3.6131620407104488,1.7563319206237793,-8.374878883361816
399,209.0,25900.0,-2.723031997680664,2.8522443771362305,-8.109275817871094
400,200.0,25000.0,-3.5557346343994136,0.5790630578994751,-8.580661773681639
401,201.0,25100.0,-3.5557346343994136,0.5790630578994751,-8.580661773681639
402,202.0,25200.0,-4.302295207977295,-0.04546363279223442,-9.207581520080566
403,203.0,25300.0,-4.302295207977295,-0.04546363279223442,-9.207581520080566
404,204.0,25400.0,-3.622733592987061,0.04546363279223442,-10.794021606445312
405,205.0,25500.0,-3.622733592987061,0.04546363279223442,-10.794021606445312
406,206.0,25600.0,-3.6131620407104488,1.7563319206237793,-8.374878883361816
407,207.0,25700.0,-3.6131620407104488,1.7563319206237793,-8.374878883361816
408,208.0,25800.0,-3.6131620407104488,1.7563319206237793,-8.374878883361816
409,209.0,25900.0,-2.723031997680664,2.8522443771362305,-8.109275817871094
410,210.0,26000.0,-2.723031997680664,2.8522443771362305,-8.109275817871094
411,211.0,26100.0,-3.594019651412964,2.12961220741272,-9.138189315795898
412,212.0,26200.0,-3.594019651412964,2.12961220741272,-9.138189315795898
413,213.0,26300.0,-3.3164520263671875,2.785245418548584,-8.49452018737793
414,214.0,26400.0,-3.3164520263671875,2.785245418548584,-8.49452018737793
415,215.0,26500.0,-3.3164520263671875,2.785245418548584,-8.49452018737793
416,216.0,26600.0,-3.45045018196106,2.799602746963501,-7.99681282043457
417,217.0,26700.0,-3.45045018196106,2.799602746963501,-7.99681282043457
418,218.0,26800.0,-3.31166672706604,2.8953151702880864,-8.647661209106445
419,219.0,26900.0,-3.31166672706604,2.8953151702880864,-8.647661209106445
420,210.0,26000.0,-2.723031997680664,2.8522443771362305,-8.109275817871094
421,211.0,26100.0,-3.594019651412964,2.12961220741272,-9.138189315795898
422,212.0,26200.0,-3.594019651412964,2.12961220741272,-9.138189315795898
423,213.0,26300.0,-3.3164520263671875,2.785245418548584,-8.49452018737793
424,214.0,26400.0,-3.3164520263671875,2.785245418548584,-8.49452018737793
425,215.0,26500.0,-3.3164520263671875,2.785245418548584,-8.49452018737793
426,216.0,26600.0,-3.45045018196106,2.799602746963501,-7.99681282043457
427,217.0,26700.0,-3.45045018196106,2.799602746963501,-7.99681282043457
428,218.0,26800.0,-3.31166672706604,2.8953151702880864,-8.647661209106445
429,219.0,26900.0,-3.31166672706604,2.8953151702880864,-8.647661209106445
430,220.0,27000.0,-3.273381233215332,4.151546955108644,-8.578269004821777
431,221.0,27100.0,-3.273381233215332,4.151546955108644,-8.578269004821777
432,222.0,27200.0,-3.263810157775879,3.510270833969116,-8.554340362548826
433,223.0,27300.0,-3.263810157775879,3.510270833969116,-8.554340362548826
434,224.0,27400.0,-3.263810157775879,3.510270833969116,-8.554340362548826
435,225.0,27500.0,-3.6083762645721436,3.058027505874634,-8.465806007385254
436,226.0,27600.0,-3.6083762645721436,3.058027505874634,-8.465806007385254
437,227.0,27700.0,-3.838087558746338,3.079562902450561,-8.609375953674316
438,228.0,27800.0,-3.838087558746338,3.079562902450561,-8.609375953674316
439,229.0,27900.0,-3.838087558746338,3.079562902450561,-8.609375953674316
440,220.0,27000.0,-3.273381233215332,4.151546955108644,-8.578269004821777
441,221.0,27100.0,-3.273381233215332,4.151546955108644,-8.578269004821777
442,222.0,27200.0,-3.263810157775879,3.510270833969116,-8.554340362548826
443,223.0,27300.0,-3.263810157775879,3.510270833969116,-8.554340362548826
444,224.0,27400.0,-3.263810157775879,3.510270833969116,-8.554340362548826
445,225.0,27500.0,-3.6083762645721436,3.058027505874634,-8.465806007385254
446,226.0,27600.0,-3.6083762645721436,3.058027505874634,-8.465806007385254
447,227.0,27700.0,-3.838087558746338,3.079562902450561,-8.609375953674316
448,228.0,27800.0,-3.838087558746338,3.079562902450561,-8.609375953674316
449,229.0,27900.0,-3.838087558746338,3.079562902450561,-8.609375953674316
450,230.0,28000.0,-4.01037073135376,3.148954391479492,-8.250452041625978
451,231.0,28100.0,-4.01037073135376,3.148954391479492,-8.250452041625978
452,232.0,28200.0,-4.704289436340332,3.476771354675293,-8.22413158416748
453,233.0,28300.0,-4.704289436340332,3.476771354675293,-8.22413158416748
454,234.0,28400.0,-5.565705299377441,5.481956481933594,-5.840879917144775
455,235.0,28500.0,-5.565705299377441,5.481956481933594,-5.840879917144775
456,236.0,28600.0,-6.379265785217285,5.592026710510254,-3.9074790477752686
457,237.0,28700.0,-6.379265785217285,5.592026710510254,-3.9074790477752686
458,238.0,28800.0,-5.670989990234375,3.919443368911743,-6.257230758666992
459,239.0,28900.0,-5.670989990234375,3.919443368911743,-6.257230758666992
460,230.0,28000.0,-4.01037073135376,3.148954391479492,-8.250452041625978
461,231.0,28100.0,-4.01037073135376,3.148954391479492,-8.250452041625978
462,232.0,28200.0,-4.704289436340332,3.476771354675293,-8.22413158416748
463,233.0,28300.0,-4.704289436340332,3.476771354675293,-8.22413158416748
464,234.0,28400.0,-5.565705299377441,5.481956481933594,-5.840879917144775
465,235.0,28500.0,-5.565705299377441,5.481956481933594,-5.840879917144775
466,236.0,28600.0,-6.379265785217285,5.592026710510254,-3.9074790477752686
467,237.0,28700.0,-6.379265785217285,5.592026710510254,-3.9074790477752686
468,238.0,28800.0,-5.670989990234375,3.919443368911743,-6.257230758666992
469,239.0,28900.0,-5.670989990234375,3.919443368911743,-6.257230758666992
470,240.0,29000.0,-5.670989990234375,3.919443368911743,-6.257230758666992
471,241.0,29100.0,-3.7328033447265625,2.5507488250732417,-9.011369705200195
472,242.0,29200.0,-3.7328033447265625,2.5507488250732417,-9.011369705200195
473,243.0,29300.0,-3.3068809509277344,2.048256158828736,-7.992027282714844
474,244.0,29400.0,-3.3068809509277344,2.048256158828736,-7.992027282714844
475,245.0,29500.0,-4.646861553192139,0.7704889178276062,-9.087940216064453
476,246.0,29600.0,-4.646861553192139,0.7704889178276062,-9.087940216064453
477,247.0,29700.0,-4.058227062225342,1.423729419708252,-9.17886734008789
478,248.0,29800.0,-4.058227062225342,1.423729419708252,-9.17886734008789
479,249.0,29900.0,-4.058227062225342,1.423729419708252,-9.17886734008789
480,240.0,29000.0,-5.670989990234375,3.919443368911743,-6.257230758666992
481,241.0,29100.0,-3.7328033447265625,2.5507488250732417,-9.011369705200195
482,242.0,29200.0,-3.7328033447265625,2.5507488250732417,-9.011369705200195
483,243.0,29300.0,-3.3068809509277344,2.048256158828736,-7.992027282714844
484,244.0,29400.0,-3.3068809509277344,2.048256158828736,-7.992027282714844
485,245.0,29500.0,-4.646861553192139,0.7704889178276062,-9.087940216064453
486,246.0,29600.0,-4.646861553192139,0.7704889178276062,-9.087940216064453
487,247.0,29700.0,-4.058227062225342,1.423729419708252,-9.17886734008789
488,248.0,29800.0,-4.058227062225342,1.423729419708252,-9.17886734008789
489,249.0,29900.0,-4.058227062225342,1.423729419708252,-9.17886734008789
490,250.0,30000.0,-3.594019651412964,1.4835500717163086,-9.133403778076172
491,251.0,30100.0,-3.594019651412964,1.4835500717163086,-9.133403778076172
492,252.0,30200.0,-3.651447057723999,1.3495519161224363,-9.075976371765137
493,253.0,30300.0,-3.651447057723999,1.3495519161224363,-9.075976371765137
494,254.0,30400.0,-3.383451223373413,1.373480200767517,-9.133403778076172
495,255.0,30500.0,-3.383451223373413,1.373480200767517,-9.133403778076172
496,256.0,30600.0,-3.383451223373413,1.373480200767517,-9.133403778076172
497,257.0,30700.0,-3.5700912475585938,1.380658507347107,-8.879764556884766
498,258.0,30800.0,-3.5700912475585938,1.380658507347107,-8.879764556884766
499,259.0,30900.0,-3.488735675811768,1.2370892763137815,-8.779266357421875
500,250.0,30000.0,-3.594019651412964,1.4835500717163086,-9.133403778076172
501,251.0,30100.0,-3.594019651412964,1.4835500717163086,-9.133403778076172
502,252.0,30200.0,-3.651447057723999,1.3495519161224363,-9.075976371765137
503,253.0,30300.0,-3.651447057723999,1.3495519161224363,-9.075976371765137
504,254.0,30400.0,-3.383451223373413,1.373480200767517,-9.133403778076172
505,255.0,30500.0,-3.383451223373413,1.373480200767517,-9.133403778076172
506,256.0,30600.0,-3.383451223373413,1.373480200767517,-9.133403778076172
507,257.0,30700.0,-3.5700912475585938,1.380658507347107,-8.879764556884766
508,258.0,30800.0,-3.5700912475585938,1.380658507347107,-8.879764556884766
509,259.0,30900.0,-3.488735675811768,1.2370892763137815,-8.779266357421875
510,260.0,31000.0,-3.488735675811768,1.2370892763137815,-8.779266357421875
511,261.0,31100.0,-3.488735675811768,1.2370892763137815,-8.779266357421875
512,262.0,31200.0,-3.7232320308685294,1.4691929817199707,-8.965906143188477
513,263.0,31300.0,-3.7232320308685294,1.4691929817199707,-8.965906143188477
514,264.0,31400.0,-3.751945972442627,1.6151552200317385,-8.839086532592773
515,265.0,31500.0,-3.751945972442627,1.6151552200317385,-8.839086532592773
516,266.0,31600.0,-3.6562328338623047,1.588834285736084,-8.807979583740234
517,267.0,31700.0,-3.6562328338623047,1.588834285736084,-8.807979583740234
518,268.0,31800.0,-3.6562328338623047,1.588834285736084,-8.807979583740234
519,269.0,31900.0,-3.742374420166016,1.5481561422348022,-8.870193481445312
520,260.0,31000.0,-3.488735675811768,1.2370892763137815,-8.779266357421875
521,261.0,31100.0,-3.488735675811768,1.2370892763137815,-8.779266357421875
522,262.0,31200.0,-3.7232320308685294,1.4691929817199707,-8.965906143188477
523,263.0,31300.0,-3.7232320308685294,1.4691929817199707,-8.965906143188477
524,264.0,31400.0,-3.751945972442627,1.6151552200317385,-8.839086532592773
525,265.0,31500.0,-3.751945972442627,1.6151552200317385,-8.839086532592773
526,266.0,31600.0,-3.6562328338623047,1.588834285736084,-8.807979583740234
527,267.0,31700.0,-3.6562328338623047,1.588834285736084,-8.807979583740234
528,268.0,31800.0,-3.6562328338623047,1.588834285736084,-8.807979583740234
529,269.0,31900.0,-3.742374420166016,1.5481561422348022,-8.870193481445312
530,270.0,32000.0,-3.742374420166016,1.5481561422348022,-8.870193481445312
531,271.0,32100.0,-3.728017807006837,1.5457634925842283,-8.841480255126953
532,272.0,32200.0,-3.728017807006837,1.5457634925842283,-8.841480255126953
533,273.0,32300.0,-3.751945972442627,1.5170495510101318,-8.805586814880371
534,274.0,32400.0,-3.751945972442627,1.5170495510101318,-8.805586814880371
535,275.0,32500.0,-3.751945972442627,1.5170495510101318,-8.805586814880371
536,276.0,32600.0,-3.751945972442627,1.5936198234558103,-8.910871505737305
537,277.0,32700.0,-3.751945972442627,1.5936198234558103,-8.910871505737305
538,278.0,32800.0,-3.814159393310547,1.5649060010910034,-9.07119083404541
539,279.0,32900.0,-3.814159393310547,1.5649060010910034,-9.07119083404541
540,270.0,32000.0,-3.742374420166016,1.5481561422348022,-8.870193481445312
541,271.0,32100.0,-3.728017807006837,1.5457634925842283,-8.841480255126953
542,272.0,32200.0,-3.728017807006837,1.5457634925842283,-8.841480255126953
543,273.0,32300.0,-3.751945972442627,1.5170495510101318,-8.805586814880371
544,274.0,32400.0,-3.751945972442627,1.5170495510101318,-8.805586814880371
545,275.0,32500.0,-3.751945972442627,1.5170495510101318,-8.805586814880371
546,276.0,32600.0,-3.751945972442627,1.5936198234558103,-8.910871505737305
547,277.0,32700.0,-3.751945972442627,1.5936198234558103,-8.910871505737305
548,278.0,32800.0,-3.814159393310547,1.5649060010910034,-9.07119083404541
549,279.0,32900.0,-3.814159393310547,1.5649060010910034,-9.07119083404541
550,280.0,33000.0,-3.531806230545044,1.4093725681304932,-8.71944522857666
551,281.0,33100.0,-3.531806230545044,1.4093725681304932,-8.71944522857666
552,282.0,33200.0,-3.5126638412475586,1.7204395532608032,-8.71944522857666
553,283.0,33300.0,-3.5126638412475586,1.7204395532608032,-8.71944522857666
554,284.0,33400.0,-3.5126638412475586,1.7204395532608032,-8.71944522857666
555,285.0,33500.0,-3.517449140548706,1.7706886529922483,-8.807979583740234
556,286.0,33600.0,-3.517449140548706,1.7706886529922483,-8.807979583740234
557,287.0,33700.0,-3.7328033447265625,1.6941183805465698,-9.049654960632324
558,288.0,33800.0,-3.7328033447265625,1.6941183805465698,-9.049654960632324
559,289.0,33900.0,-3.704089403152466,1.7132610082626345,-8.84626579284668
560,280.0,33000.0,-3.531806230545044,1.4093725681304932,-8.71944522857666
561,281.0,33100.0,-3.531806230545044,1.4093725681304932,-8.71944522857666
562,282.0,33200.0,-3.5126638412475586,1.7204395532608032,-8.71944522857666
563,283.0,33300.0,-3.5126638412475586,1.7204395532608032,-8.71944522857666
564,284.0,33400.0,-3.5126638412475586,1.7204395532608032,-8.71944522857666
565,285.0,33500.0,-3.517449140548706,1.7706886529922483,-8.807979583740234
566,286.0,33600.0,-3.517449140548706,1.7706886529922483,-8.807979583740234
567,287.0,33700.0,-3.7328033447265625,1.6941183805465698,-9.049654960632324
568,288.0,33800.0,-3.7328033447265625,1.6941183805465698,-9.049654960632324
569,289.0,33900.0,-3.704089403152466,1.7132610082626345,-8.84626579284668
570,290.0,34000.0,-3.704089403152466,1.7132610082626345,-8.84626579284668
571,291.0,34100.0,-3.704089403152466,1.7132610082626345,-8.84626579284668
572,292.0,34200.0,-3.742374420166016,1.727617859840393,-8.877371788024902
573,293.0,34300.0,-3.742374420166016,1.727617859840393,-8.877371788024902
574,294.0,34400.0,-3.7328033447265625,1.672582983970642,-8.769694328308105
575,295.0,34500.0,-3.7328033447265625,1.672582983970642,-8.769694328308105
576,296.0,34600.0,-3.7328033447265625,1.672582983970642,-8.769694328308105
577,297.0,34700.0,-3.7567315101623535,1.782652735710144,-8.956335067749023
578,298.0,34800.0,-3.7567315101623535,1.782652735710144,-8.956335067749023
579,299.0,34900.0,-3.5509488582611084,1.5122638940811155,-8.85105037689209
580,290.0,34000.0,-3.704089403152466,1.7132610082626345,-8.84626579284668
581,291.0,34100.0,-3.704089403152466,1.7132610082626345,-8.84626579284668
582,292.0,34200.0,-3.742374420166016,1.727617859840393,-8.877371788024902
583,293.0,34300.0,-3.742374420166016,1.727617859840393,-8.877371788024902
584,294.0,34400.0,-3.7328033447265625,1.672582983970642,-8.769694328308105
585,295.0,34500.0,-3.7328033447265625,1.672582983970642,-8.769694328308105
586,296.0,34600.0,-3.7328033447265625,1.672582983970642,-8.769694328308105
587,297.0,34700.0,-3.7567315101623535,1.782652735710144,-8.956335067749023
588,298.0,34800.0,-3.7567315101623535,1.782652735710144,-8.956335067749023
589,299.0,34900.0,-3.5509488582611084,1.5122638940811155,-8.85105037689209
590,300.0,35000.0,-3.5509488582611084,1.5122638940811155,-8.85105037689209
591,301.0,35100.0,-3.641876220703125,1.5385849475860596,-8.748159408569336
592,302.0,35200.0,-3.641876220703125,1.5385849475860596,-8.748159408569336
593,303.0,35300.0,-3.531806230545044,1.5242280960083008,-9.150154113769533
594,304.0,35400.0,-3.531806230545044,1.5242280960083008,-9.150154113769533
595,305.0,35500.0,-3.531806230545044,1.5242280960083008,-9.150154113769533
596,306.0,35600.0,-3.5365920066833496,1.5768700838088991,-8.906085968017578
597,307.0,35700.0,-3.5365920066833496,1.5768700838088991,-8.906085968017578
598,308.0,35800.0,-3.503092288970948,1.4404792785644531,-9.001798629760742
599,309.0,35900.0,-3.503092288970948,1.4404792785644531,-9.001798629760742
600,300.0,35000.0,-3.5509488582611084,1.5122638940811155,-8.85105037689209
601,301.0,35100.0,-3.641876220703125,1.5385849475860596,-8.748159408569336
602,302.0,35200.0,-3.641876220703125,1.5385849475860596,-8.748159408569336
603,303.0,35300.0,-3.531806230545044,1.5242280960083008,-9.150154113769533
604,304.0,35400.0,-3.531806230545044,1.5242280960083008,-9.150154113769533
605,305.0,35500.0,-3.531806230545044,1.5242280960083008,-9.150154113769533
606,306.0,35600.0,-3.5365920066833496,1.5768700838088991,-8.906085968017578
607,307.0,35700.0,-3.5365920066833496,1.5768700838088991,-8.906085968017578
608,308.0,35800.0,-3.503092288970948,1.4404792785644531,-9.001798629760742
609,309.0,35900.0,-3.503092288970948,1.4404792785644531,-9.001798629760742
610,310.0,36000.0,-3.6131620407104488,1.6007983684539795,-8.858229637145996
611,311.0,36100.0,-3.6131620407104488,1.6007983684539795,-8.858229637145996
612,312.0,36200.0,-3.6131620407104488,1.6007983684539795,-8.858229637145996
613,313.0,36300.0,-3.6323046684265137,1.6199408769607544,-8.841480255126953
614,314.0,36400.0,-3.6323046684265137,1.6199408769607544,-8.841480255126953
615,315.0,36500.0,-3.6562328338623047,1.643869161605835,-8.853443145751953
616,316.0,36600.0,-3.6562328338623047,1.643869161605835,-8.853443145751953
617,317.0,36700.0,-3.603590488433838,1.7180466651916504,-8.896513938903809
618,318.0,36800.0,-3.603590488433838,1.7180466651916504,-8.896513938903809
619,319.0,36900.0,-3.603590488433838,1.7180466651916504,-8.896513938903809
620,310.0,36000.0,-3.6131620407104488,1.6007983684539795,-8.858229637145996
621,311.0,36100.0,-3.6131620407104488,1.6007983684539795,-8.858229637145996
622,312.0,36200.0,-3.6131620407104488,1.6007983684539795,-8.858229637145996
623,313.0,36300.0,-3.6323046684265137,1.6199408769607544,-8.841480255126953
624,314.0,36400.0,-3.6323046684265137,1.6199408769607544,-8.841480255126953
625,315.0,36500.0,-3.6562328338623047,1.643869161605835,-8.853443145751953
626,316.0,36600.0,-3.6562328338623047,1.643869161605835,-8.853443145751953
627,317.0,36700.0,-3.603590488433838,1.7180466651916504,-8.896513938903809
628,318.0,36800.0,-3.603590488433838,1.7180466651916504,-8.896513938903809
629,319.0,36900.0,-3.603590488433838,1.7180466651916504,-8.896513938903809
630,320.0,37000.0,-3.5844480991363525,1.7778673171997068,-8.968299865722656
631,321.0,37100.0,-3.5844480991363525,1.7778673171997068,-8.968299865722656
632,322.0,37200.0,-3.651447057723999,1.672582983970642,-8.896513938903809
633,323.0,37300.0,-3.651447057723999,1.672582983970642,-8.896513938903809
634,324.0,37400.0,-3.5748770236968994,1.6797614097595217,-8.858229637145996
635,325.0,37500.0,-3.5748770236968994,1.6797614097595217,-8.858229637145996
636,326.0,37600.0,-3.5748770236968994,1.6797614097595217,-8.858229637145996
637,327.0,37700.0,-3.6753754615783687,1.782652735710144,-8.951549530029297
638,328.0,37800.0,-3.6753754615783687,1.782652735710144,-8.951549530029297
639,329.0,37900.0,-3.680161237716675,1.7347965240478516,-8.879764556884766
640,320.0,37000.0,-3.5844480991363525,1.7778673171997068,-8.968299865722656
641,321.0,37100.0,-3.5844480991363525,1.7778673171997068,-8.968299865722656
642,322.0,37200.0,-3.651447057723999,1.672582983970642,-8.896513938903809
643,323.0,37300.0,-3.651447057723999,1.672582983970642,-8.896513938903809
644,324.0,37400.0,-3.5748770236968994,1.6797614097595217,-8.858229637145996
645,325.0,37500.0,-3.5748770236968994,1.6797614097595217,-8.858229637145996
646,326.0,37600.0,-3.5748770236968994,1.6797614097595217,-8.858229637145996
647,327.0,37700.0,-3.6753754615783687,1.782652735710144,-8.951549530029297
648,328.0,37800.0,-3.6753754615783687,1.782652735710144,-8.951549530029297
649,329.0,37900.0,-3.680161237716675,1.7347965240478516,-8.879764556884766
650,330.0,38000.0,-3.680161237716675,1.7347965240478516,-8.879764556884766
651,331.0,38100.0,-3.531806230545044,1.4548362493515017,-8.367700576782228
652,332.0,38200.0,-3.531806230545044,1.4548362493515017,-8.367700576782228
653,333.0,38300.0,-3.627518892288208,1.931007981300354,-9.14297580718994
654,334.0,38400.0,-3.627518892288208,1.931007981300354,-9.14297580718994
655,335.0,38500.0,-3.627518892288208,1.931007981300354,-9.14297580718994
656,336.0,38600.0,-3.531806230545044,1.7156537771224976,-9.107083320617676
657,337.0,38700.0,-3.531806230545044,1.7156537771224976,-9.107083320617676
658,338.0,38800.0,-3.728017807006837,2.079362869262696,-8.879764556884766
659,339.0,38900.0,-3.728017807006837,2.079362869262696,-8.879764556884766
660,330.0,38000.0,-3.680161237716675,1.7347965240478516,-8.879764556884766
661,331.0,38100.0,-3.531806230545044,1.4548362493515017,-8.367700576782228
662,332.0,38200.0,-3.531806230545044,1.4548362493515017,-8.367700576782228
663,333.0,38300.0,-3.627518892288208,1.931007981300354,-9.14297580718994
664,334.0,38400.0,-3.627518892288208,1.931007981300354,-9.14297580718994
665,335.0,38500.0,-3.627518892288208,1.931007981300354,-9.14297580718994
666,336.0,38600.0,-3.531806230545044,1.7156537771224976,-9.107083320617676
667,337.0,38700.0,-3.531806230545044,1.7156537771224976,-9.107083320617676
668,338.0,38800.0,-3.728017807006837,2.079362869262696,-8.879764556884766
669,339.0,38900.0,-3.728017807006837,2.079362869262696,-8.879764556884766
670,340.0,39000.0,-3.7471601963043213,1.7371891736984253,-8.360522270202638
671,341.0,39100.0,-3.7471601963043213,1.7371891736984253,-8.360522270202638
672,342.0,39200.0,-3.7471601963043213,1.7371891736984253,-8.360522270202638
673,343.0,39300.0,-3.876372575759888,1.8113667964935305,-8.997013092041016
674,344.0,39400.0,-3.876372575759888,1.8113667964935305,-8.997013092041016
675,345.0,39500.0,-3.742374420166016,1.6654045581817627,-8.841480255126953
676,346.0,39600.0,-3.742374420166016,1.6654045581817627,-8.841480255126953
677,347.0,39700.0,-3.488735675811768,1.832902193069458,-8.784051895141603
678,348.0,39800.0,-3.488735675811768,1.832902193069458,-8.784051895141603
679,349.0,39900.0,-3.483949899673462,1.7898313999176023,-8.97787094116211
680,340.0,39000.0,-3.7471601963043213,1.7371891736984253,-8.360522270202638
681,341.0,39100.0,-3.7471601963043213,1.7371891736984253,-8.360522270202638
682,342.0,39200.0,-3.7471601963043213,1.7371891736984253,-8.360522270202638
683,343.0,39300.0,-3.876372575759888,1.8113667964935305,-8.997013092041016
684,344.0,39400.0,-3.876372575759888,1.8113667964935305,-8.997013092041016
685,345.0,39500.0,-3.742374420166016,1.6654045581817627,-8.841480255126953
686,346.0,39600.0,-3.742374420166016,1.6654045581817627,-8.841480255126953
687,347.0,39700.0,-3.488735675811768,1.832902193069458,-8.784051895141603
688,348.0,39800.0,-3.488735675811768,1.832902193069458,-8.784051895141603
689,349.0,39900.0,-3.483949899673462,1.7898313999176023,-8.97787094116211
690,350.0,40000.0,-3.483949899673462,1.7898313999176023,-8.97787094116211
691,351.0,40100.0,-3.507878065109253,1.947757601737976,-8.70508861541748
692,352.0,40200.0,-3.507878065109253,1.947757601737976,-8.70508861541748
693,353.0,40300.0,-3.507878065109253,1.947757601737976,-8.70508861541748
694,354.0,40400.0,-3.579662799835205,1.3950155973434448,-8.597411155700684
695,355.0,40500.0,-3.579662799835205,1.3950155973434448,-8.597411155700684
696,356.0,40600.0,-3.503092288970948,1.641476273536682,-8.970691680908203
697,357.0,40700.0,-3.503092288970948,1.641476273536682,-8.970691680908203
698,358.0,40800.0,-3.4743783473968506,1.5768700838088991,-8.951549530029297
699,359.0,40900.0,-3.4743783473968506,1.5768700838088991,-8.951549530029297
700,350.0,40000.0,-3.483949899673462,1.7898313999176023,-8.97787094116211
701,351.0,40100.0,-3.507878065109253,1.947757601737976,-8.70508861541748
702,352.0,40200.0,-3.507878065109253,1.947757601737976,-8.70508861541748
703,353.0,40300.0,-3.507878065109253,1.947757601737976,-8.70508861541748
704,354.0,40400.0,-3.579662799835205,1.3950155973434448,-8.597411155700684
705,355.0,40500.0,-3.579662799835205,1.3950155973434448,-8.597411155700684
706,356.0,40600.0,-3.503092288970948,1.641476273536682,-8.970691680908203
707,357.0,40700.0,-3.503092288970948,1.641476273536682,-8.970691680908203
708,358.0,40800.0,-3.4743783473968506,1.5768700838088991,-8.951549530029297
709,359.0,40900.0,-3.4743783473968506,1.5768700838088991,-8.951549530029297
710,360.0,41000.0,-3.4743783473968506,1.5768700838088991,-8.951549530029297
711,361.0,41100.0,-3.6083762645721436,1.7084753513336182,-8.958727836608887
712,362.0,41200.0,-3.6083762645721436,1.7084753513336182,-8.958727836608887
713,363.0,41300.0,-3.5461630821228027,1.710868239402771,-8.95394229888916
714,364.0,41400.0,-3.5461630821228027,1.710868239402771,-8.95394229888916
715,365.0,41500.0,-3.5700912475585938,1.636690616607666,-8.9371919631958
716,366.0,41600.0,-3.5700912475585938,1.636690616607666,-8.9371919631958
717,367.0,41700.0,-3.531806230545044,1.7252250909805298,-8.913264274597168
718,368.0,41800.0,-3.531806230545044,1.7252250909805298,-8.913264274597168
719,369.0,41900.0,-3.531806230545044,1.7252250909805298,-8.913264274597168
720,360.0,41000.0,-3.4743783473968506,1.5768700838088991,-8.951549530029297
721,361.0,41100.0,-3.6083762645721436,1.7084753513336182,-8.958727836608887
722,362.0,41200.0,-3.6083762645721436,1.7084753513336182,-8.958727836608887
723,363.0,41300.0,-3.5461630821228027,1.710868239402771,-8.95394229888916
724,364.0,41400.0,-3.5461630821228027,1.710868239402771,-8.95394229888916
725,365.0,41500.0,-3.5700912475585938,1.636690616607666,-8.9371919631958
726,366.0,41600.0,-3.5700912475585938,1.636690616607666,-8.9371919631958
727,367.0,41700.0,-3.531806230545044,1.7252250909805298,-8.913264274597168
728,368.0,41800.0,-3.531806230545044,1.7252250909805298,-8.913264274597168
729,369.0,41900.0,-3.531806230545044,1.7252250909805298,-8.913264274597168
730,370.0,42000.0,-3.493520975112915,1.5553346872329712,-8.968299865722656
731,371.0,42100.0,-3.493520975112915,1.5553346872329712,-8.968299865722656
732,372.0,42200.0,-3.4743783473968506,1.636690616607666,-8.891729354858398
733,373.0,42300.0,-3.4743783473968506,1.636690616607666,-8.891729354858398
734,374.0,42400.0,-3.5700912475585938,1.6175479888916016,-8.882158279418945
735,375.0,42500.0,-3.5700912475585938,1.6175479888916016,-8.882158279418945
736,376.0,42600.0,-3.460021495819092,1.56251323223114,-9.03290557861328
737,377.0,42700.0,-3.460021495819092,1.56251323223114,-9.03290557861328
738,378.0,42800.0,-3.460021495819092,1.56251323223114,-9.03290557861328
739,379.0,42900.0,-3.5222349166870117,1.66301167011261,-8.973085403442383
740,370.0,42000.0,-3.493520975112915,1.5553346872329712,-8.968299865722656
741,371.0,42100.0,-3.493520975112915,1.5553346872329712,-8.968299865722656
742,372.0,42200.0,-3.4743783473968506,1.636690616607666,-8.891729354858398
743,373.0,42300.0,-3.4743783473968506,1.636690616607666,-8.891729354858398
744,374.0,42400.0,-3.5700912475585938,1.6175479888916016,-8.882158279418945
745,375.0,42500.0,-3.5700912475585938,1.6175479888916016,-8.882158279418945
746,376.0,42600.0,-3.460021495819092,1.56251323223114,-9.03290557861328
747,377.0,42700.0,-3.460021495819092,1.56251323223114,-9.03290557861328
748,378.0,42800.0,-3.460021495819092,1.56251323223114,-9.03290557861328
749,379.0,42900.0,-3.5222349166870117,1.66301167011261,-8.973085403442383
750,380.0,43000.0,-3.5222349166870117,1.66301167011261,-8.973085403442383
751,381.0,43100.0,-3.5748770236968994,1.5960125923156738,-8.934800148010254
752,382.0,43200.0,-3.5748770236968994,1.5960125923156738,-8.934800148010254
753,383.0,43300.0,-3.627518892288208,1.574477195739746,-9.037691116333008
754,384.0,43400.0,-3.627518892288208,1.574477195739746,-9.037691116333008
755,385.0,43500.0,-3.5126638412475586,1.581655740737915,-8.798408508300781
756,386.0,43600.0,-3.5126638412475586,1.581655740737915,-8.798408508300781
757,387.0,43700.0,-3.5270204544067383,1.5984054803848269,-8.989834785461426
758,388.0,43800.0,-3.5270204544067383,1.5984054803848269,-8.989834785461426
759,389.0,43900.0,-3.5270204544067383,1.5984054803848269,-8.989834785461426
760,380.0,43000.0,-3.5222349166870117,1.66301167011261,-8.973085403442383
761,381.0,43100.0,-3.5748770236968994,1.5960125923156738,-8.934800148010254
762,382.0,43200.0,-3.5748770236968994,1.5960125923156738,-8.934800148010254
763,383.0,43300.0,-3.627518892288208,1.574477195739746,-9.037691116333008
764,384.0,43400.0,-3.627518892288208,1.574477195739746,-9.037691116333008
765,385.0,43500.0,-3.5126638412475586,1.581655740737915,-8.798408508300781
766,386.0,43600.0,-3.5126638412475586,1.581655740737915,-8.798408508300781
767,387.0,43700.0,-3.5270204544067383,1.5984054803848269,-8.989834785461426
768,388.0,43800.0,-3.5270204544067383,1.5984054803848269,-8.989834785461426
769,389.0,43900.0,-3.5270204544067383,1.5984054803848269,-8.989834785461426
770,390.0,44000.0,-3.5222349166870117,1.4380863904953003,-9.011369705200195
771,391.0,44100.0,-3.5222349166870117,1.4380863904953003,-9.011369705200195
772,392.0,44200.0,-3.4265220165252686,1.5433706045150757,-8.85105037689209
773,393.0,44300.0,-3.4265220165252686,1.5433706045150757,-8.85105037689209
774,394.0,44400.0,-3.517449140548706,1.529013752937317,-8.886943817138672
775,395.0,44500.0,-3.517449140548706,1.529013752937317,-8.886943817138672
776,396.0,44600.0,-3.517449140548706,1.529013752937317,-8.886943817138672
777,397.0,44700.0,-3.799802303314209,1.835294842720032,-8.561518669128418
778,398.0,44800.0,-3.799802303314209,1.835294842720032,-8.561518669128418
779,399.0,44900.0,-3.4025940895080566,1.5457634925842283,-8.800802230834961
780,390.0,44000.0,-3.5222349166870117,1.4380863904953003,-9.011369705200195
781,391.0,44100.0,-3.5222349166870117,1.4380863904953003,-9.011369705200195
782,392.0,44200.0,-3.4265220165252686,1.5433706045150757,-8.85105037689209
783,393.0,44300.0,-3.4265220165252686,1.5433706045150757,-8.85105037689209
784,394.0,44400.0,-3.517449140548706,1.529013752937317,-8.886943817138672
785,395.0,44500.0,-3.517449140548706,1.529013752937317,-8.886943817138672
786,396.0,44600.0,-3.517449140548706,1.529013752937317,-8.886943817138672
787,397.0,44700.0,-3.799802303314209,1.835294842720032,-8.561518669128418
788,398.0,44800.0,-3.799802303314209,1.835294842720032,-8.561518669128418
789,399.0,44900.0,-3.4025940895080566,1.5457634925842283,-8.800802230834961
790,400.0,45000.0,-3.4025940895080566,1.5457634925842283,-8.800802230834961
791,401.0,45100.0,-3.3020951747894287,1.3280165195465088,-9.379864692687988
792,402.0,45200.0,-3.3020951747894287,1.3280165195465088,-9.379864692687988
793,403.0,45300.0,-3.3020951747894287,1.3280165195465088,-9.379864692687988
794,404.0,45400.0,-3.2446675300598145,1.043270707130432,-9.265008926391602
795,405.0,45500.0,-3.2446675300598145,1.043270707130432,-9.265008926391602
796,406.0,45600.0,-3.493520975112915,0.21774686872959131,-9.463613510131836
797,407.0,45700.0,-3.493520975112915,0.21774686872959131,-9.463613510131836
798,408.0,45800.0,-4.000799655914307,1.4380863904953003,-8.477770805358888
799,409.0,45900.0,-4.000799655914307,1.4380863904953003,-8.477770805358888
800,400.0,45000.0,-3.4025940895080566,1.5457634925842283,-8.800802230834961
801,401.0,45100.0,-3.3020951747894287,1.3280165195465088,-9.379864692687988
802,402.0,45200.0,-3.3020951747894287,1.3280165195465088,-9.379864692687988
803,403.0,45300.0,-3.3020951747894287,1.3280165195465088,-9.379864692687988
804,404.0,45400.0,-3.2446675300598145,1.043270707130432,-9.265008926391602
805,405.0,45500.0,-3.2446675300598145,1.043270707130432,-9.265008926391602
806,406.0,45600.0,-3.493520975112915,0.21774686872959131,-9.463613510131836
807,407.0,45700.0,-3.493520975112915,0.21774686872959131,-9.463613510131836
808,408.0,45800.0,-4.000799655914307,1.4380863904953003,-8.477770805358888
809,409.0,45900.0,-4.000799655914307,1.4380863904953003,-8.477770805358888
810,410.0,46000.0,-4.000799655914307,1.4380863904953003,-8.477770805358888
811,411.0,46100.0,-3.9146575927734375,2.1200408935546875,-9.559326171875
812,412.0,46200.0,-3.9146575927734375,2.1200408935546875,-9.559326171875
813,413.0,46300.0,-3.948157548904419,1.710868239402771,-9.054441452026367
814,414.0,46400.0,-3.948157548904419,1.710868239402771,-9.054441452026367
815,415.0,46500.0,-4.072584152221681,1.84965181350708,-9.008977890014648
816,416.0,46600.0,-4.072584152221681,1.84965181350708,-9.008977890014648
817,417.0,46700.0,-5.8480587005615225,5.283352375030519,-4.290330886840819
818,418.0,46800.0,-5.8480587005615225,5.283352375030519,-4.290330886840819
819,419.0,46900.0,-5.8480587005615225,5.283352375030519,-4.290330886840819
820,410.0,46000.0,-4.000799655914307,1.4380863904953003,-8.477770805358888
821,411.0,46100.0,-3.9146575927734375,2.1200408935546875,-9.559326171875
822,412.0,46200.0,-3.9146575927734375,2.1200408935546875,-9.559326171875
823,413.0,46300.0,-3.948157548904419,1.710868239402771,-9.054441452026367
824,414.0,46400.0,-3.948157548904419,1.710868239402771,-9.054441452026367
825,415.0,46500.0,-4.072584152221681,1.84965181350708,-9.008977890014648
826,416.0,46600.0,-4.072584152221681,1.84965181350708,-9.008977890014648
827,417.0,46700.0,-5.8480587005615225,5.283352375030519,-4.290330886840819
828,418.0,46800.0,-5.8480587005615225,5.283352375030519,-4.290330886840819
829,419.0,46900.0,-5.8480587005615225,5.283352375030519,-4.290330886840819
830,420.0,47000.0,-5.388636112213135,3.290131092071533,-6.458228588104247
831,421.0,47100.0,-5.388636112213135,3.290131092071533,-6.458228588104247
832,422.0,47200.0,-3.460021495819092,0.06939186155796051,-9.492327690124512
833,423.0,47300.0,-3.460021495819092,0.06939186155796051,-9.492327690124512
834,424.0,47400.0,-3.3020951747894287,0.696311354637146,-9.329615592956543
835,425.0,47500.0,-3.3020951747894287,0.696311354637146,-9.329615592956543
836,426.0,47600.0,-3.7950167655944815,0.5670989155769348,-9.22433090209961
837,427.0,47700.0,-3.7950167655944815,0.5670989155769348,-9.22433090209961
838,428.0,47800.0,-3.7950167655944815,0.5670989155769348,-9.22433090209961
839,429.0,47900.0,-3.646661758422852,0.8207381367683411,-9.212367057800293
840,420.0,47000.0,-5.388636112213135,3.290131092071533,-6.458228588104247
841,421.0,47100.0,-5.388636112213135,3.290131092071533,-6.458228588104247
842,422.0,47200.0,-3.460021495819092,0.06939186155796051,-9.492327690124512
843,423.0,47300.0,-3.460021495819092,0.06939186155796051,-9.492327690124512
844,424.0,47400.0,-3.3020951747894287,0.696311354637146,-9.329615592956543
845,425.0,47500.0,-3.3020951747894287,0.696311354637146,-9.329615592956543
846,426.0,47600.0,-3.7950167655944815,0.5670989155769348,-9.22433090209961
847,427.0,47700.0,-3.7950167655944815,0.5670989155769348,-9.22433090209961
848,428.0,47800.0,-3.7950167655944815,0.5670989155769348,-9.22433090209961
849,429.0,47900.0,-3.646661758422852,0.8207381367683411,-9.212367057800293
850,430.0,48000.0,-3.646661758422852,0.8207381367683411,-9.212367057800293
851,431.0,48100.0,-2.9814569950103764,1.00259268283844,-9.078369140625
852,432.0,48200.0,-2.9814569950103764,1.00259268283844,-9.078369140625
853,433.0,48300.0,-3.4743783473968506,0.8087739944458008,-8.949156761169434
854,434.0,48400.0,-3.4743783473968506,0.8087739944458008,-8.949156761169434
855,435.0,48500.0,-3.4743783473968506,0.8087739944458008,-8.949156761169434
856,436.0,48600.0,-3.369094133377075,1.0241280794143677,-9.34875774383545
857,437.0,48700.0,-3.369094133377075,1.0241280794143677,-9.34875774383545
858,438.0,48800.0,-3.503092288970948,0.9858429431915284,-8.992227554321289
859,439.0,48900.0,-3.503092288970948,0.9858429431915284,-8.992227554321289
860,430.0,48000.0,-3.646661758422852,0.8207381367683411,-9.212367057800293
861,431.0,48100.0,-2.9814569950103764,1.00259268283844,-9.078369140625
862,432.0,48200.0,-2.9814569950103764,1.00259268283844,-9.078369140625
863,433.0,48300.0,-3.4743783473968506,0.8087739944458008,-8.949156761169434
864,434.0,48400.0,-3.4743783473968506,0.8087739944458008,-8.949156761169434
865,435.0,48500.0,-3.4743783473968506,0.8087739944458008,-8.949156761169434
866,436.0,48600.0,-3.369094133377075,1.0241280794143677,-9.34875774383545
867,437.0,48700.0,-3.369094133377075,1.0241280794143677,-9.34875774383545
868,438.0,48800.0,-3.503092288970948,0.9858429431915284,-8.992227554321289
869,439.0,48900.0,-3.503092288970948,0.9858429431915284,-8.992227554321289
870,440.0,49000.0,-3.503092288970948,0.9858429431915284,-8.992227554321289
871,441.0,49100.0,-3.603590488433838,1.0528419017791748,-9.097511291503906
872,442.0,49200.0,-3.603590488433838,1.0528419017791748,-9.097511291503906
873,443.0,49300.0,-3.5748770236968994,1.0169496536254885,-8.922836303710938
874,444.0,49400.0,-3.5748770236968994,1.0169496536254885,-8.922836303710938
875,445.0,49500.0,-3.6370904445648193,1.057627558708191,-8.939584732055664
876,446.0,49600.0,-3.6370904445648193,1.057627558708191,-8.939584732055664
877,447.0,49700.0,-3.5748770236968994,1.1485549211502075,-8.863015174865723
878,448.0,49800.0,-3.5748770236968994,1.1485549211502075,-8.863015174865723
879,449.0,49900.0,-3.627518892288208,1.0767701864242554,-8.968299865722656
880,440.0,49000.0,-3.503092288970948,0.9858429431915284,-8.992227554321289
881,441.0,49100.0,-3.603590488433838,1.0528419017791748,-9.097511291503906
882,442.0,49200.0,-3.603590488433838,1.0528419017791748,-9.097511291503906
883,443.0,49300.0,-3.5748770236968994,1.0169496536254885,-8.922836303710938
884,444.0,49400.0,-3.5748770236968994,1.0169496536254885,-8.922836303710938
885,445.0,49500.0,-3.6370904445648193,1.057627558708191,-8.939584732055664
886,446.0,49600.0,-3.6370904445648193,1.057627558708191,-8.939584732055664
887,447.0,49700.0,-3.5748770236968994,1.1485549211502075,-8.863015174865723
888,448.0,49800.0,-3.5748770236968994,1.1485549211502075,-8.863015174865723
889,449.0,49900.0,-3.627518892288208,1.0767701864242554,-8.968299865722656
890,450.0,50000.0,-3.627518892288208,1.0767701864242554,-8.968299865722656
891,451.0,50100.0,-3.627518892288208,1.0767701864242554,-8.968299865722656
892,452.0,50200.0,-3.598805427551268,1.1222338676452637,-8.95394229888916
893,453.0,50300.0,-3.598805427551268,1.1222338676452637,-8.95394229888916
894,454.0,50400.0,-3.617947816848755,1.1437692642211914,-8.951549530029297
895,455.0,50500.0,-3.617947816848755,1.1437692642211914,-8.951549530029297
896,456.0,50600.0,-3.694517850875856,1.0767701864242554,-8.95394229888916
897,457.0,50700.0,-3.694517850875856,1.0767701864242554,-8.95394229888916
898,458.0,50800.0,-3.622733592987061,1.1892328262329102,-9.016156196594238
899,459.0,50900.0,-3.622733592987061,1.1892328262329102,-9.016156196594238
900,450.0,50000.0,-3.627518892288208,1.0767701864242554,-8.968299865722656
901,451.0,50100.0,-3.627518892288208,1.0767701864242554,-8.968299865722656
902,452.0,50200.0,-3.598805427551268,1.1222338676452637,-8.95394229888916
903,453.0,50300.0,-3.598805427551268,1.1222338676452637,-8.95394229888916
904,454.0,50400.0,-3.617947816848755,1.1437692642211914,-8.951549530029297
905,455.0,50500.0,-3.617947816848755,1.1437692642211914,-8.951549530029297
906,456.0,50600.0,-3.694517850875856,1.0767701864242554,-8.95394229888916
907,457.0,50700.0,-3.694517850875856,1.0767701864242554,-8.95394229888916
908,458.0,50800.0,-3.622733592987061,1.1892328262329102,-9.016156196594238
909,459.0,50900.0,-3.622733592987061,1.1892328262329102,-9.016156196594238
910,460.0,51000.0,-3.622733592987061,1.1892328262329102,-9.016156196594238
911,461.0,51100.0,-3.646661758422852,1.1772687435150146,-8.915657043457031
912,462.0,51200.0,-3.646661758422852,1.1772687435150146,-8.915657043457031
913,463.0,51300.0,-3.694517850875856,1.1198409795761108,-8.958727836608887
914,464.0,51400.0,-3.694517850875856,1.1198409795761108,-8.958727836608887
915,465.0,51500.0,-3.646661758422852,1.093519926071167,-8.941977500915527
916,466.0,51600.0,-3.646661758422852,1.093519926071167,-8.941977500915527
917,467.0,51700.0,-3.646661758422852,1.093519926071167,-8.941977500915527
918,468.0,51800.0,-3.670589685440064,1.1509476900100708,-8.944371223449707
919,469.0,51900.0,-3.670589685440064,1.1509476900100708,-8.944371223449707
920,460.0,51000.0,-3.622733592987061,1.1892328262329102,-9.016156196594238
921,461.0,51100.0,-3.646661758422852,1.1772687435150146,-8.915657043457031
922,462.0,51200.0,-3.646661758422852,1.1772687435150146,-8.915657043457031
923,463.0,51300.0,-3.694517850875856,1.1198409795761108,-8.958727836608887
924,464.0,51400.0,-3.694517850875856,1.1198409795761108,-8.958727836608887
925,465.0,51500.0,-3.646661758422852,1.093519926071167,-8.941977500915527
926,466.0,51600.0,-3.646661758422852,1.093519926071167,-8.941977500915527
927,467.0,51700.0,-3.646661758422852,1.093519926071167,-8.941977500915527
928,468.0,51800.0,-3.670589685440064,1.1509476900100708,-8.944371223449707
929,469.0,51900.0,-3.670589685440064,1.1509476900100708,-8.944371223449707
930,470.0,52000.0,-3.684947013854982,1.1724830865859983,-9.028119087219238
931,471.0,52100.0,-3.684947013854982,1.1724830865859983,-9.028119087219238
932,472.0,52200.0,-3.641876220703125,1.1653046607971191,-9.020941734313963
933,473.0,52300.0,-3.641876220703125,1.1653046607971191,-9.020941734313963
934,474.0,52400.0,-3.641876220703125,1.1653046607971191,-9.020941734313963
935,475.0,52500.0,-3.742374420166016,1.2299107313156128,-8.927621841430664
936,476.0,52600.0,-3.742374420166016,1.2299107313156128,-8.927621841430664
937,477.0,52700.0,-3.594019651412964,1.124626636505127,-8.85105037689209
938,478.0,52800.0,-3.594019651412964,1.124626636505127,-8.85105037689209
939,479.0,52900.0,-3.594019651412964,1.124626636505127,-8.85105037689209
940,470.0,52000.0,-3.684947013854982,1.1724830865859983,-9.028119087219238
941,471.0,52100.0,-3.684947013854982,1.1724830865859983,-9.028119087219238
942,472.0,52200.0,-3.641876220703125,1.1653046607971191,-9.020941734313963
943,473.0,52300.0,-3.641876220703125,1.1653046607971191,-9.020941734313963
944,474.0,52400.0,-3.641876220703125,1.1653046607971191,-9.020941734313963
945,475.0,52500.0,-3.742374420166016,1.2299107313156128,-8.927621841430664
946,476.0,52600.0,-3.742374420166016,1.2299107313156128,-8.927621841430664
947,477.0,52700.0,-3.594019651412964,1.124626636505127,-8.85105037689209
948,478.0,52800.0,-3.594019651412964,1.124626636505127,-8.85105037689209
949,479.0,52900.0,-3.594019651412964,1.124626636505127,-8.85105037689209
950,480.0,53000.0,-3.785445213317871,1.2346963882446291,-8.772088050842285
951,481.0,53100.0,-3.785445213317871,1.2346963882446291,-8.772088050842285
952,482.0,53200.0,-3.565305471420288,1.3782659769058228,-8.573483467102049
953,483.0,53300.0,-3.565305471420288,1.3782659769058228,-8.573483467102049
954,484.0,53400.0,-3.881158351898194,1.3519448041915894,-8.793622970581055
955,485.0,53500.0,-3.881158351898194,1.3519448041915894,-8.793622970581055
956,486.0,53600.0,-3.881158351898194,1.3519448041915894,-8.793622970581055
957,487.0,53700.0,-3.9625141620635986,1.4213367700576782,-8.941977500915527
958,488.0,53800.0,-3.9625141620635986,1.4213367700576782,-8.941977500915527
959,489.0,53900.0,-3.785445213317871,1.4644075632095337,-9.17886734008789
960,480.0,53000.0,-3.785445213317871,1.2346963882446291,-8.772088050842285
961,481.0,53100.0,-3.785445213317871,1.2346963882446291,-8.772088050842285
962,482.0,53200.0,-3.565305471420288,1.3782659769058228,-8.573483467102049
963,483.0,53300.0,-3.565305471420288,1.3782659769058228,-8.573483467102049
964,484.0,53400.0,-3.881158351898194,1.3519448041915894,-8.793622970581055
965,485.0,53500.0,-3.881158351898194,1.3519448041915894,-8.793622970581055
966,486.0,53600.0,-3.881158351898194,1.3519448041915894,-8.793622970581055
967,487.0,53700.0,-3.9625141620635986,1.4213367700576782,-8.941977500915527
968,488.0,53800.0,-3.9625141620635986,1.4213367700576782,-8.941977500915527
969,489.0,53900.0,-3.785445213317871,1.4644075632095337,-9.17886734008789
970,490.0,54000.0,-3.785445213317871,1.4644075632095337,-9.17886734008789
971,491.0,54100.0,-4.220939159393311,2.1272192001342773,-8.324630737304688
972,492.0,54200.0,-4.220939159393311,2.1272192001342773,-8.324630737304688
973,493.0,54300.0,-3.589233875274658,1.0169496536254885,-8.841480255126953
974,494.0,54400.0,-3.589233875274658,1.0169496536254885,-8.841480255126953
975,495.0,54500.0,-3.589233875274658,1.0169496536254885,-8.841480255126953
976,496.0,54600.0,-3.7184462547302246,0.9212367534637452,-8.827122688293457
977,497.0,54700.0,-3.7184462547302246,0.9212367534637452,-8.827122688293457
978,498.0,54800.0,-3.622733592987061,0.08614162355661392,-8.98265552520752
979,499.0,54900.0,-3.622733592987061,0.08614162355661392,-8.98265552520752
980,490.0,54000.0,-3.785445213317871,1.4644075632095337,-9.17886734008789
981,491.0,54100.0,-4.220939159393311,2.1272192001342773,-8.324630737304688
982,492.0,54200.0,-4.220939159393311,2.1272192001342773,-8.324630737304688
983,493.0,54300.0,-3.589233875274658,1.0169496536254885,-8.841480255126953
984,494.0,54400.0,-3.589233875274658,1.0169496536254885,-8.841480255126953
985,495.0,54500.0,-3.589233875274658,1.0169496536254885,-8.841480255126953
986,496.0,54600.0,-3.7184462547302246,0.9212367534637452,-8.827122688293457
987,497.0,54700.0,-3.7184462547302246,0.9212367534637452,-8.827122688293457
988,498.0,54800.0,-3.622733592987061,0.08614162355661392,-8.98265552520752
989,499.0,54900.0,-3.622733592987061,0.08614162355661392,-8.98265552520752
990,500.0,55000.0,-4.244867324829103,0.05503492057323457,-8.178668022155763
991,501.0,55100.0,-4.244867324829103,0.05503492057323457,-8.178668022155763
992,502.0,55200.0,-3.847658634185791,-0.2703889608383179,-8.889336585998535
993,503.0,55300.0,-3.847658634185791,-0.2703889608383179,-8.889336585998535
994,504.0,55400.0,-3.847658634185791,-0.2703889608383179,-8.889336585998535
995,505.0,55500.0,-3.665804386138916,1.813759446144104,-8.523234367370605
996,506.0,55600.0,-3.665804386138916,1.813759446144104,-8.523234367370605
997,507.0,55700.0,-4.163511276245116,1.2083754539489746,-9.042476654052734
998,508.0,55800.0,-4.163511276245116,1.2083754539489746,-9.042476654052734
999,509.0,55900.0,-4.02472734451294,2.1750757694244385,-8.657232284545897
1000,500.0,55000.0,-4.244867324829103,0.05503492057323457,-8.178668022155763
1001,501.0,55100.0,-4.244867324829103,0.05503492057323457,-8.178668022155763
1002,502.0,55200.0,-3.847658634185791,-0.2703889608383179,-8.889336585998535
1003,503.0,55300.0,-3.847658634185791,-0.2703889608383179,-8.889336585998535
1004,504.0,55400.0,-3.847658634185791,-0.2703889608383179,-8.889336585998535
1005,505.0,55500.0,-3.665804386138916,1.813759446144104,-8.523234367370605
1006,506.0,55600.0,-3.665804386138916,1.813759446144104,-8.523234367370605
1007,507.0,55700.0,-4.163511276245116,1.2083754539489746,-9.042476654052734
1008,508.0,55800.0,-4.163511276245116,1.2083754539489746,-9.042476654052734
1009,509.0,55900.0,-4.02472734451294,2.1750757694244385,-8.657232284545897
1010,510.0,56000.0,-4.02472734451294,2.1750757694244385,-8.657232284545897
1011,511.0,56100.0,-4.02472734451294,2.1750757694244385,-8.657232284545897
1012,512.0,56200.0,-4.426721572875977,2.5004994869232178,-7.554140567779541
1013,513.0,56300.0,-4.426721572875977,2.5004994869232178,-7.554140567779541
1014,514.0,56400.0,-4.067798614501953,5.6685967445373535,-6.776473522186277
1015,515.0,56500.0,-4.067798614501953,5.6685967445373535,-6.776473522186277
1016,516.0,56600.0,-4.2687954902648935,5.077569961547852,-7.013362884521484
1017,517.0,56700.0,-4.2687954902648935,5.077569961547852,-7.013362884521484
1018,518.0,56800.0,-4.2687954902648935,5.077569961547852,-7.013362884521484
1019,519.0,56900.0,-3.996013641357422,5.201996326446533,-7.9896345138549805
1020,510.0,56000.0,-4.02472734451294,2.1750757694244385,-8.657232284545897
1021,511.0,56100.0,-4.02472734451294,2.1750757694244385,-8.657232284545897
1022,512.0,56200.0,-4.426721572875977,2.5004994869232178,-7.554140567779541
1023,513.0,56300.0,-4.426721572875977,2.5004994869232178,-7.554140567779541
1024,514.0,56400.0,-4.067798614501953,5.6685967445373535,-6.776473522186277
1025,515.0,56500.0,-4.067798614501953,5.6685967445373535,-6.776473522186277
1026,516.0,56600.0,-4.2687954902648935,5.077569961547852,-7.013362884521484
1027,517.0,56700.0,-4.2687954902648935,5.077569961547852,-7.013362884521484
1028,518.0,56800.0,-4.2687954902648935,5.077569961547852,-7.013362884521484
1029,519.0,56900.0,-3.996013641357422,5.201996326446533,-7.9896345138549805
1030,520.0,57000.0,-3.996013641357422,5.201996326446533,-7.9896345138549805
1031,521.0,57100.0,-4.25922441482544,4.074976921081543,-7.8317084312438965
1032,522.0,57200.0,-4.25922441482544,4.074976921081543,-7.8317084312438965
1033,523.0,57300.0,-4.29750919342041,3.6083762645721436,-8.255237579345701
1034,524.0,57400.0,-4.29750919342041,3.6083762645721436,-8.255237579345701
1035,525.0,57500.0,-4.29750919342041,3.6083762645721436,-8.255237579345701
1036,526.0,57600.0,-4.713860511779785,3.438485860824585,-7.683353424072266
1037,527.0,57700.0,-4.713860511779785,3.438485860824585,-7.683353424072266
1038,528.0,57800.0,-5.024927616119385,4.740181922912598,-7.666603565216064
1039,529.0,57900.0,-5.024927616119385,4.740181922912598,-7.666603565216064
1040,520.0,57000.0,-3.996013641357422,5.201996326446533,-7.9896345138549805
1041,521.0,57100.0,-4.25922441482544,4.074976921081543,-7.8317084312438965
1042,522.0,57200.0,-4.25922441482544,4.074976921081543,-7.8317084312438965
1043,523.0,57300.0,-4.29750919342041,3.6083762645721436,-8.255237579345701
1044,524.0,57400.0,-4.29750919342041,3.6083762645721436,-8.255237579345701
1045,525.0,57500.0,-4.29750919342041,3.6083762645721436,-8.255237579345701
1046,526.0,57600.0,-4.713860511779785,3.438485860824585,-7.683353424072266
1047,527.0,57700.0,-4.713860511779785,3.438485860824585,-7.683353424072266
1048,528.0,57800.0,-5.024927616119385,4.740181922912598,-7.666603565216064
1049,529.0,57900.0,-5.024927616119385,4.740181922912598,-7.666603565216064
1050,530.0,58000.0,-5.508277893066406,4.393222332000732,-6.104090690612793
1051,531.0,58100.0,-5.508277893066406,4.393222332000732,-6.104090690612793
1052,532.0,58200.0,-5.508277893066406,4.393222332000732,-6.104090690612793
1053,533.0,58300.0,-4.484149932861328,2.12961220741272,-7.960920810699463
1054,534.0,58400.0,-4.484149932861328,2.12961220741272,-7.960920810699463
1055,535.0,58500.0,-3.641876220703125,0.1339980661869049,-9.410971641540527
1056,536.0,58600.0,-3.641876220703125,0.1339980661869049,-9.410971641540527
1057,537.0,58700.0,-1.722832441329956,-0.4498506784439087,-9.832108497619627
1058,538.0,58800.0,-1.722832441329956,-0.4498506784439087,-9.832108497619627
1059,539.0,58900.0,-1.919043779373169,-0.13160523772239685,-9.650253295898438
1060,530.0,58000.0,-5.508277893066406,4.393222332000732,-6.104090690612793
1061,531.0,58100.0,-5.508277893066406,4.393222332000732,-6.104090690612793
1062,532.0,58200.0,-5.508277893066406,4.393222332000732,-6.104090690612793
1063,533.0,58300.0,-4.484149932861328,2.12961220741272,-7.960920810699463
1064,534.0,58400.0,-4.484149932861328,2.12961220741272,-7.960920810699463
1065,535.0,58500.0,-3.641876220703125,0.1339980661869049,-9.410971641540527
1066,536.0,58600.0,-3.641876220703125,0.1339980661869049,-9.410971641540527
1067,537.0,58700.0,-1.722832441329956,-0.4498506784439087,-9.832108497619627
1068,538.0,58800.0,-1.722832441329956,-0.4498506784439087,-9.832108497619627
1069,539.0,58900.0,-1.919043779373169,-0.13160523772239685,-9.650253295898438
1070,540.0,59000.0,-1.919043779373169,-0.13160523772239685,-9.650253295898438
1071,541.0,59100.0,-1.919043779373169,-0.13160523772239685,-9.650253295898438
1072,542.0,59200.0,-2.9814569950103764,-0.11724831163883208,-8.752944946289062
1073,543.0,59300.0,-2.9814569950103764,-0.11724831163883208,-8.752944946289062
1074,544.0,59400.0,-3.7567315101623535,3.0388848781585693,-8.329416275024414
1075,545.0,59500.0,-3.7567315101623535,3.0388848781585693,-8.329416275024414
1076,546.0,59600.0,-3.7950167655944815,3.5126638412475586,-8.312665939331055
1077,547.0,59700.0,-3.7950167655944815,3.5126638412475586,-8.312665939331055
1078,548.0,59800.0,-3.7950167655944815,3.5126638412475586,-8.312665939331055
1079,549.0,59900.0,-3.4121649265289307,3.072384119033813,-8.401200294494629
1080,540.0,59000.0,-1.919043779373169,-0.13160523772239685,-9.650253295898438
1081,541.0,59100.0,-1.919043779373169,-0.13160523772239685,-9.650253295898438
1082,542.0,59200.0,-2.9814569950103764,-0.11724831163883208,-8.752944946289062
1083,543.0,59300.0,-2.9814569950103764,-0.11724831163883208,-8.752944946289062
1084,544.0,59400.0,-3.7567315101623535,3.0388848781585693,-8.329416275024414
1085,545.0,59500.0,-3.7567315101623535,3.0388848781585693,-8.329416275024414
1086,546.0,59600.0,-3.7950167655944815,3.5126638412475586,-8.312665939331055
1087,547.0,59700.0,-3.7950167655944815,3.5126638412475586,-8.312665939331055
1088,548.0,59800.0,-3.7950167655944815,3.5126638412475586,-8.312665939331055
1089,549.0,59900.0,-3.4121649265289307,3.072384119033813,-8.401200294494629
1090,550.0,60000.0,-3.4121649265289307,3.072384119033813,-8.401200294494629
1091,551.0,60100.0,-3.876372575759888,2.4909284114837646,-8.559126853942871
1092,552.0,60200.0,-3.876372575759888,2.4909284114837646,-8.559126853942871
1093,553.0,60300.0,-3.5222349166870117,2.462214469909668,-8.9371919631958
1094,554.0,60400.0,-3.5222349166870117,2.462214469909668,-8.9371919631958
1095,555.0,60500.0,-3.5222349166870117,2.462214469909668,-8.9371919631958
1096,556.0,60600.0,-3.7806599140167236,2.3425734043121342,-8.738588333129883
1097,557.0,60700.0,-3.7806599140167236,2.3425734043121342,-8.738588333129883
1098,558.0,60800.0,-3.206382274627685,2.4981069564819336,-9.901500701904297
1099,559.0,60900.0,-3.206382274627685,2.4981069564819336,-9.901500701904297
1100,550.0,60000.0,-3.4121649265289307,3.072384119033813,-8.401200294494629
1101,551.0,60100.0,-3.876372575759888,2.4909284114837646,-8.559126853942871
1102,552.0,60200.0,-3.876372575759888,2.4909284114837646,-8.559126853942871
1103,553.0,60300.0,-3.5222349166870117,2.462214469909668,-8.9371919631958
1104,554.0,60400.0,-3.5222349166870117,2.462214469909668,-8.9371919631958
1105,555.0,60500.0,-3.5222349166870117,2.462214469909668,-8.9371919631958
1106,556.0,60600.0,-3.7806599140167236,2.3425734043121342,-8.738588333129883
1107,557.0,60700.0,-3.7806599140167236,2.3425734043121342,-8.738588333129883
1108,558.0,60800.0,-3.206382274627685,2.4981069564819336,-9.901500701904297
1109,559.0,60900.0,-3.206382274627685,2.4981069564819336,-9.901500701904297
1110,560.0,61000.0,-3.3068809509277344,2.187039852142334,-9.66939640045166
1111,561.0,61100.0,-3.3068809509277344,2.187039852142334,-9.66939640045166
1112,562.0,61200.0,-3.3068809509277344,2.187039852142334,-9.66939640045166
1113,563.0,61300.0,-2.8713872432708736,2.210968255996704,-8.800802230834961
1114,564.0,61400.0,-2.8713872432708736,2.210968255996704,-8.800802230834961
1115,565.0,61500.0,-3.1202406883239746,2.060220241546631,-8.925228118896484
1116,566.0,61600.0,-3.1202406883239746,2.060220241546631,-8.925228118896484
1117,567.0,61700.0,-3.1202406883239746,2.060220241546631,-8.925228118896484
1118,568.0,61800.0,-3.32602334022522,1.7682960033416748,-8.879764556884766
1119,569.0,61900.0,-3.32602334022522,1.7682960033416748,-8.879764556884766
1120,560.0,61000.0,-3.3068809509277344,2.187039852142334,-9.66939640045166
1121,561.0,61100.0,-3.3068809509277344,2.187039852142334,-9.66939640045166
1122,562.0,61200.0,-3.3068809509277344,2.187039852142334,-9.66939640045166
1123,563.0,61300.0,-2.8713872432708736,2.210968255996704,-8.800802230834961
1124,564.0,61400.0,-2.8713872432708736,2.210968255996704,-8.800802230834961
1125,565.0,61500.0,-3.1202406883239746,2.060220241546631,-8.925228118896484
1126,566.0,61600.0,-3.1202406883239746,2.060220241546631,-8.925228118896484
1127,567.0,61700.0,-3.1202406883239746,2.060220241546631,-8.925228118896484
1128,568.0,61800.0,-3.32602334022522,1.7682960033416748,-8.879764556884766
1129,569.0,61900.0,-3.32602334022522,1.7682960033416748,-8.879764556884766
1130,570.0,62000.0,-3.230310440063477,1.56969153881073,-8.733802795410156
1131,571.0,62100.0,-3.230310440063477,1.56969153881073,-8.733802795410156
1132,572.0,62200.0,-3.359522819519043,1.7754744291305542,-9.147761344909668
1133,573.0,62300.0,-3.359522819519043,1.7754744291305542,-9.147761344909668
1134,574.0,62400.0,-3.359522819519043,1.7754744291305542,-9.147761344909668
1135,575.0,62500.0,-3.45045018196106,1.9764715433120728,-9.099905014038086
1136,576.0,62600.0,-3.45045018196106,1.9764715433120728,-9.099905014038086
1137,577.0,62700.0,-3.4025940895080566,1.7994027137756348,-8.638089179992676
1138,578.0,62800.0,-3.4025940895080566,1.7994027137756348,-8.638089179992676
1139,579.0,62900.0,-3.4121649265289307,2.1391832828521733,-8.999405860900879
1140,570.0,62000.0,-3.230310440063477,1.56969153881073,-8.733802795410156
1141,571.0,62100.0,-3.230310440063477,1.56969153881073,-8.733802795410156
1142,572.0,62200.0,-3.359522819519043,1.7754744291305542,-9.147761344909668
1143,573.0,62300.0,-3.359522819519043,1.7754744291305542,-9.147761344909668
1144,574.0,62400.0,-3.359522819519043,1.7754744291305542,-9.147761344909668
1145,575.0,62500.0,-3.45045018196106,1.9764715433120728,-9.099905014038086
1146,576.0,62600.0,-3.45045018196106,1.9764715433120728,-9.099905014038086
1147,577.0,62700.0,-3.4025940895080566,1.7994027137756348,-8.638089179992676
1148,578.0,62800.0,-3.4025940895080566,1.7994027137756348,-8.638089179992676
1149,579.0,62900.0,-3.4121649265289307,2.1391832828521733,-8.999405860900879
1150,580.0,63000.0,-3.4121649265289307,2.1391832828521733,-8.999405860900879
1151,581.0,63100.0,-3.359522819519043,1.9525433778762813,-8.839086532592773
1152,582.0,63200.0,-3.359522819519043,1.9525433778762813,-8.839086532592773
1153,583.0,63300.0,-3.3930225372314453,1.9956141710281368,-8.970691680908203
1154,584.0,63400.0,-3.3930225372314453,1.9956141710281368,-8.970691680908203
1155,585.0,63500.0,-3.407379388809204,2.0865414142608643,-8.86780071258545
1156,586.0,63600.0,-3.407379388809204,2.0865414142608643,-8.86780071258545
1157,587.0,63700.0,-3.407379388809204,2.0865414142608643,-8.86780071258545
1158,588.0,63800.0,-3.4121649265289307,2.0171494483947754,-8.807979583740234
1159,589.0,63900.0,-3.4121649265289307,2.0171494483947754,-8.807979583740234
1160,580.0,63000.0,-3.4121649265289307,2.1391832828521733,-8.999405860900879
1161,581.0,63100.0,-3.359522819519043,1.9525433778762813,-8.839086532592773
1162,582.0,63200.0,-3.359522819519043,1.9525433778762813,-8.839086532592773
1163,583.0,63300.0,-3.3930225372314453,1.9956141710281368,-8.970691680908203
1164,584.0,63400.0,-3.3930225372314453,1.9956141710281368,-8.970691680908203
1165,585.0,63500.0,-3.407379388809204,2.0865414142608643,-8.86780071258545
1166,586.0,63600.0,-3.407379388809204,2.0865414142608643,-8.86780071258545
1167,587.0,63700.0,-3.407379388809204,2.0865414142608643,-8.86780071258545
1168,588.0,63800.0,-3.4121649265289307,2.0171494483947754,-8.807979583740234
1169,589.0,63900.0,-3.4121649265289307,2.0171494483947754,-8.807979583740234
1170,590.0,64000.0,-3.4025940895080566,2.045863389968872,-8.939584732055664
1171,591.0,64100.0,-3.4025940895080566,2.045863389968872,-8.939584732055664
1172,592.0,64200.0,-3.4025940895080566,2.045863389968872,-8.939584732055664
1173,593.0,64300.0,-3.445664882659912,1.9334007501602173,-8.9371919631958
1174,594.0,64400.0,-3.445664882659912,1.9334007501602173,-8.9371919631958
1175,595.0,64500.0,-3.503092288970948,1.978864312171936,-8.925228118896484
1176,596.0,64600.0,-3.503092288970948,1.978864312171936,-8.925228118896484
1177,597.0,64700.0,-3.359522819519043,1.9716858863830569,-8.980262756347656
1178,598.0,64800.0,-3.359522819519043,1.9716858863830569,-8.980262756347656
1179,599.0,64900.0,-3.4743783473968506,2.031506299972534,-8.865407943725586
1180,590.0,64000.0,-3.4025940895080566,2.045863389968872,-8.939584732055664
1181,591.0,64100.0,-3.4025940895080566,2.045863389968872,-8.939584732055664
1182,592.0,64200.0,-3.4025940895080566,2.045863389968872,-8.939584732055664
1183,593.0,64300.0,-3.445664882659912,1.9334007501602173,-8.9371919631958
1184,594.0,64400.0,-3.445664882659912,1.9334007501602173,-8.9371919631958
1185,595.0,64500.0,-3.503092288970948,1.978864312171936,-8.925228118896484
1186,596.0,64600.0,-3.503092288970948,1.978864312171936,-8.925228118896484
1187,597.0,64700.0,-3.359522819519043,1.9716858863830569,-8.980262756347656
1188,598.0,64800.0,-3.359522819519043,1.9716858863830569,-8.980262756347656
1189,599.0,64900.0,-3.4743783473968506,2.031506299972534,-8.865407943725586
1190,600.0,65000.0,-3.4743783473968506,2.031506299972534,-8.865407943725586
1191,601.0,65100.0,-3.493520975112915,2.0099709033966064,-8.877371788024902
1192,602.0,65200.0,-3.493520975112915,2.0099709033966064,-8.877371788024902
1193,603.0,65300.0,-3.493520975112915,2.0099709033966064,-8.877371788024902
1194,604.0,65400.0,-3.436093330383301,1.983649969100952,-8.906085968017578
1195,605.0,65500.0,-3.436093330383301,1.983649969100952,-8.906085968017578
1196,606.0,65600.0,-3.4265220165252686,2.2612173557281494,-9.93260669708252
1197,607.0,65700.0,-3.4265220165252686,2.2612173557281494,-9.93260669708252
1198,608.0,65800.0,-3.2781667709350586,1.5026925802230835,-10.152746200561523
1199,609.0,65900.0,-3.2781667709350586,1.5026925802230835,-10.152746200561523
1200,600.0,65000.0,-3.4743783473968506,2.031506299972534,-8.865407943725586
1201,601.0,65100.0,-3.493520975112915,2.0099709033966064,-8.877371788024902
1202,602.0,65200.0,-3.493520975112915,2.0099709033966064,-8.877371788024902
1203,603.0,65300.0,-3.493520975112915,2.0099709033966064,-8.877371788024902
1204,604.0,65400.0,-3.436093330383301,1.983649969100952,-8.906085968017578
1205,605.0,65500.0,-3.436093330383301,1.983649969100952,-8.906085968017578
1206,606.0,65600.0,-3.4265220165252686,2.2612173557281494,-9.93260669708252
1207,607.0,65700.0,-3.4265220165252686,2.2612173557281494,-9.93260669708252
1208,608.0,65800.0,-3.2781667709350586,1.5026925802230835,-10.152746200561523
1209,609.0,65900.0,-3.2781667709350586,1.5026925802230835,-10.152746200561523
1210,610.0,66000.0,-3.2781667709350586,1.5026925802230835,-10.152746200561523
1211,611.0,66100.0,-3.34995174407959,2.1439690589904785,-9.20040225982666
1212,612.0,66200.0,-3.34995174407959,2.1439690589904785,-9.20040225982666
1213,613.0,66300.0,-3.292524099349976,1.8233308792114256,-9.097511291503906
1214,614.0,66400.0,-3.292524099349976,1.8233308792114256,-9.097511291503906
1215,615.0,66500.0,-3.38823676109314,1.8759729862213133,-9.020941734313963
1216,616.0,66600.0,-3.38823676109314,1.8759729862213133,-9.020941734313963
1217,617.0,66700.0,-3.1968109607696533,1.969292998313904,-9.250652313232422
1218,618.0,66800.0,-3.1968109607696533,1.969292998313904,-9.250652313232422
1219,619.0,66900.0,-3.1968109607696533,1.969292998313904,-9.250652313232422
1220,610.0,66000.0,-3.2781667709350586,1.5026925802230835,-10.152746200561523
1221,611.0,66100.0,-3.34995174407959,2.1439690589904785,-9.20040225982666
1222,612.0,66200.0,-3.34995174407959,2.1439690589904785,-9.20040225982666
1223,613.0,66300.0,-3.292524099349976,1.8233308792114256,-9.097511291503906
1224,614.0,66400.0,-3.292524099349976,1.8233308792114256,-9.097511291503906
1225,615.0,66500.0,-3.38823676109314,1.8759729862213133,-9.020941734313963
1226,616.0,66600.0,-3.38823676109314,1.8759729862213133,-9.020941734313963
1227,617.0,66700.0,-3.1968109607696533,1.969292998313904,-9.250652313232422
1228,618.0,66800.0,-3.1968109607696533,1.969292998313904,-9.250652313232422
1229,619.0,66900.0,-3.1968109607696533,1.969292998313904,-9.250652313232422
1230,620.0,67000.0,-3.383451223373413,1.969292998313904,-8.865407943725586
1231,621.0,67100.0,-3.383451223373413,1.969292998313904,-8.865407943725586
1232,622.0,67200.0,-3.3643085956573486,2.108076810836792,-9.286543846130373
1233,623.0,67300.0,-3.3643085956573486,2.108076810836792,-9.286543846130373
1234,624.0,67400.0,-3.263810157775879,1.813759446144104,-9.035298347473145
1235,625.0,67500.0,-3.263810157775879,1.813759446144104,-9.035298347473145
1236,626.0,67600.0,-3.263810157775879,1.813759446144104,-9.035298347473145
1237,627.0,67700.0,-3.2446675300598145,1.797009825706482,-9.21715259552002
1238,628.0,67800.0,-3.2446675300598145,1.797009825706482,-9.21715259552002
1239,629.0,67900.0,-3.5222349166870117,2.1367905139923096,-8.200202941894531
1240,620.0,67000.0,-3.383451223373413,1.969292998313904,-8.865407943725586
1241,621.0,67100.0,-3.383451223373413,1.969292998313904,-8.865407943725586
1242,622.0,67200.0,-3.3643085956573486,2.108076810836792,-9.286543846130373
1243,623.0,67300.0,-3.3643085956573486,2.108076810836792,-9.286543846130373
1244,624.0,67400.0,-3.263810157775879,1.813759446144104,-9.035298347473145
1245,625.0,67500.0,-3.263810157775879,1.813759446144104,-9.035298347473145
1246,626.0,67600.0,-3.263810157775879,1.813759446144104,-9.035298347473145
1247,627.0,67700.0,-3.2446675300598145,1.797009825706482,-9.21715259552002
1248,628.0,67800.0,-3.2446675300598145,1.797009825706482,-9.21715259552002
1249,629.0,67900.0,-3.5222349166870117,2.1367905139923096,-8.200202941894531
1250,630.0,68000.0,-3.5222349166870117,2.1367905139923096,-8.200202941894531
1251,631.0,68100.0,-3.421736478805542,1.797009825706482,-8.970691680908203
1252,632.0,68200.0,-3.421736478805542,1.797009825706482,-8.970691680908203
1253,633.0,68300.0,-3.421736478805542,1.797009825706482,-8.970691680908203
1254,634.0,68400.0,-3.5844480991363525,2.0410776138305664,-8.941977500915527
1255,635.0,68500.0,-3.5844480991363525,2.0410776138305664,-8.941977500915527
1256,636.0,68600.0,-3.541377305984497,2.031506299972534,-8.774479866027832
1257,637.0,68700.0,-3.541377305984497,2.031506299972534,-8.774479866027832
1258,638.0,68800.0,-3.5126638412475586,1.9597216844558718,-8.927621841430664
1259,639.0,68900.0,-3.5126638412475586,1.9597216844558718,-8.927621841430664
1260,630.0,68000.0,-3.5222349166870117,2.1367905139923096,-8.200202941894531
1261,631.0,68100.0,-3.421736478805542,1.797009825706482,-8.970691680908203
1262,632.0,68200.0,-3.421736478805542,1.797009825706482,-8.970691680908203
1263,633.0,68300.0,-3.421736478805542,1.797009825706482,-8.970691680908203
1264,634.0,68400.0,-3.5844480991363525,2.0410776138305664,-8.941977500915527
1265,635.0,68500.0,-3.5844480991363525,2.0410776138305664,-8.941977500915527
1266,636.0,68600.0,-3.541377305984497,2.031506299972534,-8.774479866027832
1267,637.0,68700.0,-3.541377305984497,2.031506299972534,-8.774479866027832
1268,638.0,68800.0,-3.5126638412475586,1.9597216844558718,-8.927621841430664
1269,639.0,68900.0,-3.5126638412475586,1.9597216844558718,-8.927621841430664
1270,640.0,69000.0,-3.5126638412475586,1.9597216844558718,-8.927621841430664
1271,641.0,69100.0,-3.5365920066833496,1.9597216844558718,-8.9371919631958
1272,642.0,69200.0,-3.5365920066833496,1.9597216844558718,-8.9371919631958
1273,643.0,69300.0,-3.5222349166870117,1.9262222051620483,-8.898907661437988
1274,644.0,69400.0,-3.5222349166870117,1.9262222051620483,-8.898907661437988
1275,645.0,69500.0,-3.5605196952819824,1.88075852394104,-8.886943817138672
1276,646.0,69600.0,-3.5605196952819824,1.88075852394104,-8.886943817138672
1277,647.0,69700.0,-3.5605196952819824,1.88075852394104,-8.886943817138672
1278,648.0,69800.0,-3.5126638412475586,1.9932212829589844,-8.9371919631958
1279,649.0,69900.0,-3.5126638412475586,1.9932212829589844,-8.9371919631958
1280,640.0,69000.0,-3.5126638412475586,1.9597216844558718,-8.927621841430664
1281,641.0,69100.0,-3.5365920066833496,1.9597216844558718,-8.9371919631958
1282,642.0,69200.0,-3.5365920066833496,1.9597216844558718,-8.9371919631958
1283,643.0,69300.0,-3.5222349166870117,1.9262222051620483,-8.898907661437988
1284,644.0,69400.0,-3.5222349166870117,1.9262222051620483,-8.898907661437988
1285,645.0,69500.0,-3.5605196952819824,1.88075852394104,-8.886943817138672
1286,646.0,69600.0,-3.5605196952819824,1.88075852394104,-8.886943817138672
1287,647.0,69700.0,-3.5605196952819824,1.88075852394104,-8.886943817138672
1288,648.0,69800.0,-3.5126638412475586,1.9932212829589844,-8.9371919631958
1289,649.0,69900.0,-3.5126638412475586,1.9932212829589844,-8.9371919631958
1290,650.0,70000.0,-3.4983065128326416,2.1726830005645748,-9.116654396057127
1291,651.0,70100.0,-3.4983065128326416,2.1726830005645748,-9.116654396057127
1292,652.0,70200.0,-3.957728624343872,4.666004180908203,-8.456235885620117
1293,653.0,70300.0,-3.957728624343872,4.666004180908203,-8.456235885620117
1294,654.0,70400.0,-3.957728624343872,4.666004180908203,-8.456235885620117
1295,655.0,70500.0,-6.374479293823242,1.557727575302124,-4.589433670043945
1296,656.0,70600.0,-6.374479293823242,1.557727575302124,-4.589433670043945
1297,657.0,70700.0,-5.804987907409668,1.706082463264465,-6.740581512451173
1298,658.0,70800.0,-5.804987907409668,1.706082463264465,-6.740581512451173
1299,659.0,70900.0,-3.6610186100006095,-1.0193424224853516,-9.353544235229492
1300,650.0,70000.0,-3.4983065128326416,2.1726830005645748,-9.116654396057127
1301,651.0,70100.0,-3.4983065128326416,2.1726830005645748,-9.116654396057127
1302,652.0,70200.0,-3.957728624343872,4.666004180908203,-8.456235885620117
1303,653.0,70300.0,-3.957728624343872,4.666004180908203,-8.456235885620117
1304,654.0,70400.0,-3.957728624343872,4.666004180908203,-8.456235885620117
1305,655.0,70500.0,-6.374479293823242,1.557727575302124,-4.589433670043945
1306,656.0,70600.0,-6.374479293823242,1.557727575302124,-4.589433670043945
1307,657.0,70700.0,-5.804987907409668,1.706082463264465,-6.740581512451173
1308,658.0,70800.0,-5.804987907409668,1.706082463264465,-6.740581512451173
1309,659.0,70900.0,-3.6610186100006095,-1.0193424224853516,-9.353544235229492
1310,660.0,71000.0,-3.6610186100006095,-1.0193424224853516,-9.353544235229492
1311,661.0,71100.0,-1.722832441329956,-1.871187210083008,-9.686145782470703
1312,662.0,71200.0,-1.722832441329956,-1.871187210083008,-9.686145782470703
1313,663.0,71300.0,-1.722832441329956,-1.871187210083008,-9.686145782470703
1314,664.0,71400.0,-2.048256158828736,-1.031306505203247,-9.3128662109375
1315,665.0,71500.0,-2.048256158828736,-1.031306505203247,-9.3128662109375
1316,666.0,71600.0,-1.7036896944046018,-1.950150489807129,-8.965906143188477
1317,667.0,71700.0,-1.7036896944046018,-1.950150489807129,-8.965906143188477
1318,668.0,71800.0,-3.2590243816375732,0.4713860750198364,-9.004191398620605
1319,669.0,71900.0,-3.2590243816375732,0.4713860750198364,-9.004191398620605
1320,660.0,71000.0,-3.6610186100006095,-1.0193424224853516,-9.353544235229492
1321,661.0,71100.0,-1.722832441329956,-1.871187210083008,-9.686145782470703
1322,662.0,71200.0,-1.722832441329956,-1.871187210083008,-9.686145782470703
1323,663.0,71300.0,-1.722832441329956,-1.871187210083008,-9.686145782470703
1324,664.0,71400.0,-2.048256158828736,-1.031306505203247,-9.3128662109375
1325,665.0,71500.0,-2.048256158828736,-1.031306505203247,-9.3128662109375
1326,666.0,71600.0,-1.7036896944046018,-1.950150489807129,-8.965906143188477
1327,667.0,71700.0,-1.7036896944046018,-1.950150489807129,-8.965906143188477
1328,668.0,71800.0,-3.2590243816375732,0.4713860750198364,-9.004191398620605
1329,669.0,71900.0,-3.2590243816375732,0.4713860750198364,-9.004191398620605
1330,670.0,72000.0,-3.2590243816375732,0.4713860750198364,-9.004191398620605
1331,671.0,72100.0,-3.6083762645721436,-0.19621144235134125,-9.937392234802246
1332,672.0,72200.0,-3.6083762645721436,-0.19621144235134125,-9.937392234802246
1333,673.0,72300.0,-4.6372904777526855,1.0552347898483276,-8.647661209106445
1334,674.0,72400.0,-4.6372904777526855,1.0552347898483276,-8.647661209106445
1335,675.0,72500.0,-2.541177749633789,1.9669002294540403,-8.60459041595459
1336,676.0,72600.0,-2.541177749633789,1.9669002294540403,-8.60459041595459
1337,677.0,72700.0,-3.4743783473968506,1.3136597871780396,-9.212367057800293
1338,678.0,72800.0,-3.4743783473968506,1.3136597871780396,-9.212367057800293
1339,679.0,72900.0,-3.4743783473968506,1.3136597871780396,-9.212367057800293
1340,670.0,72000.0,-3.2590243816375732,0.4713860750198364,-9.004191398620605
1341,671.0,72100.0,-3.6083762645721436,-0.19621144235134125,-9.937392234802246
1342,672.0,72200.0,-3.6083762645721436,-0.19621144235134125,-9.937392234802246
1343,673.0,72300.0,-4.6372904777526855,1.0552347898483276,-8.647661209106445
1344,674.0,72400.0,-4.6372904777526855,1.0552347898483276,-8.647661209106445
1345,675.0,72500.0,-2.541177749633789,1.9669002294540403,-8.60459041595459
1346,676.0,72600.0,-2.541177749633789,1.9669002294540403,-8.60459041595459
1347,677.0,72700.0,-3.4743783473968506,1.3136597871780396,-9.212367057800293
1348,678.0,72800.0,-3.4743783473968506,1.3136597871780396,-9.212367057800293
1349,679.0,72900.0,-3.4743783473968506,1.3136597871780396,-9.212367057800293
1350,680.0,73000.0,-3.7806599140167236,1.7467604875564575,-9.243474006652832
1351,681.0,73100.0,-3.7806599140167236,1.7467604875564575,-9.243474006652832
1352,682.0,73200.0,-3.531806230545044,1.835294842720032,-9.099905014038086
1353,683.0,73300.0,-3.531806230545044,1.835294842720032,-9.099905014038086
1354,684.0,73400.0,-3.445664882659912,1.88075852394104,-8.82233715057373
1355,685.0,73500.0,-3.445664882659912,1.88075852394104,-8.82233715057373
1356,686.0,73600.0,-3.483949899673462,1.7898313999176023,-8.963513374328613
1357,687.0,73700.0,-3.483949899673462,1.7898313999176023,-8.963513374328613
1358,688.0,73800.0,-3.483949899673462,1.7898313999176023,-8.963513374328613
1359,689.0,73900.0,-3.507878065109253,1.6175479888916016,-9.265008926391602
1360,680.0,73000.0,-3.7806599140167236,1.7467604875564575,-9.243474006652832
1361,681.0,73100.0,-3.7806599140167236,1.7467604875564575,-9.243474006652832
1362,682.0,73200.0,-3.531806230545044,1.835294842720032,-9.099905014038086
1363,683.0,73300.0,-3.531806230545044,1.835294842720032,-9.099905014038086
1364,684.0,73400.0,-3.445664882659912,1.88075852394104,-8.82233715057373
1365,685.0,73500.0,-3.445664882659912,1.88075852394104,-8.82233715057373
1366,686.0,73600.0,-3.483949899673462,1.7898313999176023,-8.963513374328613
1367,687.0,73700.0,-3.483949899673462,1.7898313999176023,-8.963513374328613
1368,688.0,73800.0,-3.483949899673462,1.7898313999176023,-8.963513374328613
1369,689.0,73900.0,-3.507878065109253,1.6175479888916016,-9.265008926391602
1370,690.0,74000.0,-3.507878065109253,1.6175479888916016,-9.265008926391602
1371,691.0,74100.0,-3.469593048095703,1.6223337650299072,-8.973085403442383
1372,692.0,74200.0,-3.469593048095703,1.6223337650299072,-8.973085403442383
1373,693.0,74300.0,-3.5126638412475586,1.9884356260299685,-8.671588897705076
1374,694.0,74400.0,-3.5126638412475586,1.9884356260299685,-8.671588897705076
1375,695.0,74500.0,-3.45045018196106,1.5601203441619873,-8.93240737915039
1376,696.0,74600.0,-3.45045018196106,1.5601203441619873,-8.93240737915039
1377,697.0,74700.0,-3.45045018196106,1.5601203441619873,-8.93240737915039
1378,698.0,74800.0,-3.5748770236968994,1.5649060010910034,-8.843873023986816
1379,699.0,74900.0,-3.5748770236968994,1.5649060010910034,-8.843873023986816
1380,690.0,74000.0,-3.507878065109253,1.6175479888916016,-9.265008926391602
1381,691.0,74100.0,-3.469593048095703,1.6223337650299072,-8.973085403442383
1382,692.0,74200.0,-3.469593048095703,1.6223337650299072,-8.973085403442383
1383,693.0,74300.0,-3.5126638412475586,1.9884356260299685,-8.671588897705076
1384,694.0,74400.0,-3.5126638412475586,1.9884356260299685,-8.671588897705076
1385,695.0,74500.0,-3.45045018196106,1.5601203441619873,-8.93240737915039
1386,696.0,74600.0,-3.45045018196106,1.5601203441619873,-8.93240737915039
1387,697.0,74700.0,-3.45045018196106,1.5601203441619873,-8.93240737915039
1388,698.0,74800.0,-3.5748770236968994,1.5649060010910034,-8.843873023986816
1389,699.0,74900.0,-3.5748770236968994,1.5649060010910034,-8.843873023986816
1390,700.0,75000.0,-3.5270204544067383,1.514656662940979,-8.901299476623535
1391,701.0,75100.0,-3.5270204544067383,1.514656662940979,-8.901299476623535
1392,702.0,75200.0,-3.598805427551268,1.5481561422348022,-8.930014610290527
1393,703.0,75300.0,-3.598805427551268,1.5481561422348022,-8.930014610290527
1394,704.0,75400.0,-3.598805427551268,1.5481561422348022,-8.930014610290527
1395,705.0,75500.0,-3.4983065128326416,1.5218352079391482,-8.989834785461426
1396,706.0,75600.0,-3.4983065128326416,1.5218352079391482,-8.989834785461426
1397,707.0,75700.0,-3.503092288970948,1.557727575302124,-8.927621841430664
1398,708.0,75800.0,-3.503092288970948,1.557727575302124,-8.927621841430664
1399,709.0,75900.0,-3.4743783473968506,1.6031911373138428,-9.037691116333008
1400,700.0,75000.0,-3.5270204544067383,1.514656662940979,-8.901299476623535
1401,701.0,75100.0,-3.5270204544067383,1.514656662940979,-8.901299476623535
1402,702.0,75200.0,-3.598805427551268,1.5481561422348022,-8.930014610290527
1403,703.0,75300.0,-3.598805427551268,1.5481561422348022,-8.930014610290527
1404,704.0,75400.0,-3.598805427551268,1.5481561422348022,-8.930014610290527
1405,705.0,75500.0,-3.4983065128326416,1.5218352079391482,-8.989834785461426
1406,706.0,75600.0,-3.4983065128326416,1.5218352079391482,-8.989834785461426
1407,707.0,75700.0,-3.503092288970948,1.557727575302124,-8.927621841430664
1408,708.0,75800.0,-3.503092288970948,1.557727575302124,-8.927621841430664
1409,709.0,75900.0,-3.4743783473968506,1.6031911373138428,-9.037691116333008
1410,710.0,76000.0,-3.4743783473968506,1.6031911373138428,-9.037691116333008
1411,711.0,76100.0,-3.4743783473968506,1.6031911373138428,-9.037691116333008
1412,712.0,76200.0,-3.503092288970948,1.5218352079391482,-8.930014610290527
1413,713.0,76300.0,-3.503092288970948,1.5218352079391482,-8.930014610290527
1414,714.0,76400.0,-3.464807271957397,1.4763716459274292,-8.944371223449707
1415,715.0,76500.0,-3.464807271957397,1.4763716459274292,-8.944371223449707
1416,716.0,76600.0,-3.483949899673462,1.526620864868164,-9.03290557861328
1417,717.0,76700.0,-3.483949899673462,1.526620864868164,-9.03290557861328
1418,718.0,76800.0,-3.483949899673462,1.526620864868164,-9.03290557861328
1419,719.0,76900.0,-3.45045018196106,1.4620146751403809,-8.944371223449707
1420,710.0,76000.0,-3.4743783473968506,1.6031911373138428,-9.037691116333008
1421,711.0,76100.0,-3.4743783473968506,1.6031911373138428,-9.037691116333008
1422,712.0,76200.0,-3.503092288970948,1.5218352079391482,-8.930014610290527
1423,713.0,76300.0,-3.503092288970948,1.5218352079391482,-8.930014610290527
1424,714.0,76400.0,-3.464807271957397,1.4763716459274292,-8.944371223449707
1425,715.0,76500.0,-3.464807271957397,1.4763716459274292,-8.944371223449707
1426,716.0,76600.0,-3.483949899673462,1.526620864868164,-9.03290557861328
1427,717.0,76700.0,-3.483949899673462,1.526620864868164,-9.03290557861328
1428,718.0,76800.0,-3.483949899673462,1.526620864868164,-9.03290557861328
1429,719.0,76900.0,-3.45045018196106,1.4620146751403809,-8.944371223449707
1430,720.0,77000.0,-3.45045018196106,1.4620146751403809,-8.944371223449707
1431,721.0,77100.0,-3.4265220165252686,1.557727575302124,-9.004191398620605
1432,722.0,77200.0,-3.4265220165252686,1.557727575302124,-9.004191398620605
1433,723.0,77300.0,-3.45045018196106,1.4620146751403809,-9.040083885192873
1434,724.0,77400.0,-3.45045018196106,1.4620146751403809,-9.040083885192873
1435,725.0,77500.0,-3.455235719680786,1.514656662940979,-9.028119087219238
1436,726.0,77600.0,-3.455235719680786,1.514656662940979,-9.028119087219238
1437,727.0,77700.0,-3.455235719680786,1.514656662940979,-9.028119087219238
1438,728.0,77800.0,-3.4743783473968506,1.4356936216354368,-8.973085403442383
1439,729.0,77900.0,-3.4743783473968506,1.4356936216354368,-8.973085403442383
1440,720.0,77000.0,-3.45045018196106,1.4620146751403809,-8.944371223449707
1441,721.0,77100.0,-3.4265220165252686,1.557727575302124,-9.004191398620605
1442,722.0,77200.0,-3.4265220165252686,1.557727575302124,-9.004191398620605
1443,723.0,77300.0,-3.45045018196106,1.4620146751403809,-9.040083885192873
1444,724.0,77400.0,-3.45045018196106,1.4620146751403809,-9.040083885192873
1445,725.0,77500.0,-3.455235719680786,1.514656662940979,-9.028119087219238
1446,726.0,77600.0,-3.455235719680786,1.514656662940979,-9.028119087219238
1447,727.0,77700.0,-3.455235719680786,1.514656662940979,-9.028119087219238
1448,728.0,77800.0,-3.4743783473968506,1.4356936216354368,-8.973085403442383
1449,729.0,77900.0,-3.4743783473968506,1.4356936216354368,-8.973085403442383
1450,730.0,78000.0,-3.488735675811768,1.5050854682922363,-8.994620323181152
1451,731.0,78100.0,-3.488735675811768,1.5050854682922363,-8.994620323181152
1452,732.0,78200.0,-3.460021495819092,1.4763716459274292,-8.958727836608887
1453,733.0,78300.0,-3.460021495819092,1.4763716459274292,-8.958727836608887
1454,734.0,78400.0,-3.460021495819092,1.4548362493515017,-8.965906143188477
1455,735.0,78500.0,-3.460021495819092,1.4548362493515017,-8.965906143188477
1456,736.0,78600.0,-3.460021495819092,1.4548362493515017,-8.965906143188477
1457,737.0,78700.0,-3.531806230545044,1.4763716459274292,-8.9850492477417
1458,738.0,78800.0,-3.531806230545044,1.4763716459274292,-8.9850492477417
1459,739.0,78900.0,-3.4265220165252686,1.4644075632095337,-8.968299865722656
1460,730.0,78000.0,-3.488735675811768,1.5050854682922363,-8.994620323181152
1461,731.0,78100.0,-3.488735675811768,1.5050854682922363,-8.994620323181152
1462,732.0,78200.0,-3.460021495819092,1.4763716459274292,-8.958727836608887
1463,733.0,78300.0,-3.460021495819092,1.4763716459274292,-8.958727836608887
1464,734.0,78400.0,-3.460021495819092,1.4548362493515017,-8.965906143188477
1465,735.0,78500.0,-3.460021495819092,1.4548362493515017,-8.965906143188477
1466,736.0,78600.0,-3.460021495819092,1.4548362493515017,-8.965906143188477
1467,737.0,78700.0,-3.531806230545044,1.4763716459274292,-8.9850492477417
1468,738.0,78800.0,-3.531806230545044,1.4763716459274292,-8.9850492477417
1469,739.0,78900.0,-3.4265220165252686,1.4644075632095337,-8.968299865722656
1470,740.0,79000.0,-3.4265220165252686,1.4644075632095337,-8.968299865722656
1471,741.0,79100.0,-3.464807271957397,1.4380863904953003,-9.023333549499512
1472,742.0,79200.0,-3.464807271957397,1.4380863904953003,-9.023333549499512
1473,743.0,79300.0,-3.464807271957397,1.4380863904953003,-9.023333549499512
1474,744.0,79400.0,-3.4169507026672363,1.7802598476409912,-8.980262756347656
1475,745.0,79500.0,-3.4169507026672363,1.7802598476409912,-8.980262756347656
1476,746.0,79600.0,-3.876372575759888,2.431107759475708,-8.934800148010254
1477,747.0,79700.0,-3.876372575759888,2.431107759475708,-8.934800148010254
1478,748.0,79800.0,-5.513063907623291,1.325623631477356,-7.628318786621094
1479,749.0,79900.0,-5.513063907623291,1.325623631477356,-7.628318786621094
1480,740.0,79000.0,-3.4265220165252686,1.4644075632095337,-8.968299865722656
1481,741.0,79100.0,-3.464807271957397,1.4380863904953003,-9.023333549499512
1482,742.0,79200.0,-3.464807271957397,1.4380863904953003,-9.023333549499512
1483,743.0,79300.0,-3.464807271957397,1.4380863904953003,-9.023333549499512
1484,744.0,79400.0,-3.4169507026672363,1.7802598476409912,-8.980262756347656
1485,745.0,79500.0,-3.4169507026672363,1.7802598476409912,-8.980262756347656
1486,746.0,79600.0,-3.876372575759888,2.431107759475708,-8.934800148010254
1487,747.0,79700.0,-3.876372575759888,2.431107759475708,-8.934800148010254
1488,748.0,79800.0,-5.513063907623291,1.325623631477356,-7.628318786621094
1489,749.0,79900.0,-5.513063907623291,1.325623631477356,-7.628318786621094
1490,750.0,80000.0,-5.513063907623291,1.325623631477356,-7.628318786621094
1491,751.0,80100.0,-6.494120597839356,-0.7609176039695741,-6.898508071899414
1492,752.0,80200.0,-6.494120597839356,-0.7609176039695741,-6.898508071899414
1493,753.0,80300.0,-5.436492443084717,-1.2490534782409668,-7.501499176025391
1494,754.0,80400.0,-5.436492443084717,-1.2490534782409668,-7.501499176025391
1495,755.0,80500.0,-3.7710886001586914,-1.7371891736984253,-8.740981101989746
1496,756.0,80600.0,-3.7710886001586914,-1.7371891736984253,-8.740981101989746
1497,757.0,80700.0,-3.38823676109314,-1.66301167011261,-9.073582649230957
1498,758.0,80800.0,-3.38823676109314,-1.66301167011261,-9.073582649230957
1499,759.0,80900.0,-3.0197420120239262,-1.9932212829589844,-9.422935485839844
1500,750.0,80000.0,-5.513063907623291,1.325623631477356,-7.628318786621094
1501,751.0,80100.0,-6.494120597839356,-0.7609176039695741,-6.898508071899414
1502,752.0,80200.0,-6.494120597839356,-0.7609176039695741,-6.898508071899414
1503,753.0,80300.0,-5.436492443084717,-1.2490534782409668,-7.501499176025391
1504,754.0,80400.0,-5.436492443084717,-1.2490534782409668,-7.501499176025391
1505,755.0,80500.0,-3.7710886001586914,-1.7371891736984253,-8.740981101989746
1506,756.0,80600.0,-3.7710886001586914,-1.7371891736984253,-8.740981101989746
1507,757.0,80700.0,-3.38823676109314,-1.66301167011261,-9.073582649230957
1508,758.0,80800.0,-3.38823676109314,-1.66301167011261,-9.073582649230957
1509,759.0,80900.0,-3.0197420120239262,-1.9932212829589844,-9.422935485839844
1510,760.0,81000.0,-3.0197420120239262,-1.9932212829589844,-9.422935485839844
1511,761.0,81100.0,-3.0197420120239262,-1.9932212829589844,-9.422935485839844
1512,762.0,81200.0,-3.32602334022522,-2.0961124897003174,-9.241080284118652
1513,763.0,81300.0,-3.32602334022522,-2.0961124897003174,-9.241080284118652
1514,764.0,81400.0,-3.809373617172241,-1.6031911373138428,-8.61176872253418
1515,765.0,81500.0,-3.809373617172241,-1.6031911373138428,-8.61176872253418
1516,766.0,81600.0,-4.6372904777526855,-0.5886343717575073,-8.413164138793945
1517,767.0,81700.0,-4.6372904777526855,-0.5886343717575073,-8.413164138793945
1518,768.0,81800.0,-4.747360229492188,0.7417750358581543,-8.286344528198242
1519,769.0,81900.0,-4.747360229492188,0.7417750358581543,-8.286344528198242
1520,760.0,81000.0,-3.0197420120239262,-1.9932212829589844,-9.422935485839844
1521,761.0,81100.0,-3.0197420120239262,-1.9932212829589844,-9.422935485839844
1522,762.0,81200.0,-3.32602334022522,-2.0961124897003174,-9.241080284118652
1523,763.0,81300.0,-3.32602334022522,-2.0961124897003174,-9.241080284118652
1524,764.0,81400.0,-3.809373617172241,-1.6031911373138428,-8.61176872253418
1525,765.0,81500.0,-3.809373617172241,-1.6031911373138428,-8.61176872253418
1526,766.0,81600.0,-4.6372904777526855,-0.5886343717575073,-8.413164138793945
1527,767.0,81700.0,-4.6372904777526855,-0.5886343717575073,-8.413164138793945
1528,768.0,81800.0,-4.747360229492188,0.7417750358581543,-8.286344528198242
1529,769.0,81900.0,-4.747360229492188,0.7417750358581543,-8.286344528198242
1530,770.0,82000.0,-4.747360229492188,0.7417750358581543,-8.286344528198242
1531,771.0,82100.0,-4.153940200805663,1.8999011516571045,-8.896513938903809
1532,772.0,82200.0,-4.153940200805663,1.8999011516571045,-8.896513938903809
1533,773.0,82300.0,-4.130012035369873,2.3784656524658203,-8.525627136230469
1534,774.0,82400.0,-4.130012035369873,2.3784656524658203,-8.525627136230469
1535,775.0,82500.0,-4.139583110809326,2.09850549697876,-8.530412673950195
1536,776.0,82600.0,-4.139583110809326,2.09850549697876,-8.530412673950195
1537,777.0,82700.0,-4.139583110809326,2.09850549697876,-8.530412673950195
1538,778.0,82800.0,-4.364508152008057,3.06999135017395,-8.410772323608397
1539,779.0,82900.0,-4.364508152008057,3.06999135017395,-8.410772323608397
1540,770.0,82000.0,-4.747360229492188,0.7417750358581543,-8.286344528198242
1541,771.0,82100.0,-4.153940200805663,1.8999011516571045,-8.896513938903809
1542,772.0,82200.0,-4.153940200805663,1.8999011516571045,-8.896513938903809
1543,773.0,82300.0,-4.130012035369873,2.3784656524658203,-8.525627136230469
1544,774.0,82400.0,-4.130012035369873,2.3784656524658203,-8.525627136230469
1545,775.0,82500.0,-4.139583110809326,2.09850549697876,-8.530412673950195
1546,776.0,82600.0,-4.139583110809326,2.09850549697876,-8.530412673950195
1547,777.0,82700.0,-4.139583110809326,2.09850549697876,-8.530412673950195
1548,778.0,82800.0,-4.364508152008057,3.06999135017395,-8.410772323608397
1549,779.0,82900.0,-4.364508152008057,3.06999135017395,-8.410772323608397
1550,780.0,83000.0,-4.302295207977295,2.5004994869232178,-8.248059272766112
1551,781.0,83100.0,-4.302295207977295,2.5004994869232178,-8.248059272766112
1552,782.0,83200.0,-4.311866760253906,1.8400806188583367,-9.116654396057127
1553,783.0,83300.0,-4.311866760253906,1.8400806188583367,-9.116654396057127
1554,784.0,83400.0,-4.0390844345092765,1.887937068939209,-8.518448829650879
1555,785.0,83500.0,-4.0390844345092765,1.887937068939209,-8.518448829650879
1556,786.0,83600.0,-4.0390844345092765,1.887937068939209,-8.518448829650879
1557,787.0,83700.0,-4.177868366241455,1.7347965240478516,-8.774479866027832
1558,788.0,83800.0,-4.177868366241455,1.7347965240478516,-8.774479866027832
1559,789.0,83900.0,-4.144368648529054,1.8400806188583367,-8.700303077697754
1560,780.0,83000.0,-4.302295207977295,2.5004994869232178,-8.248059272766112
1561,781.0,83100.0,-4.302295207977295,2.5004994869232178,-8.248059272766112
1562,782.0,83200.0,-4.311866760253906,1.8400806188583367,-9.116654396057127
1563,783.0,83300.0,-4.311866760253906,1.8400806188583367,-9.116654396057127
1564,784.0,83400.0,-4.0390844345092765,1.887937068939209,-8.518448829650879
1565,785.0,83500.0,-4.0390844345092765,1.887937068939209,-8.518448829650879
1566,786.0,83600.0,-4.0390844345092765,1.887937068939209,-8.518448829650879
1567,787.0,83700.0,-4.177868366241455,1.7347965240478516,-8.774479866027832
1568,788.0,83800.0,-4.177868366241455,1.7347965240478516,-8.774479866027832
1569,789.0,83900.0,-4.144368648529054,1.8400806188583367,-8.700303077697754
1570,790.0,84000.0,-4.144368648529054,1.8400806188583367,-8.700303077697754
1571,791.0,84100.0,-4.182653903961182,1.8281164169311523,-8.693124771118164
1572,792.0,84200.0,-4.182653903961182,1.8281164169311523,-8.693124771118164
1573,793.0,84300.0,-4.1730828285217285,1.7802598476409912,-8.654839515686035
1574,794.0,84400.0,-4.1730828285217285,1.7802598476409912,-8.654839515686035
1575,795.0,84500.0,-4.1730828285217285,1.7802598476409912,-8.654839515686035
1576,796.0,84600.0,-4.120440483093262,1.7156537771224976,-8.559126853942871
1577,797.0,84700.0,-4.120440483093262,1.7156537771224976,-8.559126853942871
1578,798.0,84800.0,-4.115654945373535,1.7515461444854736,-8.673982620239258
1579,799.0,84900.0,-4.115654945373535,1.7515461444854736,-8.673982620239258
1580,790.0,84000.0,-4.144368648529054,1.8400806188583367,-8.700303077697754
1581,791.0,84100.0,-4.182653903961182,1.8281164169311523,-8.693124771118164
1582,792.0,84200.0,-4.182653903961182,1.8281164169311523,-8.693124771118164
1583,793.0,84300.0,-4.1730828285217285,1.7802598476409912,-8.654839515686035
1584,794.0,84400.0,-4.1730828285217285,1.7802598476409912,-8.654839515686035
1585,795.0,84500.0,-4.1730828285217285,1.7802598476409912,-8.654839515686035
1586,796.0,84600.0,-4.120440483093262,1.7156537771224976,-8.559126853942871
1587,797.0,84700.0,-4.120440483093262,1.7156537771224976,-8.559126853942871
1588,798.0,84800.0,-4.115654945373535,1.7515461444854736,-8.673982620239258
1589,799.0,84900.0,-4.115654945373535,1.7515461444854736,-8.673982620239258
1590,800.0,85000.0,-4.125226020812988,1.6295121908187866,-8.697910308837889
1591,801.0,85100.0,-4.125226020812988,1.6295121908187866,-8.697910308837889
1592,802.0,85200.0,-4.096512317657472,1.6821542978286743,-8.740981101989746
1593,803.0,85300.0,-4.096512317657472,1.6821542978286743,-8.740981101989746
1594,804.0,85400.0,-4.096512317657472,1.6821542978286743,-8.740981101989746
1595,805.0,85500.0,-4.158725738525392,1.6654045581817627,-8.812766075134277
1596,806.0,85600.0,-4.158725738525392,1.6654045581817627,-8.812766075134277
1597,807.0,85700.0,-4.125226020812988,1.6390833854675293,-8.635696411132812
1598,808.0,85800.0,-4.125226020812988,1.6390833854675293,-8.635696411132812
1599,809.0,85900.0,-4.149154186248778,1.6007983684539795,-8.702695846557617
1600,800.0,85000.0,-4.125226020812988,1.6295121908187866,-8.697910308837889
