,timestamp,ax,ay,az
0,0.0,-0.8327022790908813,4.8741798400878915,-7.88913631439209
1,100.0,-0.8327022790908813,4.8741798400878915,-7.88913631439209
2,200.0,-0.8327022790908813,4.8741798400878915,-7.88913631439209
3,300.0,-0.4689932465553284,0.9116654396057128,-9.978070259094238
4,400.0,-0.4689932465553284,0.9116654396057128,-9.978070259094238
5,500.0,-1.8759729862213133,6.747759819030763,-6.16391134262085
6,600.0,-1.8759729862213133,6.747759819030763,-6.16391134262085
7,700.0,-1.1389836072921753,5.836094379425049,-7.862814903259277
8,800.0,-1.1389836072921753,5.836094379425049,-7.862814903259277
9,900.0,-1.1389836072921753,5.836094379425049,-7.862814903259277
10,1000.0,-1.6941183805465698,3.2279179096221924,-8.350951194763184
11,1100.0,-1.6941183805465698,3.2279179096221924,-8.350951194763184
12,1200.0,-1.244267821311951,6.472585201263428,-4.47697114944458
13,1300.0,-1.244267821311951,6.472585201263428,-4.47697114944458
14,1400.0,-1.325623631477356,11.916255950927734,0.9595218896865844
15,1500.0,-1.325623631477356,11.916255950927734,0.9595218896865844
16,1600.0,-0.04785645008087158,9.047262191772461,-3.060420036315918
17,1700.0,-0.04785645008087158,9.047262191772461,-3.060420036315918
18,1800.0,-0.04785645008087158,9.047262191772461,-3.060420036315918
19,1900.0,-0.8518448472023009,9.657432556152344,-2.0171494483947754
20,2000.0,-0.8518448472023009,9.657432556152344,-2.0171494483947754
21,2100.0,-0.27756744623184204,9.052047729492188,-3.996013641357422
22,2200.0,-0.27756744623184204,9.052047729492188,-3.996013641357422
23,2300.0,-0.5264209508895874,8.865407943725586,-4.161118507385254
24,2400.0,-0.5264209508895874,8.865407943725586,-4.161118507385254
25,2500.0,-0.5264209508895874,8.865407943725586,-4.161118507385254
26,2600.0,-0.5216353535652161,9.001798629760742,-4.0079779624938965
27,2700.0,-0.5216353535652161,9.001798629760742,-4.0079779624938965
28,2800.0,-0.4881358444690704,9.001798629760742,-3.91705060005188
29,2900.0,-0.4881358444690704,9.001798629760742,-3.91705060005188
30,1500.0,-1.325623631477356,11.916255950927734,0.9595218896865844
31,1600.0,-0.04785645008087158,9.047262191772461,-3.060420036315918
32,1700.0,-0.04785645008087158,9.047262191772461,-3.060420036315918
33,1800.0,-0.04785645008087158,9.047262191772461,-3.060420036315918
34,1900.0,-0.8518448472023009,9.657432556152344,-2.0171494483947754
35,2000.0,-0.8518448472023009,9.657432556152344,-2.0171494483947754
36,2100.0,-0.27756744623184204,9.052047729492188,-3.996013641357422
37,2200.0,-0.27756744623184204,9.052047729492188,-3.996013641357422
38,2300.0,-0.5264209508895874,8.865407943725586,-4.161118507385254
39,2400.0,-0.5264209508895874,8.865407943725586,-4.161118507385254
40,2500.0,-0.5264209508895874,8.865407943725586,-4.161118507385254
41,2600.0,-0.5216353535652161,9.001798629760742,-4.0079779624938965
42,2700.0,-0.5216353535652161,9.001798629760742,-4.0079779624938965
43,2800.0,-0.4881358444690704,9.001798629760742,-3.91705060005188
44,2900.0,-0.4881358444690704,9.001798629760742,-3.91705060005188
45,3000.0,-0.4881358444690704,9.001798629760742,-3.91705060005188
46,3100.0,-0.4259224236011505,9.059226989746094,-3.8572301864624015
47,3200.0,-0.4259224236011505,9.059226989746094,-3.8572301864624015
48,3300.0,-0.4211367666721344,9.183652877807617,-3.838087558746338
49,3400.0,-0.4211367666721344,9.183652877807617,-3.838087558746338
50,3500.0,-0.5694918036460876,8.980262756347656,-3.929014682769776
51,3600.0,-0.5694918036460876,8.980262756347656,-3.929014682769776
52,3700.0,-0.4211367666721344,9.042476654052734,-3.9122648239135738
53,3800.0,-0.4211367666721344,9.042476654052734,-3.9122648239135738
54,3900.0,-0.4211367666721344,9.042476654052734,-3.9122648239135738
55,4000.0,-0.5120640397071838,9.001798629760742,-3.804587841033936
56,4100.0,-0.5120640397071838,9.001798629760742,-3.804587841033936
57,4200.0,-0.5503491759300232,8.9850492477417,-3.8356947898864746
58,4300.0,-0.5503491759300232,8.9850492477417,-3.8356947898864746
59,4400.0,-0.4402793645858765,8.906085968017578,-3.8213374614715576
60,3000.0,-0.4881358444690704,9.001798629760742,-3.91705060005188
61,3100.0,-0.4259224236011505,9.059226989746094,-3.8572301864624015
62,3200.0,-0.4259224236011505,9.059226989746094,-3.8572301864624015
63,3300.0,-0.4211367666721344,9.183652877807617,-3.838087558746338
64,3400.0,-0.4211367666721344,9.183652877807617,-3.838087558746338
65,3500.0,-0.5694918036460876,8.980262756347656,-3.929014682769776
66,3600.0,-0.5694918036460876,8.980262756347656,-3.929014682769776
67,3700.0,-0.4211367666721344,9.042476654052734,-3.9122648239135738
68,3800.0,-0.4211367666721344,9.042476654052734,-3.9122648239135738
69,3900.0,-0.4211367666721344,9.042476654052734,-3.9122648239135738
70,4000.0,-0.5120640397071838,9.001798629760742,-3.804587841033936
71,4100.0,-0.5120640397071838,9.001798629760742,-3.804587841033936
72,4200.0,-0.5503491759300232,8.9850492477417,-3.8356947898864746
73,4300.0,-0.5503491759300232,8.9850492477417,-3.8356947898864746
74,4400.0,-0.4402793645858765,8.906085968017578,-3.8213374614715576
75,4500.0,-0.4402793645858765,8.906085968017578,-3.8213374614715576
76,4600.0,-0.4689932465553284,9.119047164916992,-3.73758864402771
77,4700.0,-0.4689932465553284,9.119047164916992,-3.73758864402771
78,4800.0,-0.5120640397071838,8.9850492477417,-3.9122648239135738
79,4900.0,-0.5120640397071838,8.9850492477417,-3.9122648239135738
80,5000.0,-0.5120640397071838,8.9850492477417,-3.9122648239135738
81,5100.0,-0.4977070987224579,8.975478172302246,-3.713660717010498
82,5200.0,-0.4977070987224579,8.975478172302246,-3.713660717010498
83,5300.0,-0.4642075896263122,8.951549530029297,-3.8572301864624015
84,5400.0,-0.4642075896263122,8.951549530029297,-3.8572301864624015
85,5500.0,-0.4642075896263122,8.975478172302246,-3.8955152034759517
86,5600.0,-0.4642075896263122,8.975478172302246,-3.8955152034759517
87,5700.0,-0.4642075896263122,8.975478172302246,-3.8955152034759517
88,5800.0,-0.4163511395454407,9.1716890335083,-3.759124279022217
89,5900.0,-0.4163511395454407,9.1716890335083,-3.759124279022217
90,4500.0,-0.4402793645858765,8.906085968017578,-3.8213374614715576
91,4600.0,-0.4689932465553284,9.119047164916992,-3.73758864402771
92,4700.0,-0.4689932465553284,9.119047164916992,-3.73758864402771
93,4800.0,-0.5120640397071838,8.9850492477417,-3.9122648239135738
94,4900.0,-0.5120640397071838,8.9850492477417,-3.9122648239135738
95,5000.0,-0.5120640397071838,8.9850492477417,-3.9122648239135738
96,5100.0,-0.4977070987224579,8.975478172302246,-3.713660717010498
97,5200.0,-0.4977070987224579,8.975478172302246,-3.713660717010498
98,5300.0,-0.4642075896263122,8.951549530029297,-3.8572301864624015
99,5400.0,-0.4642075896263122,8.951549530029297,-3.8572301864624015
100,5500.0,-0.4642075896263122,8.975478172302246,-3.8955152034759517
101,5600.0,-0.4642075896263122,8.975478172302246,-3.8955152034759517
102,5700.0,-0.4642075896263122,8.975478172302246,-3.8955152034759517
103,5800.0,-0.4163511395454407,9.1716890335083,-3.759124279022217
104,5900.0,-0.4163511395454407,9.1716890335083,-3.759124279022217
105,6000.0,-0.4977070987224579,8.970691680908203,-3.945764780044556
106,6100.0,-0.4977070987224579,8.970691680908203,-3.945764780044556
107,6200.0,-0.4067798554897308,8.882158279418945,-4.0414772033691415
108,6300.0,-0.4067798554897308,8.882158279418945,-4.0414772033691415
109,6400.0,-0.3684946894645691,8.908478736877441,-3.936193227767944
110,6500.0,-0.3684946894645691,8.908478736877441,-3.936193227767944
111,6600.0,-0.5407779216766357,8.827122688293457,-4.072584152221681
112,6700.0,-0.5407779216766357,8.827122688293457,-4.072584152221681
113,6800.0,-0.5407779216766357,8.827122688293457,-4.072584152221681
114,6900.0,-0.8087739944458008,4.3070807456970215,-9.011369705200195
115,7000.0,-0.8087739944458008,4.3070807456970215,-9.011369705200195
116,7100.0,-2.6847469806671143,14.395221710205078,1.9669002294540403
117,7200.0,-2.6847469806671143,14.395221710205078,1.9669002294540403
118,7300.0,-1.3208380937576294,3.034099102020264,-9.927821159362793
119,7400.0,-1.3208380937576294,3.034099102020264,-9.927821159362793
120,6000.0,-0.4977070987224579,8.970691680908203,-3.945764780044556
121,6100.0,-0.4977070987224579,8.970691680908203,-3.945764780044556
122,6200.0,-0.4067798554897308,8.882158279418945,-4.0414772033691415
123,6300.0,-0.4067798554897308,8.882158279418945,-4.0414772033691415
124,6400.0,-0.3684946894645691,8.908478736877441,-3.936193227767944
125,6500.0,-0.3684946894645691,8.908478736877441,-3.936193227767944
126,6600.0,-0.5407779216766357,8.827122688293457,-4.072584152221681
127,6700.0,-0.5407779216766357,8.827122688293457,-4.072584152221681
128,6800.0,-0.5407779216766357,8.827122688293457,-4.072584152221681
129,6900.0,-0.8087739944458008,4.3070807456970215,-9.011369705200195
130,7000.0,-0.8087739944458008,4.3070807456970215,-9.011369705200195
131,7100.0,-2.6847469806671143,14.395221710205078,1.9669002294540403
132,7200.0,-2.6847469806671143,14.395221710205078,1.9669002294540403
133,7300.0,-1.3208380937576294,3.034099102020264,-9.927821159362793
134,7400.0,-1.3208380937576294,3.034099102020264,-9.927821159362793
135,7500.0,-1.4404792785644531,2.462214469909668,-10.023534774780273
136,7600.0,-1.4404792785644531,2.462214469909668,-10.023534774780273
137,7700.0,-1.4404792785644531,2.462214469909668,-10.023534774780273
138,7800.0,-1.4835500717163086,0.8422735333442688,-9.607183456420898
139,7900.0,-1.4835500717163086,0.8422735333442688,-9.607183456420898
140,8000.0,-1.856830358505249,1.0504491329193115,-10.090532302856444
141,8100.0,-1.856830358505249,1.0504491329193115,-10.090532302856444
142,8200.0,-1.6989041566848757,0.5240281224250793,-9.279366493225098
143,8300.0,-1.6989041566848757,0.5240281224250793,-9.279366493225098
144,8400.0,-1.0384850502014158,1.6127625703811646,-9.966106414794922
145,8500.0,-1.0384850502014158,1.6127625703811646,-9.966106414794922
146,8600.0,-0.3254238963127136,11.660223960876465,-4.582255363464356
147,8700.0,-0.3254238963127136,11.660223960876465,-4.582255363464356
148,8800.0,-0.3254238963127136,11.660223960876465,-4.582255363464356
149,8900.0,-1.4691929817199707,7.798208713531494,-5.304887294769287
150,7500.0,-1.4404792785644531,2.462214469909668,-10.023534774780273
151,7600.0,-1.4404792785644531,2.462214469909668,-10.023534774780273
152,7700.0,-1.4404792785644531,2.462214469909668,-10.023534774780273
153,7800.0,-1.4835500717163086,0.8422735333442688,-9.607183456420898
154,7900.0,-1.4835500717163086,0.8422735333442688,-9.607183456420898
155,8000.0,-1.856830358505249,1.0504491329193115,-10.090532302856444
156,8100.0,-1.856830358505249,1.0504491329193115,-10.090532302856444
157,8200.0,-1.6989041566848757,0.5240281224250793,-9.279366493225098
158,8300.0,-1.6989041566848757,0.5240281224250793,-9.279366493225098
159,8400.0,-1.0384850502014158,1.6127625703811646,-9.966106414794922
160,8500.0,-1.0384850502014158,1.6127625703811646,-9.966106414794922
161,8600.0,-0.3254238963127136,11.660223960876465,-4.582255363464356
162,8700.0,-0.3254238963127136,11.660223960876465,-4.582255363464356
163,8800.0,-0.3254238963127136,11.660223960876465,-4.582255363464356
164,8900.0,-1.4691929817199707,7.798208713531494,-5.304887294769287
165,9000.0,-1.4691929817199707,7.798208713531494,-5.304887294769287
166,9100.0,-1.5122638940811155,7.740781307220459,-5.625525951385498
167,9200.0,-1.5122638940811155,7.740781307220459,-5.625525951385498
168,9300.0,-1.5122638940811155,7.740781307220459,-5.625525951385498
169,9400.0,-1.3112668991088867,8.00638484954834,-5.6350975036621085
170,9500.0,-1.3112668991088867,8.00638484954834,-5.6350975036621085
171,9600.0,-1.5218352079391482,7.786244869232178,-5.489135265350342
172,9700.0,-1.5218352079391482,7.786244869232178,-5.489135265350342
173,9800.0,-1.3974084854125977,7.791030406951903,-5.627918720245361
174,9900.0,-1.3974084854125977,7.791030406951903,-5.627918720245361
175,10000.0,-1.34476637840271,7.992027282714844,-5.608776092529297
176,10100.0,-1.34476637840271,7.992027282714844,-5.608776092529297
177,10200.0,-1.4404792785644531,7.841279983520508,-5.642275810241699
178,10300.0,-1.4404792785644531,7.841279983520508,-5.642275810241699
179,10400.0,-1.4404792785644531,7.841279983520508,-5.642275810241699
180,9000.0,-1.4691929817199707,7.798208713531494,-5.304887294769287
181,9100.0,-1.5122638940811155,7.740781307220459,-5.625525951385498
182,9200.0,-1.5122638940811155,7.740781307220459,-5.625525951385498
183,9300.0,-1.5122638940811155,7.740781307220459,-5.625525951385498
184,9400.0,-1.3112668991088867,8.00638484954834,-5.6350975036621085
185,9500.0,-1.3112668991088867,8.00638484954834,-5.6350975036621085
186,9600.0,-1.5218352079391482,7.786244869232178,-5.489135265350342
187,9700.0,-1.5218352079391482,7.786244869232178,-5.489135265350342
188,9800.0,-1.3974084854125977,7.791030406951903,-5.627918720245361
189,9900.0,-1.3974084854125977,7.791030406951903,-5.627918720245361
190,10000.0,-1.34476637840271,7.992027282714844,-5.608776092529297
191,10100.0,-1.34476637840271,7.992027282714844,-5.608776092529297
192,10200.0,-1.4404792785644531,7.841279983520508,-5.642275810241699
193,10300.0,-1.4404792785644531,7.841279983520508,-5.642275810241699
194,10400.0,-1.4404792785644531,7.841279983520508,-5.642275810241699
195,10500.0,-1.3591231107711792,7.929814338684082,-5.694917678833008
196,10600.0,-1.3591231107711792,7.929814338684082,-5.694917678833008
197,10700.0,-1.3160523176193235,7.9106712341308585,-5.6685967445373535
198,10800.0,-1.3160523176193235,7.9106712341308585,-5.6685967445373535
199,10900.0,-1.3351951837539673,7.915457248687744,-5.623133182525635
200,11000.0,-1.3351951837539673,7.915457248687744,-5.623133182525635
201,11100.0,-1.3351951837539673,7.915457248687744,-5.623133182525635
202,11200.0,-1.3782659769058228,7.884350299835205,-5.587240695953369
203,11300.0,-1.3782659769058228,7.884350299835205,-5.587240695953369
204,11400.0,-1.3782659769058228,7.913064479827881,-5.659025192260742
205,11500.0,-1.3782659769058228,7.913064479827881,-5.659025192260742
206,11600.0,-1.411765456199646,8.080562591552733,-5.599205493927002
207,11700.0,-1.411765456199646,8.080562591552733,-5.599205493927002
208,11800.0,-1.3974084854125977,7.913064479827881,-5.553741931915283
209,11900.0,-1.3974084854125977,7.913064479827881,-5.553741931915283
210,10500.0,-1.3591231107711792,7.929814338684082,-5.694917678833008
211,10600.0,-1.3591231107711792,7.929814338684082,-5.694917678833008
212,10700.0,-1.3160523176193235,7.9106712341308585,-5.6685967445373535
213,10800.0,-1.3160523176193235,7.9106712341308585,-5.6685967445373535
214,10900.0,-1.3351951837539673,7.915457248687744,-5.623133182525635
215,11000.0,-1.3351951837539673,7.915457248687744,-5.623133182525635
216,11100.0,-1.3351951837539673,7.915457248687744,-5.623133182525635
217,11200.0,-1.3782659769058228,7.884350299835205,-5.587240695953369
218,11300.0,-1.3782659769058228,7.884350299835205,-5.587240695953369
219,11400.0,-1.3782659769058228,7.913064479827881,-5.659025192260742
220,11500.0,-1.3782659769058228,7.913064479827881,-5.659025192260742
221,11600.0,-1.411765456199646,8.080562591552733,-5.599205493927002
222,11700.0,-1.411765456199646,8.080562591552733,-5.599205493927002
223,11800.0,-1.3974084854125977,7.913064479827881,-5.553741931915283
224,11900.0,-1.3974084854125977,7.913064479827881,-5.553741931915283
225,12000.0,-1.3974084854125977,7.913064479827881,-5.553741931915283
226,12100.0,-1.3399806022644043,7.987241268157959,-5.515456199645996
227,12200.0,-1.3399806022644043,7.987241268157959,-5.515456199645996
228,12300.0,-1.4356936216354368,7.858029365539551,-5.536991596221924
229,12400.0,-1.4356936216354368,7.858029365539551,-5.536991596221924
230,12500.0,-1.3160523176193235,7.814958095550537,-5.5896339416503915
231,12600.0,-1.3160523176193235,7.814958095550537,-5.5896339416503915
232,12700.0,-1.3160523176193235,7.814958095550537,-5.5896339416503915
233,12800.0,-1.2921242713928225,7.994420051574707,-5.568098068237305
234,12900.0,-1.2921242713928225,7.994420051574707,-5.568098068237305
235,13000.0,-1.3016955852508545,7.752745151519775,-5.539384365081787
236,13100.0,-1.3016955852508545,7.752745151519775,-5.539384365081787
237,13200.0,-1.1772687435150146,7.884350299835205,-5.309673309326172
238,13300.0,-1.1772687435150146,7.884350299835205,-5.309673309326172
239,13400.0,-1.1581261157989502,8.202595710754395,-5.374279499053955
240,12000.0,-1.3974084854125977,7.913064479827881,-5.553741931915283
241,12100.0,-1.3399806022644043,7.987241268157959,-5.515456199645996
242,12200.0,-1.3399806022644043,7.987241268157959,-5.515456199645996
243,12300.0,-1.4356936216354368,7.858029365539551,-5.536991596221924
244,12400.0,-1.4356936216354368,7.858029365539551,-5.536991596221924
245,12500.0,-1.3160523176193235,7.814958095550537,-5.5896339416503915
246,12600.0,-1.3160523176193235,7.814958095550537,-5.5896339416503915
247,12700.0,-1.3160523176193235,7.814958095550537,-5.5896339416503915
248,12800.0,-1.2921242713928225,7.994420051574707,-5.568098068237305
249,12900.0,-1.2921242713928225,7.994420051574707,-5.568098068237305
250,13000.0,-1.3016955852508545,7.752745151519775,-5.539384365081787
251,13100.0,-1.3016955852508545,7.752745151519775,-5.539384365081787
252,13200.0,-1.1772687435150146,7.884350299835205,-5.309673309326172
253,13300.0,-1.1772687435150146,7.884350299835205,-5.309673309326172
254,13400.0,-1.1581261157989502,8.202595710754395,-5.374279499053955
255,13500.0,-1.1581261157989502,8.202595710754395,-5.374279499053955
256,13600.0,-1.1341978311538696,8.164310455322267,-5.304887294769287
257,13700.0,-1.1341978311538696,8.164310455322267,-5.304887294769287
258,13800.0,-1.1341978311538696,8.164310455322267,-5.304887294769287
259,13900.0,-1.1676974296569824,8.008777618408201,-5.166104316711426
260,14000.0,-1.1676974296569824,8.008777618408201,-5.166104316711426
261,14100.0,-1.0719845294952393,8.104490280151367,-5.410171985626222
262,14200.0,-1.0719845294952393,8.104490280151367,-5.410171985626222
263,14300.0,-1.0719845294952393,8.104490280151367,-5.410171985626222
264,14400.0,-1.1198409795761108,8.147561073303223,-5.4077792167663565
265,14500.0,-1.1198409795761108,8.147561073303223,-5.4077792167663565
266,14600.0,-1.2011969089508057,8.082954406738281,-5.343173027038574
267,14700.0,-1.2011969089508057,8.082954406738281,-5.343173027038574
268,14800.0,-1.1629117727279663,8.13798999786377,-5.374279499053955
269,14900.0,-1.1629117727279663,8.13798999786377,-5.374279499053955
270,13500.0,-1.1581261157989502,8.202595710754395,-5.374279499053955
271,13600.0,-1.1341978311538696,8.164310455322267,-5.304887294769287
272,13700.0,-1.1341978311538696,8.164310455322267,-5.304887294769287
273,13800.0,-1.1341978311538696,8.164310455322267,-5.304887294769287
274,13900.0,-1.1676974296569824,8.008777618408201,-5.166104316711426
275,14000.0,-1.1676974296569824,8.008777618408201,-5.166104316711426
276,14100.0,-1.0719845294952393,8.104490280151367,-5.410171985626222
277,14200.0,-1.0719845294952393,8.104490280151367,-5.410171985626222
278,14300.0,-1.0719845294952393,8.104490280151367,-5.410171985626222
279,14400.0,-1.1198409795761108,8.147561073303223,-5.4077792167663565
280,14500.0,-1.1198409795761108,8.147561073303223,-5.4077792167663565
281,14600.0,-1.2011969089508057,8.082954406738281,-5.343173027038574
282,14700.0,-1.2011969089508057,8.082954406738281,-5.343173027038574
283,14800.0,-1.1629117727279663,8.13798999786377,-5.374279499053955
284,14900.0,-1.1629117727279663,8.13798999786377,-5.374279499053955
285,15000.0,-1.1676974296569824,8.032705307006836,-5.333601474761963
286,15100.0,-1.1676974296569824,8.032705307006836,-5.333601474761963
287,15200.0,-1.1772687435150146,7.98963451385498,-5.321637630462647
288,15300.0,-1.1772687435150146,7.98963451385498,-5.321637630462647
289,15400.0,-1.1389836072921753,8.059026718139647,-5.2905311584472665
290,15500.0,-1.1389836072921753,8.059026718139647,-5.2905311584472665
291,15600.0,-1.1389836072921753,8.059026718139647,-5.2905311584472665
292,15700.0,-1.1772687435150146,8.12123966217041,-5.3694939613342285
293,15800.0,-1.1772687435150146,8.12123966217041,-5.3694939613342285
294,15900.0,-1.1820544004440308,8.042276382446289,-5.345565319061278
295,16000.0,-1.1820544004440308,8.042276382446289,-5.345565319061278
296,16100.0,-1.1820544004440308,8.042276382446289,-5.345565319061278
297,16200.0,-1.129412293434143,8.126025199890138,-5.374279499053955
298,16300.0,-1.129412293434143,8.126025199890138,-5.374279499053955
299,16400.0,-1.1533405780792236,8.123632431030272,-5.288137912750244
300,15000.0,-1.1676974296569824,8.032705307006836,-5.333601474761963
301,15100.0,-1.1676974296569824,8.032705307006836,-5.333601474761963
302,15200.0,-1.1772687435150146,7.98963451385498,-5.321637630462647
303,15300.0,-1.1772687435150146,7.98963451385498,-5.321637630462647
304,15400.0,-1.1389836072921753,8.059026718139647,-5.2905311584472665
305,15500.0,-1.1389836072921753,8.059026718139647,-5.2905311584472665
306,15600.0,-1.1389836072921753,8.059026718139647,-5.2905311584472665
307,15700.0,-1.1772687435150146,8.12123966217041,-5.3694939613342285
308,15800.0,-1.1772687435150146,8.12123966217041,-5.3694939613342285
309,15900.0,-1.1820544004440308,8.042276382446289,-5.345565319061278
310,16000.0,-1.1820544004440308,8.042276382446289,-5.345565319061278
311,16100.0,-1.1820544004440308,8.042276382446289,-5.345565319061278
312,16200.0,-1.129412293434143,8.126025199890138,-5.374279499053955
313,16300.0,-1.129412293434143,8.126025199890138,-5.374279499053955
314,16400.0,-1.1533405780792236,8.123632431030272,-5.288137912750244
315,16500.0,-1.1533405780792236,8.123632431030272,-5.288137912750244
316,16600.0,-1.1772687435150146,8.049454689025879,-5.443671703338623
317,16700.0,-1.1772687435150146,8.049454689025879,-5.443671703338623
318,16800.0,-1.1102697849273682,8.051848411560059,-5.39342212677002
319,16900.0,-1.1102697849273682,8.051848411560059,-5.39342212677002
320,17000.0,-1.1389836072921753,8.133204460144043,-5.345565319061278
321,17100.0,-1.1389836072921753,8.133204460144043,-5.345565319061278
322,17200.0,-1.1389836072921753,8.133204460144043,-5.345565319061278
323,17300.0,-1.1772687435150146,8.142775535583496,-5.347958564758301
324,17400.0,-1.1772687435150146,8.142775535583496,-5.347958564758301
325,17500.0,-1.1629117727279663,8.188239097595215,-5.374279499053955
326,17600.0,-1.1629117727279663,8.188239097595215,-5.374279499053955
327,17700.0,-1.1629117727279663,8.188239097595215,-5.374279499053955
328,17800.0,-1.1485549211502075,8.147561073303223,-5.362315654754639
329,17900.0,-1.1485549211502075,8.147561073303223,-5.362315654754639
330,16500.0,-1.1533405780792236,8.123632431030272,-5.288137912750244
331,16600.0,-1.1772687435150146,8.049454689025879,-5.443671703338623
332,16700.0,-1.1772687435150146,8.049454689025879,-5.443671703338623
333,16800.0,-1.1102697849273682,8.051848411560059,-5.39342212677002
334,16900.0,-1.1102697849273682,8.051848411560059,-5.39342212677002
335,17000.0,-1.1389836072921753,8.133204460144043,-5.345565319061278
336,17100.0,-1.1389836072921753,8.133204460144043,-5.345565319061278
337,17200.0,-1.1389836072921753,8.133204460144043,-5.345565319061278
338,17300.0,-1.1772687435150146,8.142775535583496,-5.347958564758301
339,17400.0,-1.1772687435150146,8.142775535583496,-5.347958564758301
340,17500.0,-1.1629117727279663,8.188239097595215,-5.374279499053955
341,17600.0,-1.1629117727279663,8.188239097595215,-5.374279499053955
342,17700.0,-1.1629117727279663,8.188239097595215,-5.374279499053955
343,17800.0,-1.1485549211502075,8.147561073303223,-5.362315654754639
344,17900.0,-1.1485549211502075,8.147561073303223,-5.362315654754639
345,18000.0,-1.124626636505127,8.059026718139647,-5.441278457641602
346,18100.0,-1.124626636505127,8.059026718139647,-5.441278457641602
347,18200.0,-1.1198409795761108,8.12123966217041,-5.414957523345947
348,18300.0,-1.1198409795761108,8.12123966217041,-5.414957523345947
349,18400.0,-1.1724830865859983,8.152346611022951,-5.345565319061278
350,18500.0,-1.1724830865859983,8.152346611022951,-5.345565319061278
351,18600.0,-1.1724830865859983,8.152346611022951,-5.345565319061278
352,18700.0,-1.2346963882446291,8.236095428466799,-5.412564754486084
353,18800.0,-1.2346963882446291,8.236095428466799,-5.412564754486084
354,18900.0,-1.7132610082626345,8.01356315612793,-6.08016300201416
355,19000.0,-1.7132610082626345,8.01356315612793,-6.08016300201416
356,19100.0,-1.7132610082626345,8.01356315612793,-6.08016300201416
357,19200.0,-1.8664016723632808,2.167897224426269,-8.654839515686035
358,19300.0,-1.8664016723632808,2.167897224426269,-8.654839515686035
359,19400.0,-1.8520447015762331,1.0743772983551023,-9.975677490234377
360,18000.0,-1.124626636505127,8.059026718139647,-5.441278457641602
361,18100.0,-1.124626636505127,8.059026718139647,-5.441278457641602
362,18200.0,-1.1198409795761108,8.12123966217041,-5.414957523345947
363,18300.0,-1.1198409795761108,8.12123966217041,-5.414957523345947
364,18400.0,-1.1724830865859983,8.152346611022951,-5.345565319061278
365,18500.0,-1.1724830865859983,8.152346611022951,-5.345565319061278
366,18600.0,-1.1724830865859983,8.152346611022951,-5.345565319061278
367,18700.0,-1.2346963882446291,8.236095428466799,-5.412564754486084
368,18800.0,-1.2346963882446291,8.236095428466799,-5.412564754486084
369,18900.0,-1.7132610082626345,8.01356315612793,-6.08016300201416
370,19000.0,-1.7132610082626345,8.01356315612793,-6.08016300201416
371,19100.0,-1.7132610082626345,8.01356315612793,-6.08016300201416
372,19200.0,-1.8664016723632808,2.167897224426269,-8.654839515686035
373,19300.0,-1.8664016723632808,2.167897224426269,-8.654839515686035
374,19400.0,-1.8520447015762331,1.0743772983551023,-9.975677490234377
375,19500.0,-1.8520447015762331,1.0743772983551023,-9.975677490234377
376,19600.0,-2.1200408935546875,1.1653046607971191,-9.564111709594727
377,19700.0,-2.1200408935546875,1.1653046607971191,-9.564111709594727
378,19800.0,-2.368894338607788,1.308874011039734,-9.119047164916992
379,19900.0,-2.368894338607788,1.308874011039734,-9.119047164916992
380,20000.0,-2.368894338607788,1.308874011039734,-9.119047164916992
381,20100.0,-1.856830358505249,1.6582260131835938,-9.207581520080566
382,20200.0,-1.856830358505249,1.6582260131835938,-9.207581520080566
383,20300.0,-0.6269195079803467,9.11426067352295,-1.7802598476409912
384,20400.0,-0.6269195079803467,9.11426067352295,-1.7802598476409912
385,20500.0,-0.6269195079803467,9.11426067352295,-1.7802598476409912
386,20600.0,-1.4069796800613403,10.588239669799805,0.38045880198478704
387,20700.0,-1.4069796800613403,10.588239669799805,0.38045880198478704
388,20800.0,-0.9332008361816406,9.375079154968262,1.2658032178878784
389,20900.0,-0.9332008361816406,9.375079154968262,1.2658032178878784
390,19500.0,-1.8520447015762331,1.0743772983551023,-9.975677490234377
391,19600.0,-2.1200408935546875,1.1653046607971191,-9.564111709594727
392,19700.0,-2.1200408935546875,1.1653046607971191,-9.564111709594727
393,19800.0,-2.368894338607788,1.308874011039734,-9.119047164916992
394,19900.0,-2.368894338607788,1.308874011039734,-9.119047164916992
395,20000.0,-2.368894338607788,1.308874011039734,-9.119047164916992
396,20100.0,-1.856830358505249,1.6582260131835938,-9.207581520080566
397,20200.0,-1.856830358505249,1.6582260131835938,-9.207581520080566
398,20300.0,-0.6269195079803467,9.11426067352295,-1.7802598476409912
399,20400.0,-0.6269195079803467,9.11426067352295,-1.7802598476409912
400,20500.0,-0.6269195079803467,9.11426067352295,-1.7802598476409912
401,20600.0,-1.4069796800613403,10.588239669799805,0.38045880198478704
402,20700.0,-1.4069796800613403,10.588239669799805,0.38045880198478704
403,20800.0,-0.9332008361816406,9.375079154968262,1.2658032178878784
404,20900.0,-0.9332008361816406,9.375079154968262,1.2658032178878784
405,21000.0,-0.8327022790908813,10.396815299987793,-0.8063812851905823
406,21100.0,-0.8327022790908813,10.396815299987793,-0.8063812851905823
407,21200.0,-0.9379864931106568,6.065804958343506,-7.637890338897705
408,21300.0,-0.9379864931106568,6.065804958343506,-7.637890338897705
409,21400.0,-1.043270707130432,4.01037073135376,-8.733802795410156
410,21500.0,-1.043270707130432,4.01037073135376,-8.733802795410156
411,21600.0,-1.043270707130432,1.3280165195465088,-9.580862045288086
412,21700.0,-1.043270707130432,1.3280165195465088,-9.580862045288086
413,21800.0,-1.043270707130432,1.3280165195465088,-9.580862045288086
414,21900.0,-0.97148597240448,1.1629117727279663,-8.970691680908203
415,22000.0,-0.97148597240448,1.1629117727279663,-8.970691680908203
416,22100.0,-1.5601203441619873,6.7692952156066895,-6.5084776878356925
417,22200.0,-1.5601203441619873,6.7692952156066895,-6.5084776878356925
418,22300.0,-1.5601203441619873,6.7692952156066895,-6.5084776878356925
419,22400.0,-0.2679961323738098,11.306086540222168,1.5314064025878906
420,21000.0,-0.8327022790908813,10.396815299987793,-0.8063812851905823
421,21100.0,-0.8327022790908813,10.396815299987793,-0.8063812851905823
422,21200.0,-0.9379864931106568,6.065804958343506,-7.637890338897705
423,21300.0,-0.9379864931106568,6.065804958343506,-7.637890338897705
424,21400.0,-1.043270707130432,4.01037073135376,-8.733802795410156
425,21500.0,-1.043270707130432,4.01037073135376,-8.733802795410156
426,21600.0,-1.043270707130432,1.3280165195465088,-9.580862045288086
427,21700.0,-1.043270707130432,1.3280165195465088,-9.580862045288086
428,21800.0,-1.043270707130432,1.3280165195465088,-9.580862045288086
429,21900.0,-0.97148597240448,1.1629117727279663,-8.970691680908203
430,22000.0,-0.97148597240448,1.1629117727279663,-8.970691680908203
431,22100.0,-1.5601203441619873,6.7692952156066895,-6.5084776878356925
432,22200.0,-1.5601203441619873,6.7692952156066895,-6.5084776878356925
433,22300.0,-1.5601203441619873,6.7692952156066895,-6.5084776878356925
434,22400.0,-0.2679961323738098,11.306086540222168,1.5314064025878906
435,22500.0,-0.2679961323738098,11.306086540222168,1.5314064025878906
436,22600.0,-0.20578275620937347,10.526025772094727,0.8997013568878174
437,22700.0,-0.20578275620937347,10.526025772094727,0.8997013568878174
438,22800.0,-0.7657032012939453,7.83410120010376,-4.130012035369873
439,22900.0,-0.7657032012939453,7.83410120010376,-4.130012035369873
440,23000.0,-0.9762716889381408,9.17886734008789,-4.785645484924316
441,23100.0,-0.9762716889381408,9.17886734008789,-4.785645484924316
442,23200.0,-1.0911270380020142,7.712067127227782,-5.115854740142822
443,23300.0,-1.0911270380020142,7.712067127227782,-5.115854740142822
444,23400.0,-1.124626636505127,8.133204460144043,-5.099104881286621
445,23500.0,-1.124626636505127,8.133204460144043,-5.099104881286621
446,23600.0,-1.124626636505127,8.133204460144043,-5.099104881286621
447,23700.0,-1.0719845294952393,8.307880401611326,-4.811966419219972
448,23800.0,-1.0719845294952393,8.307880401611326,-4.811966419219972
449,23900.0,-1.0336993932724001,8.434700012207031,-4.759324073791504
450,22500.0,-0.2679961323738098,11.306086540222168,1.5314064025878906
451,22600.0,-0.20578275620937347,10.526025772094727,0.8997013568878174
452,22700.0,-0.20578275620937347,10.526025772094727,0.8997013568878174
453,22800.0,-0.7657032012939453,7.83410120010376,-4.130012035369873
454,22900.0,-0.7657032012939453,7.83410120010376,-4.130012035369873
455,23000.0,-0.9762716889381408,9.17886734008789,-4.785645484924316
456,23100.0,-0.9762716889381408,9.17886734008789,-4.785645484924316
457,23200.0,-1.0911270380020142,7.712067127227782,-5.115854740142822
458,23300.0,-1.0911270380020142,7.712067127227782,-5.115854740142822
459,23400.0,-1.124626636505127,8.133204460144043,-5.099104881286621
460,23500.0,-1.124626636505127,8.133204460144043,-5.099104881286621
461,23600.0,-1.124626636505127,8.133204460144043,-5.099104881286621
462,23700.0,-1.0719845294952393,8.307880401611326,-4.811966419219972
463,23800.0,-1.0719845294952393,8.307880401611326,-4.811966419219972
464,23900.0,-1.0336993932724001,8.434700012207031,-4.759324073791504
465,24000.0,-1.0336993932724001,8.434700012207031,-4.759324073791504
466,24100.0,-1.0336993932724001,8.434700012207031,-4.759324073791504
467,24200.0,-0.8470591902732849,9.621540069580078,-3.3738799095153813
468,24300.0,-0.8470591902732849,9.621540069580078,-3.3738799095153813
469,24400.0,-0.7609176039695741,9.03290557861328,-3.7184462547302246
470,24500.0,-0.7609176039695741,9.03290557861328,-3.7184462547302246
471,24600.0,-0.8327022790908813,9.042476654052734,-3.665804386138916
472,24700.0,-0.8327022790908813,9.042476654052734,-3.665804386138916
473,24800.0,-0.7896314859390259,8.999405860900879,-3.711267709732056
474,24900.0,-0.7896314859390259,8.999405860900879,-3.711267709732056
475,25000.0,-0.7465606331825256,8.994620323181152,-3.7878382205963135
476,25100.0,-0.7465606331825256,8.994620323181152,-3.7878382205963135
477,25200.0,-0.7465606331825256,8.994620323181152,-3.7878382205963135
478,25300.0,-0.7657032012939453,9.040083885192873,-3.73758864402771
479,25400.0,-0.7657032012939453,9.040083885192873,-3.73758864402771
480,24000.0,-1.0336993932724001,8.434700012207031,-4.759324073791504
481,24100.0,-1.0336993932724001,8.434700012207031,-4.759324073791504
482,24200.0,-0.8470591902732849,9.621540069580078,-3.3738799095153813
483,24300.0,-0.8470591902732849,9.621540069580078,-3.3738799095153813
484,24400.0,-0.7609176039695741,9.03290557861328,-3.7184462547302246
485,24500.0,-0.7609176039695741,9.03290557861328,-3.7184462547302246
486,24600.0,-0.8327022790908813,9.042476654052734,-3.665804386138916
487,24700.0,-0.8327022790908813,9.042476654052734,-3.665804386138916
488,24800.0,-0.7896314859390259,8.999405860900879,-3.711267709732056
489,24900.0,-0.7896314859390259,8.999405860900879,-3.711267709732056
490,25000.0,-0.7465606331825256,8.994620323181152,-3.7878382205963135
491,25100.0,-0.7465606331825256,8.994620323181152,-3.7878382205963135
492,25200.0,-0.7465606331825256,8.994620323181152,-3.7878382205963135
493,25300.0,-0.7657032012939453,9.040083885192873,-3.73758864402771
494,25400.0,-0.7657032012939453,9.040083885192873,-3.73758864402771
495,25500.0,-0.8135597109794617,9.066404342651367,-3.7232320308685294
496,25600.0,-0.8135597109794617,9.066404342651367,-3.7232320308685294
497,25700.0,-0.7130610942840576,9.061619758605957,-3.69930362701416
498,25800.0,-0.7130610942840576,9.061619758605957,-3.69930362701416
499,25900.0,-0.7657032012939453,9.030512809753418,-3.7256247997283936
500,26000.0,-0.7657032012939453,9.030512809753418,-3.7256247997283936
501,26100.0,-0.7657032012939453,9.030512809753418,-3.7256247997283936
502,26200.0,-0.7609176039695741,8.98265552520752,-3.720839262008667
503,26300.0,-0.7609176039695741,8.98265552520752,-3.720839262008667
504,26400.0,-0.784845769405365,8.97787094116211,-3.7016968727111816
505,26500.0,-0.784845769405365,8.97787094116211,-3.7016968727111816
506,26600.0,-0.7369893789291382,8.872586250305176,-3.716053485870361
507,26700.0,-0.7369893789291382,8.872586250305176,-3.716053485870361
508,26800.0,-0.784845769405365,8.992227554321289,-3.713660717010498
509,26900.0,-0.784845769405365,8.992227554321289,-3.713660717010498
510,25500.0,-0.8135597109794617,9.066404342651367,-3.7232320308685294
511,25600.0,-0.8135597109794617,9.066404342651367,-3.7232320308685294
512,25700.0,-0.7130610942840576,9.061619758605957,-3.69930362701416
513,25800.0,-0.7130610942840576,9.061619758605957,-3.69930362701416
514,25900.0,-0.7657032012939453,9.030512809753418,-3.7256247997283936
515,26000.0,-0.7657032012939453,9.030512809753418,-3.7256247997283936
516,26100.0,-0.7657032012939453,9.030512809753418,-3.7256247997283936
517,26200.0,-0.7609176039695741,8.98265552520752,-3.720839262008667
518,26300.0,-0.7609176039695741,8.98265552520752,-3.720839262008667
519,26400.0,-0.784845769405365,8.97787094116211,-3.7016968727111816
520,26500.0,-0.784845769405365,8.97787094116211,-3.7016968727111816
521,26600.0,-0.7369893789291382,8.872586250305176,-3.716053485870361
522,26700.0,-0.7369893789291382,8.872586250305176,-3.716053485870361
523,26800.0,-0.784845769405365,8.992227554321289,-3.713660717010498
524,26900.0,-0.784845769405365,8.992227554321289,-3.713660717010498
525,27000.0,-0.784845769405365,8.992227554321289,-3.713660717010498
526,27100.0,-0.7034898400306702,9.06879711151123,-3.7040894031524663
527,27200.0,-0.7034898400306702,9.06879711151123,-3.7040894031524663
528,27300.0,-0.6843472719192505,8.987441062927246,-3.713660717010498
529,27400.0,-0.6843472719192505,8.987441062927246,-3.713660717010498
530,27500.0,-0.6652047038078308,9.011369705200195,-3.742374420166016
531,27600.0,-0.6652047038078308,9.011369705200195,-3.742374420166016
532,27700.0,-0.6652047038078308,9.011369705200195,-3.742374420166016
533,27800.0,-0.6795615553855896,9.047262191772461,-3.7950167655944815
534,27900.0,-0.6795615553855896,9.047262191772461,-3.7950167655944815
535,28000.0,-0.5982056856155396,8.992227554321289,-3.79262375831604
536,28100.0,-0.5982056856155396,8.992227554321289,-3.79262375831604
537,28200.0,-0.6508477926254272,9.080761909484863,-3.7734813690185542
538,28300.0,-0.6508477926254272,9.080761909484863,-3.7734813690185542
539,28400.0,-0.7082754969596863,9.020941734313963,-3.7902309894561768
540,27000.0,-0.784845769405365,8.992227554321289,-3.713660717010498
541,27100.0,-0.7034898400306702,9.06879711151123,-3.7040894031524663
542,27200.0,-0.7034898400306702,9.06879711151123,-3.7040894031524663
543,27300.0,-0.6843472719192505,8.987441062927246,-3.713660717010498
544,27400.0,-0.6843472719192505,8.987441062927246,-3.713660717010498
545,27500.0,-0.6652047038078308,9.011369705200195,-3.742374420166016
546,27600.0,-0.6652047038078308,9.011369705200195,-3.742374420166016
547,27700.0,-0.6652047038078308,9.011369705200195,-3.742374420166016
548,27800.0,-0.6795615553855896,9.047262191772461,-3.7950167655944815
549,27900.0,-0.6795615553855896,9.047262191772461,-3.7950167655944815
550,28000.0,-0.5982056856155396,8.992227554321289,-3.79262375831604
551,28100.0,-0.5982056856155396,8.992227554321289,-3.79262375831604
552,28200.0,-0.6508477926254272,9.080761909484863,-3.7734813690185542
553,28300.0,-0.6508477926254272,9.080761909484863,-3.7734813690185542
554,28400.0,-0.7082754969596863,9.020941734313963,-3.7902309894561768
555,28500.0,-0.7082754969596863,9.020941734313963,-3.7902309894561768
556,28600.0,-0.7082754969596863,9.020941734313963,-3.7902309894561768
557,28700.0,-0.6747759580612183,9.030512809753418,-3.7710886001586914
558,28800.0,-0.6747759580612183,9.030512809753418,-3.7710886001586914
559,28900.0,-0.6891329884529114,8.970691680908203,-3.6945178508758554
560,29000.0,-0.6891329884529114,8.970691680908203,-3.6945178508758554
561,29100.0,-0.6460621356964111,9.020941734313963,-3.739981651306152
562,29200.0,-0.6460621356964111,9.020941734313963,-3.739981651306152
563,29300.0,-0.6412764191627502,9.06879711151123,-3.7328033447265625
564,29400.0,-0.6412764191627502,9.06879711151123,-3.7328033447265625
565,29500.0,-0.6412764191627502,9.06879711151123,-3.7328033447265625
566,29600.0,-0.7178468108177185,8.994620323181152,-3.797409296035767
567,29700.0,-0.7178468108177185,8.994620323181152,-3.797409296035767
568,29800.0,-0.6795615553855896,9.042476654052734,-3.7328033447265625
569,29900.0,-0.6795615553855896,9.042476654052734,-3.7328033447265625
570,28500.0,-0.7082754969596863,9.020941734313963,-3.7902309894561768
571,28600.0,-0.7082754969596863,9.020941734313963,-3.7902309894561768
572,28700.0,-0.6747759580612183,9.030512809753418,-3.7710886001586914
573,28800.0,-0.6747759580612183,9.030512809753418,-3.7710886001586914
574,28900.0,-0.6891329884529114,8.970691680908203,-3.6945178508758554
575,29000.0,-0.6891329884529114,8.970691680908203,-3.6945178508758554
576,29100.0,-0.6460621356964111,9.020941734313963,-3.739981651306152
577,29200.0,-0.6460621356964111,9.020941734313963,-3.739981651306152
578,29300.0,-0.6412764191627502,9.06879711151123,-3.7328033447265625
579,29400.0,-0.6412764191627502,9.06879711151123,-3.7328033447265625
580,29500.0,-0.6412764191627502,9.06879711151123,-3.7328033447265625
581,29600.0,-0.7178468108177185,8.994620323181152,-3.797409296035767
582,29700.0,-0.7178468108177185,8.994620323181152,-3.797409296035767
583,29800.0,-0.6795615553855896,9.042476654052734,-3.7328033447265625
584,29900.0,-0.6795615553855896,9.042476654052734,-3.7328033447265625
585,30000.0,-0.6747759580612183,8.85105037689209,-3.749552965164185
586,30100.0,-0.6747759580612183,8.85105037689209,-3.749552965164185
587,30200.0,-0.6652047038078308,8.84626579284668,-3.809373617172241
588,30300.0,-0.6652047038078308,8.84626579284668,-3.809373617172241
589,30400.0,-0.5264209508895874,9.097511291503906,-3.8237307071685787
590,30500.0,-0.5264209508895874,9.097511291503906,-3.8237307071685787
591,30600.0,-0.5264209508895874,9.097511291503906,-3.8237307071685787
592,30700.0,-0.4498506784439087,9.205188751220703,-3.739981651306152
593,30800.0,-0.4498506784439087,9.205188751220703,-3.739981651306152
594,30900.0,-0.4259224236011505,9.025726318359377,-3.8213374614715576
595,31000.0,-0.4259224236011505,9.025726318359377,-3.8213374614715576
596,31100.0,-0.397208571434021,9.169296264648438,-3.751945972442627
597,31200.0,-0.397208571434021,9.169296264648438,-3.751945972442627
598,31300.0,-0.397208571434021,9.169296264648438,-3.751945972442627
599,31400.0,-0.5168496966362001,9.016156196594238,-3.804587841033936
600,30000.0,-0.6747759580612183,8.85105037689209,-3.749552965164185
601,30100.0,-0.6747759580612183,8.85105037689209,-3.749552965164185
602,30200.0,-0.6652047038078308,8.84626579284668,-3.809373617172241
603,30300.0,-0.6652047038078308,8.84626579284668,-3.809373617172241
604,30400.0,-0.5264209508895874,9.097511291503906,-3.8237307071685787
605,30500.0,-0.5264209508895874,9.097511291503906,-3.8237307071685787
606,30600.0,-0.5264209508895874,9.097511291503906,-3.8237307071685787
607,30700.0,-0.4498506784439087,9.205188751220703,-3.739981651306152
608,30800.0,-0.4498506784439087,9.205188751220703,-3.739981651306152
609,30900.0,-0.4259224236011505,9.025726318359377,-3.8213374614715576
610,31000.0,-0.4259224236011505,9.025726318359377,-3.8213374614715576
611,31100.0,-0.397208571434021,9.169296264648438,-3.751945972442627
612,31200.0,-0.397208571434021,9.169296264648438,-3.751945972442627
613,31300.0,-0.397208571434021,9.169296264648438,-3.751945972442627
614,31400.0,-0.5168496966362001,9.016156196594238,-3.804587841033936
615,31500.0,-0.5168496966362001,9.016156196594238,-3.804587841033936
616,31600.0,-0.3876372575759888,8.915657043457031,-3.7280178070068364
617,31700.0,-0.3876372575759888,8.915657043457031,-3.7280178070068364
618,31800.0,-0.4546363055706024,9.186046600341797,-3.739981651306152
619,31900.0,-0.4546363055706024,9.186046600341797,-3.739981651306152
620,32000.0,-0.4785645008087158,8.927621841430664,-3.7782666683197017
621,32100.0,-0.4785645008087158,8.927621841430664,-3.7782666683197017
622,32200.0,-0.2392822504043579,9.078369140625,-4.027120590209962
623,32300.0,-0.2392822504043579,9.078369140625,-4.027120590209962
624,32400.0,-0.2392822504043579,9.078369140625,-4.027120590209962
625,32500.0,-0.794417142868042,8.446663856506348,-5.319244384765625
626,32600.0,-0.794417142868042,8.446663856506348,-5.319244384765625
627,32700.0,-1.244267821311951,7.010970115661621,-6.788437843322754
628,32800.0,-1.244267821311951,7.010970115661621,-6.788437843322754
629,32900.0,-1.1724830865859983,7.362715244293213,-6.285945415496826
630,31500.0,-0.5168496966362001,9.016156196594238,-3.804587841033936
631,31600.0,-0.3876372575759888,8.915657043457031,-3.7280178070068364
632,31700.0,-0.3876372575759888,8.915657043457031,-3.7280178070068364
633,31800.0,-0.4546363055706024,9.186046600341797,-3.739981651306152
634,31900.0,-0.4546363055706024,9.186046600341797,-3.739981651306152
635,32000.0,-0.4785645008087158,8.927621841430664,-3.7782666683197017
636,32100.0,-0.4785645008087158,8.927621841430664,-3.7782666683197017
637,32200.0,-0.2392822504043579,9.078369140625,-4.027120590209962
638,32300.0,-0.2392822504043579,9.078369140625,-4.027120590209962
639,32400.0,-0.2392822504043579,9.078369140625,-4.027120590209962
640,32500.0,-0.794417142868042,8.446663856506348,-5.319244384765625
641,32600.0,-0.794417142868042,8.446663856506348,-5.319244384765625
642,32700.0,-1.244267821311951,7.010970115661621,-6.788437843322754
643,32800.0,-1.244267821311951,7.010970115661621,-6.788437843322754
644,32900.0,-1.1724830865859983,7.362715244293213,-6.285945415496826
645,33000.0,-1.1724830865859983,7.362715244293213,-6.285945415496826
646,33100.0,-1.1724830865859983,7.362715244293213,-6.285945415496826
647,33200.0,-2.75174617767334,7.128218650817871,-6.120840072631836
648,33300.0,-2.75174617767334,7.128218650817871,-6.120840072631836
649,33400.0,-2.1343977451324463,5.213961124420166,-7.604390144348144
650,33500.0,-2.1343977451324463,5.213961124420166,-7.604390144348144
651,33600.0,-2.167897224426269,3.6969110965728764,-8.910871505737305
652,33700.0,-2.167897224426269,3.6969110965728764,-8.910871505737305
653,33800.0,-2.048256158828736,5.50349235534668,-7.302894115447997
654,33900.0,-2.048256158828736,5.50349235534668,-7.302894115447997
655,34000.0,-1.4739787578582764,10.459028244018556,-1.832902193069458
656,34100.0,-1.4739787578582764,10.459028244018556,-1.832902193069458
657,34200.0,-1.4739787578582764,10.459028244018556,-1.832902193069458
658,34300.0,-0.8231310248374939,9.702895164489746,-1.4141581058502195
659,34400.0,-0.8231310248374939,9.702895164489746,-1.4141581058502195
660,33000.0,-1.1724830865859983,7.362715244293213,-6.285945415496826
661,33100.0,-1.1724830865859983,7.362715244293213,-6.285945415496826
662,33200.0,-2.75174617767334,7.128218650817871,-6.120840072631836
663,33300.0,-2.75174617767334,7.128218650817871,-6.120840072631836
664,33400.0,-2.1343977451324463,5.213961124420166,-7.604390144348144
665,33500.0,-2.1343977451324463,5.213961124420166,-7.604390144348144
666,33600.0,-2.167897224426269,3.6969110965728764,-8.910871505737305
667,33700.0,-2.167897224426269,3.6969110965728764,-8.910871505737305
668,33800.0,-2.048256158828736,5.50349235534668,-7.302894115447997
669,33900.0,-2.048256158828736,5.50349235534668,-7.302894115447997
670,34000.0,-1.4739787578582764,10.459028244018556,-1.832902193069458
671,34100.0,-1.4739787578582764,10.459028244018556,-1.832902193069458
672,34200.0,-1.4739787578582764,10.459028244018556,-1.832902193069458
673,34300.0,-0.8231310248374939,9.702895164489746,-1.4141581058502195
674,34400.0,-0.8231310248374939,9.702895164489746,-1.4141581058502195
675,34500.0,-1.2586246728897097,9.140583038330078,-2.935993194580078
676,34600.0,-1.2586246728897097,9.140583038330078,-2.935993194580078
677,34700.0,-1.2586246728897097,9.140583038330078,-2.935993194580078
678,34800.0,-1.306481122970581,9.262616157531738,-3.091526985168457
679,34900.0,-1.306481122970581,9.262616157531738,-3.091526985168457
680,35000.0,-1.0959126949310305,9.293723106384276,-2.940778970718384
681,35100.0,-1.0959126949310305,9.293723106384276,-2.940778970718384
682,35200.0,-1.2299107313156128,9.18126106262207,-2.885744333267212
683,35300.0,-1.2299107313156128,9.18126106262207,-2.885744333267212
684,35400.0,-1.1724830865859983,9.190832138061523,-3.0245277881622314
685,35500.0,-1.1724830865859983,9.190832138061523,-3.0245277881622314
686,35600.0,-1.1724830865859983,9.190832138061523,-3.0245277881622314
687,35700.0,-1.1341978311538696,9.23390293121338,-3.036492109298706
688,35800.0,-1.1341978311538696,9.23390293121338,-3.036492109298706
689,35900.0,-1.1006983518600464,9.229117393493652,-2.9623143672943115
690,34500.0,-1.2586246728897097,9.140583038330078,-2.935993194580078
691,34600.0,-1.2586246728897097,9.140583038330078,-2.935993194580078
692,34700.0,-1.2586246728897097,9.140583038330078,-2.935993194580078
693,34800.0,-1.306481122970581,9.262616157531738,-3.091526985168457
694,34900.0,-1.306481122970581,9.262616157531738,-3.091526985168457
695,35000.0,-1.0959126949310305,9.293723106384276,-2.940778970718384
696,35100.0,-1.0959126949310305,9.293723106384276,-2.940778970718384
697,35200.0,-1.2299107313156128,9.18126106262207,-2.885744333267212
698,35300.0,-1.2299107313156128,9.18126106262207,-2.885744333267212
699,35400.0,-1.1724830865859983,9.190832138061523,-3.0245277881622314
700,35500.0,-1.1724830865859983,9.190832138061523,-3.0245277881622314
701,35600.0,-1.1724830865859983,9.190832138061523,-3.0245277881622314
702,35700.0,-1.1341978311538696,9.23390293121338,-3.036492109298706
703,35800.0,-1.1341978311538696,9.23390293121338,-3.036492109298706
704,35900.0,-1.1006983518600464,9.229117393493652,-2.9623143672943115
705,36000.0,-1.1006983518600464,9.229117393493652,-2.9623143672943115
706,36100.0,-1.0719845294952393,9.255437850952148,-2.9288151264190674
707,36200.0,-1.0719845294952393,9.255437850952148,-2.9288151264190674
708,36300.0,-1.0719845294952393,9.255437850952148,-2.9288151264190674
709,36400.0,-1.0815558433532717,9.286543846130373,-3.058027505874634
710,36500.0,-1.0815558433532717,9.286543846130373,-3.058027505874634
711,36600.0,-1.1102697849273682,9.360722541809082,-2.974278450012207
712,36700.0,-1.1102697849273682,9.360722541809082,-2.974278450012207
713,36800.0,-1.0767701864242554,9.284152030944824,-3.06999135017395
714,36900.0,-1.0767701864242554,9.284152030944824,-3.06999135017395
715,37000.0,-1.0911270380020142,9.284152030944824,-3.002992391586304
716,37100.0,-1.0911270380020142,9.284152030944824,-3.002992391586304
717,37200.0,-1.0863415002822876,9.305686950683594,-2.9623143672943115
718,37300.0,-1.0863415002822876,9.305686950683594,-2.9623143672943115
719,37400.0,-1.0863415002822876,9.305686950683594,-2.9623143672943115
720,36000.0,-1.1006983518600464,9.229117393493652,-2.9623143672943115
721,36100.0,-1.0719845294952393,9.255437850952148,-2.9288151264190674
722,36200.0,-1.0719845294952393,9.255437850952148,-2.9288151264190674
723,36300.0,-1.0719845294952393,9.255437850952148,-2.9288151264190674
724,36400.0,-1.0815558433532717,9.286543846130373,-3.058027505874634
725,36500.0,-1.0815558433532717,9.286543846130373,-3.058027505874634
726,36600.0,-1.1102697849273682,9.360722541809082,-2.974278450012207
727,36700.0,-1.1102697849273682,9.360722541809082,-2.974278450012207
728,36800.0,-1.0767701864242554,9.284152030944824,-3.06999135017395
729,36900.0,-1.0767701864242554,9.284152030944824,-3.06999135017395
730,37000.0,-1.0911270380020142,9.284152030944824,-3.002992391586304
731,37100.0,-1.0911270380020142,9.284152030944824,-3.002992391586304
732,37200.0,-1.0863415002822876,9.305686950683594,-2.9623143672943115
733,37300.0,-1.0863415002822876,9.305686950683594,-2.9623143672943115
734,37400.0,-1.0863415002822876,9.305686950683594,-2.9623143672943115
735,37500.0,-0.9954141974449158,9.238687515258787,-2.943171739578247
736,37600.0,-0.9954141974449158,9.238687515258787,-2.943171739578247
737,37700.0,-1.1341978311538696,9.20040225982666,-2.9814569950103764
738,37800.0,-1.1341978311538696,9.20040225982666,-2.9814569950103764
739,37900.0,-1.1341978311538696,9.286543846130373,-3.0436704158782963
740,38000.0,-1.1341978311538696,9.286543846130373,-3.0436704158782963
741,38100.0,-1.1341978311538696,9.286543846130373,-3.0436704158782963
742,38200.0,-1.1150553226470947,9.250652313232422,-2.900100946426392
743,38300.0,-1.1150553226470947,9.250652313232422,-2.900100946426392
744,38400.0,-1.0767701864242554,9.186046600341797,-3.072384119033813
745,38500.0,-1.0767701864242554,9.186046600341797,-3.072384119033813
746,38600.0,-1.062413215637207,9.346364974975586,-3.06999135017395
747,38700.0,-1.062413215637207,9.346364974975586,-3.06999135017395
748,38800.0,-1.043270707130432,9.370293617248537,-3.0221347808837886
749,38900.0,-1.043270707130432,9.370293617248537,-3.0221347808837886
750,37500.0,-0.9954141974449158,9.238687515258787,-2.943171739578247
751,37600.0,-0.9954141974449158,9.238687515258787,-2.943171739578247
752,37700.0,-1.1341978311538696,9.20040225982666,-2.9814569950103764
753,37800.0,-1.1341978311538696,9.20040225982666,-2.9814569950103764
754,37900.0,-1.1341978311538696,9.286543846130373,-3.0436704158782963
755,38000.0,-1.1341978311538696,9.286543846130373,-3.0436704158782963
756,38100.0,-1.1341978311538696,9.286543846130373,-3.0436704158782963
757,38200.0,-1.1150553226470947,9.250652313232422,-2.900100946426392
758,38300.0,-1.1150553226470947,9.250652313232422,-2.900100946426392
759,38400.0,-1.0767701864242554,9.186046600341797,-3.072384119033813
760,38500.0,-1.0767701864242554,9.186046600341797,-3.072384119033813
761,38600.0,-1.062413215637207,9.346364974975586,-3.06999135017395
762,38700.0,-1.062413215637207,9.346364974975586,-3.06999135017395
763,38800.0,-1.043270707130432,9.370293617248537,-3.0221347808837886
764,38900.0,-1.043270707130432,9.370293617248537,-3.0221347808837886
765,39000.0,-1.043270707130432,9.370293617248537,-3.0221347808837886
766,39100.0,-1.105484127998352,9.269794464111328,-3.0484561920166016
767,39200.0,-1.105484127998352,9.269794464111328,-3.0484561920166016
768,39300.0,-1.062413215637207,9.300901412963867,-3.1800613403320312
769,39400.0,-1.062413215637207,9.300901412963867,-3.1800613403320312
770,39500.0,-1.124626636505127,8.681159973144531,-4.321437358856201
771,39600.0,-1.124626636505127,8.681159973144531,-4.321437358856201
772,39700.0,-1.9956141710281368,7.319644451141357,-6.530013084411621
773,39800.0,-1.9956141710281368,7.319644451141357,-6.530013084411621
774,39900.0,-1.9956141710281368,7.319644451141357,-6.530013084411621
775,40000.0,-2.3545374870300293,3.797409296035767,-7.549355506896973
776,40100.0,-2.3545374870300293,3.797409296035767,-7.549355506896973
777,40200.0,-2.115255117416382,6.7142601013183585,-5.766702175140381
778,40300.0,-2.115255117416382,6.7142601013183585,-5.766702175140381
779,40400.0,-1.6510475873947144,8.293522834777832,-4.1515469551086435
780,39000.0,-1.043270707130432,9.370293617248537,-3.0221347808837886
781,39100.0,-1.105484127998352,9.269794464111328,-3.0484561920166016
782,39200.0,-1.105484127998352,9.269794464111328,-3.0484561920166016
783,39300.0,-1.062413215637207,9.300901412963867,-3.1800613403320312
784,39400.0,-1.062413215637207,9.300901412963867,-3.1800613403320312
785,39500.0,-1.124626636505127,8.681159973144531,-4.321437358856201
786,39600.0,-1.124626636505127,8.681159973144531,-4.321437358856201
787,39700.0,-1.9956141710281368,7.319644451141357,-6.530013084411621
788,39800.0,-1.9956141710281368,7.319644451141357,-6.530013084411621
789,39900.0,-1.9956141710281368,7.319644451141357,-6.530013084411621
790,40000.0,-2.3545374870300293,3.797409296035767,-7.549355506896973
791,40100.0,-2.3545374870300293,3.797409296035767,-7.549355506896973
792,40200.0,-2.115255117416382,6.7142601013183585,-5.766702175140381
793,40300.0,-2.115255117416382,6.7142601013183585,-5.766702175140381
794,40400.0,-1.6510475873947144,8.293522834777832,-4.1515469551086435
795,40500.0,-1.6510475873947144,8.293522834777832,-4.1515469551086435
796,40600.0,-1.6510475873947144,8.293522834777832,-4.1515469551086435
797,40700.0,-2.0195422172546387,10.260422706604004,-1.9334007501602173
798,40800.0,-2.0195422172546387,10.260422706604004,-1.9334007501602173
799,40900.0,-2.723031997680664,10.262815475463867,-0.5766702890396118
800,41000.0,-2.723031997680664,10.262815475463867,-0.5766702890396118
801,41100.0,-1.5792629718780518,6.5324058532714835,-7.451249599456787
802,41200.0,-1.5792629718780518,6.5324058532714835,-7.451249599456787
803,41300.0,-1.5792629718780518,6.5324058532714835,-7.451249599456787
804,41400.0,-2.187039852142334,3.967299938201904,-8.662017822265625
805,41500.0,-2.187039852142334,3.967299938201904,-8.662017822265625
806,41600.0,-2.589033842086792,2.6153552532196045,-8.417949676513674
807,41700.0,-2.589033842086792,2.6153552532196045,-8.417949676513674
808,41800.0,-0.7800601720809937,3.924229145050049,-9.073582649230957
809,41900.0,-0.7800601720809937,3.924229145050049,-9.073582649230957
810,40500.0,-1.6510475873947144,8.293522834777832,-4.1515469551086435
811,40600.0,-1.6510475873947144,8.293522834777832,-4.1515469551086435
812,40700.0,-2.0195422172546387,10.260422706604004,-1.9334007501602173
813,40800.0,-2.0195422172546387,10.260422706604004,-1.9334007501602173
814,40900.0,-2.723031997680664,10.262815475463867,-0.5766702890396118
815,41000.0,-2.723031997680664,10.262815475463867,-0.5766702890396118
816,41100.0,-1.5792629718780518,6.5324058532714835,-7.451249599456787
817,41200.0,-1.5792629718780518,6.5324058532714835,-7.451249599456787
818,41300.0,-1.5792629718780518,6.5324058532714835,-7.451249599456787
819,41400.0,-2.187039852142334,3.967299938201904,-8.662017822265625
820,41500.0,-2.187039852142334,3.967299938201904,-8.662017822265625
821,41600.0,-2.589033842086792,2.6153552532196045,-8.417949676513674
822,41700.0,-2.589033842086792,2.6153552532196045,-8.417949676513674
823,41800.0,-0.7800601720809937,3.924229145050049,-9.073582649230957
824,41900.0,-0.7800601720809937,3.924229145050049,-9.073582649230957
825,42000.0,-1.1581261157989502,7.7072815895080575,-5.816952228546143
826,42100.0,-1.1581261157989502,7.7072815895080575,-5.816952228546143
827,42200.0,-1.1581261157989502,7.7072815895080575,-5.816952228546143
828,42300.0,-1.0336993932724001,7.898707389831543,-4.65643310546875
829,42400.0,-1.0336993932724001,7.898707389831543,-4.65643310546875
830,42500.0,-1.2586246728897097,8.456235885620117,-4.541577339172363
831,42600.0,-1.2586246728897097,8.456235885620117,-4.541577339172363
832,42700.0,-1.3878371715545654,8.219346046447754,-4.759324073791504
833,42800.0,-1.3878371715545654,8.219346046447754,-4.759324073791504
834,42900.0,-1.2873386144638062,8.283952713012695,-4.924428939819336
835,43000.0,-1.2873386144638062,8.283952713012695,-4.924428939819336
836,43100.0,-1.2873386144638062,8.283952713012695,-4.924428939819336
837,43200.0,-1.3016955852508545,8.216952323913574,-4.972285747528076
838,43300.0,-1.3016955852508545,8.216952323913574,-4.972285747528076
839,43400.0,-1.3112668991088867,8.281558990478517,-4.9842495918273935
840,42000.0,-1.1581261157989502,7.7072815895080575,-5.816952228546143
841,42100.0,-1.1581261157989502,7.7072815895080575,-5.816952228546143
842,42200.0,-1.1581261157989502,7.7072815895080575,-5.816952228546143
843,42300.0,-1.0336993932724001,7.898707389831543,-4.65643310546875
844,42400.0,-1.0336993932724001,7.898707389831543,-4.65643310546875
845,42500.0,-1.2586246728897097,8.456235885620117,-4.541577339172363
846,42600.0,-1.2586246728897097,8.456235885620117,-4.541577339172363
847,42700.0,-1.3878371715545654,8.219346046447754,-4.759324073791504
848,42800.0,-1.3878371715545654,8.219346046447754,-4.759324073791504
849,42900.0,-1.2873386144638062,8.283952713012695,-4.924428939819336
850,43000.0,-1.2873386144638062,8.283952713012695,-4.924428939819336
851,43100.0,-1.2873386144638062,8.283952713012695,-4.924428939819336
852,43200.0,-1.3016955852508545,8.216952323913574,-4.972285747528076
853,43300.0,-1.3016955852508545,8.216952323913574,-4.972285747528076
854,43400.0,-1.3112668991088867,8.281558990478517,-4.9842495918273935
855,43500.0,-1.3112668991088867,8.281558990478517,-4.9842495918273935
856,43600.0,-1.373480200767517,8.341379165649414,-4.950750350952148
857,43700.0,-1.373480200767517,8.341379165649414,-4.950750350952148
858,43800.0,-1.3016955852508545,8.293522834777832,-4.907679080963135
859,43900.0,-1.3016955852508545,8.293522834777832,-4.907679080963135
860,44000.0,-1.3016955852508545,8.293522834777832,-4.907679080963135
861,44100.0,-1.2634103298187256,8.312665939331055,-4.910072326660156
862,44200.0,-1.2634103298187256,8.312665939331055,-4.910072326660156
863,44300.0,-1.210768222808838,8.48016357421875,-4.926821708679199
864,44400.0,-1.210768222808838,8.48016357421875,-4.926821708679199
865,44500.0,-1.2346963882446291,8.398807525634767,-4.9387855529785165
866,44600.0,-1.2346963882446291,8.398807525634767,-4.9387855529785165
867,44700.0,-1.2873386144638062,8.37727165222168,-4.996213912963867
868,44800.0,-1.2873386144638062,8.37727165222168,-4.996213912963867
869,44900.0,-1.2873386144638062,8.37727165222168,-4.996213912963867
870,43500.0,-1.3112668991088867,8.281558990478517,-4.9842495918273935
871,43600.0,-1.373480200767517,8.341379165649414,-4.950750350952148
872,43700.0,-1.373480200767517,8.341379165649414,-4.950750350952148
873,43800.0,-1.3016955852508545,8.293522834777832,-4.907679080963135
874,43900.0,-1.3016955852508545,8.293522834777832,-4.907679080963135
875,44000.0,-1.3016955852508545,8.293522834777832,-4.907679080963135
876,44100.0,-1.2634103298187256,8.312665939331055,-4.910072326660156
877,44200.0,-1.2634103298187256,8.312665939331055,-4.910072326660156
878,44300.0,-1.210768222808838,8.48016357421875,-4.926821708679199
879,44400.0,-1.210768222808838,8.48016357421875,-4.926821708679199
880,44500.0,-1.2346963882446291,8.398807525634767,-4.9387855529785165
881,44600.0,-1.2346963882446291,8.398807525634767,-4.9387855529785165
882,44700.0,-1.2873386144638062,8.37727165222168,-4.996213912963867
883,44800.0,-1.2873386144638062,8.37727165222168,-4.996213912963867
884,44900.0,-1.2873386144638062,8.37727165222168,-4.996213912963867
885,45000.0,-1.2586246728897097,8.489734649658201,-4.969892501831055
886,45100.0,-1.2586246728897097,8.489734649658201,-4.969892501831055
887,45200.0,-1.3351951837539673,8.288737297058105,-4.972285747528076
888,45300.0,-1.3351951837539673,8.288737297058105,-4.972285747528076
889,45400.0,-1.2299107313156128,8.360522270202638,-4.950750350952148
890,45500.0,-1.2299107313156128,8.360522270202638,-4.950750350952148
891,45600.0,-1.2299107313156128,8.360522270202638,-4.950750350952148
892,45700.0,-1.2346963882446291,8.310273170471191,-5.010570526123047
893,45800.0,-1.2346963882446291,8.310273170471191,-5.010570526123047
894,45900.0,-1.2634103298187256,8.382057189941406,-4.993820667266847
895,46000.0,-1.2634103298187256,8.382057189941406,-4.993820667266847
896,46100.0,-1.2634103298187256,8.382057189941406,-4.993820667266847
897,46200.0,-1.2586246728897097,8.197811126708983,-4.95792818069458
898,46300.0,-1.2586246728897097,8.197811126708983,-4.95792818069458
899,46400.0,-1.2538390159606934,8.23848819732666,-4.989035129547119
900,45000.0,-1.2586246728897097,8.489734649658201,-4.969892501831055
901,45100.0,-1.2586246728897097,8.489734649658201,-4.969892501831055
902,45200.0,-1.3351951837539673,8.288737297058105,-4.972285747528076
903,45300.0,-1.3351951837539673,8.288737297058105,-4.972285747528076
904,45400.0,-1.2299107313156128,8.360522270202638,-4.950750350952148
905,45500.0,-1.2299107313156128,8.360522270202638,-4.950750350952148
906,45600.0,-1.2299107313156128,8.360522270202638,-4.950750350952148
907,45700.0,-1.2346963882446291,8.310273170471191,-5.010570526123047
908,45800.0,-1.2346963882446291,8.310273170471191,-5.010570526123047
909,45900.0,-1.2634103298187256,8.382057189941406,-4.993820667266847
910,46000.0,-1.2634103298187256,8.382057189941406,-4.993820667266847
911,46100.0,-1.2634103298187256,8.382057189941406,-4.993820667266847
912,46200.0,-1.2586246728897097,8.197811126708983,-4.95792818069458
913,46300.0,-1.2586246728897097,8.197811126708983,-4.95792818069458
914,46400.0,-1.2538390159606934,8.23848819732666,-4.989035129547119
915,46500.0,-1.2538390159606934,8.23848819732666,-4.989035129547119
916,46600.0,-1.2681961059570312,8.343771934509277,-5.000998973846436
917,46700.0,-1.2681961059570312,8.343771934509277,-5.000998973846436
918,46800.0,-1.2681961059570312,8.343771934509277,-5.000998973846436
919,46900.0,-1.210768222808838,8.417949676513674,-4.996213912963867
920,47000.0,-1.210768222808838,8.417949676513674,-4.996213912963867
921,47100.0,-1.1868400573730469,8.403593063354492,-4.972285747528076
922,47200.0,-1.1868400573730469,8.403593063354492,-4.972285747528076
923,47300.0,-1.244267821311951,8.386843681335451,-4.9363932609558105
924,47400.0,-1.244267821311951,8.386843681335451,-4.9363932609558105
925,47500.0,-1.2346963882446291,8.372486114501951,-4.986642360687256
926,47600.0,-1.2346963882446291,8.372486114501951,-4.986642360687256
927,47700.0,-1.22033953666687,8.346165657043457,-4.979463577270508
928,47800.0,-1.22033953666687,8.346165657043457,-4.979463577270508
929,47900.0,-1.22033953666687,8.346165657043457,-4.979463577270508
930,46500.0,-1.2538390159606934,8.23848819732666,-4.989035129547119
931,46600.0,-1.2681961059570312,8.343771934509277,-5.000998973846436
932,46700.0,-1.2681961059570312,8.343771934509277,-5.000998973846436
933,46800.0,-1.2681961059570312,8.343771934509277,-5.000998973846436
934,46900.0,-1.210768222808838,8.417949676513674,-4.996213912963867
935,47000.0,-1.210768222808838,8.417949676513674,-4.996213912963867
936,47100.0,-1.1868400573730469,8.403593063354492,-4.972285747528076
937,47200.0,-1.1868400573730469,8.403593063354492,-4.972285747528076
938,47300.0,-1.244267821311951,8.386843681335451,-4.9363932609558105
939,47400.0,-1.244267821311951,8.386843681335451,-4.9363932609558105
940,47500.0,-1.2346963882446291,8.372486114501951,-4.986642360687256
941,47600.0,-1.2346963882446291,8.372486114501951,-4.986642360687256
942,47700.0,-1.22033953666687,8.346165657043457,-4.979463577270508
943,47800.0,-1.22033953666687,8.346165657043457,-4.979463577270508
944,47900.0,-1.22033953666687,8.346165657043457,-4.979463577270508
945,48000.0,-1.2011969089508057,8.319844245910645,-4.993820667266847
946,48100.0,-1.2011969089508057,8.319844245910645,-4.993820667266847
947,48200.0,-1.22033953666687,8.295915603637695,-5.118247985839844
948,48300.0,-1.22033953666687,8.295915603637695,-5.118247985839844
949,48400.0,-1.2777673006057741,8.319844245910645,-5.099104881286621
950,48500.0,-1.2777673006057741,8.319844245910645,-5.099104881286621
951,48600.0,-1.2777673006057741,8.319844245910645,-5.099104881286621
952,48700.0,-1.1820544004440308,8.219346046447754,-5.252245903015137
953,48800.0,-1.1820544004440308,8.219346046447754,-5.252245903015137
954,48900.0,-1.1820544004440308,8.090132713317871,-5.3694939613342285
955,49000.0,-1.1820544004440308,8.090132713317871,-5.3694939613342285
956,49100.0,-1.105484127998352,7.609175682067871,-5.869593620300293
957,49200.0,-1.105484127998352,7.609175682067871,-5.869593620300293
958,49300.0,-1.1533405780792236,7.901099681854247,-5.702096462249756
959,49400.0,-1.1533405780792236,7.901099681854247,-5.702096462249756
960,48000.0,-1.2011969089508057,8.319844245910645,-4.993820667266847
961,48100.0,-1.2011969089508057,8.319844245910645,-4.993820667266847
962,48200.0,-1.22033953666687,8.295915603637695,-5.118247985839844
963,48300.0,-1.22033953666687,8.295915603637695,-5.118247985839844
964,48400.0,-1.2777673006057741,8.319844245910645,-5.099104881286621
965,48500.0,-1.2777673006057741,8.319844245910645,-5.099104881286621
966,48600.0,-1.2777673006057741,8.319844245910645,-5.099104881286621
967,48700.0,-1.1820544004440308,8.219346046447754,-5.252245903015137
968,48800.0,-1.1820544004440308,8.219346046447754,-5.252245903015137
969,48900.0,-1.1820544004440308,8.090132713317871,-5.3694939613342285
970,49000.0,-1.1820544004440308,8.090132713317871,-5.3694939613342285
971,49100.0,-1.105484127998352,7.609175682067871,-5.869593620300293
972,49200.0,-1.105484127998352,7.609175682067871,-5.869593620300293
973,49300.0,-1.1533405780792236,7.901099681854247,-5.702096462249756
974,49400.0,-1.1533405780792236,7.901099681854247,-5.702096462249756
975,49500.0,-1.9573287963867188,6.891329765319824,-6.817151546478272
976,49600.0,-1.9573287963867188,6.891329765319824,-6.817151546478272
977,49700.0,-1.9573287963867188,6.891329765319824,-6.817151546478272
978,49800.0,-2.0243279933929443,4.232903003692627,-8.501699447631836
979,49900.0,-2.0243279933929443,4.232903003692627,-8.501699447631836
980,50000.0,-2.4741785526275635,2.919243574142456,-8.561518669128418
981,50100.0,-2.4741785526275635,2.919243574142456,-8.561518669128418
982,50200.0,-2.636890411376953,3.3978083133697514,-9.06401252746582
983,50300.0,-2.636890411376953,3.3978083133697514,-9.06401252746582
984,50400.0,-2.0721843242645264,8.298308372497559,-4.627718925476074
985,50500.0,-2.0721843242645264,8.298308372497559,-4.627718925476074
986,50600.0,-2.0721843242645264,8.298308372497559,-4.627718925476074
987,50700.0,-1.4883356094360352,7.798208713531494,-5.694917678833008
988,50800.0,-1.4883356094360352,7.798208713531494,-5.694917678833008
989,50900.0,-1.722832441329956,7.3675007820129395,-5.745166778564452
990,49500.0,-1.9573287963867188,6.891329765319824,-6.817151546478272
991,49600.0,-1.9573287963867188,6.891329765319824,-6.817151546478272
992,49700.0,-1.9573287963867188,6.891329765319824,-6.817151546478272
993,49800.0,-2.0243279933929443,4.232903003692627,-8.501699447631836
994,49900.0,-2.0243279933929443,4.232903003692627,-8.501699447631836
995,50000.0,-2.4741785526275635,2.919243574142456,-8.561518669128418
996,50100.0,-2.4741785526275635,2.919243574142456,-8.561518669128418
997,50200.0,-2.636890411376953,3.3978083133697514,-9.06401252746582
998,50300.0,-2.636890411376953,3.3978083133697514,-9.06401252746582
999,50400.0,-2.0721843242645264,8.298308372497559,-4.627718925476074
1000,50500.0,-2.0721843242645264,8.298308372497559,-4.627718925476074
1001,50600.0,-2.0721843242645264,8.298308372497559,-4.627718925476074
1002,50700.0,-1.4883356094360352,7.798208713531494,-5.694917678833008
1003,50800.0,-1.4883356094360352,7.798208713531494,-5.694917678833008
1004,50900.0,-1.722832441329956,7.3675007820129395,-5.745166778564452
1005,51000.0,-1.722832441329956,7.3675007820129395,-5.745166778564452
1006,51100.0,-2.526820659637451,6.096912384033202,-6.6831536293029785
1007,51200.0,-2.526820659637451,6.096912384033202,-6.6831536293029785
1008,51300.0,-1.9525433778762815,5.637490272521973,-7.994420051574707
1009,51400.0,-1.9525433778762815,5.637490272521973,-7.994420051574707
1010,51500.0,-1.9525433778762815,5.637490272521973,-7.994420051574707
1011,51600.0,-1.9142580032348635,4.3142595291137695,-8.571090698242188
1012,51700.0,-1.9142580032348635,4.3142595291137695,-8.571090698242188
1013,51800.0,-1.919043779373169,4.01037073135376,-8.764908790588379
1014,51900.0,-1.919043779373169,4.01037073135376,-8.764908790588379
1015,52000.0,-1.8233308792114256,3.969692707061768,-8.930014610290527
1016,52100.0,-1.8233308792114256,3.969692707061768,-8.930014610290527
1017,52200.0,-1.8616160154342647,3.967299938201904,-8.58305549621582
1018,52300.0,-1.8616160154342647,3.967299938201904,-8.58305549621582
1019,52400.0,-1.871187210083008,4.682754039764403,-8.621339797973633
1020,51000.0,-1.722832441329956,7.3675007820129395,-5.745166778564452
1021,51100.0,-2.526820659637451,6.096912384033202,-6.6831536293029785
1022,51200.0,-2.526820659637451,6.096912384033202,-6.6831536293029785
1023,51300.0,-1.9525433778762815,5.637490272521973,-7.994420051574707
1024,51400.0,-1.9525433778762815,5.637490272521973,-7.994420051574707
1025,51500.0,-1.9525433778762815,5.637490272521973,-7.994420051574707
1026,51600.0,-1.9142580032348635,4.3142595291137695,-8.571090698242188
1027,51700.0,-1.9142580032348635,4.3142595291137695,-8.571090698242188
1028,51800.0,-1.919043779373169,4.01037073135376,-8.764908790588379
1029,51900.0,-1.919043779373169,4.01037073135376,-8.764908790588379
1030,52000.0,-1.8233308792114256,3.969692707061768,-8.930014610290527
1031,52100.0,-1.8233308792114256,3.969692707061768,-8.930014610290527
1032,52200.0,-1.8616160154342647,3.967299938201904,-8.58305549621582
1033,52300.0,-1.8616160154342647,3.967299938201904,-8.58305549621582
1034,52400.0,-1.871187210083008,4.682754039764403,-8.621339797973633
1035,52500.0,-1.871187210083008,4.682754039764403,-8.621339797973633
1036,52600.0,-1.871187210083008,4.682754039764403,-8.621339797973633
1037,52700.0,-2.091326951980591,4.3932223320007315,-7.896315097808838
1038,52800.0,-2.091326951980591,4.3932223320007315,-7.896315097808838
1039,52900.0,-1.7036896944046018,6.33380126953125,-5.257031440734863
1040,53000.0,-1.7036896944046018,6.33380126953125,-5.257031440734863
1041,53100.0,-1.832902193069458,11.205588340759276,-0.04546363279223442
1042,53200.0,-1.832902193069458,11.205588340759276,-0.04546363279223442
1043,53300.0,-1.1102697849273682,8.980262756347656,-1.4380863904953003
1044,53400.0,-1.1102697849273682,8.980262756347656,-1.4380863904953003
1045,53500.0,-0.8422735333442688,9.497113227844238,-3.0556347370147705
1046,53600.0,-0.8422735333442688,9.497113227844238,-3.0556347370147705
1047,53700.0,-0.8422735333442688,9.497113227844238,-3.0556347370147705
1048,53800.0,-1.3304094076156616,8.733802795410156,-2.861815929412842
1049,53900.0,-1.3304094076156616,8.733802795410156,-2.861815929412842
1050,52500.0,-1.871187210083008,4.682754039764403,-8.621339797973633
1051,52600.0,-1.871187210083008,4.682754039764403,-8.621339797973633
1052,52700.0,-2.091326951980591,4.3932223320007315,-7.896315097808838
1053,52800.0,-2.091326951980591,4.3932223320007315,-7.896315097808838
1054,52900.0,-1.7036896944046018,6.33380126953125,-5.257031440734863
1055,53000.0,-1.7036896944046018,6.33380126953125,-5.257031440734863
1056,53100.0,-1.832902193069458,11.205588340759276,-0.04546363279223442
1057,53200.0,-1.832902193069458,11.205588340759276,-0.04546363279223442
1058,53300.0,-1.1102697849273682,8.980262756347656,-1.4380863904953003
1059,53400.0,-1.1102697849273682,8.980262756347656,-1.4380863904953003
1060,53500.0,-0.8422735333442688,9.497113227844238,-3.0556347370147705
1061,53600.0,-0.8422735333442688,9.497113227844238,-3.0556347370147705
1062,53700.0,-0.8422735333442688,9.497113227844238,-3.0556347370147705
1063,53800.0,-1.3304094076156616,8.733802795410156,-2.861815929412842
1064,53900.0,-1.3304094076156616,8.733802795410156,-2.861815929412842
1065,54000.0,-1.3830513954162598,9.791430473327637,-2.0099709033966064
1066,54100.0,-1.3830513954162598,9.791430473327637,-2.0099709033966064
1067,54200.0,-0.9379864931106568,9.42772102355957,-2.5196423530578613
1068,54300.0,-0.9379864931106568,9.42772102355957,-2.5196423530578613
1069,54400.0,-1.1006983518600464,9.410971641540527,-2.569891452789306
1070,54500.0,-1.1006983518600464,9.410971641540527,-2.569891452789306
1071,54600.0,-1.1006983518600464,9.410971641540527,-2.569891452789306
1072,54700.0,-1.1006983518600464,9.42054271697998,-2.335394859313965
1073,54800.0,-1.1006983518600464,9.42054271697998,-2.335394859313965
1074,54900.0,-1.105484127998352,9.370293617248537,-2.462214469909668
1075,55000.0,-1.105484127998352,9.370293617248537,-2.462214469909668
1076,55100.0,-1.4213367700576782,9.686145782470703,-2.1990041732788086
1077,55200.0,-1.4213367700576782,9.686145782470703,-2.1990041732788086
1078,55300.0,-1.0863415002822876,9.647860527038574,-2.4670000076293945
1079,55400.0,-1.0863415002822876,9.647860527038574,-2.4670000076293945
1080,54000.0,-1.3830513954162598,9.791430473327637,-2.0099709033966064
1081,54100.0,-1.3830513954162598,9.791430473327637,-2.0099709033966064
1082,54200.0,-0.9379864931106568,9.42772102355957,-2.5196423530578613
1083,54300.0,-0.9379864931106568,9.42772102355957,-2.5196423530578613
1084,54400.0,-1.1006983518600464,9.410971641540527,-2.569891452789306
1085,54500.0,-1.1006983518600464,9.410971641540527,-2.569891452789306
1086,54600.0,-1.1006983518600464,9.410971641540527,-2.569891452789306
1087,54700.0,-1.1006983518600464,9.42054271697998,-2.335394859313965
1088,54800.0,-1.1006983518600464,9.42054271697998,-2.335394859313965
1089,54900.0,-1.105484127998352,9.370293617248537,-2.462214469909668
1090,55000.0,-1.105484127998352,9.370293617248537,-2.462214469909668
1091,55100.0,-1.4213367700576782,9.686145782470703,-2.1990041732788086
1092,55200.0,-1.4213367700576782,9.686145782470703,-2.1990041732788086
1093,55300.0,-1.0863415002822876,9.647860527038574,-2.4670000076293945
1094,55400.0,-1.0863415002822876,9.647860527038574,-2.4670000076293945
1095,55500.0,-1.0863415002822876,9.647860527038574,-2.4670000076293945
1096,55600.0,-1.191625714302063,9.4061861038208,-2.3712873458862305
1097,55700.0,-1.191625714302063,9.4061861038208,-2.3712873458862305
1098,55800.0,-0.9188438653945924,9.401400566101074,-2.557927370071411
1099,55900.0,-0.9188438653945924,9.401400566101074,-2.557927370071411
1100,56000.0,-1.057627558708191,9.394222259521484,-2.400001049041748
1101,56100.0,-1.057627558708191,9.394222259521484,-2.400001049041748
1102,56200.0,-1.057627558708191,9.394222259521484,-2.400001049041748
1103,56300.0,-1.0384850502014158,9.425328254699707,-2.47896409034729
1104,56400.0,-1.0384850502014158,9.425328254699707,-2.47896409034729
1105,56500.0,-1.0719845294952393,9.501898765563963,-2.3736801147460938
1106,56600.0,-1.0719845294952393,9.501898765563963,-2.3736801147460938
1107,56700.0,-1.0863415002822876,9.449256896972656,-2.426322221755981
1108,56800.0,-1.0863415002822876,9.449256896972656,-2.426322221755981
1109,56900.0,-1.0815558433532717,9.442078590393066,-2.4693927764892583
1110,55500.0,-1.0863415002822876,9.647860527038574,-2.4670000076293945
1111,55600.0,-1.191625714302063,9.4061861038208,-2.3712873458862305
1112,55700.0,-1.191625714302063,9.4061861038208,-2.3712873458862305
1113,55800.0,-0.9188438653945924,9.401400566101074,-2.557927370071411
1114,55900.0,-0.9188438653945924,9.401400566101074,-2.557927370071411
1115,56000.0,-1.057627558708191,9.394222259521484,-2.400001049041748
1116,56100.0,-1.057627558708191,9.394222259521484,-2.400001049041748
1117,56200.0,-1.057627558708191,9.394222259521484,-2.400001049041748
1118,56300.0,-1.0384850502014158,9.425328254699707,-2.47896409034729
1119,56400.0,-1.0384850502014158,9.425328254699707,-2.47896409034729
1120,56500.0,-1.0719845294952393,9.501898765563963,-2.3736801147460938
1121,56600.0,-1.0719845294952393,9.501898765563963,-2.3736801147460938
1122,56700.0,-1.0863415002822876,9.449256896972656,-2.426322221755981
1123,56800.0,-1.0863415002822876,9.449256896972656,-2.426322221755981
1124,56900.0,-1.0815558433532717,9.442078590393066,-2.4693927764892583
1125,57000.0,-1.0815558433532717,9.442078590393066,-2.4693927764892583
1126,57100.0,-1.0815558433532717,9.442078590393066,-2.4693927764892583
1127,57200.0,-1.057627558708191,9.408578872680664,-2.4598214626312256
1128,57300.0,-1.057627558708191,9.408578872680664,-2.4598214626312256
1129,57400.0,-1.0671988725662231,9.45164966583252,-2.2947168350219727
1130,57500.0,-1.0671988725662231,9.45164966583252,-2.2947168350219727
1131,57600.0,-1.0767701864242554,9.547362327575684,-2.4957141876220703
1132,57700.0,-1.0767701864242554,9.547362327575684,-2.4957141876220703
1133,57800.0,-1.062413215637207,9.401400566101074,-2.421536445617676
1134,57900.0,-1.062413215637207,9.401400566101074,-2.421536445617676
1135,58000.0,-1.043270707130432,9.394222259521484,-2.4095723628997803
1136,58100.0,-1.043270707130432,9.394222259521484,-2.4095723628997803
1137,58200.0,-1.043270707130432,9.394222259521484,-2.4095723628997803
1138,58300.0,-1.0528419017791748,9.554540634155273,-2.3784656524658203
1139,58400.0,-1.0528419017791748,9.554540634155273,-2.3784656524658203
1140,57000.0,-1.0815558433532717,9.442078590393066,-2.4693927764892583
1141,57100.0,-1.0815558433532717,9.442078590393066,-2.4693927764892583
1142,57200.0,-1.057627558708191,9.408578872680664,-2.4598214626312256
1143,57300.0,-1.057627558708191,9.408578872680664,-2.4598214626312256
1144,57400.0,-1.0671988725662231,9.45164966583252,-2.2947168350219727
1145,57500.0,-1.0671988725662231,9.45164966583252,-2.2947168350219727
1146,57600.0,-1.0767701864242554,9.547362327575684,-2.4957141876220703
1147,57700.0,-1.0767701864242554,9.547362327575684,-2.4957141876220703
1148,57800.0,-1.062413215637207,9.401400566101074,-2.421536445617676
1149,57900.0,-1.062413215637207,9.401400566101074,-2.421536445617676
1150,58000.0,-1.043270707130432,9.394222259521484,-2.4095723628997803
1151,58100.0,-1.043270707130432,9.394222259521484,-2.4095723628997803
1152,58200.0,-1.043270707130432,9.394222259521484,-2.4095723628997803
1153,58300.0,-1.0528419017791748,9.554540634155273,-2.3784656524658203
1154,58400.0,-1.0528419017791748,9.554540634155273,-2.3784656524658203
1155,58500.0,-1.0480562448501587,9.611968994140623,-2.3425734043121342
1156,58600.0,-1.0480562448501587,9.611968994140623,-2.3425734043121342
1157,58700.0,-1.043270707130432,9.530611991882324,-2.416750907897949
1158,58800.0,-1.043270707130432,9.530611991882324,-2.416750907897949
1159,58900.0,-1.043270707130432,9.530611991882324,-2.416750907897949
1160,59000.0,-1.0480562448501587,9.394222259521484,-2.4909284114837646
1161,59100.0,-1.0480562448501587,9.394222259521484,-2.4909284114837646
1162,59200.0,-1.0528419017791748,9.489934921264648,-2.3090739250183105
1163,59300.0,-1.0528419017791748,9.489934921264648,-2.3090739250183105
1164,59400.0,-1.0815558433532717,9.463613510131836,-2.335394859313965
1165,59500.0,-1.0815558433532717,9.463613510131836,-2.335394859313965
1166,59600.0,-1.0767701864242554,9.38943576812744,-2.431107759475708
1167,59700.0,-1.0767701864242554,9.38943576812744,-2.431107759475708
1168,59800.0,-1.0767701864242554,9.38943576812744,-2.431107759475708
1169,59900.0,-1.062413215637207,9.528220176696776,-2.421536445617676
1170,58500.0,-1.0480562448501587,9.611968994140623,-2.3425734043121342
1171,58600.0,-1.0480562448501587,9.611968994140623,-2.3425734043121342
1172,58700.0,-1.043270707130432,9.530611991882324,-2.416750907897949
1173,58800.0,-1.043270707130432,9.530611991882324,-2.416750907897949
1174,58900.0,-1.043270707130432,9.530611991882324,-2.416750907897949
1175,59000.0,-1.0480562448501587,9.394222259521484,-2.4909284114837646
1176,59100.0,-1.0480562448501587,9.394222259521484,-2.4909284114837646
1177,59200.0,-1.0528419017791748,9.489934921264648,-2.3090739250183105
1178,59300.0,-1.0528419017791748,9.489934921264648,-2.3090739250183105
1179,59400.0,-1.0815558433532717,9.463613510131836,-2.335394859313965
1180,59500.0,-1.0815558433532717,9.463613510131836,-2.335394859313965
1181,59600.0,-1.0767701864242554,9.38943576812744,-2.431107759475708
1182,59700.0,-1.0767701864242554,9.38943576812744,-2.431107759475708
1183,59800.0,-1.0767701864242554,9.38943576812744,-2.431107759475708
1184,59900.0,-1.062413215637207,9.528220176696776,-2.421536445617676
1185,60000.0,-1.062413215637207,9.528220176696776,-2.421536445617676
1186,60100.0,-1.124626636505127,9.379864692687988,-2.4047868251800537
1187,60200.0,-1.124626636505127,9.379864692687988,-2.4047868251800537
1188,60300.0,-1.244267821311951,9.07119083404541,-2.5004994869232178
1189,60400.0,-1.244267821311951,9.07119083404541,-2.5004994869232178
1190,60500.0,-1.1437692642211914,10.576275825500488,-2.4574286937713623
1191,60600.0,-1.1437692642211914,10.576275825500488,-2.4574286937713623
1192,60700.0,-1.526620864868164,7.152146816253662,-6.429513931274414
1193,60800.0,-1.526620864868164,7.152146816253662,-6.429513931274414
1194,60900.0,-1.526620864868164,7.152146816253662,-6.429513931274414
1195,61000.0,-2.5555346012115483,5.986842632293701,-7.2263240814208975
1196,61100.0,-2.5555346012115483,5.986842632293701,-7.2263240814208975
1197,61200.0,-2.0243279933929443,8.944371223449707,-2.857030153274536
1198,61300.0,-2.0243279933929443,8.944371223449707,-2.857030153274536
1199,61400.0,-1.588834285736084,9.999605178833008,-2.0171494483947754
1200,60000.0,-1.062413215637207,9.528220176696776,-2.421536445617676
1201,60100.0,-1.124626636505127,9.379864692687988,-2.4047868251800537
1202,60200.0,-1.124626636505127,9.379864692687988,-2.4047868251800537
1203,60300.0,-1.244267821311951,9.07119083404541,-2.5004994869232178
1204,60400.0,-1.244267821311951,9.07119083404541,-2.5004994869232178
1205,60500.0,-1.1437692642211914,10.576275825500488,-2.4574286937713623
1206,60600.0,-1.1437692642211914,10.576275825500488,-2.4574286937713623
1207,60700.0,-1.526620864868164,7.152146816253662,-6.429513931274414
1208,60800.0,-1.526620864868164,7.152146816253662,-6.429513931274414
1209,60900.0,-1.526620864868164,7.152146816253662,-6.429513931274414
1210,61000.0,-2.5555346012115483,5.986842632293701,-7.2263240814208975
1211,61100.0,-2.5555346012115483,5.986842632293701,-7.2263240814208975
1212,61200.0,-2.0243279933929443,8.944371223449707,-2.857030153274536
1213,61300.0,-2.0243279933929443,8.944371223449707,-2.857030153274536
1214,61400.0,-1.588834285736084,9.999605178833008,-2.0171494483947754
1215,61500.0,-1.588834285736084,9.999605178833008,-2.0171494483947754
1216,61600.0,-1.588834285736084,9.999605178833008,-2.0171494483947754
1217,61700.0,-1.6654045581817627,9.355937004089355,-1.8281164169311523
1218,61800.0,-1.6654045581817627,9.355937004089355,-1.8281164169311523
1219,61900.0,-1.813759446144104,9.439685821533203,-1.887937068939209
1220,62000.0,-1.813759446144104,9.439685821533203,-1.887937068939209
1221,62100.0,-1.7371891736984253,9.511469841003418,-1.8735800981521609
1222,62200.0,-1.7371891736984253,9.511469841003418,-1.8735800981521609
1223,62300.0,-1.6127625703811646,9.542576789855957,-1.8640089035034182
1224,62400.0,-1.6127625703811646,9.542576789855957,-1.8640089035034182
1225,62500.0,-1.813759446144104,9.535398483276367,-1.9669002294540403
1226,62600.0,-1.813759446144104,9.535398483276367,-1.9669002294540403
1227,62700.0,-1.7132610082626345,9.597611427307127,-1.8305093050003047
1228,62800.0,-1.7132610082626345,9.597611427307127,-1.8305093050003047
1229,62900.0,-1.7132610082626345,9.597611427307127,-1.8305093050003047
1230,61500.0,-1.588834285736084,9.999605178833008,-2.0171494483947754
1231,61600.0,-1.588834285736084,9.999605178833008,-2.0171494483947754
1232,61700.0,-1.6654045581817627,9.355937004089355,-1.8281164169311523
1233,61800.0,-1.6654045581817627,9.355937004089355,-1.8281164169311523
1234,61900.0,-1.813759446144104,9.439685821533203,-1.887937068939209
1235,62000.0,-1.813759446144104,9.439685821533203,-1.887937068939209
1236,62100.0,-1.7371891736984253,9.511469841003418,-1.8735800981521609
1237,62200.0,-1.7371891736984253,9.511469841003418,-1.8735800981521609
1238,62300.0,-1.6127625703811646,9.542576789855957,-1.8640089035034182
1239,62400.0,-1.6127625703811646,9.542576789855957,-1.8640089035034182
1240,62500.0,-1.813759446144104,9.535398483276367,-1.9669002294540403
1241,62600.0,-1.813759446144104,9.535398483276367,-1.9669002294540403
1242,62700.0,-1.7132610082626345,9.597611427307127,-1.8305093050003047
1243,62800.0,-1.7132610082626345,9.597611427307127,-1.8305093050003047
1244,62900.0,-1.7132610082626345,9.597611427307127,-1.8305093050003047
1245,63000.0,-1.6701902151107788,9.449256896972656,-1.8544375896453855
1246,63100.0,-1.6701902151107788,9.449256896972656,-1.8544375896453855
1247,63200.0,-1.9908283948898315,9.985249519348145,-0.8853443264961243
1248,63300.0,-1.9908283948898315,9.985249519348145,-0.8853443264961243
1249,63400.0,-1.5553346872329712,5.151747226715088,-7.2263240814208975
1250,63500.0,-1.5553346872329712,5.151747226715088,-7.2263240814208975
1251,63600.0,-1.5553346872329712,5.151747226715088,-7.2263240814208975
1252,63700.0,-1.6271194219589231,4.759324073791504,-7.58524751663208
1253,63800.0,-1.6271194219589231,4.759324073791504,-7.58524751663208
1254,63900.0,0.17706887423992154,5.237888813018799,-7.118647575378418
1255,64000.0,0.17706887423992154,5.237888813018799,-7.118647575378418
1256,64100.0,-0.784845769405365,12.705887794494627,3.002992391586304
1257,64200.0,-0.784845769405365,12.705887794494627,3.002992391586304
1258,64300.0,-0.033499516546726234,8.800802230834961,-0.15553347766399386
1259,64400.0,-0.033499516546726234,8.800802230834961,-0.15553347766399386
1260,63000.0,-1.6701902151107788,9.449256896972656,-1.8544375896453855
1261,63100.0,-1.6701902151107788,9.449256896972656,-1.8544375896453855
1262,63200.0,-1.9908283948898315,9.985249519348145,-0.8853443264961243
1263,63300.0,-1.9908283948898315,9.985249519348145,-0.8853443264961243
1264,63400.0,-1.5553346872329712,5.151747226715088,-7.2263240814208975
1265,63500.0,-1.5553346872329712,5.151747226715088,-7.2263240814208975
1266,63600.0,-1.5553346872329712,5.151747226715088,-7.2263240814208975
1267,63700.0,-1.6271194219589231,4.759324073791504,-7.58524751663208
1268,63800.0,-1.6271194219589231,4.759324073791504,-7.58524751663208
1269,63900.0,0.17706887423992154,5.237888813018799,-7.118647575378418
1270,64000.0,0.17706887423992154,5.237888813018799,-7.118647575378418
1271,64100.0,-0.784845769405365,12.705887794494627,3.002992391586304
1272,64200.0,-0.784845769405365,12.705887794494627,3.002992391586304
1273,64300.0,-0.033499516546726234,8.800802230834961,-0.15553347766399386
1274,64400.0,-0.033499516546726234,8.800802230834961,-0.15553347766399386
1275,64500.0,-0.4259224236011505,10.971091270446776,-0.23688943684101105
1276,64600.0,-0.4259224236011505,10.971091270446776,-0.23688943684101105
1277,64700.0,-0.2919243574142456,10.047462463378906,-0.6580261588096619
1278,64800.0,-0.2919243574142456,10.047462463378906,-0.6580261588096619
1279,64900.0,-0.2919243574142456,10.047462463378906,-0.6580261588096619
1280,65000.0,-0.4546363055706024,9.882357597351074,-0.6604190468788147
1281,65100.0,-0.4546363055706024,9.882357597351074,-0.6604190468788147
1282,65200.0,0.057427741587162025,10.310672760009766,-0.5862415432929993
1283,65300.0,0.057427741587162025,10.310672760009766,-0.5862415432929993
1284,65400.0,-0.27756744623184204,10.609774589538574,-0.9475577473640442
1285,65500.0,-0.27756744623184204,10.609774589538574,-0.9475577473640442
1286,65600.0,-0.27756744623184204,10.609774589538574,-0.9475577473640442
1287,65700.0,-0.2871387302875519,9.899106979370117,-0.5790630578994751
1288,65800.0,-0.2871387302875519,9.899106979370117,-0.5790630578994751
1289,65900.0,-0.14835500717163086,9.949356079101562,-0.8853443264961243
1290,64500.0,-0.4259224236011505,10.971091270446776,-0.23688943684101105
1291,64600.0,-0.4259224236011505,10.971091270446776,-0.23688943684101105
1292,64700.0,-0.2919243574142456,10.047462463378906,-0.6580261588096619
1293,64800.0,-0.2919243574142456,10.047462463378906,-0.6580261588096619
1294,64900.0,-0.2919243574142456,10.047462463378906,-0.6580261588096619
1295,65000.0,-0.4546363055706024,9.882357597351074,-0.6604190468788147
1296,65100.0,-0.4546363055706024,9.882357597351074,-0.6604190468788147
1297,65200.0,0.057427741587162025,10.310672760009766,-0.5862415432929993
1298,65300.0,0.057427741587162025,10.310672760009766,-0.5862415432929993
1299,65400.0,-0.27756744623184204,10.609774589538574,-0.9475577473640442
1300,65500.0,-0.27756744623184204,10.609774589538574,-0.9475577473640442
1301,65600.0,-0.27756744623184204,10.609774589538574,-0.9475577473640442
1302,65700.0,-0.2871387302875519,9.899106979370117,-0.5790630578994751
1303,65800.0,-0.2871387302875519,9.899106979370117,-0.5790630578994751
1304,65900.0,-0.14835500717163086,9.949356079101562,-0.8853443264961243
1305,66000.0,-0.14835500717163086,9.949356079101562,-0.8853443264961243
1306,66100.0,-0.1579262912273407,9.633503913879396,-0.6101697683334351
1307,66200.0,-0.1579262912273407,9.633503913879396,-0.6101697683334351
1308,66300.0,-0.14356936514377594,9.628718376159668,-0.7178468108177185
1309,66400.0,-0.14356936514377594,9.628718376159668,-0.7178468108177185
1310,66500.0,-0.3397807776927948,9.920641899108887,-0.6293123364448547
1311,66600.0,-0.3397807776927948,9.920641899108887,-0.6293123364448547
1312,66700.0,-0.3397807776927948,9.920641899108887,-0.6293123364448547
1313,66800.0,-0.028713870793581012,10.384849548339844,-1.3423734903335571
1314,66900.0,-0.028713870793581012,10.384849548339844,-1.3423734903335571
1315,67000.0,-0.6843472719192505,9.54496955871582,-3.603590488433838
1316,67100.0,-0.6843472719192505,9.54496955871582,-3.603590488433838
1317,67200.0,-3.4073793888092037,6.8721866607666025,-6.592226982116699
1318,67300.0,-3.4073793888092037,6.8721866607666025,-6.592226982116699
1319,67400.0,-3.4073793888092037,6.8721866607666025,-6.592226982116699
1320,66000.0,-0.14835500717163086,9.949356079101562,-0.8853443264961243
1321,66100.0,-0.1579262912273407,9.633503913879396,-0.6101697683334351
1322,66200.0,-0.1579262912273407,9.633503913879396,-0.6101697683334351
1323,66300.0,-0.14356936514377594,9.628718376159668,-0.7178468108177185
1324,66400.0,-0.14356936514377594,9.628718376159668,-0.7178468108177185
1325,66500.0,-0.3397807776927948,9.920641899108887,-0.6293123364448547
1326,66600.0,-0.3397807776927948,9.920641899108887,-0.6293123364448547
1327,66700.0,-0.3397807776927948,9.920641899108887,-0.6293123364448547
1328,66800.0,-0.028713870793581012,10.384849548339844,-1.3423734903335571
1329,66900.0,-0.028713870793581012,10.384849548339844,-1.3423734903335571
1330,67000.0,-0.6843472719192505,9.54496955871582,-3.603590488433838
1331,67100.0,-0.6843472719192505,9.54496955871582,-3.603590488433838
1332,67200.0,-3.4073793888092037,6.8721866607666025,-6.592226982116699
1333,67300.0,-3.4073793888092037,6.8721866607666025,-6.592226982116699
1334,67400.0,-3.4073793888092037,6.8721866607666025,-6.592226982116699
1335,67500.0,-0.9858429431915284,7.137789726257324,-1.6797614097595217
1336,67600.0,-0.9858429431915284,7.137789726257324,-1.6797614097595217
1337,67700.0,-1.34476637840271,6.7860450744628915,-10.518847465515137
1338,67800.0,-1.34476637840271,6.7860450744628915,-10.518847465515137
1339,67900.0,-0.25363919138908386,9.343972206115724,0.04307081177830696
1340,68000.0,-0.25363919138908386,9.343972206115724,0.04307081177830696
1341,68100.0,-0.35413774847984314,9.71485996246338,0.9188438653945924
1342,68200.0,-0.35413774847984314,9.71485996246338,0.9188438653945924
1343,68300.0,-0.014356935396790503,9.652647018432617,-0.36370906233787537
1344,68400.0,-0.014356935396790503,9.652647018432617,-0.36370906233787537
1345,68500.0,-0.014356935396790503,9.652647018432617,-0.36370906233787537
1346,68600.0,-0.2105683833360672,9.90389347076416,-0.6532405614852905
1347,68700.0,-0.2105683833360672,9.90389347076416,-0.6532405614852905
1348,68800.0,-0.11964112520217896,9.846465110778807,-0.8039883971214294
1349,68900.0,-0.11964112520217896,9.846465110778807,-0.8039883971214294
1350,67500.0,-0.9858429431915284,7.137789726257324,-1.6797614097595217
1351,67600.0,-0.9858429431915284,7.137789726257324,-1.6797614097595217
1352,67700.0,-1.34476637840271,6.7860450744628915,-10.518847465515137
1353,67800.0,-1.34476637840271,6.7860450744628915,-10.518847465515137
1354,67900.0,-0.25363919138908386,9.343972206115724,0.04307081177830696
1355,68000.0,-0.25363919138908386,9.343972206115724,0.04307081177830696
1356,68100.0,-0.35413774847984314,9.71485996246338,0.9188438653945924
1357,68200.0,-0.35413774847984314,9.71485996246338,0.9188438653945924
1358,68300.0,-0.014356935396790503,9.652647018432617,-0.36370906233787537
1359,68400.0,-0.014356935396790503,9.652647018432617,-0.36370906233787537
1360,68500.0,-0.014356935396790503,9.652647018432617,-0.36370906233787537
1361,68600.0,-0.2105683833360672,9.90389347076416,-0.6532405614852905
1362,68700.0,-0.2105683833360672,9.90389347076416,-0.6532405614852905
1363,68800.0,-0.11964112520217896,9.846465110778807,-0.8039883971214294
1364,68900.0,-0.11964112520217896,9.846465110778807,-0.8039883971214294
1365,69000.0,-0.11964112520217896,9.846465110778807,-0.8039883971214294
1366,69100.0,-0.1866401582956314,9.762716293334961,-0.8207381367683411
1367,69200.0,-0.1866401582956314,9.762716293334961,-0.8207381367683411
1368,69300.0,-0.2297109663486481,9.753145217895508,-0.763310432434082
1369,69400.0,-0.2297109663486481,9.753145217895508,-0.763310432434082
1370,69500.0,-0.20099709928035736,9.803394317626953,-0.8422735333442688
1371,69600.0,-0.20099709928035736,9.803394317626953,-0.8422735333442688
1372,69700.0,-0.2105683833360672,9.839285850524902,-0.8111668825149536
1373,69800.0,-0.2105683833360672,9.839285850524902,-0.8111668825149536
1374,69900.0,-0.2488535493612289,9.827322006225586,-0.7393822073936462
1375,70000.0,-0.2488535493612289,9.827322006225586,-0.7393822073936462
1376,70100.0,-0.2488535493612289,9.827322006225586,-0.7393822073936462
1377,70200.0,-0.2488535493612289,9.77707290649414,-0.784845769405365
1378,70300.0,-0.2488535493612289,9.77707290649414,-0.784845769405365
1379,70400.0,-0.15314064919948578,9.767501831054688,-0.8638089299201965
1380,69000.0,-0.11964112520217896,9.846465110778807,-0.8039883971214294
1381,69100.0,-0.1866401582956314,9.762716293334961,-0.8207381367683411
1382,69200.0,-0.1866401582956314,9.762716293334961,-0.8207381367683411
1383,69300.0,-0.2297109663486481,9.753145217895508,-0.763310432434082
1384,69400.0,-0.2297109663486481,9.753145217895508,-0.763310432434082
1385,69500.0,-0.20099709928035736,9.803394317626953,-0.8422735333442688
1386,69600.0,-0.20099709928035736,9.803394317626953,-0.8422735333442688
1387,69700.0,-0.2105683833360672,9.839285850524902,-0.8111668825149536
1388,69800.0,-0.2105683833360672,9.839285850524902,-0.8111668825149536
1389,69900.0,-0.2488535493612289,9.827322006225586,-0.7393822073936462
1390,70000.0,-0.2488535493612289,9.827322006225586,-0.7393822073936462
1391,70100.0,-0.2488535493612289,9.827322006225586,-0.7393822073936462
1392,70200.0,-0.2488535493612289,9.77707290649414,-0.784845769405365
1393,70300.0,-0.2488535493612289,9.77707290649414,-0.784845769405365
1394,70400.0,-0.15314064919948578,9.767501831054688,-0.8638089299201965
1395,70500.0,-0.15314064919948578,9.767501831054688,-0.8638089299201965
1396,70600.0,-0.22492533922195435,9.789037704467773,-0.6867401003837585
1397,70700.0,-0.22492533922195435,9.789037704467773,-0.6867401003837585
1398,70800.0,-0.22492533922195435,9.789037704467773,-0.6867401003837585
1399,70900.0,-0.3397807776927948,9.731609344482422,-0.8350951075553894
1400,71000.0,-0.3397807776927948,9.731609344482422,-0.8350951075553894
1401,71100.0,0.057427741587162025,9.827322006225586,-0.6484549045562744
1402,71200.0,0.057427741587162025,9.827322006225586,-0.6484549045562744
1403,71300.0,-0.2967100143432617,9.360722541809082,-1.3950155973434448
1404,71400.0,-0.2967100143432617,9.360722541809082,-1.3950155973434448
1405,71500.0,0.01914258114993572,9.738788604736328,-1.0887343883514404
1406,71600.0,0.01914258114993572,9.738788604736328,-1.0887343883514404
1407,71700.0,0.01914258114993572,9.738788604736328,-1.0887343883514404
1408,71800.0,0.2679961323738098,9.848857879638672,-1.0552347898483276
1409,71900.0,0.2679961323738098,9.848857879638672,-1.0552347898483276
1410,70500.0,-0.15314064919948578,9.767501831054688,-0.8638089299201965
1411,70600.0,-0.22492533922195435,9.789037704467773,-0.6867401003837585
1412,70700.0,-0.22492533922195435,9.789037704467773,-0.6867401003837585
1413,70800.0,-0.22492533922195435,9.789037704467773,-0.6867401003837585
1414,70900.0,-0.3397807776927948,9.731609344482422,-0.8350951075553894
1415,71000.0,-0.3397807776927948,9.731609344482422,-0.8350951075553894
1416,71100.0,0.057427741587162025,9.827322006225586,-0.6484549045562744
1417,71200.0,0.057427741587162025,9.827322006225586,-0.6484549045562744
1418,71300.0,-0.2967100143432617,9.360722541809082,-1.3950155973434448
1419,71400.0,-0.2967100143432617,9.360722541809082,-1.3950155973434448
1420,71500.0,0.01914258114993572,9.738788604736328,-1.0887343883514404
1421,71600.0,0.01914258114993572,9.738788604736328,-1.0887343883514404
1422,71700.0,0.01914258114993572,9.738788604736328,-1.0887343883514404
1423,71800.0,0.2679961323738098,9.848857879638672,-1.0552347898483276
1424,71900.0,0.2679961323738098,9.848857879638672,-1.0552347898483276
1425,72000.0,-0.0047856452874839315,9.743573188781738,-1.1341978311538696
1426,72100.0,-0.0047856452874839315,9.743573188781738,-1.1341978311538696
1427,72200.0,-0.0047856452874839315,9.743573188781738,-1.1341978311538696
1428,72300.0,-0.09571290016174316,9.860822677612305,-1.2323036193847656
1429,72400.0,-0.09571290016174316,9.860822677612305,-1.2323036193847656
1430,72500.0,-0.1052841916680336,9.68375301361084,-1.107876896858215
1431,72600.0,-0.1052841916680336,9.68375301361084,-1.107876896858215
1432,72700.0,-0.09571290016174316,9.81535816192627,-1.1365907192230225
1433,72800.0,-0.09571290016174316,9.81535816192627,-1.1365907192230225
1434,72900.0,-0.11485548317432405,9.724431037902832,-1.0480562448501587
1435,73000.0,-0.11485548317432405,9.724431037902832,-1.0480562448501587
1436,73100.0,-0.19621144235134125,9.753145217895508,-1.1365907192230225
1437,73200.0,-0.19621144235134125,9.753145217895508,-1.1365907192230225
1438,73300.0,-0.19621144235134125,9.753145217895508,-1.1365907192230225
1439,73400.0,0.04307081177830696,10.521241188049316,-1.0983055830001829
1440,72000.0,-0.0047856452874839315,9.743573188781738,-1.1341978311538696
1441,72100.0,-0.0047856452874839315,9.743573188781738,-1.1341978311538696
1442,72200.0,-0.0047856452874839315,9.743573188781738,-1.1341978311538696
1443,72300.0,-0.09571290016174316,9.860822677612305,-1.2323036193847656
1444,72400.0,-0.09571290016174316,9.860822677612305,-1.2323036193847656
1445,72500.0,-0.1052841916680336,9.68375301361084,-1.107876896858215
1446,72600.0,-0.1052841916680336,9.68375301361084,-1.107876896858215
1447,72700.0,-0.09571290016174316,9.81535816192627,-1.1365907192230225
1448,72800.0,-0.09571290016174316,9.81535816192627,-1.1365907192230225
1449,72900.0,-0.11485548317432405,9.724431037902832,-1.0480562448501587
1450,73000.0,-0.11485548317432405,9.724431037902832,-1.0480562448501587
1451,73100.0,-0.19621144235134125,9.753145217895508,-1.1365907192230225
1452,73200.0,-0.19621144235134125,9.753145217895508,-1.1365907192230225
1453,73300.0,-0.19621144235134125,9.753145217895508,-1.1365907192230225
1454,73400.0,0.04307081177830696,10.521241188049316,-1.0983055830001829
1455,73500.0,0.04307081177830696,10.521241188049316,-1.0983055830001829
1456,73600.0,-0.4833501875400543,11.073983192443848,-1.6031911373138428
1457,73700.0,-0.4833501875400543,11.073983192443848,-1.6031911373138428
1458,73800.0,-0.4833501875400543,11.073983192443848,-1.6031911373138428
1459,73900.0,-1.938186287879944,8.721837997436522,-1.459621787071228
1460,74000.0,-1.938186287879944,8.721837997436522,-1.459621787071228
1461,74100.0,-1.5744771957397459,9.253045082092283,-2.0721843242645264
1462,74200.0,-1.5744771957397459,9.253045082092283,-2.0721843242645264
1463,74300.0,-3.058027505874634,7.781459331512451,-2.25403904914856
1464,74400.0,-3.058027505874634,7.781459331512451,-2.25403904914856
1465,74500.0,-3.2829525470733643,7.743173599243164,-2.548356056213379
1466,74600.0,-3.2829525470733643,7.743173599243164,-2.548356056213379
1467,74700.0,-1.3782659769058228,10.195816040039062,-2.1990041732788086
1468,74800.0,-1.3782659769058228,10.195816040039062,-2.1990041732788086
1469,74900.0,-2.0961124897003174,10.906485557556152,-1.5218352079391482
1470,73500.0,0.04307081177830696,10.521241188049316,-1.0983055830001829
1471,73600.0,-0.4833501875400543,11.073983192443848,-1.6031911373138428
1472,73700.0,-0.4833501875400543,11.073983192443848,-1.6031911373138428
1473,73800.0,-0.4833501875400543,11.073983192443848,-1.6031911373138428
1474,73900.0,-1.938186287879944,8.721837997436522,-1.459621787071228
1475,74000.0,-1.938186287879944,8.721837997436522,-1.459621787071228
1476,74100.0,-1.5744771957397459,9.253045082092283,-2.0721843242645264
1477,74200.0,-1.5744771957397459,9.253045082092283,-2.0721843242645264
1478,74300.0,-3.058027505874634,7.781459331512451,-2.25403904914856
1479,74400.0,-3.058027505874634,7.781459331512451,-2.25403904914856
1480,74500.0,-3.2829525470733643,7.743173599243164,-2.548356056213379
1481,74600.0,-3.2829525470733643,7.743173599243164,-2.548356056213379
1482,74700.0,-1.3782659769058228,10.195816040039062,-2.1990041732788086
1483,74800.0,-1.3782659769058228,10.195816040039062,-2.1990041732788086
1484,74900.0,-2.0961124897003174,10.906485557556152,-1.5218352079391482
1485,75000.0,-2.0961124897003174,10.906485557556152,-1.5218352079391482
1486,75100.0,-2.0961124897003174,10.906485557556152,-1.5218352079391482
1487,75200.0,-1.9621145725250244,9.93978500366211,-2.2923240661621094
1488,75300.0,-1.9621145725250244,9.93978500366211,-2.2923240661621094
1489,75400.0,-2.0721843242645264,9.119047164916992,-2.167897224426269
1490,75500.0,-2.0721843242645264,9.119047164916992,-2.167897224426269
1491,75600.0,-2.416750907897949,9.35832977294922,-2.3306093215942383
1492,75700.0,-2.416750907897949,9.35832977294922,-2.3306093215942383
1493,75800.0,-1.5649060010910034,9.322437286376953,-2.0865414142608643
1494,75900.0,-1.5649060010910034,9.322437286376953,-2.0865414142608643
1495,76000.0,-1.5649060010910034,9.322437286376953,-2.0865414142608643
1496,76100.0,-1.8759729862213133,10.01874828338623,-1.6127625703811646
1497,76200.0,-1.8759729862213133,10.01874828338623,-1.6127625703811646
1498,76300.0,-1.65583336353302,9.681360244750977,-2.1200408935546875
1499,76400.0,-1.65583336353302,9.681360244750977,-2.1200408935546875
1500,75000.0,-2.0961124897003174,10.906485557556152,-1.5218352079391482
1501,75100.0,-2.0961124897003174,10.906485557556152,-1.5218352079391482
1502,75200.0,-1.9621145725250244,9.93978500366211,-2.2923240661621094
1503,75300.0,-1.9621145725250244,9.93978500366211,-2.2923240661621094
1504,75400.0,-2.0721843242645264,9.119047164916992,-2.167897224426269
1505,75500.0,-2.0721843242645264,9.119047164916992,-2.167897224426269
1506,75600.0,-2.416750907897949,9.35832977294922,-2.3306093215942383
1507,75700.0,-2.416750907897949,9.35832977294922,-2.3306093215942383
1508,75800.0,-1.5649060010910034,9.322437286376953,-2.0865414142608643
1509,75900.0,-1.5649060010910034,9.322437286376953,-2.0865414142608643
1510,76000.0,-1.5649060010910034,9.322437286376953,-2.0865414142608643
1511,76100.0,-1.8759729862213133,10.01874828338623,-1.6127625703811646
1512,76200.0,-1.8759729862213133,10.01874828338623,-1.6127625703811646
1513,76300.0,-1.65583336353302,9.681360244750977,-2.1200408935546875
1514,76400.0,-1.65583336353302,9.681360244750977,-2.1200408935546875
1515,76500.0,-1.65583336353302,9.681360244750977,-2.1200408935546875
1516,76600.0,-1.7036896944046018,9.688538551330566,-1.9860427379608157
1517,76700.0,-1.7036896944046018,9.688538551330566,-1.9860427379608157
1518,76800.0,-1.5553346872329712,9.430113792419434,-2.091326951980591
1519,76900.0,-1.5553346872329712,9.430113792419434,-2.091326951980591
1520,77000.0,-1.430907964706421,9.67657470703125,-2.0147566795349117
1521,77100.0,-1.430907964706421,9.67657470703125,-2.0147566795349117
1522,77200.0,-1.5601203441619873,9.463613510131836,-2.0554347038269043
1523,77300.0,-1.5601203441619873,9.463613510131836,-2.0554347038269043
1524,77400.0,-1.5409778356552124,9.485149383544922,-2.057827472686768
1525,77500.0,-1.5409778356552124,9.485149383544922,-2.057827472686768
1526,77600.0,-1.5409778356552124,9.485149383544922,-2.057827472686768
1527,77700.0,-1.497907042503357,9.458827018737793,-2.0865414142608643
1528,77800.0,-1.497907042503357,9.458827018737793,-2.0865414142608643
1529,77900.0,-1.5361920595169067,9.554540634155273,-2.0410776138305664
1530,76500.0,-1.65583336353302,9.681360244750977,-2.1200408935546875
1531,76600.0,-1.7036896944046018,9.688538551330566,-1.9860427379608157
1532,76700.0,-1.7036896944046018,9.688538551330566,-1.9860427379608157
1533,76800.0,-1.5553346872329712,9.430113792419434,-2.091326951980591
1534,76900.0,-1.5553346872329712,9.430113792419434,-2.091326951980591
1535,77000.0,-1.430907964706421,9.67657470703125,-2.0147566795349117
1536,77100.0,-1.430907964706421,9.67657470703125,-2.0147566795349117
1537,77200.0,-1.5601203441619873,9.463613510131836,-2.0554347038269043
1538,77300.0,-1.5601203441619873,9.463613510131836,-2.0554347038269043
1539,77400.0,-1.5409778356552124,9.485149383544922,-2.057827472686768
1540,77500.0,-1.5409778356552124,9.485149383544922,-2.057827472686768
1541,77600.0,-1.5409778356552124,9.485149383544922,-2.057827472686768
1542,77700.0,-1.497907042503357,9.458827018737793,-2.0865414142608643
1543,77800.0,-1.497907042503357,9.458827018737793,-2.0865414142608643
1544,77900.0,-1.5361920595169067,9.554540634155273,-2.0410776138305664
1545,78000.0,-1.5361920595169067,9.554540634155273,-2.0410776138305664
1546,78100.0,-1.4787644147872925,9.540184020996094,-2.0745770931243896
1547,78200.0,-1.4787644147872925,9.540184020996094,-2.0745770931243896
1548,78300.0,-1.392622709274292,9.482755661010742,-2.084148406982422
1549,78400.0,-1.392622709274292,9.482755661010742,-2.084148406982422
1550,78500.0,-1.392622709274292,9.482755661010742,-2.084148406982422
1551,78600.0,-1.4021940231323242,9.480363845825195,-2.1391832828521733
1552,78700.0,-1.4021940231323242,9.480363845825195,-2.1391832828521733
1553,78800.0,-1.5744771957397459,9.51386260986328,-2.148754596710205
1554,78900.0,-1.5744771957397459,9.51386260986328,-2.148754596710205
1555,79000.0,-1.411765456199646,9.607183456420898,-2.062613010406494
1556,79100.0,-1.411765456199646,9.607183456420898,-2.062613010406494
1557,79200.0,-1.4356936216354368,9.585646629333496,-2.0865414142608643
1558,79300.0,-1.4356936216354368,9.585646629333496,-2.0865414142608643
1559,79400.0,-1.4356936216354368,9.585646629333496,-2.0865414142608643
1560,78000.0,-1.5361920595169067,9.554540634155273,-2.0410776138305664
1561,78100.0,-1.4787644147872925,9.540184020996094,-2.0745770931243896
1562,78200.0,-1.4787644147872925,9.540184020996094,-2.0745770931243896
1563,78300.0,-1.392622709274292,9.482755661010742,-2.084148406982422
1564,78400.0,-1.392622709274292,9.482755661010742,-2.084148406982422
1565,78500.0,-1.392622709274292,9.482755661010742,-2.084148406982422
1566,78600.0,-1.4021940231323242,9.480363845825195,-2.1391832828521733
1567,78700.0,-1.4021940231323242,9.480363845825195,-2.1391832828521733
1568,78800.0,-1.5744771957397459,9.51386260986328,-2.148754596710205
1569,78900.0,-1.5744771957397459,9.51386260986328,-2.148754596710205
1570,79000.0,-1.411765456199646,9.607183456420898,-2.062613010406494
1571,79100.0,-1.411765456199646,9.607183456420898,-2.062613010406494
1572,79200.0,-1.4356936216354368,9.585646629333496,-2.0865414142608643
1573,79300.0,-1.4356936216354368,9.585646629333496,-2.0865414142608643
1574,79400.0,-1.4356936216354368,9.585646629333496,-2.0865414142608643
1575,79500.0,-1.3878371715545654,9.473184585571287,-2.1128623485565186
1576,79600.0,-1.3878371715545654,9.473184585571287,-2.1128623485565186
1577,79700.0,-1.4452648162841797,9.34157943725586,-2.053041696548462
1578,79800.0,-1.4452648162841797,9.34157943725586,-2.053041696548462
1579,79900.0,-1.4835500717163086,9.494720458984377,-2.115255117416382
1580,80000.0,-1.4835500717163086,9.494720458984377,-2.115255117416382
1581,80100.0,-1.4835500717163086,9.494720458984377,-2.115255117416382
1582,80200.0,-1.430907964706421,9.499505043029783,-2.053041696548462
1583,80300.0,-1.430907964706421,9.499505043029783,-2.053041696548462
1584,80400.0,-1.4452648162841797,9.523433685302734,-2.115255117416382
1585,80500.0,-1.4452648162841797,9.523433685302734,-2.115255117416382
1586,80600.0,-1.392622709274292,9.506684303283693,-2.187039852142334
1587,80700.0,-1.392622709274292,9.506684303283693,-2.187039852142334
1588,80800.0,-1.392622709274292,9.506684303283693,-2.187039852142334
1589,80900.0,-1.1724830865859983,9.305686950683594,-2.0195422172546387
1590,79500.0,-1.3878371715545654,9.473184585571287,-2.1128623485565186
1591,79600.0,-1.3878371715545654,9.473184585571287,-2.1128623485565186
1592,79700.0,-1.4452648162841797,9.34157943725586,-2.053041696548462
1593,79800.0,-1.4452648162841797,9.34157943725586,-2.053041696548462
1594,79900.0,-1.4835500717163086,9.494720458984377,-2.115255117416382
1595,80000.0,-1.4835500717163086,9.494720458984377,-2.115255117416382
1596,80100.0,-1.4835500717163086,9.494720458984377,-2.115255117416382
1597,80200.0,-1.430907964706421,9.499505043029783,-2.053041696548462
1598,80300.0,-1.430907964706421,9.499505043029783,-2.053041696548462
1599,80400.0,-1.4452648162841797,9.523433685302734,-2.115255117416382
1600,80500.0,-1.4452648162841797,9.523433685302734,-2.115255117416382
1601,80600.0,-1.392622709274292,9.506684303283693,-2.187039852142334
1602,80700.0,-1.392622709274292,9.506684303283693,-2.187039852142334
1603,80800.0,-1.392622709274292,9.506684303283693,-2.187039852142334
1604,80900.0,-1.1724830865859983,9.305686950683594,-2.0195422172546387
1605,81000.0,-1.1724830865859983,9.305686950683594,-2.0195422172546387
1606,81100.0,-1.4021940231323242,9.535398483276367,-2.0769701004028316
1607,81200.0,-1.4021940231323242,9.535398483276367,-2.0769701004028316
1608,81300.0,-1.5218352079391482,9.614361763000488,-2.423929214477539
1609,81400.0,-1.5218352079391482,9.614361763000488,-2.423929214477539
1610,81500.0,-1.8520447015762331,6.4869422912597665,-5.946164608001709
1611,81600.0,-1.8520447015762331,6.4869422912597665,-5.946164608001709
1612,81700.0,-1.7563319206237793,7.724031925201416,-5.9126644134521475
1613,81800.0,-1.7563319206237793,7.724031925201416,-5.9126644134521475
1614,81900.0,-1.7563319206237793,7.724031925201416,-5.9126644134521475
1615,82000.0,-2.445464611053467,6.154339790344237,-6.996613025665282
1616,82100.0,-2.445464611053467,6.154339790344237,-6.996613025665282
1617,82200.0,-2.426322221755981,4.0079779624938965,-8.444271087646483
1618,82300.0,-2.426322221755981,4.0079779624938965,-8.444271087646483
1619,82400.0,-2.565105676651001,4.534398555755615,-8.427520751953125
1620,81000.0,-1.1724830865859983,9.305686950683594,-2.0195422172546387
1621,81100.0,-1.4021940231323242,9.535398483276367,-2.0769701004028316
1622,81200.0,-1.4021940231323242,9.535398483276367,-2.0769701004028316
1623,81300.0,-1.5218352079391482,9.614361763000488,-2.423929214477539
1624,81400.0,-1.5218352079391482,9.614361763000488,-2.423929214477539
1625,81500.0,-1.8520447015762331,6.4869422912597665,-5.946164608001709
1626,81600.0,-1.8520447015762331,6.4869422912597665,-5.946164608001709
1627,81700.0,-1.7563319206237793,7.724031925201416,-5.9126644134521475
1628,81800.0,-1.7563319206237793,7.724031925201416,-5.9126644134521475
1629,81900.0,-1.7563319206237793,7.724031925201416,-5.9126644134521475
1630,82000.0,-2.445464611053467,6.154339790344237,-6.996613025665282
1631,82100.0,-2.445464611053467,6.154339790344237,-6.996613025665282
1632,82200.0,-2.426322221755981,4.0079779624938965,-8.444271087646483
1633,82300.0,-2.426322221755981,4.0079779624938965,-8.444271087646483
1634,82400.0,-2.565105676651001,4.534398555755615,-8.427520751953125
1635,82500.0,-2.565105676651001,4.534398555755615,-8.427520751953125
1636,82600.0,-2.565105676651001,4.534398555755615,-8.427520751953125
1637,82700.0,-2.5363922119140625,4.390829563140868,-8.169095993041992
1638,82800.0,-2.5363922119140625,4.390829563140868,-8.169095993041992
1639,82900.0,-2.651247262954712,4.290330886840819,-8.295915603637695
1640,83000.0,-2.651247262954712,4.290330886840819,-8.295915603637695
1641,83100.0,-2.8713872432708736,4.366901397705078,-8.35573673248291
1642,83200.0,-2.8713872432708736,4.366901397705078,-8.35573673248291
1643,83300.0,-2.531606435775757,3.462414264678955,-8.066205024719237
1644,83400.0,-2.531606435775757,3.462414264678955,-8.066205024719237
1645,83500.0,-3.10109806060791,4.060619831085205,-8.360522270202638
1646,83600.0,-3.10109806060791,4.060619831085205,-8.360522270202638
1647,83700.0,-3.10109806060791,4.060619831085205,-8.360522270202638
1648,83800.0,-3.16331148147583,3.2255251407623287,-7.666603565216064
1649,83900.0,-3.16331148147583,3.2255251407623287,-7.666603565216064
1650,82500.0,-2.565105676651001,4.534398555755615,-8.427520751953125
1651,82600.0,-2.565105676651001,4.534398555755615,-8.427520751953125
1652,82700.0,-2.5363922119140625,4.390829563140868,-8.169095993041992
1653,82800.0,-2.5363922119140625,4.390829563140868,-8.169095993041992
1654,82900.0,-2.651247262954712,4.290330886840819,-8.295915603637695
1655,83000.0,-2.651247262954712,4.290330886840819,-8.295915603637695
1656,83100.0,-2.8713872432708736,4.366901397705078,-8.35573673248291
1657,83200.0,-2.8713872432708736,4.366901397705078,-8.35573673248291
1658,83300.0,-2.531606435775757,3.462414264678955,-8.066205024719237
1659,83400.0,-2.531606435775757,3.462414264678955,-8.066205024719237
1660,83500.0,-3.10109806060791,4.060619831085205,-8.360522270202638
1661,83600.0,-3.10109806060791,4.060619831085205,-8.360522270202638
1662,83700.0,-3.10109806060791,4.060619831085205,-8.360522270202638
1663,83800.0,-3.16331148147583,3.2255251407623287,-7.666603565216064
1664,83900.0,-3.16331148147583,3.2255251407623287,-7.666603565216064
1665,84000.0,-3.2829525470733643,3.6323046684265137,-8.12841796875
1666,84100.0,-3.2829525470733643,3.6323046684265137,-8.12841796875
1667,84200.0,-3.2829525470733643,3.6323046684265137,-8.12841796875
1668,84300.0,-3.369094133377075,4.292723655700684,-8.018348693847656
1669,84400.0,-3.369094133377075,4.292723655700684,-8.018348693847656
1670,84500.0,-3.206382274627685,7.968099594116211,-4.60857629776001
1671,84600.0,-3.206382274627685,7.968099594116211,-4.60857629776001
1672,84700.0,-3.062812805175781,8.018348693847656,-4.357330322265625
1673,84800.0,-3.062812805175781,8.018348693847656,-4.357330322265625
1674,84900.0,-3.081955671310425,8.372486114501951,-4.780859470367432
1675,85000.0,-3.081955671310425,8.372486114501951,-4.780859470367432
1676,85100.0,-3.081955671310425,8.372486114501951,-4.780859470367432
1677,85200.0,-3.235095977783203,5.8887367248535165,-7.324430465698242
1678,85300.0,-3.235095977783203,5.8887367248535165,-7.324430465698242
1679,85400.0,-3.665804386138916,6.427121639251709,-5.5274200439453125
1680,84000.0,-3.2829525470733643,3.6323046684265137,-8.12841796875
1681,84100.0,-3.2829525470733643,3.6323046684265137,-8.12841796875
1682,84200.0,-3.2829525470733643,3.6323046684265137,-8.12841796875
1683,84300.0,-3.369094133377075,4.292723655700684,-8.018348693847656
1684,84400.0,-3.369094133377075,4.292723655700684,-8.018348693847656
1685,84500.0,-3.206382274627685,7.968099594116211,-4.60857629776001
1686,84600.0,-3.206382274627685,7.968099594116211,-4.60857629776001
1687,84700.0,-3.062812805175781,8.018348693847656,-4.357330322265625
1688,84800.0,-3.062812805175781,8.018348693847656,-4.357330322265625
1689,84900.0,-3.081955671310425,8.372486114501951,-4.780859470367432
1690,85000.0,-3.081955671310425,8.372486114501951,-4.780859470367432
1691,85100.0,-3.081955671310425,8.372486114501951,-4.780859470367432
1692,85200.0,-3.235095977783203,5.8887367248535165,-7.324430465698242
1693,85300.0,-3.235095977783203,5.8887367248535165,-7.324430465698242
1694,85400.0,-3.665804386138916,6.427121639251709,-5.5274200439453125
1695,85500.0,-3.665804386138916,6.427121639251709,-5.5274200439453125
1696,85600.0,-3.3978083133697514,8.396414756774902,-2.6081764698028564
1697,85700.0,-3.3978083133697514,8.396414756774902,-2.6081764698028564
1698,85800.0,-3.211168050765991,9.174081802368164,-0.8662018179893494
1699,85900.0,-3.211168050765991,9.174081802368164,-0.8662018179893494
1700,86000.0,-3.211168050765991,9.174081802368164,-0.8662018179893494
1701,86100.0,-3.211168050765991,9.245866775512695,-0.4905286431312561
1702,86200.0,-3.211168050765991,9.245866775512695,-0.4905286431312561
1703,86300.0,-3.0197420120239262,9.439685821533203,-1.1581261157989502
1704,86400.0,-3.0197420120239262,9.439685821533203,-1.1581261157989502
1705,86500.0,-2.995814085006714,9.57607650756836,-1.0217353105545044
1706,86600.0,-2.995814085006714,9.57607650756836,-1.0217353105545044
1707,86700.0,-2.991028308868408,9.38943576812744,-0.5886343717575073
1708,86800.0,-2.991028308868408,9.38943576812744,-0.5886343717575073
1709,86900.0,-2.914458036422729,9.34157943725586,-0.6412764191627502
1710,85500.0,-3.665804386138916,6.427121639251709,-5.5274200439453125
1711,85600.0,-3.3978083133697514,8.396414756774902,-2.6081764698028564
1712,85700.0,-3.3978083133697514,8.396414756774902,-2.6081764698028564
1713,85800.0,-3.211168050765991,9.174081802368164,-0.8662018179893494
1714,85900.0,-3.211168050765991,9.174081802368164,-0.8662018179893494
1715,86000.0,-3.211168050765991,9.174081802368164,-0.8662018179893494
1716,86100.0,-3.211168050765991,9.245866775512695,-0.4905286431312561
1717,86200.0,-3.211168050765991,9.245866775512695,-0.4905286431312561
1718,86300.0,-3.0197420120239262,9.439685821533203,-1.1581261157989502
1719,86400.0,-3.0197420120239262,9.439685821533203,-1.1581261157989502
1720,86500.0,-2.995814085006714,9.57607650756836,-1.0217353105545044
1721,86600.0,-2.995814085006714,9.57607650756836,-1.0217353105545044
1722,86700.0,-2.991028308868408,9.38943576812744,-0.5886343717575073
1723,86800.0,-2.991028308868408,9.38943576812744,-0.5886343717575073
1724,86900.0,-2.914458036422729,9.34157943725586,-0.6412764191627502
1725,87000.0,-2.914458036422729,9.34157943725586,-0.6412764191627502
1726,87100.0,-2.914458036422729,9.34157943725586,-0.6412764191627502
1727,87200.0,-2.8378877639770512,9.442078590393066,-0.6269195079803467
