,Unnamed: 0,timestamp,ax,ay,az
0,0.0,5000.0,-9.10874080657959,-1.4299370050430298,2.996942043304444
1,1.0,5100.0,-9.10874080657959,-1.4299370050430298,2.996942043304444
2,2.0,5200.0,-9.10874080657959,-1.4299370050430298,2.996942043304444
3,3.0,5300.0,-8.886677742004395,-1.5077484846115112,3.359663486480713
4,4.0,5400.0,-8.886677742004395,-1.5077484846115112,3.359663486480713
5,5.0,5500.0,-9.140463829040527,-1.4431051015853882,2.998737573623657
6,6.0,5600.0,-9.008183479309082,-1.4550760984420776,3.269881010055542
7,7.0,5700.0,-9.008183479309082,-1.4550760984420776,3.269881010055542
8,8.0,5800.0,-9.044096946716307,-1.4508862495422363,3.1226375102996826
9,9.0,5900.0,-9.044096946716307,-1.4508862495422363,3.1226375102996826
10,10.0,6000.0,-9.0051908493042,-1.4658499956130981,3.1735143661499023
11,11.0,6100.0,-9.0051908493042,-1.4658499956130981,3.1735143661499023
12,12.0,6200.0,-9.00279712677002,-1.48081374168396,3.161543369293213
13,13.0,6300.0,-9.00279712677002,-1.48081374168396,3.161543369293213
14,14.0,6400.0,-9.023746490478516,-1.4736311435699463,3.1435868740081787
15,15.0,6500.0,-9.023147583007812,-1.4472949504852295,3.15974760055542
16,16.0,6600.0,-9.023147583007812,-1.4472949504852295,3.15974760055542
17,17.0,6700.0,-9.04290008544922,-1.446696400642395,3.1423897743225098
18,18.0,6800.0,-9.04290008544922,-1.446696400642395,3.1423897743225098
19,19.0,6900.0,-9.020753860473633,-1.4945803880691528,3.202843427658081
20,20.0,7000.0,-9.020753860473633,-1.4945803880691528,3.202843427658081
21,21.0,7100.0,-9.084199905395508,-1.4437036514282229,3.0921115875244136
22,22.0,7200.0,-9.084199905395508,-1.4437036514282229,3.0921115875244136
23,23.0,7300.0,-8.957306861877441,-1.5155296325683594,3.250727415084839
24,24.0,7400.0,-9.032724380493164,-1.4724340438842771,3.126228809356689
25,25.0,7500.0,-9.032724380493164,-1.4724340438842771,3.126228809356689
26,26.0,7600.0,-8.953117370605469,-1.4945803880691528,3.207631826400757
27,27.0,7700.0,-8.953117370605469,-1.4945803880691528,3.207631826400757
28,28.0,7800.0,-9.057863235473633,-1.4658499956130981,3.1226375102996826
29,29.0,7900.0,-9.057863235473633,-1.4658499956130981,3.1226375102996826
30,15.0,6500.0,-9.023147583007812,-1.4472949504852295,3.15974760055542
31,16.0,6600.0,-9.023147583007812,-1.4472949504852295,3.15974760055542
32,17.0,6700.0,-9.04290008544922,-1.446696400642395,3.1423897743225098
33,18.0,6800.0,-9.04290008544922,-1.446696400642395,3.1423897743225098
34,19.0,6900.0,-9.020753860473633,-1.4945803880691528,3.202843427658081
35,20.0,7000.0,-9.020753860473633,-1.4945803880691528,3.202843427658081
36,21.0,7100.0,-9.084199905395508,-1.4437036514282229,3.0921115875244136
37,22.0,7200.0,-9.084199905395508,-1.4437036514282229,3.0921115875244136
38,23.0,7300.0,-8.957306861877441,-1.5155296325683594,3.250727415084839
39,24.0,7400.0,-9.032724380493164,-1.4724340438842771,3.126228809356689
40,25.0,7500.0,-9.032724380493164,-1.4724340438842771,3.126228809356689
41,26.0,7600.0,-8.953117370605469,-1.4945803880691528,3.207631826400757
42,27.0,7700.0,-8.953117370605469,-1.4945803880691528,3.207631826400757
43,28.0,7800.0,-9.057863235473633,-1.4658499956130981,3.1226375102996826
44,29.0,7900.0,-9.057863235473633,-1.4658499956130981,3.1226375102996826
45,30.0,8000.0,-9.030928611755373,-1.4574702978134155,3.175309896469116
46,31.0,8100.0,-9.030928611755373,-1.4574702978134155,3.175309896469116
47,32.0,8200.0,-9.000402450561523,-1.4856021404266355,3.181894063949585
48,33.0,8300.0,-9.065046310424805,-1.4730325937271118,3.135207176208496
49,34.0,8400.0,-9.065046310424805,-1.4730325937271118,3.135207176208496
50,35.0,8500.0,-8.971074104309082,-1.5083470344543457,3.1914708614349365
51,36.0,8600.0,-8.971074104309082,-1.5083470344543457,3.1914708614349365
52,37.0,8700.0,-9.063250541687012,-1.3772644996643066,3.0645780563354488
53,38.0,8800.0,-9.063250541687012,-1.3772644996643066,3.0645780563354488
54,39.0,8900.0,-9.047688484191896,-1.614290475845337,3.0813376903533936
55,40.0,9000.0,-9.047688484191896,-1.614290475845337,3.0813376903533936
56,41.0,9100.0,-8.950124740600586,-1.4335283041000366,3.4560301303863525
57,42.0,9200.0,-9.24640655517578,-1.653794765472412,2.8544869422912598
58,43.0,9300.0,-9.24640655517578,-1.653794765472412,2.8544869422912598
59,44.0,9400.0,-8.99621295928955,-1.50355863571167,3.1477766036987305
60,30.0,8000.0,-9.030928611755373,-1.4574702978134155,3.175309896469116
61,31.0,8100.0,-9.030928611755373,-1.4574702978134155,3.175309896469116
62,32.0,8200.0,-9.000402450561523,-1.4856021404266355,3.181894063949585
63,33.0,8300.0,-9.065046310424805,-1.4730325937271118,3.135207176208496
64,34.0,8400.0,-9.065046310424805,-1.4730325937271118,3.135207176208496
65,35.0,8500.0,-8.971074104309082,-1.5083470344543457,3.1914708614349365
66,36.0,8600.0,-8.971074104309082,-1.5083470344543457,3.1914708614349365
67,37.0,8700.0,-9.063250541687012,-1.3772644996643066,3.0645780563354488
68,38.0,8800.0,-9.063250541687012,-1.3772644996643066,3.0645780563354488
69,39.0,8900.0,-9.047688484191896,-1.614290475845337,3.0813376903533936
70,40.0,9000.0,-9.047688484191896,-1.614290475845337,3.0813376903533936
71,41.0,9100.0,-8.950124740600586,-1.4335283041000366,3.4560301303863525
72,42.0,9200.0,-9.24640655517578,-1.653794765472412,2.8544869422912598
73,43.0,9300.0,-9.24640655517578,-1.653794765472412,2.8544869422912598
74,44.0,9400.0,-8.99621295928955,-1.50355863571167,3.1477766036987305
75,45.0,9500.0,-8.99621295928955,-1.50355863571167,3.1477766036987305
76,46.0,9600.0,-9.1260986328125,-1.5406688451766968,2.958634853363037
77,47.0,9700.0,-9.1260986328125,-1.5406688451766968,2.958634853363037
78,48.0,9800.0,-8.980650901794434,-1.5502456426620483,3.132812976837158
79,49.0,9900.0,-8.980650901794434,-1.5502456426620483,3.132812976837158
80,50.0,10000.0,-9.065046310424805,-1.5819687843322754,3.0178911685943604
81,51.0,10100.0,-9.008183479309082,-1.5693992376327517,3.1196448802948
82,52.0,10200.0,-9.008183479309082,-1.5693992376327517,3.1196448802948
83,53.0,10300.0,-9.084199905395508,-1.5753847360610962,2.9652187824249268
84,54.0,10400.0,-9.084199905395508,-1.5753847360610962,2.9652187824249268
85,55.0,10500.0,-8.98543930053711,-1.5580267906188965,3.1220390796661377
86,56.0,10600.0,-8.98543930053711,-1.5580267906188965,3.1220390796661377
87,57.0,10700.0,-9.090185165405273,-1.525106430053711,3.0184898376464844
88,58.0,10800.0,-9.090185165405273,-1.525106430053711,3.0184898376464844
89,59.0,10900.0,-9.05487060546875,-1.5568296909332275,3.090315818786621
90,45.0,9500.0,-8.99621295928955,-1.50355863571167,3.1477766036987305
91,46.0,9600.0,-9.1260986328125,-1.5406688451766968,2.958634853363037
92,47.0,9700.0,-9.1260986328125,-1.5406688451766968,2.958634853363037
93,48.0,9800.0,-8.980650901794434,-1.5502456426620483,3.132812976837158
94,49.0,9900.0,-8.980650901794434,-1.5502456426620483,3.132812976837158
95,50.0,10000.0,-9.065046310424805,-1.5819687843322754,3.0178911685943604
96,51.0,10100.0,-9.008183479309082,-1.5693992376327517,3.1196448802948
97,52.0,10200.0,-9.008183479309082,-1.5693992376327517,3.1196448802948
98,53.0,10300.0,-9.084199905395508,-1.5753847360610962,2.9652187824249268
99,54.0,10400.0,-9.084199905395508,-1.5753847360610962,2.9652187824249268
100,55.0,10500.0,-8.98543930053711,-1.5580267906188965,3.1220390796661377
101,56.0,10600.0,-8.98543930053711,-1.5580267906188965,3.1220390796661377
102,57.0,10700.0,-9.090185165405273,-1.525106430053711,3.0184898376464844
103,58.0,10800.0,-9.090185165405273,-1.525106430053711,3.0184898376464844
104,59.0,10900.0,-9.05487060546875,-1.5568296909332275,3.090315818786621
105,60.0,11000.0,-9.03751277923584,-1.5502456426620483,3.0514099597930917
106,61.0,11100.0,-9.03751277923584,-1.5502456426620483,3.0514099597930917
107,62.0,11200.0,-9.012971878051758,-1.5598224401474,3.069366693496704
108,63.0,11300.0,-9.012971878051758,-1.5598224401474,3.069366693496704
109,64.0,11400.0,-9.060257911682127,-1.5520412921905518,3.053205728530884
110,65.0,11500.0,-9.060257911682127,-1.5520412921905518,3.053205728530884
111,66.0,11600.0,-9.044695854187012,-1.5538369417190552,3.0346505641937256
112,67.0,11700.0,-9.044695854187012,-1.5538369417190552,3.0346505641937256
113,68.0,11800.0,-9.03511905670166,-1.568800687789917,3.0627825260162367
114,69.0,11900.0,-9.024344444274902,-1.5753847360610962,3.0627825260162367
115,70.0,12000.0,-9.024344444274902,-1.5753847360610962,3.0627825260162367
116,71.0,12100.0,-9.03631591796875,-1.547252893447876,3.026270866394043
117,72.0,12200.0,-9.03631591796875,-1.547252893447876,3.026270866394043
118,73.0,12300.0,-9.070432662963867,-1.5328876972198486,3.0783448219299316
119,74.0,12400.0,-9.070432662963867,-1.5328876972198486,3.0783448219299316
120,60.0,11000.0,-9.03751277923584,-1.5502456426620483,3.0514099597930917
121,61.0,11100.0,-9.03751277923584,-1.5502456426620483,3.0514099597930917
122,62.0,11200.0,-9.012971878051758,-1.5598224401474,3.069366693496704
123,63.0,11300.0,-9.012971878051758,-1.5598224401474,3.069366693496704
124,64.0,11400.0,-9.060257911682127,-1.5520412921905518,3.053205728530884
125,65.0,11500.0,-9.060257911682127,-1.5520412921905518,3.053205728530884
126,66.0,11600.0,-9.044695854187012,-1.5538369417190552,3.0346505641937256
127,67.0,11700.0,-9.044695854187012,-1.5538369417190552,3.0346505641937256
128,68.0,11800.0,-9.03511905670166,-1.568800687789917,3.0627825260162367
129,69.0,11900.0,-9.024344444274902,-1.5753847360610962,3.0627825260162367
130,70.0,12000.0,-9.024344444274902,-1.5753847360610962,3.0627825260162367
131,71.0,12100.0,-9.03631591796875,-1.547252893447876,3.026270866394043
132,72.0,12200.0,-9.03631591796875,-1.547252893447876,3.026270866394043
133,73.0,12300.0,-9.070432662963867,-1.5328876972198486,3.0783448219299316
134,74.0,12400.0,-9.070432662963867,-1.5328876972198486,3.0783448219299316
135,75.0,12500.0,-9.072827339172363,-1.5658079385757446,3.0663738250732417
136,76.0,12600.0,-9.072827339172363,-1.5658079385757446,3.0663738250732417
137,77.0,12700.0,-9.070432662963867,-1.568800687789917,3.0394389629364014
138,78.0,12800.0,-9.031527519226074,-1.5568296909332275,3.087921619415283
139,79.0,12900.0,-9.031527519226074,-1.5568296909332275,3.087921619415283
140,80.0,13000.0,-9.042301177978516,-1.5436615943908691,3.029263734817505
141,81.0,13100.0,-9.042301177978516,-1.5436615943908691,3.029263734817505
142,82.0,13200.0,-8.993220329284668,-1.577778935432434,3.0957028865814213
143,83.0,13300.0,-8.993220329284668,-1.577778935432434,3.0957028865814213
144,84.0,13400.0,-9.013570785522461,-1.5538369417190552,3.0615854263305664
145,85.0,13500.0,-9.013570785522461,-1.5538369417190552,3.0615854263305664
146,86.0,13600.0,-9.046490669250488,-1.6112977266311646,3.0615854263305664
147,87.0,13700.0,-9.07103157043457,-1.544858694076538,3.0382418632507324
148,88.0,13800.0,-9.07103157043457,-1.544858694076538,3.0382418632507324
149,89.0,13900.0,-8.995016098022461,-1.5735890865325928,3.074753522872925
150,75.0,12500.0,-9.072827339172363,-1.5658079385757446,3.0663738250732417
151,76.0,12600.0,-9.072827339172363,-1.5658079385757446,3.0663738250732417
152,77.0,12700.0,-9.070432662963867,-1.568800687789917,3.0394389629364014
153,78.0,12800.0,-9.031527519226074,-1.5568296909332275,3.087921619415283
154,79.0,12900.0,-9.031527519226074,-1.5568296909332275,3.087921619415283
155,80.0,13000.0,-9.042301177978516,-1.5436615943908691,3.029263734817505
156,81.0,13100.0,-9.042301177978516,-1.5436615943908691,3.029263734817505
157,82.0,13200.0,-8.993220329284668,-1.577778935432434,3.0957028865814213
158,83.0,13300.0,-8.993220329284668,-1.577778935432434,3.0957028865814213
159,84.0,13400.0,-9.013570785522461,-1.5538369417190552,3.0615854263305664
160,85.0,13500.0,-9.013570785522461,-1.5538369417190552,3.0615854263305664
161,86.0,13600.0,-9.046490669250488,-1.6112977266311646,3.0615854263305664
162,87.0,13700.0,-9.07103157043457,-1.544858694076538,3.0382418632507324
163,88.0,13800.0,-9.07103157043457,-1.544858694076538,3.0382418632507324
164,89.0,13900.0,-8.995016098022461,-1.5735890865325928,3.074753522872925
165,90.0,14000.0,-8.995016098022461,-1.5735890865325928,3.074753522872925
166,91.0,14100.0,-9.06983470916748,-1.5921441316604614,3.0442273616790767
167,92.0,14200.0,-9.06983470916748,-1.5921441316604614,3.0442273616790767
168,93.0,14300.0,-9.046490669250488,-1.5795745849609375,3.072359323501587
169,94.0,14400.0,-9.046490669250488,-1.5795745849609375,3.072359323501587
170,95.0,14500.0,-9.02973175048828,-1.5909470319747925,3.05799412727356
171,96.0,14600.0,-9.03751277923584,-1.5759832859039309,3.042431831359864
172,97.0,14700.0,-9.03751277923584,-1.5759832859039309,3.042431831359864
173,98.0,14800.0,-9.032724380493164,-1.5933412313461304,3.043030261993408
174,99.0,14900.0,-9.032724380493164,-1.5933412313461304,3.043030261993408
175,100.0,15000.0,-9.057265281677246,-1.6160861253738403,3.048417329788208
176,101.0,15100.0,-9.057265281677246,-1.6160861253738403,3.048417329788208
177,102.0,15200.0,-9.071630477905273,-1.5604209899902344,3.00711727142334
178,103.0,15300.0,-9.071630477905273,-1.5604209899902344,3.00711727142334
179,104.0,15400.0,-9.050681114196776,-1.5819687843322754,3.052008628845215
180,90.0,14000.0,-8.995016098022461,-1.5735890865325928,3.074753522872925
181,91.0,14100.0,-9.06983470916748,-1.5921441316604614,3.0442273616790767
182,92.0,14200.0,-9.06983470916748,-1.5921441316604614,3.0442273616790767
183,93.0,14300.0,-9.046490669250488,-1.5795745849609375,3.072359323501587
184,94.0,14400.0,-9.046490669250488,-1.5795745849609375,3.072359323501587
185,95.0,14500.0,-9.02973175048828,-1.5909470319747925,3.05799412727356
186,96.0,14600.0,-9.03751277923584,-1.5759832859039309,3.042431831359864
187,97.0,14700.0,-9.03751277923584,-1.5759832859039309,3.042431831359864
188,98.0,14800.0,-9.032724380493164,-1.5933412313461304,3.043030261993408
189,99.0,14900.0,-9.032724380493164,-1.5933412313461304,3.043030261993408
190,100.0,15000.0,-9.057265281677246,-1.6160861253738403,3.048417329788208
191,101.0,15100.0,-9.057265281677246,-1.6160861253738403,3.048417329788208
192,102.0,15200.0,-9.071630477905273,-1.5604209899902344,3.00711727142334
193,103.0,15300.0,-9.071630477905273,-1.5604209899902344,3.00711727142334
194,104.0,15400.0,-9.050681114196776,-1.5819687843322754,3.052008628845215
195,105.0,15500.0,-9.062651634216307,-1.58256733417511,3.0729579925537114
196,106.0,15600.0,-9.062651634216307,-1.58256733417511,3.0729579925537114
197,107.0,15700.0,-9.041702270507812,-1.5909470319747925,3.0286650657653813
198,108.0,15800.0,-9.041702270507812,-1.5909470319747925,3.0286650657653813
199,109.0,15900.0,-9.043498039245604,-1.5957354307174685,3.0406360626220703
200,110.0,16000.0,-9.043498039245604,-1.5957354307174685,3.0406360626220703
201,111.0,16100.0,-9.069235801696776,-1.58256733417511,3.0178911685943604
202,112.0,16200.0,-9.069235801696776,-1.58256733417511,3.0178911685943604
203,113.0,16300.0,-9.035717010498047,-1.5969325304031372,3.048417329788208
204,114.0,16400.0,-9.075819969177246,-1.5879542827606201,3.0250737667083736
205,115.0,16500.0,-9.075819969177246,-1.5879542827606201,3.0250737667083736
206,116.0,16600.0,-9.053074836730957,-1.5897499322891235,3.0101101398468018
207,117.0,16700.0,-9.053074836730957,-1.5897499322891235,3.0101101398468018
208,118.0,16800.0,-9.025542259216307,-1.5957354307174685,3.0376434326171875
209,119.0,16900.0,-9.025542259216307,-1.5957354307174685,3.0376434326171875
210,105.0,15500.0,-9.062651634216307,-1.58256733417511,3.0729579925537114
211,106.0,15600.0,-9.062651634216307,-1.58256733417511,3.0729579925537114
212,107.0,15700.0,-9.041702270507812,-1.5909470319747925,3.0286650657653813
213,108.0,15800.0,-9.041702270507812,-1.5909470319747925,3.0286650657653813
214,109.0,15900.0,-9.043498039245604,-1.5957354307174685,3.0406360626220703
215,110.0,16000.0,-9.043498039245604,-1.5957354307174685,3.0406360626220703
216,111.0,16100.0,-9.069235801696776,-1.58256733417511,3.0178911685943604
217,112.0,16200.0,-9.069235801696776,-1.58256733417511,3.0178911685943604
218,113.0,16300.0,-9.035717010498047,-1.5969325304031372,3.048417329788208
219,114.0,16400.0,-9.075819969177246,-1.5879542827606201,3.0250737667083736
220,115.0,16500.0,-9.075819969177246,-1.5879542827606201,3.0250737667083736
221,116.0,16600.0,-9.053074836730957,-1.5897499322891235,3.0101101398468018
222,117.0,16700.0,-9.053074836730957,-1.5897499322891235,3.0101101398468018
223,118.0,16800.0,-9.025542259216307,-1.5957354307174685,3.0376434326171875
224,119.0,16900.0,-9.025542259216307,-1.5957354307174685,3.0376434326171875
225,120.0,17000.0,-9.046490669250488,-1.5855600833892822,3.0310592651367188
226,121.0,17100.0,-9.046490669250488,-1.5855600833892822,3.0310592651367188
227,122.0,17200.0,-9.043498039245604,-1.5981296300888062,3.0544028282165527
228,123.0,17300.0,-9.056666374206543,-1.5897499322891235,3.022679567337036
229,124.0,17400.0,-9.056666374206543,-1.5897499322891235,3.022679567337036
230,125.0,17500.0,-9.04290008544922,-1.5682021379470823,3.049015760421753
231,126.0,17600.0,-9.04290008544922,-1.5682021379470823,3.049015760421753
232,127.0,17700.0,-9.055469512939453,-1.599326729774475,2.9933507442474365
233,128.0,17800.0,-9.055469512939453,-1.599326729774475,2.9933507442474365
234,129.0,17900.0,-8.990227699279785,-1.6190788745880127,3.1058781147003174
235,130.0,18000.0,-8.990227699279785,-1.6190788745880127,3.1058781147003174
236,131.0,18100.0,-9.100360870361328,-1.5933412313461304,2.9694087505340576
237,132.0,18200.0,-9.034520149230957,-1.5705963373184204,3.026270866394043
238,133.0,18300.0,-9.034520149230957,-1.5705963373184204,3.026270866394043
239,134.0,18400.0,-9.018359184265137,-1.6340426206588743,3.046621561050415
240,120.0,17000.0,-9.046490669250488,-1.5855600833892822,3.0310592651367188
241,121.0,17100.0,-9.046490669250488,-1.5855600833892822,3.0310592651367188
242,122.0,17200.0,-9.043498039245604,-1.5981296300888062,3.0544028282165527
243,123.0,17300.0,-9.056666374206543,-1.5897499322891235,3.022679567337036
244,124.0,17400.0,-9.056666374206543,-1.5897499322891235,3.022679567337036
245,125.0,17500.0,-9.04290008544922,-1.5682021379470823,3.049015760421753
246,126.0,17600.0,-9.04290008544922,-1.5682021379470823,3.049015760421753
247,127.0,17700.0,-9.055469512939453,-1.599326729774475,2.9933507442474365
248,128.0,17800.0,-9.055469512939453,-1.599326729774475,2.9933507442474365
249,129.0,17900.0,-8.990227699279785,-1.6190788745880127,3.1058781147003174
250,130.0,18000.0,-8.990227699279785,-1.6190788745880127,3.1058781147003174
251,131.0,18100.0,-9.100360870361328,-1.5933412313461304,2.9694087505340576
252,132.0,18200.0,-9.034520149230957,-1.5705963373184204,3.026270866394043
253,133.0,18300.0,-9.034520149230957,-1.5705963373184204,3.026270866394043
254,134.0,18400.0,-9.018359184265137,-1.6340426206588743,3.046621561050415
255,135.0,18500.0,-9.018359184265137,-1.6340426206588743,3.046621561050415
256,136.0,18600.0,-9.075819969177246,-1.5951368808746338,3.0172927379608154
257,137.0,18700.0,-9.075819969177246,-1.5951368808746338,3.0172927379608154
258,138.0,18800.0,-8.982446670532227,-1.6130933761596682,3.123834609985352
259,139.0,18900.0,-8.982446670532227,-1.6130933761596682,3.123834609985352
260,140.0,19000.0,-9.051877975463867,-1.5873557329177856,3.011905670166016
261,141.0,19100.0,-9.034520149230957,-1.6071078777313232,3.117849111557007
262,142.0,19200.0,-9.034520149230957,-1.6071078777313232,3.117849111557007
263,143.0,19300.0,-9.032724380493164,-1.6424223184585571,3.0544028282165527
264,144.0,19400.0,-9.032724380493164,-1.6424223184585571,3.0544028282165527
265,145.0,19500.0,-9.12729549407959,-1.63344407081604,3.1717185974121094
266,146.0,19600.0,-9.12729549407959,-1.63344407081604,3.1717185974121094
267,147.0,19700.0,-8.951920509338379,-1.6244658231735232,3.2172086238861084
268,148.0,19800.0,-8.951920509338379,-1.6244658231735232,3.2172086238861084
269,149.0,19900.0,-9.027935981750488,-1.6280571222305298,3.0663738250732417
270,135.0,18500.0,-9.018359184265137,-1.6340426206588743,3.046621561050415
271,136.0,18600.0,-9.075819969177246,-1.5951368808746338,3.0172927379608154
272,137.0,18700.0,-9.075819969177246,-1.5951368808746338,3.0172927379608154
273,138.0,18800.0,-8.982446670532227,-1.6130933761596682,3.123834609985352
274,139.0,18900.0,-8.982446670532227,-1.6130933761596682,3.123834609985352
275,140.0,19000.0,-9.051877975463867,-1.5873557329177856,3.011905670166016
276,141.0,19100.0,-9.034520149230957,-1.6071078777313232,3.117849111557007
277,142.0,19200.0,-9.034520149230957,-1.6071078777313232,3.117849111557007
278,143.0,19300.0,-9.032724380493164,-1.6424223184585571,3.0544028282165527
279,144.0,19400.0,-9.032724380493164,-1.6424223184585571,3.0544028282165527
280,145.0,19500.0,-9.12729549407959,-1.63344407081604,3.1717185974121094
281,146.0,19600.0,-9.12729549407959,-1.63344407081604,3.1717185974121094
282,147.0,19700.0,-8.951920509338379,-1.6244658231735232,3.2172086238861084
283,148.0,19800.0,-8.951920509338379,-1.6244658231735232,3.2172086238861084
284,149.0,19900.0,-9.027935981750488,-1.6280571222305298,3.0663738250732417
285,150.0,20000.0,-8.896254539489746,-1.6903064250946045,3.2866404056549072
286,151.0,20100.0,-8.896254539489746,-1.6903064250946045,3.2866404056549072
287,152.0,20200.0,-8.963293075561523,-1.6053122282028198,3.2034418582916264
288,153.0,20300.0,-8.963293075561523,-1.6053122282028198,3.2034418582916264
289,154.0,20400.0,-8.971672058105469,-1.6286556720733645,3.21062445640564
290,155.0,20500.0,-8.971672058105469,-1.6286556720733645,3.21062445640564
291,156.0,20600.0,-8.92917537689209,-1.6585832834243774,3.2752678394317627
292,157.0,20700.0,-8.92917537689209,-1.6585832834243774,3.2752678394317627
293,158.0,20800.0,-8.992621421813965,-1.6190788745880127,3.213018655776977
294,159.0,20900.0,-8.899846076965332,-1.620874524116516,3.2968156337738037
295,160.0,21000.0,-8.899846076965332,-1.620874524116516,3.2968156337738037
296,161.0,21100.0,-9.008183479309082,-1.6322469711303709,3.155557870864868
297,162.0,21200.0,-9.008183479309082,-1.6322469711303709,3.155557870864868
298,163.0,21300.0,-8.956110000610352,-1.6280571222305298,3.2620997428894043
299,164.0,21400.0,-8.956110000610352,-1.6280571222305298,3.2620997428894043
300,150.0,20000.0,-8.896254539489746,-1.6903064250946045,3.2866404056549072
301,151.0,20100.0,-8.896254539489746,-1.6903064250946045,3.2866404056549072
302,152.0,20200.0,-8.963293075561523,-1.6053122282028198,3.2034418582916264
303,153.0,20300.0,-8.963293075561523,-1.6053122282028198,3.2034418582916264
304,154.0,20400.0,-8.971672058105469,-1.6286556720733645,3.21062445640564
305,155.0,20500.0,-8.971672058105469,-1.6286556720733645,3.21062445640564
306,156.0,20600.0,-8.92917537689209,-1.6585832834243774,3.2752678394317627
307,157.0,20700.0,-8.92917537689209,-1.6585832834243774,3.2752678394317627
308,158.0,20800.0,-8.992621421813965,-1.6190788745880127,3.213018655776977
309,159.0,20900.0,-8.899846076965332,-1.620874524116516,3.2968156337738037
310,160.0,21000.0,-8.899846076965332,-1.620874524116516,3.2968156337738037
311,161.0,21100.0,-9.008183479309082,-1.6322469711303709,3.155557870864868
312,162.0,21200.0,-9.008183479309082,-1.6322469711303709,3.155557870864868
313,163.0,21300.0,-8.956110000610352,-1.6280571222305298,3.2620997428894043
314,164.0,21400.0,-8.956110000610352,-1.6280571222305298,3.2620997428894043
315,165.0,21500.0,-8.953117370605469,-1.6304513216018677,3.242946147918701
316,166.0,21600.0,-8.953117370605469,-1.6304513216018677,3.242946147918701
317,167.0,21700.0,-8.993818283081055,-1.6502034664154053,3.174112796783448
318,168.0,21800.0,-8.993818283081055,-1.6502034664154053,3.174112796783448
319,169.0,21900.0,-8.977059364318848,-1.5538369417190552,3.201646327972412
320,170.0,22000.0,-9.017162322998047,-1.6400281190872192,3.1759085655212402
321,171.0,22100.0,-9.017162322998047,-1.6400281190872192,3.1759085655212402
322,172.0,22200.0,-9.012971878051758,-1.6059107780456543,3.2124202251434326
323,173.0,22300.0,-9.012971878051758,-1.6059107780456543,3.2124202251434326
324,174.0,22400.0,-9.084798812866213,-1.6178817749023438,2.9933507442474365
325,175.0,22500.0,-9.084798812866213,-1.6178817749023438,2.9933507442474365
326,176.0,22600.0,-8.993220329284668,-1.6490063667297363,3.1004912853240967
327,177.0,22700.0,-9.07222843170166,-1.678335428237915,2.9789855480194087
328,178.0,22800.0,-9.07222843170166,-1.678335428237915,2.9789855480194087
329,179.0,22900.0,-9.078812599182127,-1.620874524116516,3.00053334236145
330,165.0,21500.0,-8.953117370605469,-1.6304513216018677,3.242946147918701
331,166.0,21600.0,-8.953117370605469,-1.6304513216018677,3.242946147918701
332,167.0,21700.0,-8.993818283081055,-1.6502034664154053,3.174112796783448
333,168.0,21800.0,-8.993818283081055,-1.6502034664154053,3.174112796783448
334,169.0,21900.0,-8.977059364318848,-1.5538369417190552,3.201646327972412
335,170.0,22000.0,-9.017162322998047,-1.6400281190872192,3.1759085655212402
336,171.0,22100.0,-9.017162322998047,-1.6400281190872192,3.1759085655212402
337,172.0,22200.0,-9.012971878051758,-1.6059107780456543,3.2124202251434326
338,173.0,22300.0,-9.012971878051758,-1.6059107780456543,3.2124202251434326
339,174.0,22400.0,-9.084798812866213,-1.6178817749023438,2.9933507442474365
340,175.0,22500.0,-9.084798812866213,-1.6178817749023438,2.9933507442474365
341,176.0,22600.0,-8.993220329284668,-1.6490063667297363,3.1004912853240967
342,177.0,22700.0,-9.07222843170166,-1.678335428237915,2.9789855480194087
343,178.0,22800.0,-9.07222843170166,-1.678335428237915,2.9789855480194087
344,179.0,22900.0,-9.078812599182127,-1.620874524116516,3.00053334236145
345,180.0,23000.0,-9.078812599182127,-1.620874524116516,3.00053334236145
346,181.0,23100.0,-9.059061050415039,-1.622071623802185,3.006518840789795
347,182.0,23200.0,-9.059061050415039,-1.622071623802185,3.006518840789795
348,183.0,23300.0,-9.057863235473633,-1.644816517829895,2.9903578758239746
349,184.0,23400.0,-9.057863235473633,-1.644816517829895,2.9903578758239746
350,185.0,23500.0,-9.007585525512695,-1.625662922859192,2.9879636764526367
351,186.0,23600.0,-9.007585525512695,-1.625662922859192,2.9879636764526367
352,187.0,23700.0,-9.043498039245604,-1.6573861837387085,2.966415882110596
353,188.0,23800.0,-9.051877975463867,-1.6124948263168335,2.9861681461334237
354,189.0,23900.0,-9.051877975463867,-1.6124948263168335,2.9861681461334237
355,190.0,24000.0,-9.050681114196776,-1.614290475845337,2.9514522552490234
356,191.0,24100.0,-9.050681114196776,-1.614290475845337,2.9514522552490234
357,192.0,24200.0,-8.999804496765137,-1.66696298122406,2.999336242675781
358,193.0,24300.0,-8.999804496765137,-1.66696298122406,2.999336242675781
359,194.0,24400.0,-9.05487060546875,-1.6172832250595093,2.9927520751953125
360,180.0,23000.0,-9.078812599182127,-1.620874524116516,3.00053334236145
361,181.0,23100.0,-9.059061050415039,-1.622071623802185,3.006518840789795
362,182.0,23200.0,-9.059061050415039,-1.622071623802185,3.006518840789795
363,183.0,23300.0,-9.057863235473633,-1.644816517829895,2.9903578758239746
364,184.0,23400.0,-9.057863235473633,-1.644816517829895,2.9903578758239746
365,185.0,23500.0,-9.007585525512695,-1.625662922859192,2.9879636764526367
366,186.0,23600.0,-9.007585525512695,-1.625662922859192,2.9879636764526367
367,187.0,23700.0,-9.043498039245604,-1.6573861837387085,2.966415882110596
368,188.0,23800.0,-9.051877975463867,-1.6124948263168335,2.9861681461334237
369,189.0,23900.0,-9.051877975463867,-1.6124948263168335,2.9861681461334237
370,190.0,24000.0,-9.050681114196776,-1.614290475845337,2.9514522552490234
371,191.0,24100.0,-9.050681114196776,-1.614290475845337,2.9514522552490234
372,192.0,24200.0,-8.999804496765137,-1.66696298122406,2.999336242675781
373,193.0,24300.0,-8.999804496765137,-1.66696298122406,2.999336242675781
374,194.0,24400.0,-9.05487060546875,-1.6172832250595093,2.9927520751953125
375,195.0,24500.0,-9.05487060546875,-1.6172832250595093,2.9927520751953125
376,196.0,24600.0,-9.099164009094238,-1.6089035272598269,2.9724013805389404
377,197.0,24700.0,-9.03511905670166,-1.6124948263168335,2.9939491748809814
378,198.0,24800.0,-9.03511905670166,-1.6124948263168335,2.9939491748809814
379,199.0,24900.0,-9.034520149230957,-1.6519991159439087,2.990956544876098
380,200.0,25000.0,-9.034520149230957,-1.6519991159439087,2.990956544876098
381,201.0,25100.0,-9.05247688293457,-1.6101006269454956,2.9861681461334237
382,202.0,25200.0,-9.05247688293457,-1.6101006269454956,2.9861681461334237
383,203.0,25300.0,-9.060855865478516,-1.589151382446289,2.959831953048706
384,204.0,25400.0,-9.060855865478516,-1.589151382446289,2.959831953048706
385,205.0,25500.0,-9.038111686706543,-1.6298527717590332,2.9747955799102783
386,206.0,25600.0,-9.060855865478516,-1.6424223184585571,3.007715940475464
387,207.0,25700.0,-9.060855865478516,-1.6424223184585571,3.007715940475464
388,208.0,25800.0,-9.045293807983398,-1.6292542219161987,3.008314371109009
389,209.0,25900.0,-9.045293807983398,-1.6292542219161987,3.008314371109009
390,195.0,24500.0,-9.05487060546875,-1.6172832250595093,2.9927520751953125
391,196.0,24600.0,-9.099164009094238,-1.6089035272598269,2.9724013805389404
392,197.0,24700.0,-9.03511905670166,-1.6124948263168335,2.9939491748809814
393,198.0,24800.0,-9.03511905670166,-1.6124948263168335,2.9939491748809814
394,199.0,24900.0,-9.034520149230957,-1.6519991159439087,2.990956544876098
395,200.0,25000.0,-9.034520149230957,-1.6519991159439087,2.990956544876098
396,201.0,25100.0,-9.05247688293457,-1.6101006269454956,2.9861681461334237
397,202.0,25200.0,-9.05247688293457,-1.6101006269454956,2.9861681461334237
398,203.0,25300.0,-9.060855865478516,-1.589151382446289,2.959831953048706
399,204.0,25400.0,-9.060855865478516,-1.589151382446289,2.959831953048706
400,205.0,25500.0,-9.038111686706543,-1.6298527717590332,2.9747955799102783
401,206.0,25600.0,-9.060855865478516,-1.6424223184585571,3.007715940475464
402,207.0,25700.0,-9.060855865478516,-1.6424223184585571,3.007715940475464
403,208.0,25800.0,-9.045293807983398,-1.6292542219161987,3.008314371109009
404,209.0,25900.0,-9.045293807983398,-1.6292542219161987,3.008314371109009
405,210.0,26000.0,-9.060855865478516,-1.63344407081604,3.00711727142334
406,211.0,26100.0,-9.060855865478516,-1.63344407081604,3.00711727142334
407,212.0,26200.0,-9.043498039245604,-1.6280571222305298,2.981379747390747
408,213.0,26300.0,-9.043498039245604,-1.6280571222305298,2.981379747390747
409,214.0,26400.0,-9.072827339172363,-1.6466121673583984,2.9700071811676025
410,215.0,26500.0,-9.05247688293457,-1.631049871444702,2.9891607761383057
411,216.0,26600.0,-9.05247688293457,-1.631049871444702,2.9891607761383057
412,217.0,26700.0,-9.050681114196776,-1.6382324695587158,2.9712042808532715
413,218.0,26800.0,-9.050681114196776,-1.6382324695587158,2.9712042808532715
414,219.0,26900.0,-9.080608367919922,-1.6112977266311646,2.9927520751953125
415,220.0,27000.0,-9.080608367919922,-1.6112977266311646,2.9927520751953125
416,221.0,27100.0,-9.064447402954102,-1.6083049774169922,2.978386878967285
417,222.0,27200.0,-9.064447402954102,-1.6083049774169922,2.978386878967285
418,223.0,27300.0,-9.051279067993164,-1.6238672733306885,3.0113072395324707
419,224.0,27400.0,-9.047688484191896,-1.6400281190872192,2.9891607761383057
420,210.0,26000.0,-9.060855865478516,-1.63344407081604,3.00711727142334
421,211.0,26100.0,-9.060855865478516,-1.63344407081604,3.00711727142334
422,212.0,26200.0,-9.043498039245604,-1.6280571222305298,2.981379747390747
423,213.0,26300.0,-9.043498039245604,-1.6280571222305298,2.981379747390747
424,214.0,26400.0,-9.072827339172363,-1.6466121673583984,2.9700071811676025
425,215.0,26500.0,-9.05247688293457,-1.631049871444702,2.9891607761383057
426,216.0,26600.0,-9.05247688293457,-1.631049871444702,2.9891607761383057
427,217.0,26700.0,-9.050681114196776,-1.6382324695587158,2.9712042808532715
428,218.0,26800.0,-9.050681114196776,-1.6382324695587158,2.9712042808532715
429,219.0,26900.0,-9.080608367919922,-1.6112977266311646,2.9927520751953125
430,220.0,27000.0,-9.080608367919922,-1.6112977266311646,2.9927520751953125
431,221.0,27100.0,-9.064447402954102,-1.6083049774169922,2.978386878967285
432,222.0,27200.0,-9.064447402954102,-1.6083049774169922,2.978386878967285
433,223.0,27300.0,-9.051279067993164,-1.6238672733306885,3.0113072395324707
434,224.0,27400.0,-9.047688484191896,-1.6400281190872192,2.9891607761383057
435,225.0,27500.0,-9.047688484191896,-1.6400281190872192,2.9891607761383057
436,226.0,27600.0,-9.07222843170166,-1.6053122282028198,2.982576847076416
437,227.0,27700.0,-9.07222843170166,-1.6053122282028198,2.982576847076416
438,228.0,27800.0,-9.053074836730957,-1.614290475845337,3.0017304420471187
439,229.0,27900.0,-9.053074836730957,-1.614290475845337,3.0017304420471187
440,230.0,28000.0,-9.032125473022461,-1.6430208683013916,3.0017304420471187
441,231.0,28100.0,-9.032125473022461,-1.6430208683013916,3.0017304420471187
442,232.0,28200.0,-9.060855865478516,-1.6268600225448608,3.008314371109009
443,233.0,28300.0,-9.045293807983398,-1.6083049774169922,3.001131772994995
444,234.0,28400.0,-9.045293807983398,-1.6083049774169922,3.001131772994995
445,235.0,28500.0,-9.062053680419922,-1.6292542219161987,3.0017304420471187
446,236.0,28600.0,-9.062053680419922,-1.6292542219161987,3.0017304420471187
447,237.0,28700.0,-9.039907455444336,-1.6322469711303709,3.0154969692230225
448,238.0,28800.0,-9.039907455444336,-1.6322469711303709,3.0154969692230225
449,239.0,28900.0,-9.058462142944336,-1.6178817749023438,2.9861681461334237
450,225.0,27500.0,-9.047688484191896,-1.6400281190872192,2.9891607761383057
451,226.0,27600.0,-9.07222843170166,-1.6053122282028198,2.982576847076416
452,227.0,27700.0,-9.07222843170166,-1.6053122282028198,2.982576847076416
453,228.0,27800.0,-9.053074836730957,-1.614290475845337,3.0017304420471187
454,229.0,27900.0,-9.053074836730957,-1.614290475845337,3.0017304420471187
455,230.0,28000.0,-9.032125473022461,-1.6430208683013916,3.0017304420471187
456,231.0,28100.0,-9.032125473022461,-1.6430208683013916,3.0017304420471187
457,232.0,28200.0,-9.060855865478516,-1.6268600225448608,3.008314371109009
458,233.0,28300.0,-9.045293807983398,-1.6083049774169922,3.001131772994995
459,234.0,28400.0,-9.045293807983398,-1.6083049774169922,3.001131772994995
460,235.0,28500.0,-9.062053680419922,-1.6292542219161987,3.0017304420471187
461,236.0,28600.0,-9.062053680419922,-1.6292542219161987,3.0017304420471187
462,237.0,28700.0,-9.039907455444336,-1.6322469711303709,3.0154969692230225
463,238.0,28800.0,-9.039907455444336,-1.6322469711303709,3.0154969692230225
464,239.0,28900.0,-9.058462142944336,-1.6178817749023438,2.9861681461334237
465,240.0,29000.0,-9.058462142944336,-1.6178817749023438,2.9861681461334237
466,241.0,29100.0,-9.058462142944336,-1.6424223184585571,3.014299869537353
467,242.0,29200.0,-9.032724380493164,-1.6262614727020264,3.00711727142334
468,243.0,29300.0,-9.032724380493164,-1.6262614727020264,3.00711727142334
469,244.0,29400.0,-9.039308547973633,-1.6328455209732056,2.9753942489624023
470,245.0,29500.0,-9.039308547973633,-1.6328455209732056,2.9753942489624023
471,246.0,29600.0,-9.051877975463867,-1.644816517829895,3.0310592651367188
472,247.0,29700.0,-9.051877975463867,-1.644816517829895,3.0310592651367188
473,248.0,29800.0,-9.044695854187012,-1.6466121673583984,2.992153644561768
474,249.0,29900.0,-9.044695854187012,-1.6466121673583984,2.992153644561768
475,250.0,30000.0,-9.023746490478516,-1.6412252187728882,3.0364463329315186
476,251.0,30100.0,-9.063250541687012,-1.6304513216018677,2.981379747390747
477,252.0,30200.0,-9.063250541687012,-1.6304513216018677,2.981379747390747
478,253.0,30300.0,-9.02135181427002,-1.6382324695587158,3.003525972366333
479,254.0,30400.0,-9.02135181427002,-1.6382324695587158,3.003525972366333
480,240.0,29000.0,-9.058462142944336,-1.6178817749023438,2.9861681461334237
481,241.0,29100.0,-9.058462142944336,-1.6424223184585571,3.014299869537353
482,242.0,29200.0,-9.032724380493164,-1.6262614727020264,3.00711727142334
483,243.0,29300.0,-9.032724380493164,-1.6262614727020264,3.00711727142334
484,244.0,29400.0,-9.039308547973633,-1.6328455209732056,2.9753942489624023
485,245.0,29500.0,-9.039308547973633,-1.6328455209732056,2.9753942489624023
486,246.0,29600.0,-9.051877975463867,-1.644816517829895,3.0310592651367188
487,247.0,29700.0,-9.051877975463867,-1.644816517829895,3.0310592651367188
488,248.0,29800.0,-9.044695854187012,-1.6466121673583984,2.992153644561768
489,249.0,29900.0,-9.044695854187012,-1.6466121673583984,2.992153644561768
490,250.0,30000.0,-9.023746490478516,-1.6412252187728882,3.0364463329315186
491,251.0,30100.0,-9.063250541687012,-1.6304513216018677,2.981379747390747
492,252.0,30200.0,-9.063250541687012,-1.6304513216018677,2.981379747390747
493,253.0,30300.0,-9.02135181427002,-1.6382324695587158,3.003525972366333
494,254.0,30400.0,-9.02135181427002,-1.6382324695587158,3.003525972366333
495,255.0,30500.0,-9.007585525512695,-1.6328455209732056,3.046621561050415
496,256.0,30600.0,-9.007585525512695,-1.6328455209732056,3.046621561050415
497,257.0,30700.0,-9.066842079162598,-1.6047136783599854,2.9718029499053955
498,258.0,30800.0,-9.066842079162598,-1.6047136783599854,2.9718029499053955
499,259.0,30900.0,-9.051279067993164,-1.6160861253738403,2.992153644561768
500,260.0,31000.0,-9.050082206726074,-1.6065093278884888,3.0089130401611333
501,261.0,31100.0,-9.050082206726074,-1.6065093278884888,3.0089130401611333
502,262.0,31200.0,-9.030928611755373,-1.6202759742736816,3.025672435760498
503,263.0,31300.0,-9.030928611755373,-1.6202759742736816,3.025672435760498
504,264.0,31400.0,-9.074623107910156,-1.6226701736450195,3.026869535446167
505,265.0,31500.0,-9.074623107910156,-1.6226701736450195,3.026869535446167
506,266.0,31600.0,-9.06145477294922,-1.6280571222305298,2.9700071811676025
507,267.0,31700.0,-9.06145477294922,-1.6280571222305298,2.9700071811676025
508,268.0,31800.0,-9.058462142944336,-1.6376339197158811,2.9879636764526367
509,269.0,31900.0,-9.033323287963867,-1.6316484212875366,3.0406360626220703
510,255.0,30500.0,-9.007585525512695,-1.6328455209732056,3.046621561050415
511,256.0,30600.0,-9.007585525512695,-1.6328455209732056,3.046621561050415
512,257.0,30700.0,-9.066842079162598,-1.6047136783599854,2.9718029499053955
513,258.0,30800.0,-9.066842079162598,-1.6047136783599854,2.9718029499053955
514,259.0,30900.0,-9.051279067993164,-1.6160861253738403,2.992153644561768
515,260.0,31000.0,-9.050082206726074,-1.6065093278884888,3.0089130401611333
516,261.0,31100.0,-9.050082206726074,-1.6065093278884888,3.0089130401611333
517,262.0,31200.0,-9.030928611755373,-1.6202759742736816,3.025672435760498
518,263.0,31300.0,-9.030928611755373,-1.6202759742736816,3.025672435760498
519,264.0,31400.0,-9.074623107910156,-1.6226701736450195,3.026869535446167
520,265.0,31500.0,-9.074623107910156,-1.6226701736450195,3.026869535446167
521,266.0,31600.0,-9.06145477294922,-1.6280571222305298,2.9700071811676025
522,267.0,31700.0,-9.06145477294922,-1.6280571222305298,2.9700071811676025
523,268.0,31800.0,-9.058462142944336,-1.6376339197158811,2.9879636764526367
524,269.0,31900.0,-9.033323287963867,-1.6316484212875366,3.0406360626220703
525,270.0,32000.0,-9.033323287963867,-1.6316484212875366,3.0406360626220703
526,271.0,32100.0,-9.051279067993164,-1.6687586307525637,3.0214824676513667
527,272.0,32200.0,-9.051279067993164,-1.6687586307525637,3.0214824676513667
528,273.0,32300.0,-8.983643531799316,-1.6627731323242188,3.0364463329315186
529,274.0,32400.0,-8.983643531799316,-1.6627731323242188,3.0364463329315186
530,275.0,32500.0,-9.097368240356444,-1.6268600225448608,2.9065608978271484
531,276.0,32600.0,-9.097368240356444,-1.6268600225448608,2.9065608978271484
532,277.0,32700.0,-9.023147583007812,-1.6280571222305298,3.0107085704803467
533,278.0,32800.0,-9.12071132659912,-1.5873557329177856,2.8844144344329834
534,279.0,32900.0,-9.12071132659912,-1.5873557329177856,2.8844144344329834
535,280.0,33000.0,-8.97885513305664,-1.6759412288665771,3.0172927379608154
536,281.0,33100.0,-8.97885513305664,-1.6759412288665771,3.0172927379608154
537,282.0,33200.0,-9.121908187866213,-1.6466121673583984,2.729389905929565
538,283.0,33300.0,-9.121908187866213,-1.6466121673583984,2.729389905929565
539,284.0,33400.0,-9.124900817871094,-1.5771803855895996,3.0544028282165527
540,270.0,32000.0,-9.033323287963867,-1.6316484212875366,3.0406360626220703
541,271.0,32100.0,-9.051279067993164,-1.6687586307525637,3.0214824676513667
542,272.0,32200.0,-9.051279067993164,-1.6687586307525637,3.0214824676513667
543,273.0,32300.0,-8.983643531799316,-1.6627731323242188,3.0364463329315186
544,274.0,32400.0,-8.983643531799316,-1.6627731323242188,3.0364463329315186
545,275.0,32500.0,-9.097368240356444,-1.6268600225448608,2.9065608978271484
546,276.0,32600.0,-9.097368240356444,-1.6268600225448608,2.9065608978271484
547,277.0,32700.0,-9.023147583007812,-1.6280571222305298,3.0107085704803467
548,278.0,32800.0,-9.12071132659912,-1.5873557329177856,2.8844144344329834
549,279.0,32900.0,-9.12071132659912,-1.5873557329177856,2.8844144344329834
550,280.0,33000.0,-8.97885513305664,-1.6759412288665771,3.0172927379608154
551,281.0,33100.0,-8.97885513305664,-1.6759412288665771,3.0172927379608154
552,282.0,33200.0,-9.121908187866213,-1.6466121673583984,2.729389905929565
553,283.0,33300.0,-9.121908187866213,-1.6466121673583984,2.729389905929565
554,284.0,33400.0,-9.124900817871094,-1.5771803855895996,3.0544028282165527
555,285.0,33500.0,-9.124900817871094,-1.5771803855895996,3.0544028282165527
556,286.0,33600.0,-9.413402557373047,-1.4610615968704224,2.6390087604522705
557,287.0,33700.0,-9.3643217086792,-1.5855600833892822,2.935889720916748
558,288.0,33800.0,-9.3643217086792,-1.5855600833892822,2.935889720916748
559,289.0,33900.0,-9.12849235534668,-1.5436615943908691,2.8850131034851074
560,290.0,34000.0,-9.12849235534668,-1.5436615943908691,2.8850131034851074
561,291.0,34100.0,-9.107542991638184,-1.6280571222305298,2.895787000656128
562,292.0,34200.0,-9.107542991638184,-1.6280571222305298,2.895787000656128
563,293.0,34300.0,-9.11233139038086,-1.5795745849609375,2.8718450069427486
564,294.0,34400.0,-9.11233139038086,-1.5795745849609375,2.8718450069427486
565,295.0,34500.0,-9.10874080657959,-1.6130933761596682,2.8526914119720463
566,296.0,34600.0,-9.114726066589355,-1.6130933761596682,2.871246337890625
567,297.0,34700.0,-9.114726066589355,-1.6130933761596682,2.871246337890625
568,298.0,34800.0,-9.068038940429688,-1.646013617515564,2.9107506275177
569,299.0,34900.0,-9.068038940429688,-1.646013617515564,2.9107506275177
570,285.0,33500.0,-9.124900817871094,-1.5771803855895996,3.0544028282165527
571,286.0,33600.0,-9.413402557373047,-1.4610615968704224,2.6390087604522705
572,287.0,33700.0,-9.3643217086792,-1.5855600833892822,2.935889720916748
573,288.0,33800.0,-9.3643217086792,-1.5855600833892822,2.935889720916748
574,289.0,33900.0,-9.12849235534668,-1.5436615943908691,2.8850131034851074
575,290.0,34000.0,-9.12849235534668,-1.5436615943908691,2.8850131034851074
576,291.0,34100.0,-9.107542991638184,-1.6280571222305298,2.895787000656128
577,292.0,34200.0,-9.107542991638184,-1.6280571222305298,2.895787000656128
578,293.0,34300.0,-9.11233139038086,-1.5795745849609375,2.8718450069427486
579,294.0,34400.0,-9.11233139038086,-1.5795745849609375,2.8718450069427486
580,295.0,34500.0,-9.10874080657959,-1.6130933761596682,2.8526914119720463
581,296.0,34600.0,-9.114726066589355,-1.6130933761596682,2.871246337890625
582,297.0,34700.0,-9.114726066589355,-1.6130933761596682,2.871246337890625
583,298.0,34800.0,-9.068038940429688,-1.646013617515564,2.9107506275177
584,299.0,34900.0,-9.068038940429688,-1.646013617515564,2.9107506275177
585,300.0,35000.0,-9.07222843170166,-1.623268723487854,2.871246337890625
586,301.0,35100.0,-9.07222843170166,-1.623268723487854,2.871246337890625
587,302.0,35200.0,-9.093177795410156,-1.63344407081604,2.882020235061645
588,303.0,35300.0,-9.093177795410156,-1.63344407081604,2.882020235061645
589,304.0,35400.0,-9.091382026672363,-1.6059107780456543,2.8664579391479488
590,305.0,35500.0,-9.119514465332033,-1.5963339805603027,2.8670566082000732
591,306.0,35600.0,-9.119514465332033,-1.5963339805603027,2.8670566082000732
592,307.0,35700.0,-9.091980934143066,-1.6412252187728882,2.844910144805908
593,308.0,35800.0,-9.091980934143066,-1.6412252187728882,2.844910144805908
594,309.0,35900.0,-9.051279067993164,-1.6741455793380735,2.9083564281463623
595,310.0,36000.0,-9.051279067993164,-1.6741455793380735,2.9083564281463623
596,311.0,36100.0,-9.115324020385742,-1.6454150676727295,2.8401217460632324
597,312.0,36200.0,-9.115324020385742,-1.6454150676727295,2.8401217460632324
598,313.0,36300.0,-9.097368240356444,-1.6196774244308472,2.8814218044281006
599,314.0,36400.0,-9.117119789123537,-1.6238672733306885,2.8353333473205566
600,300.0,35000.0,-9.07222843170166,-1.623268723487854,2.871246337890625
601,301.0,35100.0,-9.07222843170166,-1.623268723487854,2.871246337890625
602,302.0,35200.0,-9.093177795410156,-1.63344407081604,2.882020235061645
603,303.0,35300.0,-9.093177795410156,-1.63344407081604,2.882020235061645
604,304.0,35400.0,-9.091382026672363,-1.6059107780456543,2.8664579391479488
605,305.0,35500.0,-9.119514465332033,-1.5963339805603027,2.8670566082000732
606,306.0,35600.0,-9.119514465332033,-1.5963339805603027,2.8670566082000732
607,307.0,35700.0,-9.091980934143066,-1.6412252187728882,2.844910144805908
608,308.0,35800.0,-9.091980934143066,-1.6412252187728882,2.844910144805908
609,309.0,35900.0,-9.051279067993164,-1.6741455793380735,2.9083564281463623
610,310.0,36000.0,-9.051279067993164,-1.6741455793380735,2.9083564281463623
611,311.0,36100.0,-9.115324020385742,-1.6454150676727295,2.8401217460632324
612,312.0,36200.0,-9.115324020385742,-1.6454150676727295,2.8401217460632324
613,313.0,36300.0,-9.097368240356444,-1.6196774244308472,2.8814218044281006
614,314.0,36400.0,-9.117119789123537,-1.6238672733306885,2.8353333473205566
615,315.0,36500.0,-9.117119789123537,-1.6238672733306885,2.8353333473205566
616,316.0,36600.0,-9.096170425415039,-1.6322469711303709,2.8838160037994385
617,317.0,36700.0,-9.096170425415039,-1.6322469711303709,2.8838160037994385
618,318.0,36800.0,-9.073426246643066,-1.611896276473999,2.8652608394622803
619,319.0,36900.0,-9.073426246643066,-1.611896276473999,2.8652608394622803
620,320.0,37000.0,-9.082404136657717,-1.6238672733306885,2.8963854312896733
621,321.0,37100.0,-9.082404136657717,-1.6238672733306885,2.8963854312896733
622,322.0,37200.0,-9.071630477905273,-1.6400281190872192,2.8850131034851074
623,323.0,37300.0,-9.099164009094238,-1.6166846752166748,2.890399932861328
624,324.0,37400.0,-9.099164009094238,-1.6166846752166748,2.890399932861328
625,325.0,37500.0,-9.122507095336914,-1.6196774244308472,2.853888511657715
626,326.0,37600.0,-9.122507095336914,-1.6196774244308472,2.853888511657715
627,327.0,37700.0,-9.07522201538086,-1.6352397203445437,2.8987796306610107
628,328.0,37800.0,-9.07522201538086,-1.6352397203445437,2.8987796306610107
629,329.0,37900.0,-9.083600997924805,-1.63344407081604,2.8784289360046387
630,315.0,36500.0,-9.117119789123537,-1.6238672733306885,2.8353333473205566
631,316.0,36600.0,-9.096170425415039,-1.6322469711303709,2.8838160037994385
632,317.0,36700.0,-9.096170425415039,-1.6322469711303709,2.8838160037994385
633,318.0,36800.0,-9.073426246643066,-1.611896276473999,2.8652608394622803
634,319.0,36900.0,-9.073426246643066,-1.611896276473999,2.8652608394622803
635,320.0,37000.0,-9.082404136657717,-1.6238672733306885,2.8963854312896733
636,321.0,37100.0,-9.082404136657717,-1.6238672733306885,2.8963854312896733
637,322.0,37200.0,-9.071630477905273,-1.6400281190872192,2.8850131034851074
638,323.0,37300.0,-9.099164009094238,-1.6166846752166748,2.890399932861328
639,324.0,37400.0,-9.099164009094238,-1.6166846752166748,2.890399932861328
640,325.0,37500.0,-9.122507095336914,-1.6196774244308472,2.853888511657715
641,326.0,37600.0,-9.122507095336914,-1.6196774244308472,2.853888511657715
642,327.0,37700.0,-9.07522201538086,-1.6352397203445437,2.8987796306610107
643,328.0,37800.0,-9.07522201538086,-1.6352397203445437,2.8987796306610107
644,329.0,37900.0,-9.083600997924805,-1.63344407081604,2.8784289360046387
645,330.0,38000.0,-9.083600997924805,-1.63344407081604,2.8784289360046387
646,331.0,38100.0,-9.170989990234377,-1.627458572387695,2.800018787384033
647,332.0,38200.0,-9.03511905670166,-1.6932991743087769,2.966415882110596
648,333.0,38300.0,-9.03511905670166,-1.6932991743087769,2.966415882110596
649,334.0,38400.0,-9.129091262817383,-1.6202759742736816,2.82515811920166
650,335.0,38500.0,-9.129091262817383,-1.6202759742736816,2.82515811920166
651,336.0,38600.0,-9.051877975463867,-1.6418237686157229,2.925714492797852
652,337.0,38700.0,-9.051877975463867,-1.6418237686157229,2.925714492797852
653,338.0,38800.0,-9.115922927856444,-1.5957354307174685,2.8562827110290527
654,339.0,38900.0,-9.115922927856444,-1.5957354307174685,2.8562827110290527
655,340.0,39000.0,-9.084798812866213,-1.6388310194015503,2.9263129234313965
656,341.0,39100.0,-9.170391082763672,-1.6136919260025024,2.779069662094116
657,342.0,39200.0,-9.170391082763672,-1.6136919260025024,2.779069662094116
658,343.0,39300.0,-9.062053680419922,-1.6250643730163574,2.816179752349853
659,344.0,39400.0,-9.062053680419922,-1.6250643730163574,2.816179752349853
660,330.0,38000.0,-9.083600997924805,-1.63344407081604,2.8784289360046387
661,331.0,38100.0,-9.170989990234377,-1.627458572387695,2.800018787384033
662,332.0,38200.0,-9.03511905670166,-1.6932991743087769,2.966415882110596
663,333.0,38300.0,-9.03511905670166,-1.6932991743087769,2.966415882110596
664,334.0,38400.0,-9.129091262817383,-1.6202759742736816,2.82515811920166
665,335.0,38500.0,-9.129091262817383,-1.6202759742736816,2.82515811920166
666,336.0,38600.0,-9.051877975463867,-1.6418237686157229,2.925714492797852
667,337.0,38700.0,-9.051877975463867,-1.6418237686157229,2.925714492797852
668,338.0,38800.0,-9.115922927856444,-1.5957354307174685,2.8562827110290527
669,339.0,38900.0,-9.115922927856444,-1.5957354307174685,2.8562827110290527
670,340.0,39000.0,-9.084798812866213,-1.6388310194015503,2.9263129234313965
671,341.0,39100.0,-9.170391082763672,-1.6136919260025024,2.779069662094116
672,342.0,39200.0,-9.170391082763672,-1.6136919260025024,2.779069662094116
673,343.0,39300.0,-9.062053680419922,-1.6250643730163574,2.816179752349853
674,344.0,39400.0,-9.062053680419922,-1.6250643730163574,2.816179752349853
675,345.0,39500.0,-9.090784072875977,-1.5364789962768557,2.9526493549346924
676,346.0,39600.0,-9.090784072875977,-1.5364789962768557,2.9526493549346924
677,347.0,39700.0,-8.990825653076172,-1.5466543436050415,2.981379747390747
678,348.0,39800.0,-8.990825653076172,-1.5466543436050415,2.981379747390747
679,349.0,39900.0,-9.120112419128418,-1.533486247062683,2.8562827110290527
680,350.0,40000.0,-9.15004062652588,-1.6502034664154053,2.844311714172364
681,351.0,40100.0,-9.15004062652588,-1.6502034664154053,2.844311714172364
682,352.0,40200.0,-9.110535621643066,-1.6903064250946045,2.9233202934265137
683,353.0,40300.0,-9.110535621643066,-1.6903064250946045,2.9233202934265137
684,354.0,40400.0,-9.123106002807617,-1.5735890865325928,2.867655038833618
685,355.0,40500.0,-9.123106002807617,-1.5735890865325928,2.867655038833618
686,356.0,40600.0,-9.073426246643066,-1.6244658231735232,2.9215245246887207
687,357.0,40700.0,-9.073426246643066,-1.6244658231735232,2.9215245246887207
688,358.0,40800.0,-9.141660690307617,-1.5382746458053589,2.815581083297728
689,359.0,40900.0,-9.077615737915039,-1.6729484796524048,2.917933225631714
690,345.0,39500.0,-9.090784072875977,-1.5364789962768557,2.9526493549346924
691,346.0,39600.0,-9.090784072875977,-1.5364789962768557,2.9526493549346924
692,347.0,39700.0,-8.990825653076172,-1.5466543436050415,2.981379747390747
693,348.0,39800.0,-8.990825653076172,-1.5466543436050415,2.981379747390747
694,349.0,39900.0,-9.120112419128418,-1.533486247062683,2.8562827110290527
695,350.0,40000.0,-9.15004062652588,-1.6502034664154053,2.844311714172364
696,351.0,40100.0,-9.15004062652588,-1.6502034664154053,2.844311714172364
697,352.0,40200.0,-9.110535621643066,-1.6903064250946045,2.9233202934265137
698,353.0,40300.0,-9.110535621643066,-1.6903064250946045,2.9233202934265137
699,354.0,40400.0,-9.123106002807617,-1.5735890865325928,2.867655038833618
700,355.0,40500.0,-9.123106002807617,-1.5735890865325928,2.867655038833618
701,356.0,40600.0,-9.073426246643066,-1.6244658231735232,2.9215245246887207
702,357.0,40700.0,-9.073426246643066,-1.6244658231735232,2.9215245246887207
703,358.0,40800.0,-9.141660690307617,-1.5382746458053589,2.815581083297728
704,359.0,40900.0,-9.077615737915039,-1.6729484796524048,2.917933225631714
705,360.0,41000.0,-9.077615737915039,-1.6729484796524048,2.917933225631714
706,361.0,41100.0,-9.16201114654541,-1.5436615943908691,2.9155390262603764
707,362.0,41200.0,-9.16201114654541,-1.5436615943908691,2.9155390262603764
708,363.0,41300.0,-9.057863235473633,-1.5897499322891235,2.9305028915405287
709,364.0,41400.0,-9.057863235473633,-1.5897499322891235,2.9305028915405287
710,365.0,41500.0,-9.13687229156494,-1.6071078777313232,2.803011655807495
711,366.0,41600.0,-9.13687229156494,-1.6071078777313232,2.803011655807495
712,367.0,41700.0,-9.012373924255373,-1.5670050382614136,2.9777884483337402
713,368.0,41800.0,-9.012373924255373,-1.5670050382614136,2.9777884483337402
714,369.0,41900.0,-9.160215377807617,-1.5951368808746338,2.7473464012146
715,370.0,42000.0,-9.119514465332033,-1.6130933761596682,2.9059622287750244
716,371.0,42100.0,-9.119514465332033,-1.6130933761596682,2.9059622287750244
717,372.0,42200.0,-9.119514465332033,-1.620874524116516,2.8491001129150386
718,373.0,42300.0,-9.119514465332033,-1.620874524116516,2.8491001129150386
719,374.0,42400.0,-9.050082206726074,-1.6035165786743164,2.927510023117065
720,360.0,41000.0,-9.077615737915039,-1.6729484796524048,2.917933225631714
721,361.0,41100.0,-9.16201114654541,-1.5436615943908691,2.9155390262603764
722,362.0,41200.0,-9.16201114654541,-1.5436615943908691,2.9155390262603764
723,363.0,41300.0,-9.057863235473633,-1.5897499322891235,2.9305028915405287
724,364.0,41400.0,-9.057863235473633,-1.5897499322891235,2.9305028915405287
725,365.0,41500.0,-9.13687229156494,-1.6071078777313232,2.803011655807495
726,366.0,41600.0,-9.13687229156494,-1.6071078777313232,2.803011655807495
727,367.0,41700.0,-9.012373924255373,-1.5670050382614136,2.9777884483337402
728,368.0,41800.0,-9.012373924255373,-1.5670050382614136,2.9777884483337402
729,369.0,41900.0,-9.160215377807617,-1.5951368808746338,2.7473464012146
730,370.0,42000.0,-9.119514465332033,-1.6130933761596682,2.9059622287750244
731,371.0,42100.0,-9.119514465332033,-1.6130933761596682,2.9059622287750244
732,372.0,42200.0,-9.119514465332033,-1.620874524116516,2.8491001129150386
733,373.0,42300.0,-9.119514465332033,-1.620874524116516,2.8491001129150386
734,374.0,42400.0,-9.050082206726074,-1.6035165786743164,2.927510023117065
735,375.0,42500.0,-9.050082206726074,-1.6035165786743164,2.927510023117065
736,376.0,42600.0,-9.100958824157717,-1.5867571830749512,2.8658595085144043
737,377.0,42700.0,-9.078812599182127,-1.6047136783599854,2.9065608978271484
738,378.0,42800.0,-9.078812599182127,-1.6047136783599854,2.9065608978271484
739,379.0,42900.0,-9.109338760375977,-1.5933412313461304,2.8880057334899902
740,380.0,43000.0,-9.109338760375977,-1.5933412313461304,2.8880057334899902
741,381.0,43100.0,-9.096170425415039,-1.61069917678833,2.9316999912261963
742,382.0,43200.0,-9.096170425415039,-1.61069917678833,2.9316999912261963
743,383.0,43300.0,-9.11113452911377,-1.6059107780456543,2.8856115341186523
744,384.0,43400.0,-9.11113452911377,-1.6059107780456543,2.8856115341186523
745,385.0,43500.0,-9.083600997924805,-1.5933412313461304,2.935291290283203
746,386.0,43600.0,-9.091980934143066,-1.6065093278884888,2.890399932861328
747,387.0,43700.0,-9.091980934143066,-1.6065093278884888,2.890399932861328
748,388.0,43800.0,-9.099164009094238,-1.6178817749023438,2.9227216243743896
749,389.0,43900.0,-9.099164009094238,-1.6178817749023438,2.9227216243743896
750,375.0,42500.0,-9.050082206726074,-1.6035165786743164,2.927510023117065
751,376.0,42600.0,-9.100958824157717,-1.5867571830749512,2.8658595085144043
752,377.0,42700.0,-9.078812599182127,-1.6047136783599854,2.9065608978271484
753,378.0,42800.0,-9.078812599182127,-1.6047136783599854,2.9065608978271484
754,379.0,42900.0,-9.109338760375977,-1.5933412313461304,2.8880057334899902
755,380.0,43000.0,-9.109338760375977,-1.5933412313461304,2.8880057334899902
756,381.0,43100.0,-9.096170425415039,-1.61069917678833,2.9316999912261963
757,382.0,43200.0,-9.096170425415039,-1.61069917678833,2.9316999912261963
758,383.0,43300.0,-9.11113452911377,-1.6059107780456543,2.8856115341186523
759,384.0,43400.0,-9.11113452911377,-1.6059107780456543,2.8856115341186523
760,385.0,43500.0,-9.083600997924805,-1.5933412313461304,2.935291290283203
761,386.0,43600.0,-9.091980934143066,-1.6065093278884888,2.890399932861328
762,387.0,43700.0,-9.091980934143066,-1.6065093278884888,2.890399932861328
763,388.0,43800.0,-9.099164009094238,-1.6178817749023438,2.9227216243743896
764,389.0,43900.0,-9.099164009094238,-1.6178817749023438,2.9227216243743896
765,390.0,44000.0,-9.070432662963867,-1.634641170501709,2.9065608978271484
766,391.0,44100.0,-9.070432662963867,-1.634641170501709,2.9065608978271484
767,392.0,44200.0,-9.068038940429688,-1.6101006269454956,2.9083564281463623
768,393.0,44300.0,-9.068038940429688,-1.6101006269454956,2.9083564281463623
769,394.0,44400.0,-9.099761962890623,-1.5957354307174685,2.8868086338043213
770,395.0,44500.0,-9.099761962890623,-1.5957354307174685,2.8868086338043213
771,396.0,44600.0,-9.085396766662598,-1.623268723487854,2.8886044025421143
772,397.0,44700.0,-9.105149269104004,-1.6202759742736816,2.8814218044281006
773,398.0,44800.0,-9.105149269104004,-1.6202759742736816,2.8814218044281006
774,399.0,44900.0,-9.083003044128418,-1.61069917678833,2.872443437576294
775,400.0,45000.0,-9.083003044128418,-1.61069917678833,2.872443437576294
776,401.0,45100.0,-9.091382026672363,-1.6047136783599854,2.879626035690308
777,402.0,45200.0,-9.091382026672363,-1.6047136783599854,2.879626035690308
778,403.0,45300.0,-9.079411506652832,-1.6160861253738403,2.9215245246887207
779,404.0,45400.0,-9.079411506652832,-1.6160861253738403,2.9215245246887207
780,390.0,44000.0,-9.070432662963867,-1.634641170501709,2.9065608978271484
781,391.0,44100.0,-9.070432662963867,-1.634641170501709,2.9065608978271484
782,392.0,44200.0,-9.068038940429688,-1.6101006269454956,2.9083564281463623
783,393.0,44300.0,-9.068038940429688,-1.6101006269454956,2.9083564281463623
784,394.0,44400.0,-9.099761962890623,-1.5957354307174685,2.8868086338043213
785,395.0,44500.0,-9.099761962890623,-1.5957354307174685,2.8868086338043213
786,396.0,44600.0,-9.085396766662598,-1.623268723487854,2.8886044025421143
787,397.0,44700.0,-9.105149269104004,-1.6202759742736816,2.8814218044281006
788,398.0,44800.0,-9.105149269104004,-1.6202759742736816,2.8814218044281006
789,399.0,44900.0,-9.083003044128418,-1.61069917678833,2.872443437576294
790,400.0,45000.0,-9.083003044128418,-1.61069917678833,2.872443437576294
791,401.0,45100.0,-9.091382026672363,-1.6047136783599854,2.879626035690308
792,402.0,45200.0,-9.091382026672363,-1.6047136783599854,2.879626035690308
793,403.0,45300.0,-9.079411506652832,-1.6160861253738403,2.9215245246887207
794,404.0,45400.0,-9.079411506652832,-1.6160861253738403,2.9215245246887207
795,405.0,45500.0,-9.086593627929688,-1.599326729774475,2.897582530975342
796,406.0,45600.0,-9.06863784790039,-1.5963339805603027,2.9071593284606934
797,407.0,45700.0,-9.06863784790039,-1.5963339805603027,2.9071593284606934
798,408.0,45800.0,-9.08719253540039,-1.6065093278884888,2.8772318363189697
799,409.0,45900.0,-9.08719253540039,-1.6065093278884888,2.8772318363189697
800,410.0,46000.0,-9.093177795410156,-1.6011223793029783,2.897582530975342
801,411.0,46100.0,-9.093177795410156,-1.6011223793029783,2.897582530975342
802,412.0,46200.0,-9.089587211608887,-1.6017209291458132,2.864063739776612
803,413.0,46300.0,-9.089587211608887,-1.6017209291458132,2.864063739776612
804,414.0,46400.0,-9.089587211608887,-1.5999252796173096,2.913144826889038
805,415.0,46500.0,-9.100360870361328,-1.5981296300888062,2.880823135375977
806,416.0,46600.0,-9.100360870361328,-1.5981296300888062,2.880823135375977
807,417.0,46700.0,-9.080010414123537,-1.6166846752166748,2.8981812000274663
808,418.0,46800.0,-9.080010414123537,-1.6166846752166748,2.8981812000274663
809,419.0,46900.0,-9.101557731628418,-1.602918028831482,2.8604724407196045
810,405.0,45500.0,-9.086593627929688,-1.599326729774475,2.897582530975342
811,406.0,45600.0,-9.06863784790039,-1.5963339805603027,2.9071593284606934
812,407.0,45700.0,-9.06863784790039,-1.5963339805603027,2.9071593284606934
813,408.0,45800.0,-9.08719253540039,-1.6065093278884888,2.8772318363189697
814,409.0,45900.0,-9.08719253540039,-1.6065093278884888,2.8772318363189697
815,410.0,46000.0,-9.093177795410156,-1.6011223793029783,2.897582530975342
816,411.0,46100.0,-9.093177795410156,-1.6011223793029783,2.897582530975342
817,412.0,46200.0,-9.089587211608887,-1.6017209291458132,2.864063739776612
818,413.0,46300.0,-9.089587211608887,-1.6017209291458132,2.864063739776612
819,414.0,46400.0,-9.089587211608887,-1.5999252796173096,2.913144826889038
820,415.0,46500.0,-9.100360870361328,-1.5981296300888062,2.880823135375977
821,416.0,46600.0,-9.100360870361328,-1.5981296300888062,2.880823135375977
822,417.0,46700.0,-9.080010414123537,-1.6166846752166748,2.8981812000274663
823,418.0,46800.0,-9.080010414123537,-1.6166846752166748,2.8981812000274663
824,419.0,46900.0,-9.101557731628418,-1.602918028831482,2.8604724407196045
825,420.0,47000.0,-9.101557731628418,-1.602918028831482,2.8604724407196045
826,421.0,47100.0,-9.058462142944336,-1.6280571222305298,2.876034736633301
827,422.0,47200.0,-9.058462142944336,-1.6280571222305298,2.876034736633301
828,423.0,47300.0,-9.118915557861328,-1.5592238903045654,2.862268209457397
829,424.0,47400.0,-9.066243171691896,-1.6071078777313232,2.87064790725708
830,425.0,47500.0,-9.066243171691896,-1.6071078777313232,2.87064790725708
831,426.0,47600.0,-9.068038940429688,-1.614290475845337,2.913144826889038
832,427.0,47700.0,-9.068038940429688,-1.614290475845337,2.913144826889038
833,428.0,47800.0,-9.07103157043457,-1.5963339805603027,2.912546396255493
834,429.0,47900.0,-9.07103157043457,-1.5963339805603027,2.912546396255493
835,430.0,48000.0,-9.08719253540039,-1.6035165786743164,2.8754363059997563
836,431.0,48100.0,-9.08719253540039,-1.6035165786743164,2.8754363059997563
837,432.0,48200.0,-9.098565101623537,-1.594538331031799,2.8868086338043213
838,433.0,48300.0,-9.091382026672363,-1.6382324695587158,2.891597032546997
839,434.0,48400.0,-9.091382026672363,-1.6382324695587158,2.891597032546997
840,420.0,47000.0,-9.101557731628418,-1.602918028831482,2.8604724407196045
841,421.0,47100.0,-9.058462142944336,-1.6280571222305298,2.876034736633301
842,422.0,47200.0,-9.058462142944336,-1.6280571222305298,2.876034736633301
843,423.0,47300.0,-9.118915557861328,-1.5592238903045654,2.862268209457397
844,424.0,47400.0,-9.066243171691896,-1.6071078777313232,2.87064790725708
845,425.0,47500.0,-9.066243171691896,-1.6071078777313232,2.87064790725708
846,426.0,47600.0,-9.068038940429688,-1.614290475845337,2.913144826889038
847,427.0,47700.0,-9.068038940429688,-1.614290475845337,2.913144826889038
848,428.0,47800.0,-9.07103157043457,-1.5963339805603027,2.912546396255493
849,429.0,47900.0,-9.07103157043457,-1.5963339805603027,2.912546396255493
850,430.0,48000.0,-9.08719253540039,-1.6035165786743164,2.8754363059997563
851,431.0,48100.0,-9.08719253540039,-1.6035165786743164,2.8754363059997563
852,432.0,48200.0,-9.098565101623537,-1.594538331031799,2.8868086338043213
853,433.0,48300.0,-9.091382026672363,-1.6382324695587158,2.891597032546997
854,434.0,48400.0,-9.091382026672363,-1.6382324695587158,2.891597032546997
855,435.0,48500.0,-9.085396766662598,-1.6304513216018677,2.9041666984558105
856,436.0,48600.0,-9.085396766662598,-1.6304513216018677,2.9041666984558105
857,437.0,48700.0,-9.075819969177246,-1.63344407081604,2.928108692169189
858,438.0,48800.0,-9.075819969177246,-1.63344407081604,2.928108692169189
859,439.0,48900.0,-9.106346130371094,-1.620874524116516,2.8993782997131348
860,440.0,49000.0,-9.106346130371094,-1.620874524116516,2.8993782997131348
861,441.0,49100.0,-9.103952407836914,-1.6095020771026611,2.8886044025421143
862,442.0,49200.0,-9.114127159118652,-1.6160861253738403,2.8886044025421143
863,443.0,49300.0,-9.114127159118652,-1.6160861253738403,2.8886044025421143
864,444.0,49400.0,-9.090185165405273,-1.6166846752166748,2.910152196884156
865,445.0,49500.0,-9.090185165405273,-1.6166846752166748,2.910152196884156
866,446.0,49600.0,-9.091382026672363,-1.6112977266311646,2.894589900970459
867,447.0,49700.0,-9.091382026672363,-1.6112977266311646,2.894589900970459
868,448.0,49800.0,-9.084798812866213,-1.6298527717590332,2.8856115341186523
869,449.0,49900.0,-9.084798812866213,-1.6298527717590332,2.8856115341186523
870,435.0,48500.0,-9.085396766662598,-1.6304513216018677,2.9041666984558105
871,436.0,48600.0,-9.085396766662598,-1.6304513216018677,2.9041666984558105
872,437.0,48700.0,-9.075819969177246,-1.63344407081604,2.928108692169189
873,438.0,48800.0,-9.075819969177246,-1.63344407081604,2.928108692169189
874,439.0,48900.0,-9.106346130371094,-1.620874524116516,2.8993782997131348
875,440.0,49000.0,-9.106346130371094,-1.620874524116516,2.8993782997131348
876,441.0,49100.0,-9.103952407836914,-1.6095020771026611,2.8886044025421143
877,442.0,49200.0,-9.114127159118652,-1.6160861253738403,2.8886044025421143
878,443.0,49300.0,-9.114127159118652,-1.6160861253738403,2.8886044025421143
879,444.0,49400.0,-9.090185165405273,-1.6166846752166748,2.910152196884156
880,445.0,49500.0,-9.090185165405273,-1.6166846752166748,2.910152196884156
881,446.0,49600.0,-9.091382026672363,-1.6112977266311646,2.894589900970459
882,447.0,49700.0,-9.091382026672363,-1.6112977266311646,2.894589900970459
883,448.0,49800.0,-9.084798812866213,-1.6298527717590332,2.8856115341186523
884,449.0,49900.0,-9.084798812866213,-1.6298527717590332,2.8856115341186523
885,450.0,50000.0,-9.091382026672363,-1.5981296300888062,2.8987796306610107
886,451.0,50100.0,-9.097966194152832,-1.625662922859192,2.8892028331756587
887,452.0,50200.0,-9.097966194152832,-1.625662922859192,2.8892028331756587
888,453.0,50300.0,-9.102754592895508,-1.61069917678833,2.897582530975342
889,454.0,50400.0,-9.102754592895508,-1.61069917678833,2.897582530975342
890,455.0,50500.0,-9.10574722290039,-1.6148890256881714,2.8874073028564453
891,456.0,50600.0,-9.10574722290039,-1.6148890256881714,2.8874073028564453
892,457.0,50700.0,-9.091382026672363,-1.6196774244308472,2.852092742919922
893,458.0,50800.0,-9.091382026672363,-1.6196774244308472,2.852092742919922
894,459.0,50900.0,-9.106346130371094,-1.6322469711303709,2.8856115341186523
895,460.0,51000.0,-9.108141899108887,-1.6214730739593506,2.8682537078857417
896,461.0,51100.0,-9.108141899108887,-1.6214730739593506,2.8682537078857417
897,462.0,51200.0,-9.083600997924805,-1.6286556720733645,2.8862102031707764
898,463.0,51300.0,-9.083600997924805,-1.6286556720733645,2.8862102031707764
899,464.0,51400.0,-9.112930297851564,-1.6280571222305298,2.8604724407196045
900,450.0,50000.0,-9.091382026672363,-1.5981296300888062,2.8987796306610107
901,451.0,50100.0,-9.097966194152832,-1.625662922859192,2.8892028331756587
902,452.0,50200.0,-9.097966194152832,-1.625662922859192,2.8892028331756587
903,453.0,50300.0,-9.102754592895508,-1.61069917678833,2.897582530975342
904,454.0,50400.0,-9.102754592895508,-1.61069917678833,2.897582530975342
905,455.0,50500.0,-9.10574722290039,-1.6148890256881714,2.8874073028564453
906,456.0,50600.0,-9.10574722290039,-1.6148890256881714,2.8874073028564453
907,457.0,50700.0,-9.091382026672363,-1.6196774244308472,2.852092742919922
908,458.0,50800.0,-9.091382026672363,-1.6196774244308472,2.852092742919922
909,459.0,50900.0,-9.106346130371094,-1.6322469711303709,2.8856115341186523
910,460.0,51000.0,-9.108141899108887,-1.6214730739593506,2.8682537078857417
911,461.0,51100.0,-9.108141899108887,-1.6214730739593506,2.8682537078857417
912,462.0,51200.0,-9.083600997924805,-1.6286556720733645,2.8862102031707764
913,463.0,51300.0,-9.083600997924805,-1.6286556720733645,2.8862102031707764
914,464.0,51400.0,-9.112930297851564,-1.6280571222305298,2.8604724407196045
915,465.0,51500.0,-9.112930297851564,-1.6280571222305298,2.8604724407196045
916,466.0,51600.0,-9.149441719055176,-1.5568296909332275,2.8634653091430664
917,467.0,51700.0,-9.149441719055176,-1.5568296909332275,2.8634653091430664
918,468.0,51800.0,-9.060855865478516,-1.6065093278884888,2.928108692169189
919,469.0,51900.0,-9.060855865478516,-1.6615760326385498,2.9221231937408447
920,470.0,52000.0,-9.060855865478516,-1.6615760326385498,2.9221231937408447
921,471.0,52100.0,-9.100360870361328,-1.6268600225448608,2.9047651290893555
922,472.0,52200.0,-9.100360870361328,-1.6268600225448608,2.9047651290893555
923,473.0,52300.0,-9.106945037841797,-1.5897499322891235,2.870049238204956
924,474.0,52400.0,-9.106945037841797,-1.5897499322891235,2.870049238204956
925,475.0,52500.0,-9.088988304138184,-1.6035165786743164,2.873042106628418
926,476.0,52600.0,-9.088988304138184,-1.6035165786743164,2.873042106628418
927,477.0,52700.0,-9.080010414123537,-1.6214730739593506,2.8886044025421143
928,478.0,52800.0,-9.097368240356444,-1.627458572387695,2.87064790725708
929,479.0,52900.0,-9.097368240356444,-1.627458572387695,2.87064790725708
930,465.0,51500.0,-9.112930297851564,-1.6280571222305298,2.8604724407196045
931,466.0,51600.0,-9.149441719055176,-1.5568296909332275,2.8634653091430664
932,467.0,51700.0,-9.149441719055176,-1.5568296909332275,2.8634653091430664
933,468.0,51800.0,-9.060855865478516,-1.6065093278884888,2.928108692169189
934,469.0,51900.0,-9.060855865478516,-1.6615760326385498,2.9221231937408447
935,470.0,52000.0,-9.060855865478516,-1.6615760326385498,2.9221231937408447
936,471.0,52100.0,-9.100360870361328,-1.6268600225448608,2.9047651290893555
937,472.0,52200.0,-9.100360870361328,-1.6268600225448608,2.9047651290893555
938,473.0,52300.0,-9.106945037841797,-1.5897499322891235,2.870049238204956
939,474.0,52400.0,-9.106945037841797,-1.5897499322891235,2.870049238204956
940,475.0,52500.0,-9.088988304138184,-1.6035165786743164,2.873042106628418
941,476.0,52600.0,-9.088988304138184,-1.6035165786743164,2.873042106628418
942,477.0,52700.0,-9.080010414123537,-1.6214730739593506,2.8886044025421143
943,478.0,52800.0,-9.097368240356444,-1.627458572387695,2.87064790725708
944,479.0,52900.0,-9.097368240356444,-1.627458572387695,2.87064790725708
945,480.0,53000.0,-9.145252227783203,-1.6418237686157229,2.855085611343384
946,481.0,53100.0,-9.145252227783203,-1.6418237686157229,2.855085611343384
947,482.0,53200.0,-9.093177795410156,-1.6148890256881714,2.9215245246887207
948,483.0,53300.0,-9.093177795410156,-1.6148890256881714,2.9215245246887207
949,484.0,53400.0,-9.09257984161377,-1.6621745824813845,2.7551276683807373
950,485.0,53500.0,-9.09257984161377,-1.6621745824813845,2.7551276683807373
951,486.0,53600.0,-9.043498039245604,-1.600523829460144,2.940678119659424
952,487.0,53700.0,-9.121908187866213,-1.5783774852752686,2.8592753410339355
953,488.0,53800.0,-9.121908187866213,-1.5783774852752686,2.8592753410339355
954,489.0,53900.0,-9.02135181427002,-1.6813281774520874,2.890998601913452
955,490.0,54000.0,-9.02135181427002,-1.6813281774520874,2.890998601913452
956,491.0,54100.0,-9.059061050415039,-1.5939397811889648,2.935889720916748
957,492.0,54200.0,-9.059061050415039,-1.5939397811889648,2.935889720916748
958,493.0,54300.0,-9.15961742401123,-1.5592238903045654,2.83174204826355
959,494.0,54400.0,-9.15961742401123,-1.5592238903045654,2.83174204826355
960,480.0,53000.0,-9.145252227783203,-1.6418237686157229,2.855085611343384
961,481.0,53100.0,-9.145252227783203,-1.6418237686157229,2.855085611343384
962,482.0,53200.0,-9.093177795410156,-1.6148890256881714,2.9215245246887207
963,483.0,53300.0,-9.093177795410156,-1.6148890256881714,2.9215245246887207
964,484.0,53400.0,-9.09257984161377,-1.6621745824813845,2.7551276683807373
965,485.0,53500.0,-9.09257984161377,-1.6621745824813845,2.7551276683807373
966,486.0,53600.0,-9.043498039245604,-1.600523829460144,2.940678119659424
967,487.0,53700.0,-9.121908187866213,-1.5783774852752686,2.8592753410339355
968,488.0,53800.0,-9.121908187866213,-1.5783774852752686,2.8592753410339355
969,489.0,53900.0,-9.02135181427002,-1.6813281774520874,2.890998601913452
970,490.0,54000.0,-9.02135181427002,-1.6813281774520874,2.890998601913452
971,491.0,54100.0,-9.059061050415039,-1.5939397811889648,2.935889720916748
972,492.0,54200.0,-9.059061050415039,-1.5939397811889648,2.935889720916748
973,493.0,54300.0,-9.15961742401123,-1.5592238903045654,2.83174204826355
974,494.0,54400.0,-9.15961742401123,-1.5592238903045654,2.83174204826355
975,495.0,54500.0,-9.080010414123537,-1.6172832250595093,2.919728994369507
976,496.0,54600.0,-9.115922927856444,-1.5897499322891235,2.845508813858032
977,497.0,54700.0,-9.115922927856444,-1.5897499322891235,2.845508813858032
978,498.0,54800.0,-8.990227699279785,-1.5298948287963867,3.0172927379608154
979,499.0,54900.0,-8.990227699279785,-1.5298948287963867,3.0172927379608154
980,500.0,55000.0,-9.106945037841797,-1.6352397203445437,2.806004285812378
981,501.0,55100.0,-9.106945037841797,-1.6352397203445437,2.806004285812378
982,502.0,55200.0,-9.057265281677246,-1.6262614727020264,2.996942043304444
983,503.0,55300.0,-9.057265281677246,-1.6262614727020264,2.996942043304444
984,504.0,55400.0,-9.102754592895508,-1.6418237686157229,2.874837636947632
985,505.0,55500.0,-9.042301177978516,-1.6316484212875366,2.9514522552490234
986,506.0,55600.0,-9.042301177978516,-1.6316484212875366,2.9514522552490234
987,507.0,55700.0,-9.07641887664795,-1.622071623802185,2.8790276050567627
988,508.0,55800.0,-9.07641887664795,-1.622071623802185,2.8790276050567627
989,509.0,55900.0,-9.081207275390623,-1.600523829460144,2.9041666984558105
990,495.0,54500.0,-9.080010414123537,-1.6172832250595093,2.919728994369507
991,496.0,54600.0,-9.115922927856444,-1.5897499322891235,2.845508813858032
992,497.0,54700.0,-9.115922927856444,-1.5897499322891235,2.845508813858032
993,498.0,54800.0,-8.990227699279785,-1.5298948287963867,3.0172927379608154
994,499.0,54900.0,-8.990227699279785,-1.5298948287963867,3.0172927379608154
995,500.0,55000.0,-9.106945037841797,-1.6352397203445437,2.806004285812378
996,501.0,55100.0,-9.106945037841797,-1.6352397203445437,2.806004285812378
997,502.0,55200.0,-9.057265281677246,-1.6262614727020264,2.996942043304444
998,503.0,55300.0,-9.057265281677246,-1.6262614727020264,2.996942043304444
999,504.0,55400.0,-9.102754592895508,-1.6418237686157229,2.874837636947632
1000,505.0,55500.0,-9.042301177978516,-1.6316484212875366,2.9514522552490234
1001,506.0,55600.0,-9.042301177978516,-1.6316484212875366,2.9514522552490234
1002,507.0,55700.0,-9.07641887664795,-1.622071623802185,2.8790276050567627
1003,508.0,55800.0,-9.07641887664795,-1.622071623802185,2.8790276050567627
1004,509.0,55900.0,-9.081207275390623,-1.600523829460144,2.9041666984558105
1005,510.0,56000.0,-9.081207275390623,-1.600523829460144,2.9041666984558105
1006,511.0,56100.0,-9.096769332885742,-1.6202759742736816,2.8754363059997563
1007,512.0,56200.0,-9.096769332885742,-1.6202759742736816,2.8754363059997563
1008,513.0,56300.0,-9.095572471618652,-1.6083049774169922,2.895188331604004
1009,514.0,56400.0,-9.09497356414795,-1.7064672708511353,2.8491001129150386
1010,515.0,56500.0,-9.09497356414795,-1.7064672708511353,2.8491001129150386
1011,516.0,56600.0,-9.14225959777832,-1.6819267272949219,2.9029695987701416
1012,517.0,56700.0,-9.14225959777832,-1.6819267272949219,2.9029695987701416
1013,518.0,56800.0,-9.163806915283203,-1.656787633895874,2.7431566715240483
1014,519.0,56900.0,-9.163806915283203,-1.656787633895874,2.7431566715240483
1015,520.0,57000.0,-9.073426246643066,-1.5939397811889648,2.959233283996582
1016,521.0,57100.0,-9.073426246643066,-1.5939397811889648,2.959233283996582
1017,522.0,57200.0,-9.115324020385742,-1.5861586332321167,2.8413188457489014
1018,523.0,57300.0,-9.079411506652832,-1.6615760326385498,2.93349552154541
1019,524.0,57400.0,-9.079411506652832,-1.6615760326385498,2.93349552154541
1020,510.0,56000.0,-9.081207275390623,-1.600523829460144,2.9041666984558105
1021,511.0,56100.0,-9.096769332885742,-1.6202759742736816,2.8754363059997563
1022,512.0,56200.0,-9.096769332885742,-1.6202759742736816,2.8754363059997563
1023,513.0,56300.0,-9.095572471618652,-1.6083049774169922,2.895188331604004
1024,514.0,56400.0,-9.09497356414795,-1.7064672708511353,2.8491001129150386
1025,515.0,56500.0,-9.09497356414795,-1.7064672708511353,2.8491001129150386
1026,516.0,56600.0,-9.14225959777832,-1.6819267272949219,2.9029695987701416
1027,517.0,56700.0,-9.14225959777832,-1.6819267272949219,2.9029695987701416
1028,518.0,56800.0,-9.163806915283203,-1.656787633895874,2.7431566715240483
1029,519.0,56900.0,-9.163806915283203,-1.656787633895874,2.7431566715240483
1030,520.0,57000.0,-9.073426246643066,-1.5939397811889648,2.959233283996582
1031,521.0,57100.0,-9.073426246643066,-1.5939397811889648,2.959233283996582
1032,522.0,57200.0,-9.115324020385742,-1.5861586332321167,2.8413188457489014
1033,523.0,57300.0,-9.079411506652832,-1.6615760326385498,2.93349552154541
1034,524.0,57400.0,-9.079411506652832,-1.6615760326385498,2.93349552154541
1035,525.0,57500.0,-9.024943351745604,-1.646013617515564,2.9735984802246094
1036,526.0,57600.0,-9.024943351745604,-1.646013617515564,2.9735984802246094
1037,527.0,57700.0,-8.988431930541992,-1.6579847335815432,2.9059622287750244
1038,528.0,57800.0,-8.988431930541992,-1.6579847335815432,2.9059622287750244
1039,529.0,57900.0,-9.123703956604004,-1.6472107172012331,2.853888511657715
1040,530.0,58000.0,-9.123703956604004,-1.6472107172012331,2.853888511657715
1041,531.0,58100.0,-8.982446670532227,-1.6388310194015503,3.0400376319885254
1042,532.0,58200.0,-9.141660690307617,-1.569997787475586,2.8652608394622803
1043,533.0,58300.0,-9.141660690307617,-1.569997787475586,2.8652608394622803
1044,534.0,58400.0,-9.07641887664795,-1.6202759742736816,2.9676129817962646
1045,535.0,58500.0,-9.07641887664795,-1.6202759742736816,2.9676129817962646
1046,536.0,58600.0,-9.085396766662598,-1.5969325304031372,2.9119477272033687
1047,537.0,58700.0,-9.085396766662598,-1.5969325304031372,2.9119477272033687
1048,538.0,58800.0,-9.04290008544922,-1.6011223793029783,2.9718029499053955
1049,539.0,58900.0,-9.04290008544922,-1.6011223793029783,2.9718029499053955
1050,525.0,57500.0,-9.024943351745604,-1.646013617515564,2.9735984802246094
1051,526.0,57600.0,-9.024943351745604,-1.646013617515564,2.9735984802246094
1052,527.0,57700.0,-8.988431930541992,-1.6579847335815432,2.9059622287750244
1053,528.0,57800.0,-8.988431930541992,-1.6579847335815432,2.9059622287750244
1054,529.0,57900.0,-9.123703956604004,-1.6472107172012331,2.853888511657715
1055,530.0,58000.0,-9.123703956604004,-1.6472107172012331,2.853888511657715
1056,531.0,58100.0,-8.982446670532227,-1.6388310194015503,3.0400376319885254
1057,532.0,58200.0,-9.141660690307617,-1.569997787475586,2.8652608394622803
1058,533.0,58300.0,-9.141660690307617,-1.569997787475586,2.8652608394622803
1059,534.0,58400.0,-9.07641887664795,-1.6202759742736816,2.9676129817962646
1060,535.0,58500.0,-9.07641887664795,-1.6202759742736816,2.9676129817962646
1061,536.0,58600.0,-9.085396766662598,-1.5969325304031372,2.9119477272033687
1062,537.0,58700.0,-9.085396766662598,-1.5969325304031372,2.9119477272033687
1063,538.0,58800.0,-9.04290008544922,-1.6011223793029783,2.9718029499053955
1064,539.0,58900.0,-9.04290008544922,-1.6011223793029783,2.9718029499053955
1065,540.0,59000.0,-9.086593627929688,-1.5999252796173096,2.9496564865112305
1066,541.0,59100.0,-9.077615737915039,-1.63344407081604,2.980182647705078
1067,542.0,59200.0,-9.077615737915039,-1.63344407081604,2.980182647705078
1068,543.0,59300.0,-9.05487060546875,-1.594538331031799,2.9544448852539062
1069,544.0,59400.0,-9.05487060546875,-1.594538331031799,2.9544448852539062
1070,545.0,59500.0,-9.1045503616333,-1.6172832250595093,2.89997673034668
1071,546.0,59600.0,-9.1045503616333,-1.6172832250595093,2.89997673034668
1072,547.0,59700.0,-9.013570785522461,-1.6017209291458132,3.0113072395324707
1073,548.0,59800.0,-9.013570785522461,-1.6017209291458132,3.0113072395324707
1074,549.0,59900.0,-9.127894401550293,-1.6777368783950806,2.8880057334899902
1075,550.0,60000.0,-9.044096946716307,-1.7160440683364868,2.9460651874542236
1076,551.0,60100.0,-9.044096946716307,-1.7160440683364868,2.9460651874542236
1077,552.0,60200.0,-9.059061050415039,-1.6382324695587158,3.078943490982056
1078,553.0,60300.0,-9.059061050415039,-1.6382324695587158,3.078943490982056
1079,554.0,60400.0,-9.09257984161377,-1.5424644947052002,2.8215668201446533
1080,540.0,59000.0,-9.086593627929688,-1.5999252796173096,2.9496564865112305
1081,541.0,59100.0,-9.077615737915039,-1.63344407081604,2.980182647705078
1082,542.0,59200.0,-9.077615737915039,-1.63344407081604,2.980182647705078
1083,543.0,59300.0,-9.05487060546875,-1.594538331031799,2.9544448852539062
1084,544.0,59400.0,-9.05487060546875,-1.594538331031799,2.9544448852539062
1085,545.0,59500.0,-9.1045503616333,-1.6172832250595093,2.89997673034668
1086,546.0,59600.0,-9.1045503616333,-1.6172832250595093,2.89997673034668
1087,547.0,59700.0,-9.013570785522461,-1.6017209291458132,3.0113072395324707
1088,548.0,59800.0,-9.013570785522461,-1.6017209291458132,3.0113072395324707
1089,549.0,59900.0,-9.127894401550293,-1.6777368783950806,2.8880057334899902
1090,550.0,60000.0,-9.044096946716307,-1.7160440683364868,2.9460651874542236
1091,551.0,60100.0,-9.044096946716307,-1.7160440683364868,2.9460651874542236
1092,552.0,60200.0,-9.059061050415039,-1.6382324695587158,3.078943490982056
1093,553.0,60300.0,-9.059061050415039,-1.6382324695587158,3.078943490982056
1094,554.0,60400.0,-9.09257984161377,-1.5424644947052002,2.8215668201446533
1095,555.0,60500.0,-9.09257984161377,-1.5424644947052002,2.8215668201446533
1096,556.0,60600.0,-9.178771018981934,-1.6130933761596682,2.891597032546997
1097,557.0,60700.0,-9.178771018981934,-1.6130933761596682,2.891597032546997
1098,558.0,60800.0,-8.941744804382324,-1.6340426206588743,3.0663738250732417
1099,559.0,60900.0,-9.191938400268556,-1.602918028831482,2.788646459579468
1100,560.0,61000.0,-9.191938400268556,-1.602918028831482,2.788646459579468
1101,561.0,61100.0,-8.974664688110352,-1.656787633895874,3.0538041591644287
1102,562.0,61200.0,-8.974664688110352,-1.656787633895874,3.0538041591644287
1103,563.0,61300.0,-9.16201114654541,-1.5843629837036133,2.832340717315674
1104,564.0,61400.0,-9.16201114654541,-1.5843629837036133,2.832340717315674
1105,565.0,61500.0,-9.035717010498047,-1.6388310194015503,3.0280666351318364
1106,566.0,61600.0,-9.035717010498047,-1.6388310194015503,3.0280666351318364
1107,567.0,61700.0,-9.100360870361328,-1.6124948263168335,2.9029695987701416
1108,568.0,61800.0,-9.100360870361328,-1.6124948263168335,2.9029695987701416
1109,569.0,61900.0,-9.013570785522461,-1.6083049774169922,2.982576847076416
1110,555.0,60500.0,-9.09257984161377,-1.5424644947052002,2.8215668201446533
1111,556.0,60600.0,-9.178771018981934,-1.6130933761596682,2.891597032546997
1112,557.0,60700.0,-9.178771018981934,-1.6130933761596682,2.891597032546997
1113,558.0,60800.0,-8.941744804382324,-1.6340426206588743,3.0663738250732417
1114,559.0,60900.0,-9.191938400268556,-1.602918028831482,2.788646459579468
1115,560.0,61000.0,-9.191938400268556,-1.602918028831482,2.788646459579468
1116,561.0,61100.0,-8.974664688110352,-1.656787633895874,3.0538041591644287
1117,562.0,61200.0,-8.974664688110352,-1.656787633895874,3.0538041591644287
1118,563.0,61300.0,-9.16201114654541,-1.5843629837036133,2.832340717315674
1119,564.0,61400.0,-9.16201114654541,-1.5843629837036133,2.832340717315674
1120,565.0,61500.0,-9.035717010498047,-1.6388310194015503,3.0280666351318364
1121,566.0,61600.0,-9.035717010498047,-1.6388310194015503,3.0280666351318364
1122,567.0,61700.0,-9.100360870361328,-1.6124948263168335,2.9029695987701416
1123,568.0,61800.0,-9.100360870361328,-1.6124948263168335,2.9029695987701416
1124,569.0,61900.0,-9.013570785522461,-1.6083049774169922,2.982576847076416
1125,570.0,62000.0,-9.11233139038086,-1.6645687818527222,2.9047651290893555
1126,571.0,62100.0,-9.11233139038086,-1.6645687818527222,2.9047651290893555
1127,572.0,62200.0,-9.07641887664795,-1.6190788745880127,2.936488389968872
1128,573.0,62300.0,-9.07641887664795,-1.6190788745880127,2.936488389968872
1129,574.0,62400.0,-9.027337074279783,-1.6136919260025024,2.9741971492767334
1130,575.0,62500.0,-9.027337074279783,-1.6136919260025024,2.9741971492767334
1131,576.0,62600.0,-9.100958824157717,-1.6077064275741575,2.9215245246887207
1132,577.0,62700.0,-9.058462142944336,-1.6077064275741575,2.9520506858825684
1133,578.0,62800.0,-9.058462142944336,-1.6077064275741575,2.9520506858825684
1134,579.0,62900.0,-9.017162322998047,-1.6202759742736816,2.9724013805389404
1135,580.0,63000.0,-9.017162322998047,-1.6202759742736816,2.9724013805389404
1136,581.0,63100.0,-9.07222843170166,-1.6190788745880127,2.9071593284606934
1137,582.0,63200.0,-9.07222843170166,-1.6190788745880127,2.9071593284606934
1138,583.0,63300.0,-9.051279067993164,-1.6442179679870603,2.962226152420044
1139,584.0,63400.0,-9.051279067993164,-1.6442179679870603,2.962226152420044
1140,570.0,62000.0,-9.11233139038086,-1.6645687818527222,2.9047651290893555
1141,571.0,62100.0,-9.11233139038086,-1.6645687818527222,2.9047651290893555
1142,572.0,62200.0,-9.07641887664795,-1.6190788745880127,2.936488389968872
1143,573.0,62300.0,-9.07641887664795,-1.6190788745880127,2.936488389968872
1144,574.0,62400.0,-9.027337074279783,-1.6136919260025024,2.9741971492767334
1145,575.0,62500.0,-9.027337074279783,-1.6136919260025024,2.9741971492767334
1146,576.0,62600.0,-9.100958824157717,-1.6077064275741575,2.9215245246887207
1147,577.0,62700.0,-9.058462142944336,-1.6077064275741575,2.9520506858825684
1148,578.0,62800.0,-9.058462142944336,-1.6077064275741575,2.9520506858825684
1149,579.0,62900.0,-9.017162322998047,-1.6202759742736816,2.9724013805389404
1150,580.0,63000.0,-9.017162322998047,-1.6202759742736816,2.9724013805389404
1151,581.0,63100.0,-9.07222843170166,-1.6190788745880127,2.9071593284606934
1152,582.0,63200.0,-9.07222843170166,-1.6190788745880127,2.9071593284606934
1153,583.0,63300.0,-9.051279067993164,-1.6442179679870603,2.962226152420044
1154,584.0,63400.0,-9.051279067993164,-1.6442179679870603,2.962226152420044
1155,585.0,63500.0,-9.051877975463867,-1.6178817749023438,2.9604303836822514
1156,586.0,63600.0,-9.051877975463867,-1.6178817749023438,2.9604303836822514
1157,587.0,63700.0,-9.091382026672363,-1.6238672733306885,2.8772318363189697
1158,588.0,63800.0,-9.074024200439453,-1.6238672733306885,2.961029052734375
1159,589.0,63900.0,-9.074024200439453,-1.6238672733306885,2.961029052734375
1160,590.0,64000.0,-9.058462142944336,-1.611896276473999,2.9245173931121826
1161,591.0,64100.0,-9.058462142944336,-1.611896276473999,2.9245173931121826
1162,592.0,64200.0,-9.051877975463867,-1.611896276473999,2.9688100814819336
1163,593.0,64300.0,-9.051877975463867,-1.611896276473999,2.9688100814819336
1164,594.0,64400.0,-9.136273384094238,-1.5933412313461304,2.9269115924835205
1165,595.0,64500.0,-9.136273384094238,-1.5933412313461304,2.9269115924835205
1166,596.0,64600.0,-9.058462142944336,-1.5652093887329102,3.0214824676513667
1167,597.0,64700.0,-9.014169692993164,-1.5442601442337036,3.1016883850097656
1168,598.0,64800.0,-9.014169692993164,-1.5442601442337036,3.1016883850097656
1169,599.0,64900.0,-8.880094528198242,-1.5298948287963867,3.291428804397583
1170,585.0,63500.0,-9.051877975463867,-1.6178817749023438,2.9604303836822514
1171,586.0,63600.0,-9.051877975463867,-1.6178817749023438,2.9604303836822514
1172,587.0,63700.0,-9.091382026672363,-1.6238672733306885,2.8772318363189697
1173,588.0,63800.0,-9.074024200439453,-1.6238672733306885,2.961029052734375
1174,589.0,63900.0,-9.074024200439453,-1.6238672733306885,2.961029052734375
1175,590.0,64000.0,-9.058462142944336,-1.611896276473999,2.9245173931121826
1176,591.0,64100.0,-9.058462142944336,-1.611896276473999,2.9245173931121826
1177,592.0,64200.0,-9.051877975463867,-1.611896276473999,2.9688100814819336
1178,593.0,64300.0,-9.051877975463867,-1.611896276473999,2.9688100814819336
1179,594.0,64400.0,-9.136273384094238,-1.5933412313461304,2.9269115924835205
1180,595.0,64500.0,-9.136273384094238,-1.5933412313461304,2.9269115924835205
1181,596.0,64600.0,-9.058462142944336,-1.5652093887329102,3.0214824676513667
1182,597.0,64700.0,-9.014169692993164,-1.5442601442337036,3.1016883850097656
1183,598.0,64800.0,-9.014169692993164,-1.5442601442337036,3.1016883850097656
1184,599.0,64900.0,-8.880094528198242,-1.5298948287963867,3.291428804397583
1185,600.0,65000.0,-8.880094528198242,-1.5298948287963867,3.291428804397583
1186,601.0,65100.0,-9.015366554260254,-1.5759832859039309,3.0550012588500977
1187,602.0,65200.0,-9.015366554260254,-1.5759832859039309,3.0550012588500977
1188,603.0,65300.0,-9.007585525512695,-1.61069917678833,3.0633809566497803
1189,604.0,65400.0,-9.134477615356444,-1.5939397811889648,2.976591348648072
1190,605.0,65500.0,-9.134477615356444,-1.5939397811889648,2.976591348648072
1191,606.0,65600.0,-9.038111686706543,-1.6340426206588743,2.987365245819092
1192,607.0,65700.0,-9.038111686706543,-1.6340426206588743,2.987365245819092
1193,608.0,65800.0,-9.083003044128418,-1.6292542219161987,2.9604303836822514
1194,609.0,65900.0,-9.083003044128418,-1.6292542219161987,2.9604303836822514
1195,610.0,66000.0,-9.041104316711426,-1.569997787475586,3.004124641418457
1196,611.0,66100.0,-9.041104316711426,-1.569997787475586,3.004124641418457
1197,612.0,66200.0,-9.125499725341797,-1.6974890232086182,2.816179752349853
1198,613.0,66300.0,-9.125499725341797,-1.6974890232086182,2.816179752349853
1199,614.0,66400.0,-8.989029884338379,-1.6980875730514526,3.0699651241302486
1200,600.0,65000.0,-8.880094528198242,-1.5298948287963867,3.291428804397583
1201,601.0,65100.0,-9.015366554260254,-1.5759832859039309,3.0550012588500977
1202,602.0,65200.0,-9.015366554260254,-1.5759832859039309,3.0550012588500977
1203,603.0,65300.0,-9.007585525512695,-1.61069917678833,3.0633809566497803
1204,604.0,65400.0,-9.134477615356444,-1.5939397811889648,2.976591348648072
1205,605.0,65500.0,-9.134477615356444,-1.5939397811889648,2.976591348648072
1206,606.0,65600.0,-9.038111686706543,-1.6340426206588743,2.987365245819092
1207,607.0,65700.0,-9.038111686706543,-1.6340426206588743,2.987365245819092
1208,608.0,65800.0,-9.083003044128418,-1.6292542219161987,2.9604303836822514
1209,609.0,65900.0,-9.083003044128418,-1.6292542219161987,2.9604303836822514
1210,610.0,66000.0,-9.041104316711426,-1.569997787475586,3.004124641418457
1211,611.0,66100.0,-9.041104316711426,-1.569997787475586,3.004124641418457
1212,612.0,66200.0,-9.125499725341797,-1.6974890232086182,2.816179752349853
1213,613.0,66300.0,-9.125499725341797,-1.6974890232086182,2.816179752349853
1214,614.0,66400.0,-8.989029884338379,-1.6980875730514526,3.0699651241302486
1215,615.0,66500.0,-9.312846183776855,-1.5568296909332275,2.616862535476685
1216,616.0,66600.0,-9.312846183776855,-1.5568296909332275,2.616862535476685
1217,617.0,66700.0,-8.970475196838379,-1.7196353673934937,3.1729156970977783
1218,618.0,66800.0,-8.970475196838379,-1.7196353673934937,3.1729156970977783
1219,619.0,66900.0,-9.228450775146484,-1.525106430053711,2.6880898475646973
1220,620.0,67000.0,-9.228450775146484,-1.525106430053711,2.6880898475646973
1221,621.0,67100.0,-9.007585525512695,-1.6837223768234253,2.976591348648072
1222,622.0,67200.0,-9.007585525512695,-1.6837223768234253,2.976591348648072
1223,623.0,67300.0,-9.172186851501463,-1.6280571222305298,2.800617456436157
1224,624.0,67400.0,-9.044096946716307,-1.5819687843322754,2.9706058502197266
1225,625.0,67500.0,-9.044096946716307,-1.5819687843322754,2.9706058502197266
1226,626.0,67600.0,-9.127894401550293,-1.5987281799316406,2.825756549835205
1227,627.0,67700.0,-9.127894401550293,-1.5987281799316406,2.825756549835205
1228,628.0,67800.0,-9.03511905670166,-1.6202759742736816,2.9071593284606934
1229,629.0,67900.0,-9.03511905670166,-1.6202759742736816,2.9071593284606934
1230,615.0,66500.0,-9.312846183776855,-1.5568296909332275,2.616862535476685
1231,616.0,66600.0,-9.312846183776855,-1.5568296909332275,2.616862535476685
1232,617.0,66700.0,-8.970475196838379,-1.7196353673934937,3.1729156970977783
1233,618.0,66800.0,-8.970475196838379,-1.7196353673934937,3.1729156970977783
1234,619.0,66900.0,-9.228450775146484,-1.525106430053711,2.6880898475646973
1235,620.0,67000.0,-9.228450775146484,-1.525106430053711,2.6880898475646973
1236,621.0,67100.0,-9.007585525512695,-1.6837223768234253,2.976591348648072
1237,622.0,67200.0,-9.007585525512695,-1.6837223768234253,2.976591348648072
1238,623.0,67300.0,-9.172186851501463,-1.6280571222305298,2.800617456436157
1239,624.0,67400.0,-9.044096946716307,-1.5819687843322754,2.9706058502197266
1240,625.0,67500.0,-9.044096946716307,-1.5819687843322754,2.9706058502197266
1241,626.0,67600.0,-9.127894401550293,-1.5987281799316406,2.825756549835205
1242,627.0,67700.0,-9.127894401550293,-1.5987281799316406,2.825756549835205
1243,628.0,67800.0,-9.03511905670166,-1.6202759742736816,2.9071593284606934
1244,629.0,67900.0,-9.03511905670166,-1.6202759742736816,2.9071593284606934
1245,630.0,68000.0,-9.080010414123537,-1.6053122282028198,2.9221231937408447
1246,631.0,68100.0,-9.080010414123537,-1.6053122282028198,2.9221231937408447
1247,632.0,68200.0,-9.074623107910156,-1.6454150676727295,2.9316999912261963
1248,633.0,68300.0,-9.045293807983398,-1.5849615335464478,2.9221231937408447
1249,634.0,68400.0,-9.045293807983398,-1.5849615335464478,2.9221231937408447
1250,635.0,68500.0,-9.11113452911377,-1.623268723487854,2.8856115341186523
1251,636.0,68600.0,-9.11113452911377,-1.623268723487854,2.8856115341186523
1252,637.0,68700.0,-9.01117706298828,-1.6190788745880127,2.927510023117065
1253,638.0,68800.0,-9.01117706298828,-1.6190788745880127,2.927510023117065
1254,639.0,68900.0,-9.211092948913574,-1.5795745849609375,2.7952303886413574
1255,640.0,69000.0,-9.211092948913574,-1.5795745849609375,2.7952303886413574
1256,641.0,69100.0,-9.00160026550293,-1.6741455793380735,3.123834609985352
1257,642.0,69200.0,-9.154829025268556,-1.6280571222305298,2.8401217460632324
1258,643.0,69300.0,-9.154829025268556,-1.6280571222305298,2.8401217460632324
1259,644.0,69400.0,-8.97765827178955,-1.6699557304382324,3.0394389629364014
1260,630.0,68000.0,-9.080010414123537,-1.6053122282028198,2.9221231937408447
1261,631.0,68100.0,-9.080010414123537,-1.6053122282028198,2.9221231937408447
1262,632.0,68200.0,-9.074623107910156,-1.6454150676727295,2.9316999912261963
1263,633.0,68300.0,-9.045293807983398,-1.5849615335464478,2.9221231937408447
1264,634.0,68400.0,-9.045293807983398,-1.5849615335464478,2.9221231937408447
1265,635.0,68500.0,-9.11113452911377,-1.623268723487854,2.8856115341186523
1266,636.0,68600.0,-9.11113452911377,-1.623268723487854,2.8856115341186523
1267,637.0,68700.0,-9.01117706298828,-1.6190788745880127,2.927510023117065
1268,638.0,68800.0,-9.01117706298828,-1.6190788745880127,2.927510023117065
1269,639.0,68900.0,-9.211092948913574,-1.5795745849609375,2.7952303886413574
1270,640.0,69000.0,-9.211092948913574,-1.5795745849609375,2.7952303886413574
1271,641.0,69100.0,-9.00160026550293,-1.6741455793380735,3.123834609985352
1272,642.0,69200.0,-9.154829025268556,-1.6280571222305298,2.8401217460632324
1273,643.0,69300.0,-9.154829025268556,-1.6280571222305298,2.8401217460632324
1274,644.0,69400.0,-8.97765827178955,-1.6699557304382324,3.0394389629364014
1275,645.0,69500.0,-8.97765827178955,-1.6699557304382324,3.0394389629364014
1276,646.0,69600.0,-9.097966194152832,-1.6442179679870603,2.9011738300323486
1277,647.0,69700.0,-9.097966194152832,-1.6442179679870603,2.9011738300323486
1278,648.0,69800.0,-9.060855865478516,-1.614290475845337,2.955641984939575
1279,649.0,69900.0,-9.060855865478516,-1.614290475845337,2.955641984939575
1280,650.0,70000.0,-9.107542991638184,-1.6412252187728882,2.9089550971984863
1281,651.0,70100.0,-9.039907455444336,-1.631049871444702,2.976591348648072
1282,652.0,70200.0,-9.039907455444336,-1.631049871444702,2.976591348648072
1283,653.0,70300.0,-9.115922927856444,-1.6262614727020264,2.9305028915405287
1284,654.0,70400.0,-9.115922927856444,-1.6262614727020264,2.9305028915405287
1285,655.0,70500.0,-9.05247688293457,-1.6202759742736816,2.9741971492767334
1286,656.0,70600.0,-9.05247688293457,-1.6202759742736816,2.9741971492767334
1287,657.0,70700.0,-9.069235801696776,-1.6202759742736816,2.9747955799102783
1288,658.0,70800.0,-9.069235801696776,-1.6202759742736816,2.9747955799102783
1289,659.0,70900.0,-9.070432662963867,-1.5711948871612549,2.9436709880828857
1290,645.0,69500.0,-8.97765827178955,-1.6699557304382324,3.0394389629364014
1291,646.0,69600.0,-9.097966194152832,-1.6442179679870603,2.9011738300323486
1292,647.0,69700.0,-9.097966194152832,-1.6442179679870603,2.9011738300323486
1293,648.0,69800.0,-9.060855865478516,-1.614290475845337,2.955641984939575
1294,649.0,69900.0,-9.060855865478516,-1.614290475845337,2.955641984939575
1295,650.0,70000.0,-9.107542991638184,-1.6412252187728882,2.9089550971984863
1296,651.0,70100.0,-9.039907455444336,-1.631049871444702,2.976591348648072
1297,652.0,70200.0,-9.039907455444336,-1.631049871444702,2.976591348648072
1298,653.0,70300.0,-9.115922927856444,-1.6262614727020264,2.9305028915405287
1299,654.0,70400.0,-9.115922927856444,-1.6262614727020264,2.9305028915405287
1300,655.0,70500.0,-9.05247688293457,-1.6202759742736816,2.9741971492767334
1301,656.0,70600.0,-9.05247688293457,-1.6202759742736816,2.9741971492767334
1302,657.0,70700.0,-9.069235801696776,-1.6202759742736816,2.9747955799102783
1303,658.0,70800.0,-9.069235801696776,-1.6202759742736816,2.9747955799102783
1304,659.0,70900.0,-9.070432662963867,-1.5711948871612549,2.9436709880828857
1305,660.0,71000.0,-9.044695854187012,-1.643619418144226,2.984971046447754
1306,661.0,71100.0,-9.044695854187012,-1.643619418144226,2.984971046447754
1307,662.0,71200.0,-9.089587211608887,-1.5717934370040894,2.9221231937408447
1308,663.0,71300.0,-9.089587211608887,-1.5717934370040894,2.9221231937408447
1309,664.0,71400.0,-9.11233139038086,-1.6190788745880127,2.963423252105713
1310,665.0,71500.0,-9.11233139038086,-1.6190788745880127,2.963423252105713
1311,666.0,71600.0,-9.078214645385742,-1.644816517829895,2.949058055877685
1312,667.0,71700.0,-9.078214645385742,-1.644816517829895,2.949058055877685
1313,668.0,71800.0,-9.075819969177246,-1.6376339197158811,2.981978178024292
1314,669.0,71900.0,-9.060855865478516,-1.634641170501709,2.9795839786529537
1315,670.0,72000.0,-9.060855865478516,-1.634641170501709,2.9795839786529537
1316,671.0,72100.0,-9.06983470916748,-1.627458572387695,2.9532477855682373
1317,672.0,72200.0,-9.06983470916748,-1.627458572387695,2.9532477855682373
1318,673.0,72300.0,-9.075819969177246,-1.6160861253738403,2.9658174514770512
1319,674.0,72400.0,-9.075819969177246,-1.6160861253738403,2.9658174514770512
1320,660.0,71000.0,-9.044695854187012,-1.643619418144226,2.984971046447754
1321,661.0,71100.0,-9.044695854187012,-1.643619418144226,2.984971046447754
1322,662.0,71200.0,-9.089587211608887,-1.5717934370040894,2.9221231937408447
1323,663.0,71300.0,-9.089587211608887,-1.5717934370040894,2.9221231937408447
1324,664.0,71400.0,-9.11233139038086,-1.6190788745880127,2.963423252105713
1325,665.0,71500.0,-9.11233139038086,-1.6190788745880127,2.963423252105713
1326,666.0,71600.0,-9.078214645385742,-1.644816517829895,2.949058055877685
1327,667.0,71700.0,-9.078214645385742,-1.644816517829895,2.949058055877685
1328,668.0,71800.0,-9.075819969177246,-1.6376339197158811,2.981978178024292
1329,669.0,71900.0,-9.060855865478516,-1.634641170501709,2.9795839786529537
1330,670.0,72000.0,-9.060855865478516,-1.634641170501709,2.9795839786529537
1331,671.0,72100.0,-9.06983470916748,-1.627458572387695,2.9532477855682373
1332,672.0,72200.0,-9.06983470916748,-1.627458572387695,2.9532477855682373
1333,673.0,72300.0,-9.075819969177246,-1.6160861253738403,2.9658174514770512
1334,674.0,72400.0,-9.075819969177246,-1.6160861253738403,2.9658174514770512
1335,675.0,72500.0,-9.044096946716307,-1.623268723487854,2.9718029499053955
1336,676.0,72600.0,-9.044096946716307,-1.623268723487854,2.9718029499053955
1337,677.0,72700.0,-9.042301177978516,-1.6430208683013916,2.9831752777099614
1338,678.0,72800.0,-9.060257911682127,-1.6148890256881714,2.975992679595948
1339,679.0,72900.0,-9.060257911682127,-1.6148890256881714,2.975992679595948
1340,680.0,73000.0,-9.06145477294922,-1.6202759742736816,2.962226152420044
1341,681.0,73100.0,-9.06145477294922,-1.6202759742736816,2.962226152420044
1342,682.0,73200.0,-9.079411506652832,-1.6226701736450195,2.9735984802246094
1343,683.0,73300.0,-9.079411506652832,-1.6226701736450195,2.9735984802246094
1344,684.0,73400.0,-9.051877975463867,-1.6047136783599854,2.957437753677368
1345,685.0,73500.0,-9.051877975463867,-1.6047136783599854,2.957437753677368
1346,686.0,73600.0,-9.049484252929688,-1.61069917678833,2.978386878967285
1347,687.0,73700.0,-9.04290008544922,-1.611896276473999,2.9544448852539062
1348,688.0,73800.0,-9.04290008544922,-1.611896276473999,2.9544448852539062
1349,689.0,73900.0,-9.066243171691896,-1.6053122282028198,2.96162748336792
1350,675.0,72500.0,-9.044096946716307,-1.623268723487854,2.9718029499053955
1351,676.0,72600.0,-9.044096946716307,-1.623268723487854,2.9718029499053955
1352,677.0,72700.0,-9.042301177978516,-1.6430208683013916,2.9831752777099614
1353,678.0,72800.0,-9.060257911682127,-1.6148890256881714,2.975992679595948
1354,679.0,72900.0,-9.060257911682127,-1.6148890256881714,2.975992679595948
1355,680.0,73000.0,-9.06145477294922,-1.6202759742736816,2.962226152420044
1356,681.0,73100.0,-9.06145477294922,-1.6202759742736816,2.962226152420044
1357,682.0,73200.0,-9.079411506652832,-1.6226701736450195,2.9735984802246094
1358,683.0,73300.0,-9.079411506652832,-1.6226701736450195,2.9735984802246094
1359,684.0,73400.0,-9.051877975463867,-1.6047136783599854,2.957437753677368
1360,685.0,73500.0,-9.051877975463867,-1.6047136783599854,2.957437753677368
1361,686.0,73600.0,-9.049484252929688,-1.61069917678833,2.978386878967285
1362,687.0,73700.0,-9.04290008544922,-1.611896276473999,2.9544448852539062
1363,688.0,73800.0,-9.04290008544922,-1.611896276473999,2.9544448852539062
1364,689.0,73900.0,-9.066243171691896,-1.6053122282028198,2.96162748336792
1365,690.0,74000.0,-9.066243171691896,-1.6053122282028198,2.96162748336792
1366,691.0,74100.0,-9.048885345458984,-1.6376339197158811,2.976591348648072
1367,692.0,74200.0,-9.048885345458984,-1.6376339197158811,2.976591348648072
1368,693.0,74300.0,-9.06863784790039,-1.6358382701873782,2.962226152420044
1369,694.0,74400.0,-9.06863784790039,-1.6358382701873782,2.962226152420044
1370,695.0,74500.0,-9.056666374206543,-1.6298527717590332,2.978386878967285
1371,696.0,74600.0,-9.063250541687012,-1.6172832250595093,2.96162748336792
1372,697.0,74700.0,-9.063250541687012,-1.6172832250595093,2.96162748336792
1373,698.0,74800.0,-9.033921241760254,-1.6388310194015503,2.9897594451904297
1374,699.0,74900.0,-9.033921241760254,-1.6388310194015503,2.9897594451904297
1375,700.0,75000.0,-9.050082206726074,-1.61069917678833,2.9694087505340576
1376,701.0,75100.0,-9.050082206726074,-1.61069917678833,2.9694087505340576
1377,702.0,75200.0,-9.03870964050293,-1.63344407081604,2.9831752777099614
1378,703.0,75300.0,-9.03870964050293,-1.63344407081604,2.9831752777099614
1379,704.0,75400.0,-9.066243171691896,-1.6160861253738403,2.9652187824249268
1380,690.0,74000.0,-9.066243171691896,-1.6053122282028198,2.96162748336792
1381,691.0,74100.0,-9.048885345458984,-1.6376339197158811,2.976591348648072
1382,692.0,74200.0,-9.048885345458984,-1.6376339197158811,2.976591348648072
1383,693.0,74300.0,-9.06863784790039,-1.6358382701873782,2.962226152420044
1384,694.0,74400.0,-9.06863784790039,-1.6358382701873782,2.962226152420044
1385,695.0,74500.0,-9.056666374206543,-1.6298527717590332,2.978386878967285
1386,696.0,74600.0,-9.063250541687012,-1.6172832250595093,2.96162748336792
1387,697.0,74700.0,-9.063250541687012,-1.6172832250595093,2.96162748336792
1388,698.0,74800.0,-9.033921241760254,-1.6388310194015503,2.9897594451904297
1389,699.0,74900.0,-9.033921241760254,-1.6388310194015503,2.9897594451904297
1390,700.0,75000.0,-9.050082206726074,-1.61069917678833,2.9694087505340576
1391,701.0,75100.0,-9.050082206726074,-1.61069917678833,2.9694087505340576
1392,702.0,75200.0,-9.03870964050293,-1.63344407081604,2.9831752777099614
1393,703.0,75300.0,-9.03870964050293,-1.63344407081604,2.9831752777099614
1394,704.0,75400.0,-9.066243171691896,-1.6160861253738403,2.9652187824249268
1395,705.0,75500.0,-9.050082206726074,-1.61069917678833,2.975992679595948
1396,706.0,75600.0,-9.050082206726074,-1.61069917678833,2.975992679595948
1397,707.0,75700.0,-9.080010414123537,-1.6406266689300537,2.959831953048706
1398,708.0,75800.0,-9.080010414123537,-1.6406266689300537,2.959831953048706
1399,709.0,75900.0,-9.04828643798828,-1.6430208683013916,3.0089130401611333
1400,710.0,76000.0,-9.04828643798828,-1.6430208683013916,3.0089130401611333
1401,711.0,76100.0,-9.079411506652832,-1.6627731323242188,2.9724013805389404
1402,712.0,76200.0,-9.079411506652832,-1.6627731323242188,2.9724013805389404
1403,713.0,76300.0,-9.039308547973633,-1.66696298122406,3.0352492332458496
1404,714.0,76400.0,-9.10993766784668,-1.6340426206588743,2.9269115924835205
1405,715.0,76500.0,-9.10993766784668,-1.6340426206588743,2.9269115924835205
1406,716.0,76600.0,-9.056666374206543,-1.6645687818527222,2.987365245819092
1407,717.0,76700.0,-9.056666374206543,-1.6645687818527222,2.987365245819092
1408,718.0,76800.0,-9.06983470916748,-1.6340426206588743,2.958036184310913
1409,719.0,76900.0,-9.06983470916748,-1.6340426206588743,2.958036184310913
1410,705.0,75500.0,-9.050082206726074,-1.61069917678833,2.975992679595948
1411,706.0,75600.0,-9.050082206726074,-1.61069917678833,2.975992679595948
1412,707.0,75700.0,-9.080010414123537,-1.6406266689300537,2.959831953048706
1413,708.0,75800.0,-9.080010414123537,-1.6406266689300537,2.959831953048706
1414,709.0,75900.0,-9.04828643798828,-1.6430208683013916,3.0089130401611333
1415,710.0,76000.0,-9.04828643798828,-1.6430208683013916,3.0089130401611333
1416,711.0,76100.0,-9.079411506652832,-1.6627731323242188,2.9724013805389404
1417,712.0,76200.0,-9.079411506652832,-1.6627731323242188,2.9724013805389404
1418,713.0,76300.0,-9.039308547973633,-1.66696298122406,3.0352492332458496
1419,714.0,76400.0,-9.10993766784668,-1.6340426206588743,2.9269115924835205
1420,715.0,76500.0,-9.10993766784668,-1.6340426206588743,2.9269115924835205
1421,716.0,76600.0,-9.056666374206543,-1.6645687818527222,2.987365245819092
1422,717.0,76700.0,-9.056666374206543,-1.6645687818527222,2.987365245819092
1423,718.0,76800.0,-9.06983470916748,-1.6340426206588743,2.958036184310913
1424,719.0,76900.0,-9.06983470916748,-1.6340426206588743,2.958036184310913
1425,720.0,77000.0,-9.033323287963867,-1.6519991159439087,2.9975404739379883
1426,721.0,77100.0,-9.033323287963867,-1.6519991159439087,2.9975404739379883
1427,722.0,77200.0,-9.063849449157717,-1.614290475845337,2.9418752193450928
1428,723.0,77300.0,-9.050082206726074,-1.6466121673583984,2.948459386825561
1429,724.0,77400.0,-9.050082206726074,-1.6466121673583984,2.948459386825561
1430,725.0,77500.0,-9.082404136657717,-1.646013617515564,2.928108692169189
1431,726.0,77600.0,-9.082404136657717,-1.646013617515564,2.928108692169189
1432,727.0,77700.0,-9.05367374420166,-1.6352397203445437,2.9724013805389404
1433,728.0,77800.0,-9.05367374420166,-1.6352397203445437,2.9724013805389404
1434,729.0,77900.0,-9.07641887664795,-1.6490063667297363,2.9640216827392583
1435,730.0,78000.0,-9.07641887664795,-1.6490063667297363,2.9640216827392583
1436,731.0,78100.0,-9.063849449157717,-1.6292542219161987,2.9700071811676025
1437,732.0,78200.0,-9.072827339172363,-1.6430208683013916,2.961029052734375
1438,733.0,78300.0,-9.072827339172363,-1.6430208683013916,2.961029052734375
1439,734.0,78400.0,-9.068038940429688,-1.6508020162582395,2.9682116508483887
1440,720.0,77000.0,-9.033323287963867,-1.6519991159439087,2.9975404739379883
1441,721.0,77100.0,-9.033323287963867,-1.6519991159439087,2.9975404739379883
1442,722.0,77200.0,-9.063849449157717,-1.614290475845337,2.9418752193450928
1443,723.0,77300.0,-9.050082206726074,-1.6466121673583984,2.948459386825561
1444,724.0,77400.0,-9.050082206726074,-1.6466121673583984,2.948459386825561
1445,725.0,77500.0,-9.082404136657717,-1.646013617515564,2.928108692169189
1446,726.0,77600.0,-9.082404136657717,-1.646013617515564,2.928108692169189
1447,727.0,77700.0,-9.05367374420166,-1.6352397203445437,2.9724013805389404
1448,728.0,77800.0,-9.05367374420166,-1.6352397203445437,2.9724013805389404
1449,729.0,77900.0,-9.07641887664795,-1.6490063667297363,2.9640216827392583
1450,730.0,78000.0,-9.07641887664795,-1.6490063667297363,2.9640216827392583
1451,731.0,78100.0,-9.063849449157717,-1.6292542219161987,2.9700071811676025
1452,732.0,78200.0,-9.072827339172363,-1.6430208683013916,2.961029052734375
1453,733.0,78300.0,-9.072827339172363,-1.6430208683013916,2.961029052734375
1454,734.0,78400.0,-9.068038940429688,-1.6508020162582395,2.9682116508483887
1455,735.0,78500.0,-9.068038940429688,-1.6508020162582395,2.9682116508483887
1456,736.0,78600.0,-9.097368240356444,-1.6226701736450195,2.949058055877685
1457,737.0,78700.0,-9.097368240356444,-1.6226701736450195,2.949058055877685
1458,738.0,78800.0,-9.03870964050293,-1.6370353698730469,2.998737573623657
1459,739.0,78900.0,-9.03870964050293,-1.6370353698730469,2.998737573623657
1460,740.0,79000.0,-9.048885345458984,-1.646013617515564,2.9879636764526367
1461,741.0,79100.0,-9.067440032958984,-1.627458572387695,2.976591348648072
1462,742.0,79200.0,-9.067440032958984,-1.627458572387695,2.976591348648072
1463,743.0,79300.0,-9.045892715454102,-1.6412252187728882,2.963423252105713
1464,744.0,79400.0,-9.045892715454102,-1.6412252187728882,2.963423252105713
1465,745.0,79500.0,-9.073426246643066,-1.644816517829895,2.962824583053589
1466,746.0,79600.0,-9.073426246643066,-1.644816517829895,2.962824583053589
1467,747.0,79700.0,-9.063250541687012,-1.6196774244308472,2.9412767887115483
1468,748.0,79800.0,-9.063250541687012,-1.6196774244308472,2.9412767887115483
1469,749.0,79900.0,-9.001001358032227,-1.6675615310668943,3.003525972366333
1470,735.0,78500.0,-9.068038940429688,-1.6508020162582395,2.9682116508483887
1471,736.0,78600.0,-9.097368240356444,-1.6226701736450195,2.949058055877685
1472,737.0,78700.0,-9.097368240356444,-1.6226701736450195,2.949058055877685
1473,738.0,78800.0,-9.03870964050293,-1.6370353698730469,2.998737573623657
1474,739.0,78900.0,-9.03870964050293,-1.6370353698730469,2.998737573623657
1475,740.0,79000.0,-9.048885345458984,-1.646013617515564,2.9879636764526367
1476,741.0,79100.0,-9.067440032958984,-1.627458572387695,2.976591348648072
1477,742.0,79200.0,-9.067440032958984,-1.627458572387695,2.976591348648072
1478,743.0,79300.0,-9.045892715454102,-1.6412252187728882,2.963423252105713
1479,744.0,79400.0,-9.045892715454102,-1.6412252187728882,2.963423252105713
1480,745.0,79500.0,-9.073426246643066,-1.644816517829895,2.962824583053589
1481,746.0,79600.0,-9.073426246643066,-1.644816517829895,2.962824583053589
1482,747.0,79700.0,-9.063250541687012,-1.6196774244308472,2.9412767887115483
1483,748.0,79800.0,-9.063250541687012,-1.6196774244308472,2.9412767887115483
1484,749.0,79900.0,-9.001001358032227,-1.6675615310668943,3.003525972366333
1485,750.0,80000.0,-9.109338760375977,-1.6328455209732056,2.889801502227783
1486,751.0,80100.0,-9.109338760375977,-1.6328455209732056,2.889801502227783
1487,752.0,80200.0,-9.04828643798828,-1.6352397203445437,2.994547843933105
1488,753.0,80300.0,-9.04828643798828,-1.6352397203445437,2.994547843933105
1489,754.0,80400.0,-9.100958824157717,-1.6370353698730469,2.9287071228027344
1490,755.0,80500.0,-9.100958824157717,-1.6370353698730469,2.9287071228027344
1491,756.0,80600.0,-9.023147583007812,-1.656787633895874,2.9879636764526367
1492,757.0,80700.0,-9.023147583007812,-1.656787633895874,2.9879636764526367
1493,758.0,80800.0,-9.071630477905273,-1.6502034664154053,2.916736125946045
1494,759.0,80900.0,-9.071630477905273,-1.6502034664154053,2.916736125946045
1495,760.0,81000.0,-9.060855865478516,-1.6549919843673706,2.9448680877685547
1496,761.0,81100.0,-9.05367374420166,-1.6035165786743164,2.9538464546203613
1497,762.0,81200.0,-9.05367374420166,-1.6035165786743164,2.9538464546203613
1498,763.0,81300.0,-9.077016830444336,-1.6112977266311646,2.9269115924835205
1499,764.0,81400.0,-9.077016830444336,-1.6112977266311646,2.9269115924835205
1500,750.0,80000.0,-9.109338760375977,-1.6328455209732056,2.889801502227783
1501,751.0,80100.0,-9.109338760375977,-1.6328455209732056,2.889801502227783
1502,752.0,80200.0,-9.04828643798828,-1.6352397203445437,2.994547843933105
1503,753.0,80300.0,-9.04828643798828,-1.6352397203445437,2.994547843933105
1504,754.0,80400.0,-9.100958824157717,-1.6370353698730469,2.9287071228027344
1505,755.0,80500.0,-9.100958824157717,-1.6370353698730469,2.9287071228027344
1506,756.0,80600.0,-9.023147583007812,-1.656787633895874,2.9879636764526367
1507,757.0,80700.0,-9.023147583007812,-1.656787633895874,2.9879636764526367
1508,758.0,80800.0,-9.071630477905273,-1.6502034664154053,2.916736125946045
1509,759.0,80900.0,-9.071630477905273,-1.6502034664154053,2.916736125946045
1510,760.0,81000.0,-9.060855865478516,-1.6549919843673706,2.9448680877685547
1511,761.0,81100.0,-9.05367374420166,-1.6035165786743164,2.9538464546203613
1512,762.0,81200.0,-9.05367374420166,-1.6035165786743164,2.9538464546203613
1513,763.0,81300.0,-9.077016830444336,-1.6112977266311646,2.9269115924835205
1514,764.0,81400.0,-9.077016830444336,-1.6112977266311646,2.9269115924835205
1515,765.0,81500.0,-9.135076522827148,-1.6262614727020264,2.8491001129150386
1516,766.0,81600.0,-9.135076522827148,-1.6262614727020264,2.8491001129150386
1517,767.0,81700.0,-8.999804496765137,-1.6699557304382324,2.9562406539916988
1518,768.0,81800.0,-9.053074836730957,-1.670554280281067,2.9287071228027344
1519,769.0,81900.0,-9.053074836730957,-1.670554280281067,2.9287071228027344
1520,770.0,82000.0,-9.188945770263672,-1.6184803247451782,2.827552318572998
1521,771.0,82100.0,-9.188945770263672,-1.6184803247451782,2.827552318572998
1522,772.0,82200.0,-9.111733436584473,-1.6525976657867432,2.847304344177246
1523,773.0,82300.0,-9.111733436584473,-1.6525976657867432,2.847304344177246
1524,774.0,82400.0,-9.056666374206543,-1.6747441291809082,2.911349296569824
1525,775.0,82500.0,-9.056666374206543,-1.6747441291809082,2.911349296569824
1526,776.0,82600.0,-9.073426246643066,-1.6525976657867432,2.8634653091430664
1527,777.0,82700.0,-9.097966194152832,-1.6238672733306885,2.867655038833618
1528,778.0,82800.0,-9.097966194152832,-1.6238672733306885,2.867655038833618
1529,779.0,82900.0,-9.099761962890623,-1.6382324695587158,2.8419175148010254
1530,765.0,81500.0,-9.135076522827148,-1.6262614727020264,2.8491001129150386
1531,766.0,81600.0,-9.135076522827148,-1.6262614727020264,2.8491001129150386
1532,767.0,81700.0,-8.999804496765137,-1.6699557304382324,2.9562406539916988
1533,768.0,81800.0,-9.053074836730957,-1.670554280281067,2.9287071228027344
1534,769.0,81900.0,-9.053074836730957,-1.670554280281067,2.9287071228027344
1535,770.0,82000.0,-9.188945770263672,-1.6184803247451782,2.827552318572998
1536,771.0,82100.0,-9.188945770263672,-1.6184803247451782,2.827552318572998
1537,772.0,82200.0,-9.111733436584473,-1.6525976657867432,2.847304344177246
1538,773.0,82300.0,-9.111733436584473,-1.6525976657867432,2.847304344177246
1539,774.0,82400.0,-9.056666374206543,-1.6747441291809082,2.911349296569824
1540,775.0,82500.0,-9.056666374206543,-1.6747441291809082,2.911349296569824
1541,776.0,82600.0,-9.073426246643066,-1.6525976657867432,2.8634653091430664
1542,777.0,82700.0,-9.097966194152832,-1.6238672733306885,2.867655038833618
1543,778.0,82800.0,-9.097966194152832,-1.6238672733306885,2.867655038833618
1544,779.0,82900.0,-9.099761962890623,-1.6382324695587158,2.8419175148010254
1545,780.0,83000.0,-9.099761962890623,-1.6382324695587158,2.8419175148010254
1546,781.0,83100.0,-9.081207275390623,-1.6519991159439087,2.868852138519287
1547,782.0,83200.0,-9.081207275390623,-1.6519991159439087,2.868852138519287
1548,783.0,83300.0,-9.081207275390623,-1.6651673316955566,2.882020235061645
1549,784.0,83400.0,-9.081207275390623,-1.6651673316955566,2.882020235061645
1550,785.0,83500.0,-9.094375610351564,-1.6454150676727295,2.85867691040039
1551,786.0,83600.0,-9.093177795410156,-1.6442179679870603,2.874239206314087
1552,787.0,83700.0,-9.093177795410156,-1.6442179679870603,2.874239206314087
1553,788.0,83800.0,-9.081805229187012,-1.653794765472412,2.869450807571411
1554,789.0,83900.0,-9.081805229187012,-1.653794765472412,2.869450807571411
1555,790.0,84000.0,-9.081805229187012,-1.6466121673583984,2.9053637981414795
1556,791.0,84100.0,-9.081805229187012,-1.6466121673583984,2.9053637981414795
1557,792.0,84200.0,-9.097966194152832,-1.6549919843673706,2.882618904113768
1558,793.0,84300.0,-9.097966194152832,-1.6549919843673706,2.882618904113768
1559,794.0,84400.0,-9.123703956604004,-1.6573861837387085,2.87064790725708
1560,780.0,83000.0,-9.099761962890623,-1.6382324695587158,2.8419175148010254
1561,781.0,83100.0,-9.081207275390623,-1.6519991159439087,2.868852138519287
1562,782.0,83200.0,-9.081207275390623,-1.6519991159439087,2.868852138519287
1563,783.0,83300.0,-9.081207275390623,-1.6651673316955566,2.882020235061645
1564,784.0,83400.0,-9.081207275390623,-1.6651673316955566,2.882020235061645
1565,785.0,83500.0,-9.094375610351564,-1.6454150676727295,2.85867691040039
1566,786.0,83600.0,-9.093177795410156,-1.6442179679870603,2.874239206314087
1567,787.0,83700.0,-9.093177795410156,-1.6442179679870603,2.874239206314087
1568,788.0,83800.0,-9.081805229187012,-1.653794765472412,2.869450807571411
1569,789.0,83900.0,-9.081805229187012,-1.653794765472412,2.869450807571411
1570,790.0,84000.0,-9.081805229187012,-1.6466121673583984,2.9053637981414795
1571,791.0,84100.0,-9.081805229187012,-1.6466121673583984,2.9053637981414795
1572,792.0,84200.0,-9.097966194152832,-1.6549919843673706,2.882618904113768
1573,793.0,84300.0,-9.097966194152832,-1.6549919843673706,2.882618904113768
1574,794.0,84400.0,-9.123703956604004,-1.6573861837387085,2.87064790725708
1575,795.0,84500.0,-9.097368240356444,-1.6484078168869019,2.882020235061645
1576,796.0,84600.0,-9.097368240356444,-1.6484078168869019,2.882020235061645
1577,797.0,84700.0,-9.097966194152832,-1.6615760326385498,2.87064790725708
1578,798.0,84800.0,-9.097966194152832,-1.6615760326385498,2.87064790725708
1579,799.0,84900.0,-9.07222843170166,-1.679532527923584,2.9017724990844727
1580,800.0,85000.0,-9.07222843170166,-1.679532527923584,2.9017724990844727
1581,801.0,85100.0,-9.113529205322266,-1.659181833267212,2.8664579391479488
1582,802.0,85200.0,-9.113529205322266,-1.659181833267212,2.8664579391479488
1583,803.0,85300.0,-9.078214645385742,-1.6358382701873782,2.9023709297180176
1584,804.0,85400.0,-9.078214645385742,-1.6358382701873782,2.9023709297180176
1585,805.0,85500.0,-9.090784072875977,-1.6531962156295776,2.890399932861328
1586,806.0,85600.0,-9.067440032958984,-1.653794765472412,2.8874073028564453
1587,807.0,85700.0,-9.067440032958984,-1.653794765472412,2.8874073028564453
1588,808.0,85800.0,-9.086593627929688,-1.6525976657867432,2.8844144344329834
1589,809.0,85900.0,-9.086593627929688,-1.6525976657867432,2.8844144344329834
1590,795.0,84500.0,-9.097368240356444,-1.6484078168869019,2.882020235061645
1591,796.0,84600.0,-9.097368240356444,-1.6484078168869019,2.882020235061645
1592,797.0,84700.0,-9.097966194152832,-1.6615760326385498,2.87064790725708
1593,798.0,84800.0,-9.097966194152832,-1.6615760326385498,2.87064790725708
1594,799.0,84900.0,-9.07222843170166,-1.679532527923584,2.9017724990844727
