,Unnamed: 0,timestamp,ax,ay,az
0,0.0,5000.0,-8.97885513305664,-2.053626537322998,2.9508535861968994
1,1.0,5100.0,-8.97885513305664,-2.053626537322998,2.9508535861968994
2,2.0,5200.0,-8.97885513305664,-2.053626537322998,2.9508535861968994
3,3.0,5300.0,-8.957306861877441,-2.078166961669922,2.9903578758239746
4,4.0,5400.0,-8.957306861877441,-2.078166961669922,2.9903578758239746
5,5.0,5500.0,-9.005789756774902,-2.0500352382659908,2.959831953048706
6,6.0,5600.0,-8.973467826843262,-2.02429747581482,2.9939491748809814
7,7.0,5700.0,-8.973467826843262,-2.02429747581482,2.9939491748809814
8,8.0,5800.0,-8.972869873046875,-2.077568531036377,3.00053334236145
9,9.0,5900.0,-8.972869873046875,-2.077568531036377,3.00053334236145
10,10.0,6000.0,-9.004592895507812,-2.033874273300171,2.9795839786529537
11,11.0,6100.0,-9.004592895507812,-2.033874273300171,2.9795839786529537
12,12.0,6200.0,-8.967482566833496,-2.060210466384888,2.9981391429901123
13,13.0,6300.0,-8.967482566833496,-2.060210466384888,2.9981391429901123
14,14.0,6400.0,-8.974664688110352,-2.0679917335510254,2.9927520751953125
15,15.0,6500.0,-8.956110000610352,-2.0590133666992188,3.022081136703491
16,16.0,6600.0,-8.956110000610352,-2.0590133666992188,3.022081136703491
17,17.0,6700.0,-8.97765827178955,-2.0500352382659908,2.982576847076416
18,18.0,6800.0,-8.97765827178955,-2.0500352382659908,2.982576847076416
19,19.0,6900.0,-8.986037254333496,-2.0691888332366943,2.9747955799102783
20,10.0,6000.0,-9.004592895507812,-2.033874273300171,2.9795839786529537
21,11.0,6100.0,-9.004592895507812,-2.033874273300171,2.9795839786529537
22,12.0,6200.0,-8.967482566833496,-2.060210466384888,2.9981391429901123
23,13.0,6300.0,-8.967482566833496,-2.060210466384888,2.9981391429901123
24,14.0,6400.0,-8.974664688110352,-2.0679917335510254,2.9927520751953125
25,15.0,6500.0,-8.956110000610352,-2.0590133666992188,3.022081136703491
26,16.0,6600.0,-8.956110000610352,-2.0590133666992188,3.022081136703491
27,17.0,6700.0,-8.97765827178955,-2.0500352382659908,2.982576847076416
28,18.0,6800.0,-8.97765827178955,-2.0500352382659908,2.982576847076416
29,19.0,6900.0,-8.986037254333496,-2.0691888332366943,2.9747955799102783
30,20.0,7000.0,-8.986037254333496,-2.0691888332366943,2.9747955799102783
31,21.0,7100.0,-8.976460456848145,-2.051830768585205,2.9957449436187744
32,22.0,7200.0,-8.976460456848145,-2.051830768585205,2.9957449436187744
33,23.0,7300.0,-9.000402450561523,-2.031480073928833,2.9831752777099614
34,24.0,7400.0,-8.974664688110352,-2.060210466384888,2.981978178024292
35,25.0,7500.0,-8.974664688110352,-2.060210466384888,2.981978178024292
36,26.0,7600.0,-8.965087890625,-2.0470423698425293,2.9753942489624023
37,27.0,7700.0,-8.965087890625,-2.0470423698425293,2.9753942489624023
38,28.0,7800.0,-8.944737434387207,-2.030282974243164,3.004124641418457
39,29.0,7900.0,-8.944737434387207,-2.030282974243164,3.004124641418457
40,20.0,7000.0,-8.986037254333496,-2.0691888332366943,2.9747955799102783
41,21.0,7100.0,-8.976460456848145,-2.051830768585205,2.9957449436187744
42,22.0,7200.0,-8.976460456848145,-2.051830768585205,2.9957449436187744
43,23.0,7300.0,-9.000402450561523,-2.031480073928833,2.9831752777099614
44,24.0,7400.0,-8.974664688110352,-2.060210466384888,2.981978178024292
45,25.0,7500.0,-8.974664688110352,-2.060210466384888,2.981978178024292
46,26.0,7600.0,-8.965087890625,-2.0470423698425293,2.9753942489624023
47,27.0,7700.0,-8.965087890625,-2.0470423698425293,2.9753942489624023
48,28.0,7800.0,-8.944737434387207,-2.030282974243164,3.004124641418457
49,29.0,7900.0,-8.944737434387207,-2.030282974243164,3.004124641418457
50,30.0,8000.0,-8.991424560546875,-2.0386626720428467,2.9981391429901123
51,31.0,8100.0,-8.991424560546875,-2.0386626720428467,2.9981391429901123
52,32.0,8200.0,-8.970475196838379,-2.04045844078064,2.975992679595948
53,33.0,8300.0,-8.984241485595703,-2.0470423698425293,3.0017304420471187
54,34.0,8400.0,-8.984241485595703,-2.0470423698425293,3.0017304420471187
55,35.0,8500.0,-8.986037254333496,-2.056619167327881,2.958634853363037
56,36.0,8600.0,-8.986037254333496,-2.056619167327881,2.958634853363037
57,37.0,8700.0,-8.958504676818848,-2.0458452701568604,2.9915549755096436
58,38.0,8800.0,-8.958504676818848,-2.0458452701568604,2.9915549755096436
59,39.0,8900.0,-8.975263595581055,-2.0452468395233154,2.980781078338623
60,30.0,8000.0,-8.991424560546875,-2.0386626720428467,2.9981391429901123
61,31.0,8100.0,-8.991424560546875,-2.0386626720428467,2.9981391429901123
62,32.0,8200.0,-8.970475196838379,-2.04045844078064,2.975992679595948
63,33.0,8300.0,-8.984241485595703,-2.0470423698425293,3.0017304420471187
64,34.0,8400.0,-8.984241485595703,-2.0470423698425293,3.0017304420471187
65,35.0,8500.0,-8.986037254333496,-2.056619167327881,2.958634853363037
66,36.0,8600.0,-8.986037254333496,-2.056619167327881,2.958634853363037
67,37.0,8700.0,-8.958504676818848,-2.0458452701568604,2.9915549755096436
68,38.0,8800.0,-8.958504676818848,-2.0458452701568604,2.9915549755096436
69,39.0,8900.0,-8.975263595581055,-2.0452468395233154,2.980781078338623
70,40.0,9000.0,-8.975263595581055,-2.0452468395233154,2.980781078338623
71,41.0,9100.0,-8.983643531799316,-2.0458452701568604,2.9694087505340576
72,42.0,9200.0,-8.972869873046875,-2.0488381385803223,2.9795839786529537
73,43.0,9300.0,-8.972869873046875,-2.0488381385803223,2.9795839786529537
74,44.0,9400.0,-8.992621421813965,-2.0416555404663086,2.9652187824249268
75,45.0,9500.0,-8.992621421813965,-2.0416555404663086,2.9652187824249268
76,46.0,9600.0,-8.979453086853027,-2.098517894744873,2.963423252105713
77,47.0,9700.0,-8.979453086853027,-2.098517894744873,2.963423252105713
78,48.0,9800.0,-8.984241485595703,-2.0649988651275635,2.9777884483337402
79,49.0,9900.0,-8.984241485595703,-2.0649988651275635,2.9777884483337402
80,40.0,9000.0,-8.975263595581055,-2.0452468395233154,2.980781078338623
81,41.0,9100.0,-8.983643531799316,-2.0458452701568604,2.9694087505340576
82,42.0,9200.0,-8.972869873046875,-2.0488381385803223,2.9795839786529537
83,43.0,9300.0,-8.972869873046875,-2.0488381385803223,2.9795839786529537
84,44.0,9400.0,-8.992621421813965,-2.0416555404663086,2.9652187824249268
85,45.0,9500.0,-8.992621421813965,-2.0416555404663086,2.9652187824249268
86,46.0,9600.0,-8.979453086853027,-2.098517894744873,2.963423252105713
87,47.0,9700.0,-8.979453086853027,-2.098517894744873,2.963423252105713
88,48.0,9800.0,-8.984241485595703,-2.0649988651275635,2.9777884483337402
89,49.0,9900.0,-8.984241485595703,-2.0649988651275635,2.9777884483337402
90,50.0,10000.0,-8.955511093139648,-2.0440497398376465,3.013102769851685
91,51.0,10100.0,-8.949525833129883,-2.060210466384888,2.975992679595948
92,52.0,10200.0,-8.949525833129883,-2.060210466384888,2.975992679595948
93,53.0,10300.0,-9.004592895507812,-2.0584149360656743,2.9562406539916988
94,54.0,10400.0,-9.004592895507812,-2.0584149360656743,2.9562406539916988
95,55.0,10500.0,-8.978256225585938,-2.0434510707855225,2.9694087505340576
96,56.0,10600.0,-8.978256225585938,-2.0434510707855225,2.9694087505340576
97,57.0,10700.0,-9.018359184265137,-2.08056116104126,2.920926094055176
98,58.0,10800.0,-9.018359184265137,-2.08056116104126,2.920926094055176
99,59.0,10900.0,-8.99740982055664,-2.0578162670135502,2.9520506858825684
100,50.0,10000.0,-8.955511093139648,-2.0440497398376465,3.013102769851685
101,51.0,10100.0,-8.949525833129883,-2.060210466384888,2.975992679595948
102,52.0,10200.0,-8.949525833129883,-2.060210466384888,2.975992679595948
103,53.0,10300.0,-9.004592895507812,-2.0584149360656743,2.9562406539916988
104,54.0,10400.0,-9.004592895507812,-2.0584149360656743,2.9562406539916988
105,55.0,10500.0,-8.978256225585938,-2.0434510707855225,2.9694087505340576
106,56.0,10600.0,-8.978256225585938,-2.0434510707855225,2.9694087505340576
107,57.0,10700.0,-9.018359184265137,-2.08056116104126,2.920926094055176
108,58.0,10800.0,-9.018359184265137,-2.08056116104126,2.920926094055176
109,59.0,10900.0,-8.99740982055664,-2.0578162670135502,2.9520506858825684
110,60.0,11000.0,-9.012373924255373,-2.0368671417236333,2.9448680877685547
111,61.0,11100.0,-9.012373924255373,-2.0368671417236333,2.9448680877685547
112,62.0,11200.0,-8.980650901794434,-2.024896144866944,2.9927520751953125
113,63.0,11300.0,-8.980650901794434,-2.024896144866944,2.9927520751953125
114,64.0,11400.0,-8.97765827178955,-2.033275842666626,2.9652187824249268
115,65.0,11500.0,-8.97765827178955,-2.033275842666626,2.9652187824249268
116,66.0,11600.0,-8.974066734313965,-2.0494365692138667,2.963423252105713
117,67.0,11700.0,-8.974066734313965,-2.0494365692138667,2.963423252105713
118,68.0,11800.0,-8.971672058105469,-2.0392613410949707,2.976591348648072
119,69.0,11900.0,-8.952518463134766,-2.0254945755004883,2.9741971492767334
120,60.0,11000.0,-9.012373924255373,-2.0368671417236333,2.9448680877685547
121,61.0,11100.0,-9.012373924255373,-2.0368671417236333,2.9448680877685547
122,62.0,11200.0,-8.980650901794434,-2.024896144866944,2.9927520751953125
123,63.0,11300.0,-8.980650901794434,-2.024896144866944,2.9927520751953125
124,64.0,11400.0,-8.97765827178955,-2.033275842666626,2.9652187824249268
125,65.0,11500.0,-8.97765827178955,-2.033275842666626,2.9652187824249268
126,66.0,11600.0,-8.974066734313965,-2.0494365692138667,2.963423252105713
127,67.0,11700.0,-8.974066734313965,-2.0494365692138667,2.963423252105713
128,68.0,11800.0,-8.971672058105469,-2.0392613410949707,2.976591348648072
129,69.0,11900.0,-8.952518463134766,-2.0254945755004883,2.9741971492767334
130,70.0,12000.0,-8.952518463134766,-2.0254945755004883,2.9741971492767334
131,71.0,12100.0,-8.971672058105469,-2.0368671417236333,2.9741971492767334
132,72.0,12200.0,-8.971672058105469,-2.0368671417236333,2.9741971492767334
133,73.0,12300.0,-8.984840393066406,-2.0440497398376465,2.9694087505340576
134,74.0,12400.0,-8.984840393066406,-2.0440497398376465,2.9694087505340576
135,75.0,12500.0,-9.002198219299316,-2.0638017654418945,3.001131772994995
136,76.0,12600.0,-9.002198219299316,-2.0638017654418945,3.001131772994995
137,77.0,12700.0,-8.995614051818848,-2.050633668899536,2.9933507442474365
138,78.0,12800.0,-8.990825653076172,-2.0452468395233154,2.9915549755096436
139,79.0,12900.0,-8.990825653076172,-2.0452468395233154,2.9915549755096436
140,70.0,12000.0,-8.952518463134766,-2.0254945755004883,2.9741971492767334
141,71.0,12100.0,-8.971672058105469,-2.0368671417236333,2.9741971492767334
142,72.0,12200.0,-8.971672058105469,-2.0368671417236333,2.9741971492767334
143,73.0,12300.0,-8.984840393066406,-2.0440497398376465,2.9694087505340576
144,74.0,12400.0,-8.984840393066406,-2.0440497398376465,2.9694087505340576
145,75.0,12500.0,-9.002198219299316,-2.0638017654418945,3.001131772994995
146,76.0,12600.0,-9.002198219299316,-2.0638017654418945,3.001131772994995
147,77.0,12700.0,-8.995614051818848,-2.050633668899536,2.9933507442474365
148,78.0,12800.0,-8.990825653076172,-2.0452468395233154,2.9915549755096436
149,79.0,12900.0,-8.990825653076172,-2.0452468395233154,2.9915549755096436
150,80.0,13000.0,-8.972869873046875,-2.0590133666992188,2.992153644561768
151,81.0,13100.0,-8.972869873046875,-2.0590133666992188,2.992153644561768
152,82.0,13200.0,-9.004592895507812,-2.0494365692138667,2.964620351791382
153,83.0,13300.0,-9.004592895507812,-2.0494365692138667,2.964620351791382
154,84.0,13400.0,-8.981847763061523,-2.060210466384888,2.977189779281616
155,85.0,13500.0,-8.981847763061523,-2.060210466384888,2.977189779281616
156,86.0,13600.0,-8.9680814743042,-2.0368671417236333,2.9885623455047607
157,87.0,13700.0,-8.991424560546875,-2.0356700420379643,2.9682116508483887
158,88.0,13800.0,-8.991424560546875,-2.0356700420379643,2.9682116508483887
159,89.0,13900.0,-8.986037254333496,-2.0356700420379643,2.9676129817962646
160,80.0,13000.0,-8.972869873046875,-2.0590133666992188,2.992153644561768
161,81.0,13100.0,-8.972869873046875,-2.0590133666992188,2.992153644561768
162,82.0,13200.0,-9.004592895507812,-2.0494365692138667,2.964620351791382
163,83.0,13300.0,-9.004592895507812,-2.0494365692138667,2.964620351791382
164,84.0,13400.0,-8.981847763061523,-2.060210466384888,2.977189779281616
165,85.0,13500.0,-8.981847763061523,-2.060210466384888,2.977189779281616
166,86.0,13600.0,-8.9680814743042,-2.0368671417236333,2.9885623455047607
167,87.0,13700.0,-8.991424560546875,-2.0356700420379643,2.9682116508483887
168,88.0,13800.0,-8.991424560546875,-2.0356700420379643,2.9682116508483887
169,89.0,13900.0,-8.986037254333496,-2.0356700420379643,2.9676129817962646
170,90.0,14000.0,-8.986037254333496,-2.0356700420379643,2.9676129817962646
171,91.0,14100.0,-8.980650901794434,-2.0236990451812744,2.96701455116272
172,92.0,14200.0,-8.980650901794434,-2.0236990451812744,2.96701455116272
173,93.0,14300.0,-8.962095260620117,-2.034472942352295,2.9676129817962646
174,94.0,14400.0,-8.962095260620117,-2.034472942352295,2.9676129817962646
175,95.0,14500.0,-8.992621421813965,-2.053027868270874,2.9544448852539062
176,96.0,14600.0,-8.979453086853027,-2.0260932445526123,2.9652187824249268
177,97.0,14700.0,-8.979453086853027,-2.0260932445526123,2.9652187824249268
178,98.0,14800.0,-8.995614051818848,-2.0356700420379643,2.9718029499053955
179,99.0,14900.0,-8.995614051818848,-2.0356700420379643,2.9718029499053955
180,90.0,14000.0,-8.986037254333496,-2.0356700420379643,2.9676129817962646
181,91.0,14100.0,-8.980650901794434,-2.0236990451812744,2.96701455116272
182,92.0,14200.0,-8.980650901794434,-2.0236990451812744,2.96701455116272
183,93.0,14300.0,-8.962095260620117,-2.034472942352295,2.9676129817962646
184,94.0,14400.0,-8.962095260620117,-2.034472942352295,2.9676129817962646
185,95.0,14500.0,-8.992621421813965,-2.053027868270874,2.9544448852539062
186,96.0,14600.0,-8.979453086853027,-2.0260932445526123,2.9652187824249268
187,97.0,14700.0,-8.979453086853027,-2.0260932445526123,2.9652187824249268
188,98.0,14800.0,-8.995614051818848,-2.0356700420379643,2.9718029499053955
189,99.0,14900.0,-8.995614051818848,-2.0356700420379643,2.9718029499053955
190,100.0,15000.0,-8.99740982055664,-2.02429747581482,2.978386878967285
191,101.0,15100.0,-8.99740982055664,-2.02429747581482,2.978386878967285
192,102.0,15200.0,-9.00160026550293,-2.0320787429809566,2.959233283996582
193,103.0,15300.0,-9.00160026550293,-2.0320787429809566,2.959233283996582
194,104.0,15400.0,-8.98543930053711,-2.04045844078064,2.999934673309326
195,105.0,15500.0,-9.032125473022461,-2.0590133666992188,2.897582530975342
196,106.0,15600.0,-9.032125473022461,-2.0590133666992188,2.897582530975342
197,107.0,15700.0,-9.005789756774902,-2.055422067642212,2.980182647705078
198,108.0,15800.0,-9.005789756774902,-2.055422067642212,2.980182647705078
199,109.0,15900.0,-8.965087890625,-2.07397723197937,2.981978178024292
200,100.0,15000.0,-8.99740982055664,-2.02429747581482,2.978386878967285
201,101.0,15100.0,-8.99740982055664,-2.02429747581482,2.978386878967285
202,102.0,15200.0,-9.00160026550293,-2.0320787429809566,2.959233283996582
203,103.0,15300.0,-9.00160026550293,-2.0320787429809566,2.959233283996582
204,104.0,15400.0,-8.98543930053711,-2.04045844078064,2.999934673309326
205,105.0,15500.0,-9.032125473022461,-2.0590133666992188,2.897582530975342
206,106.0,15600.0,-9.032125473022461,-2.0590133666992188,2.897582530975342
207,107.0,15700.0,-9.005789756774902,-2.055422067642212,2.980182647705078
208,108.0,15800.0,-9.005789756774902,-2.055422067642212,2.980182647705078
209,109.0,15900.0,-8.965087890625,-2.07397723197937,2.981978178024292
210,110.0,16000.0,-8.965087890625,-2.07397723197937,2.981978178024292
211,111.0,16100.0,-8.99740982055664,-2.0871453285217285,2.9795839786529537
212,112.0,16200.0,-8.99740982055664,-2.0871453285217285,2.9795839786529537
213,113.0,16300.0,-9.010578155517578,-2.0835540294647217,2.963423252105713
214,114.0,16400.0,-8.967482566833496,-2.0620062351226807,2.9831752777099614
215,115.0,16500.0,-8.967482566833496,-2.0620062351226807,2.9831752777099614
216,116.0,16600.0,-8.971074104309082,-2.0350713729858403,2.975992679595948
217,117.0,16700.0,-8.971074104309082,-2.0350713729858403,2.975992679595948
218,118.0,16800.0,-9.006388664245605,-2.01232647895813,2.9544448852539062
219,119.0,16900.0,-9.006388664245605,-2.01232647895813,2.9544448852539062
220,110.0,16000.0,-8.965087890625,-2.07397723197937,2.981978178024292
221,111.0,16100.0,-8.99740982055664,-2.0871453285217285,2.9795839786529537
222,112.0,16200.0,-8.99740982055664,-2.0871453285217285,2.9795839786529537
223,113.0,16300.0,-9.010578155517578,-2.0835540294647217,2.963423252105713
224,114.0,16400.0,-8.967482566833496,-2.0620062351226807,2.9831752777099614
225,115.0,16500.0,-8.967482566833496,-2.0620062351226807,2.9831752777099614
226,116.0,16600.0,-8.971074104309082,-2.0350713729858403,2.975992679595948
227,117.0,16700.0,-8.971074104309082,-2.0350713729858403,2.975992679595948
228,118.0,16800.0,-9.006388664245605,-2.01232647895813,2.9544448852539062
229,119.0,16900.0,-9.006388664245605,-2.01232647895813,2.9544448852539062
230,120.0,17000.0,-8.9249849319458,-2.060809135437012,2.981379747390747
231,121.0,17100.0,-8.9249849319458,-2.060809135437012,2.981379747390747
232,122.0,17200.0,-9.099164009094238,-2.060210466384888,2.808398485183716
233,123.0,17300.0,-8.923190116882324,-2.0141222476959237,3.0555999279022217
234,124.0,17400.0,-8.923190116882324,-2.0141222476959237,3.0555999279022217
235,125.0,17500.0,-9.05247688293457,-2.0350713729858403,2.9107506275177
236,126.0,17600.0,-9.05247688293457,-2.0350713729858403,2.9107506275177
237,127.0,17700.0,-8.950124740600586,-2.021903276443481,3.005920171737672
238,128.0,17800.0,-8.950124740600586,-2.021903276443481,3.005920171737672
239,129.0,17900.0,-9.019556045532227,-2.0350713729858403,2.9029695987701416
240,120.0,17000.0,-8.9249849319458,-2.060809135437012,2.981379747390747
241,121.0,17100.0,-8.9249849319458,-2.060809135437012,2.981379747390747
242,122.0,17200.0,-9.099164009094238,-2.060210466384888,2.808398485183716
243,123.0,17300.0,-8.923190116882324,-2.0141222476959237,3.0555999279022217
244,124.0,17400.0,-8.923190116882324,-2.0141222476959237,3.0555999279022217
245,125.0,17500.0,-9.05247688293457,-2.0350713729858403,2.9107506275177
246,126.0,17600.0,-9.05247688293457,-2.0350713729858403,2.9107506275177
247,127.0,17700.0,-8.950124740600586,-2.021903276443481,3.005920171737672
248,128.0,17800.0,-8.950124740600586,-2.021903276443481,3.005920171737672
249,129.0,17900.0,-9.019556045532227,-2.0350713729858403,2.9029695987701416
250,130.0,18000.0,-9.019556045532227,-2.0350713729858403,2.9029695987701416
251,131.0,18100.0,-8.968679428100586,-2.0823569297790527,2.9927520751953125
252,132.0,18200.0,-9.030928611755373,-2.051830768585205,2.9460651874542236
253,133.0,18300.0,-9.030928611755373,-2.051830768585205,2.9460651874542236
254,134.0,18400.0,-8.979453086853027,-2.056020736694336,2.987365245819092
255,135.0,18500.0,-8.979453086853027,-2.056020736694336,2.987365245819092
256,136.0,18600.0,-9.009381294250488,-2.0500352382659908,2.9430725574493413
257,137.0,18700.0,-9.009381294250488,-2.0500352382659908,2.9430725574493413
258,138.0,18800.0,-8.968679428100586,-2.0446481704711914,2.9682116508483887
259,139.0,18900.0,-8.968679428100586,-2.0446481704711914,2.9682116508483887
260,130.0,18000.0,-9.019556045532227,-2.0350713729858403,2.9029695987701416
261,131.0,18100.0,-8.968679428100586,-2.0823569297790527,2.9927520751953125
262,132.0,18200.0,-9.030928611755373,-2.051830768585205,2.9460651874542236
263,133.0,18300.0,-9.030928611755373,-2.051830768585205,2.9460651874542236
264,134.0,18400.0,-8.979453086853027,-2.056020736694336,2.987365245819092
265,135.0,18500.0,-8.979453086853027,-2.056020736694336,2.987365245819092
266,136.0,18600.0,-9.009381294250488,-2.0500352382659908,2.9430725574493413
267,137.0,18700.0,-9.009381294250488,-2.0500352382659908,2.9430725574493413
268,138.0,18800.0,-8.968679428100586,-2.0446481704711914,2.9682116508483887
269,139.0,18900.0,-8.968679428100586,-2.0446481704711914,2.9682116508483887
270,140.0,19000.0,-8.982446670532227,-2.0470423698425293,2.9538464546203613
271,141.0,19100.0,-8.982446670532227,-2.0470423698425293,2.9538464546203613
272,142.0,19200.0,-8.982446670532227,-2.0638017654418945,2.9706058502197266
273,143.0,19300.0,-8.978256225585938,-2.0488381385803223,2.9676129817962646
274,144.0,19400.0,-8.978256225585938,-2.0488381385803223,2.9676129817962646
275,145.0,19500.0,-8.97765827178955,-2.055422067642212,2.9694087505340576
276,146.0,19600.0,-8.97765827178955,-2.055422067642212,2.9694087505340576
277,147.0,19700.0,-9.006986618041992,-2.0667946338653564,2.935291290283203
278,148.0,19800.0,-9.006986618041992,-2.0667946338653564,2.935291290283203
279,149.0,19900.0,-8.982446670532227,-2.0584149360656743,2.96701455116272
280,140.0,19000.0,-8.982446670532227,-2.0470423698425293,2.9538464546203613
281,141.0,19100.0,-8.982446670532227,-2.0470423698425293,2.9538464546203613
282,142.0,19200.0,-8.982446670532227,-2.0638017654418945,2.9706058502197266
283,143.0,19300.0,-8.978256225585938,-2.0488381385803223,2.9676129817962646
284,144.0,19400.0,-8.978256225585938,-2.0488381385803223,2.9676129817962646
285,145.0,19500.0,-8.97765827178955,-2.055422067642212,2.9694087505340576
286,146.0,19600.0,-8.97765827178955,-2.055422067642212,2.9694087505340576
287,147.0,19700.0,-9.006986618041992,-2.0667946338653564,2.935291290283203
288,148.0,19800.0,-9.006986618041992,-2.0667946338653564,2.935291290283203
289,149.0,19900.0,-8.982446670532227,-2.0584149360656743,2.96701455116272
290,150.0,20000.0,-8.982446670532227,-2.0584149360656743,2.96701455116272
291,151.0,20100.0,-8.993220329284668,-2.0877439975738525,2.9215245246887207
292,152.0,20200.0,-8.94533634185791,-2.051830768585205,3.005920171737672
293,153.0,20300.0,-8.94533634185791,-2.051830768585205,3.005920171737672
294,154.0,20400.0,-9.0051908493042,-2.0500352382659908,2.935889720916748
295,155.0,20500.0,-9.0051908493042,-2.0500352382659908,2.935889720916748
296,156.0,20600.0,-8.971672058105469,-2.0542249679565434,2.9730000495910645
297,157.0,20700.0,-8.971672058105469,-2.0542249679565434,2.9730000495910645
298,158.0,20800.0,-8.999804496765137,-2.0440497398376465,2.9520506858825684
299,159.0,20900.0,-8.999804496765137,-2.0440497398376465,2.9520506858825684
300,150.0,20000.0,-8.982446670532227,-2.0584149360656743,2.96701455116272
301,151.0,20100.0,-8.993220329284668,-2.0877439975738525,2.9215245246887207
302,152.0,20200.0,-8.94533634185791,-2.051830768585205,3.005920171737672
303,153.0,20300.0,-8.94533634185791,-2.051830768585205,3.005920171737672
304,154.0,20400.0,-9.0051908493042,-2.0500352382659908,2.935889720916748
305,155.0,20500.0,-9.0051908493042,-2.0500352382659908,2.935889720916748
306,156.0,20600.0,-8.971672058105469,-2.0542249679565434,2.9730000495910645
307,157.0,20700.0,-8.971672058105469,-2.0542249679565434,2.9730000495910645
308,158.0,20800.0,-8.999804496765137,-2.0440497398376465,2.9520506858825684
309,159.0,20900.0,-8.999804496765137,-2.0440497398376465,2.9520506858825684
310,160.0,21000.0,-8.956110000610352,-2.07397723197937,2.980182647705078
311,161.0,21100.0,-8.974664688110352,-2.0470423698425293,2.9305028915405287
312,162.0,21200.0,-8.974664688110352,-2.0470423698425293,2.9305028915405287
313,163.0,21300.0,-8.969876289367676,-2.055422067642212,2.9747955799102783
314,164.0,21400.0,-8.969876289367676,-2.055422067642212,2.9747955799102783
315,165.0,21500.0,-8.993818283081055,-2.074575662612915,2.948459386825561
316,166.0,21600.0,-8.993818283081055,-2.074575662612915,2.948459386825561
317,167.0,21700.0,-8.977059364318848,-2.053626537322998,2.9526493549346924
318,168.0,21800.0,-8.977059364318848,-2.053626537322998,2.9526493549346924
319,169.0,21900.0,-8.99621295928955,-2.053626537322998,2.9215245246887207
320,160.0,21000.0,-8.956110000610352,-2.07397723197937,2.980182647705078
321,161.0,21100.0,-8.974664688110352,-2.0470423698425293,2.9305028915405287
322,162.0,21200.0,-8.974664688110352,-2.0470423698425293,2.9305028915405287
323,163.0,21300.0,-8.969876289367676,-2.055422067642212,2.9747955799102783
324,164.0,21400.0,-8.969876289367676,-2.055422067642212,2.9747955799102783
325,165.0,21500.0,-8.993818283081055,-2.074575662612915,2.948459386825561
326,166.0,21600.0,-8.993818283081055,-2.074575662612915,2.948459386825561
327,167.0,21700.0,-8.977059364318848,-2.053626537322998,2.9526493549346924
328,168.0,21800.0,-8.977059364318848,-2.053626537322998,2.9526493549346924
329,169.0,21900.0,-8.99621295928955,-2.053626537322998,2.9215245246887207
330,170.0,22000.0,-8.974066734313965,-2.079364061355591,2.958634853363037
331,171.0,22100.0,-8.974066734313965,-2.079364061355591,2.958634853363037
332,172.0,22200.0,-9.009381294250488,-2.0638017654418945,2.9340941905975337
333,173.0,22300.0,-9.009381294250488,-2.0638017654418945,2.9340941905975337
334,174.0,22400.0,-8.99860668182373,-2.054823637008667,2.9544448852539062
335,175.0,22500.0,-8.99860668182373,-2.054823637008667,2.9544448852539062
336,176.0,22600.0,-8.992621421813965,-2.0649988651275635,2.9472622871398926
337,177.0,22700.0,-8.992621421813965,-2.0649988651275635,2.9472622871398926
338,178.0,22800.0,-8.974664688110352,-2.0458452701568604,2.975992679595948
339,179.0,22900.0,-8.993818283081055,-2.042852640151977,2.9442696571350098
340,170.0,22000.0,-8.974066734313965,-2.079364061355591,2.958634853363037
341,171.0,22100.0,-8.974066734313965,-2.079364061355591,2.958634853363037
342,172.0,22200.0,-9.009381294250488,-2.0638017654418945,2.9340941905975337
343,173.0,22300.0,-9.009381294250488,-2.0638017654418945,2.9340941905975337
344,174.0,22400.0,-8.99860668182373,-2.054823637008667,2.9544448852539062
345,175.0,22500.0,-8.99860668182373,-2.054823637008667,2.9544448852539062
346,176.0,22600.0,-8.992621421813965,-2.0649988651275635,2.9472622871398926
347,177.0,22700.0,-8.992621421813965,-2.0649988651275635,2.9472622871398926
348,178.0,22800.0,-8.974664688110352,-2.0458452701568604,2.975992679595948
349,179.0,22900.0,-8.993818283081055,-2.042852640151977,2.9442696571350098
350,180.0,23000.0,-8.993818283081055,-2.042852640151977,2.9442696571350098
351,181.0,23100.0,-8.986037254333496,-2.051830768585205,2.9478609561920166
352,182.0,23200.0,-8.986037254333496,-2.051830768585205,2.9478609561920166
353,183.0,23300.0,-8.976460456848145,-2.056619167327881,2.9496564865112305
354,184.0,23400.0,-8.976460456848145,-2.056619167327881,2.9496564865112305
355,185.0,23500.0,-8.977059364318848,-2.106897592544556,2.9712042808532715
356,186.0,23600.0,-8.977059364318848,-2.106897592544556,2.9712042808532715
357,187.0,23700.0,-8.969278335571289,-2.071583032608032,2.9496564865112305
358,188.0,23800.0,-8.983643531799316,-2.051830768585205,2.9418752193450928
359,189.0,23900.0,-8.983643531799316,-2.051830768585205,2.9418752193450928
360,180.0,23000.0,-8.993818283081055,-2.042852640151977,2.9442696571350098
361,181.0,23100.0,-8.986037254333496,-2.051830768585205,2.9478609561920166
362,182.0,23200.0,-8.986037254333496,-2.051830768585205,2.9478609561920166
363,183.0,23300.0,-8.976460456848145,-2.056619167327881,2.9496564865112305
364,184.0,23400.0,-8.976460456848145,-2.056619167327881,2.9496564865112305
365,185.0,23500.0,-8.977059364318848,-2.106897592544556,2.9712042808532715
366,186.0,23600.0,-8.977059364318848,-2.106897592544556,2.9712042808532715
367,187.0,23700.0,-8.969278335571289,-2.071583032608032,2.9496564865112305
368,188.0,23800.0,-8.983643531799316,-2.051830768585205,2.9418752193450928
369,189.0,23900.0,-8.983643531799316,-2.051830768585205,2.9418752193450928
370,190.0,24000.0,-8.972270965576172,-2.0632033348083496,2.9658174514770512
371,191.0,24100.0,-8.972270965576172,-2.0632033348083496,2.9658174514770512
372,192.0,24200.0,-8.975862503051758,-2.056619167327881,2.957437753677368
373,193.0,24300.0,-8.975862503051758,-2.056619167327881,2.957437753677368
374,194.0,24400.0,-8.979453086853027,-2.0434510707855225,2.975992679595948
375,195.0,24500.0,-8.979453086853027,-2.0434510707855225,2.975992679595948
376,196.0,24600.0,-9.009381294250488,-2.0632033348083496,3.0095114707946777
377,197.0,24700.0,-9.00279712677002,-2.0476410388946533,2.9640216827392583
378,198.0,24800.0,-9.00279712677002,-2.0476410388946533,2.9640216827392583
379,199.0,24900.0,-8.983044624328613,-2.088342428207397,2.9550435543060303
380,190.0,24000.0,-8.972270965576172,-2.0632033348083496,2.9658174514770512
381,191.0,24100.0,-8.972270965576172,-2.0632033348083496,2.9658174514770512
382,192.0,24200.0,-8.975862503051758,-2.056619167327881,2.957437753677368
383,193.0,24300.0,-8.975862503051758,-2.056619167327881,2.957437753677368
384,194.0,24400.0,-8.979453086853027,-2.0434510707855225,2.975992679595948
385,195.0,24500.0,-8.979453086853027,-2.0434510707855225,2.975992679595948
386,196.0,24600.0,-9.009381294250488,-2.0632033348083496,3.0095114707946777
387,197.0,24700.0,-9.00279712677002,-2.0476410388946533,2.9640216827392583
388,198.0,24800.0,-9.00279712677002,-2.0476410388946533,2.9640216827392583
389,199.0,24900.0,-8.983044624328613,-2.088342428207397,2.9550435543060303
390,200.0,25000.0,-8.983044624328613,-2.088342428207397,2.9550435543060303
391,201.0,25100.0,-8.951920509338379,-2.0632033348083496,2.9730000495910645
392,202.0,25200.0,-8.951920509338379,-2.0632033348083496,2.9730000495910645
393,203.0,25300.0,-9.01117706298828,-2.0482394695281982,2.873640537261963
394,204.0,25400.0,-9.01117706298828,-2.0482394695281982,2.873640537261963
395,205.0,25500.0,-8.965087890625,-2.0183119773864746,2.96162748336792
396,206.0,25600.0,-8.999804496765137,-2.0231003761291504,2.917334794998169
397,207.0,25700.0,-8.999804496765137,-2.0231003761291504,2.917334794998169
398,208.0,25800.0,-8.955511093139648,-2.123058319091797,2.8886044025421143
399,209.0,25900.0,-8.955511093139648,-2.123058319091797,2.8886044025421143
400,200.0,25000.0,-8.983044624328613,-2.088342428207397,2.9550435543060303
401,201.0,25100.0,-8.951920509338379,-2.0632033348083496,2.9730000495910645
402,202.0,25200.0,-8.951920509338379,-2.0632033348083496,2.9730000495910645
403,203.0,25300.0,-9.01117706298828,-2.0482394695281982,2.873640537261963
404,204.0,25400.0,-9.01117706298828,-2.0482394695281982,2.873640537261963
405,205.0,25500.0,-8.965087890625,-2.0183119773864746,2.96162748336792
406,206.0,25600.0,-8.999804496765137,-2.0231003761291504,2.917334794998169
407,207.0,25700.0,-8.999804496765137,-2.0231003761291504,2.917334794998169
408,208.0,25800.0,-8.955511093139648,-2.123058319091797,2.8886044025421143
409,209.0,25900.0,-8.955511093139648,-2.123058319091797,2.8886044025421143
410,210.0,26000.0,-9.026739120483398,-2.0446481704711914,2.871246337890625
411,211.0,26100.0,-9.026739120483398,-2.0446481704711914,2.871246337890625
412,212.0,26200.0,-8.911218643188477,-2.036268472671509,2.9508535861968994
413,213.0,26300.0,-8.911218643188477,-2.036268472671509,2.9508535861968994
414,214.0,26400.0,-9.042301177978516,-2.071583032608032,2.736572504043579
415,215.0,26500.0,-9.015965461730957,-2.081159830093384,2.8862102031707764
416,216.0,26600.0,-9.015965461730957,-2.081159830093384,2.8862102031707764
417,217.0,26700.0,-9.023746490478516,-1.9985598325729368,2.8856115341186523
418,218.0,26800.0,-9.023746490478516,-1.9985598325729368,2.8856115341186523
419,219.0,26900.0,-9.015965461730957,-2.0500352382659908,2.9089550971984863
420,210.0,26000.0,-9.026739120483398,-2.0446481704711914,2.871246337890625
421,211.0,26100.0,-9.026739120483398,-2.0446481704711914,2.871246337890625
422,212.0,26200.0,-8.911218643188477,-2.036268472671509,2.9508535861968994
423,213.0,26300.0,-8.911218643188477,-2.036268472671509,2.9508535861968994
424,214.0,26400.0,-9.042301177978516,-2.071583032608032,2.736572504043579
425,215.0,26500.0,-9.015965461730957,-2.081159830093384,2.8862102031707764
426,216.0,26600.0,-9.015965461730957,-2.081159830093384,2.8862102031707764
427,217.0,26700.0,-9.023746490478516,-1.9985598325729368,2.8856115341186523
428,218.0,26800.0,-9.023746490478516,-1.9985598325729368,2.8856115341186523
429,219.0,26900.0,-9.015965461730957,-2.0500352382659908,2.9089550971984863
430,220.0,27000.0,-9.015965461730957,-2.0500352382659908,2.9089550971984863
431,221.0,27100.0,-9.016563415527344,-2.0488381385803223,2.862268209457397
432,222.0,27200.0,-9.016563415527344,-2.0488381385803223,2.862268209457397
433,223.0,27300.0,-9.00160026550293,-2.033275842666626,2.893991231918335
434,224.0,27400.0,-8.995016098022461,-2.053626537322998,2.895188331604004
435,225.0,27500.0,-8.995016098022461,-2.053626537322998,2.895188331604004
436,226.0,27600.0,-9.02135181427002,-2.055422067642212,2.882020235061645
437,227.0,27700.0,-9.02135181427002,-2.055422067642212,2.882020235061645
438,228.0,27800.0,-9.02015495300293,-2.0667946338653564,2.8790276050567627
439,229.0,27900.0,-9.02015495300293,-2.0667946338653564,2.8790276050567627
440,220.0,27000.0,-9.015965461730957,-2.0500352382659908,2.9089550971984863
441,221.0,27100.0,-9.016563415527344,-2.0488381385803223,2.862268209457397
442,222.0,27200.0,-9.016563415527344,-2.0488381385803223,2.862268209457397
443,223.0,27300.0,-9.00160026550293,-2.033275842666626,2.893991231918335
444,224.0,27400.0,-8.995016098022461,-2.053626537322998,2.895188331604004
445,225.0,27500.0,-8.995016098022461,-2.053626537322998,2.895188331604004
446,226.0,27600.0,-9.02135181427002,-2.055422067642212,2.882020235061645
447,227.0,27700.0,-9.02135181427002,-2.055422067642212,2.882020235061645
448,228.0,27800.0,-9.02015495300293,-2.0667946338653564,2.8790276050567627
449,229.0,27900.0,-9.02015495300293,-2.0667946338653564,2.8790276050567627
450,230.0,28000.0,-9.033921241760254,-1.999756932258606,2.9041666984558105
451,231.0,28100.0,-9.033921241760254,-1.999756932258606,2.9041666984558105
452,232.0,28200.0,-9.001001358032227,-2.055422067642212,2.9245173931121826
453,233.0,28300.0,-8.960898399353027,-2.075772762298584,2.9412767887115483
454,234.0,28400.0,-8.960898399353027,-2.075772762298584,2.9412767887115483
455,235.0,28500.0,-8.986037254333496,-2.024896144866944,2.917334794998169
456,236.0,28600.0,-8.986037254333496,-2.024896144866944,2.917334794998169
457,237.0,28700.0,-9.006388664245605,-2.0434510707855225,2.9005753993988037
458,238.0,28800.0,-9.006388664245605,-2.0434510707855225,2.9005753993988037
459,239.0,28900.0,-8.99621295928955,-2.053626537322998,2.917933225631714
460,230.0,28000.0,-9.033921241760254,-1.999756932258606,2.9041666984558105
461,231.0,28100.0,-9.033921241760254,-1.999756932258606,2.9041666984558105
462,232.0,28200.0,-9.001001358032227,-2.055422067642212,2.9245173931121826
463,233.0,28300.0,-8.960898399353027,-2.075772762298584,2.9412767887115483
464,234.0,28400.0,-8.960898399353027,-2.075772762298584,2.9412767887115483
465,235.0,28500.0,-8.986037254333496,-2.024896144866944,2.917334794998169
466,236.0,28600.0,-8.986037254333496,-2.024896144866944,2.917334794998169
467,237.0,28700.0,-9.006388664245605,-2.0434510707855225,2.9005753993988037
468,238.0,28800.0,-9.006388664245605,-2.0434510707855225,2.9005753993988037
469,239.0,28900.0,-8.99621295928955,-2.053626537322998,2.917933225631714
470,240.0,29000.0,-8.99621295928955,-2.053626537322998,2.917933225631714
471,241.0,29100.0,-8.990825653076172,-2.0392613410949707,2.89339280128479
472,242.0,29200.0,-9.001001358032227,-2.0141222476959237,2.9059622287750244
473,243.0,29300.0,-9.001001358032227,-2.0141222476959237,2.9059622287750244
474,244.0,29400.0,-9.027337074279783,-2.0452468395233154,2.917933225631714
475,245.0,29500.0,-9.027337074279783,-2.0452468395233154,2.917933225631714
476,246.0,29600.0,-9.003395080566406,-2.0614075660705566,2.910152196884156
477,247.0,29700.0,-9.003395080566406,-2.0614075660705566,2.910152196884156
478,248.0,29800.0,-8.987833023071289,-2.0727801322937007,2.928108692169189
479,249.0,29900.0,-8.987833023071289,-2.0727801322937007,2.928108692169189
480,240.0,29000.0,-8.99621295928955,-2.053626537322998,2.917933225631714
481,241.0,29100.0,-8.990825653076172,-2.0392613410949707,2.89339280128479
482,242.0,29200.0,-9.001001358032227,-2.0141222476959237,2.9059622287750244
483,243.0,29300.0,-9.001001358032227,-2.0141222476959237,2.9059622287750244
484,244.0,29400.0,-9.027337074279783,-2.0452468395233154,2.917933225631714
485,245.0,29500.0,-9.027337074279783,-2.0452468395233154,2.917933225631714
486,246.0,29600.0,-9.003395080566406,-2.0614075660705566,2.910152196884156
487,247.0,29700.0,-9.003395080566406,-2.0614075660705566,2.910152196884156
488,248.0,29800.0,-8.987833023071289,-2.0727801322937007,2.928108692169189
489,249.0,29900.0,-8.987833023071289,-2.0727801322937007,2.928108692169189
490,250.0,30000.0,-9.054272651672363,-2.0464439392089844,2.8347349166870117
491,251.0,30100.0,-9.034520149230957,-2.008735179901123,2.862268209457397
492,252.0,30200.0,-9.034520149230957,-2.008735179901123,2.862268209457397
493,253.0,30300.0,-9.064447402954102,-2.0260932445526123,2.782660961151123
494,254.0,30400.0,-9.064447402954102,-2.0260932445526123,2.782660961151123
495,255.0,30500.0,-9.027337074279783,-2.027290344238281,2.8832173347473145
496,256.0,30600.0,-9.027337074279783,-2.027290344238281,2.8832173347473145
497,257.0,30700.0,-9.039308547973633,-2.030881643295288,2.876633405685425
498,258.0,30800.0,-9.039308547973633,-2.030881643295288,2.876633405685425
499,259.0,30900.0,-9.011775016784668,-2.0476410388946533,2.874837636947632
500,250.0,30000.0,-9.054272651672363,-2.0464439392089844,2.8347349166870117
501,251.0,30100.0,-9.034520149230957,-2.008735179901123,2.862268209457397
502,252.0,30200.0,-9.034520149230957,-2.008735179901123,2.862268209457397
503,253.0,30300.0,-9.064447402954102,-2.0260932445526123,2.782660961151123
504,254.0,30400.0,-9.064447402954102,-2.0260932445526123,2.782660961151123
505,255.0,30500.0,-9.027337074279783,-2.027290344238281,2.8832173347473145
506,256.0,30600.0,-9.027337074279783,-2.027290344238281,2.8832173347473145
507,257.0,30700.0,-9.039308547973633,-2.030881643295288,2.876633405685425
508,258.0,30800.0,-9.039308547973633,-2.030881643295288,2.876633405685425
509,259.0,30900.0,-9.011775016784668,-2.0476410388946533,2.874837636947632
510,260.0,31000.0,-9.02015495300293,-2.039859771728516,2.8718450069427486
511,261.0,31100.0,-9.02015495300293,-2.039859771728516,2.8718450069427486
512,262.0,31200.0,-8.984840393066406,-2.0416555404663086,2.8718450069427486
513,263.0,31300.0,-8.984840393066406,-2.0416555404663086,2.8718450069427486
514,264.0,31400.0,-9.00399398803711,-2.0386626720428467,2.9119477272033687
515,265.0,31500.0,-9.00399398803711,-2.0386626720428467,2.9119477272033687
516,266.0,31600.0,-8.989628791809082,-2.0452468395233154,2.919728994369507
517,267.0,31700.0,-8.989628791809082,-2.0452468395233154,2.919728994369507
518,268.0,31800.0,-9.001001358032227,-2.0446481704711914,2.9245173931121826
519,269.0,31900.0,-8.993818283081055,-2.02429747581482,2.937086820602417
520,260.0,31000.0,-9.02015495300293,-2.039859771728516,2.8718450069427486
521,261.0,31100.0,-9.02015495300293,-2.039859771728516,2.8718450069427486
522,262.0,31200.0,-8.984840393066406,-2.0416555404663086,2.8718450069427486
523,263.0,31300.0,-8.984840393066406,-2.0416555404663086,2.8718450069427486
524,264.0,31400.0,-9.00399398803711,-2.0386626720428467,2.9119477272033687
525,265.0,31500.0,-9.00399398803711,-2.0386626720428467,2.9119477272033687
526,266.0,31600.0,-8.989628791809082,-2.0452468395233154,2.919728994369507
527,267.0,31700.0,-8.989628791809082,-2.0452468395233154,2.919728994369507
528,268.0,31800.0,-9.001001358032227,-2.0446481704711914,2.9245173931121826
529,269.0,31900.0,-8.993818283081055,-2.02429747581482,2.937086820602417
530,270.0,32000.0,-8.993818283081055,-2.02429747581482,2.937086820602417
531,271.0,32100.0,-8.992621421813965,-2.0482394695281982,2.9311013221740723
532,272.0,32200.0,-8.992621421813965,-2.0482394695281982,2.9311013221740723
533,273.0,32300.0,-8.989628791809082,-2.0476410388946533,2.917933225631714
534,274.0,32400.0,-8.989628791809082,-2.0476410388946533,2.917933225631714
535,275.0,32500.0,-8.98005199432373,-2.030282974243164,2.9514522552490234
536,276.0,32600.0,-8.98005199432373,-2.030282974243164,2.9514522552490234
537,277.0,32700.0,-9.006388664245605,-2.0165164470672607,2.914940595626831
538,278.0,32800.0,-8.99621295928955,-2.02429747581482,2.9221231937408447
539,279.0,32900.0,-8.99621295928955,-2.02429747581482,2.9221231937408447
540,270.0,32000.0,-8.993818283081055,-2.02429747581482,2.937086820602417
541,271.0,32100.0,-8.992621421813965,-2.0482394695281982,2.9311013221740723
542,272.0,32200.0,-8.992621421813965,-2.0482394695281982,2.9311013221740723
543,273.0,32300.0,-8.989628791809082,-2.0476410388946533,2.917933225631714
544,274.0,32400.0,-8.989628791809082,-2.0476410388946533,2.917933225631714
545,275.0,32500.0,-8.98005199432373,-2.030282974243164,2.9514522552490234
546,276.0,32600.0,-8.98005199432373,-2.030282974243164,2.9514522552490234
547,277.0,32700.0,-9.006388664245605,-2.0165164470672607,2.914940595626831
548,278.0,32800.0,-8.99621295928955,-2.02429747581482,2.9221231937408447
549,279.0,32900.0,-8.99621295928955,-2.02429747581482,2.9221231937408447
550,280.0,33000.0,-8.992621421813965,-2.033275842666626,2.9221231937408447
551,281.0,33100.0,-8.992621421813965,-2.033275842666626,2.9221231937408447
552,282.0,33200.0,-8.995614051818848,-2.0374655723571777,2.9478609561920166
553,283.0,33300.0,-8.995614051818848,-2.0374655723571777,2.9478609561920166
554,284.0,33400.0,-9.010578155517578,-2.0183119773864746,2.9119477272033687
555,285.0,33500.0,-9.010578155517578,-2.0183119773864746,2.9119477272033687
556,286.0,33600.0,-8.975263595581055,-2.022501945495605,2.9287071228027344
557,287.0,33700.0,-9.00160026550293,-2.0207061767578125,2.913743495941162
558,288.0,33800.0,-9.00160026550293,-2.0207061767578125,2.913743495941162
559,289.0,33900.0,-8.977059364318848,-2.0494365692138667,2.937685489654541
560,280.0,33000.0,-8.992621421813965,-2.033275842666626,2.9221231937408447
561,281.0,33100.0,-8.992621421813965,-2.033275842666626,2.9221231937408447
562,282.0,33200.0,-8.995614051818848,-2.0374655723571777,2.9478609561920166
563,283.0,33300.0,-8.995614051818848,-2.0374655723571777,2.9478609561920166
564,284.0,33400.0,-9.010578155517578,-2.0183119773864746,2.9119477272033687
565,285.0,33500.0,-9.010578155517578,-2.0183119773864746,2.9119477272033687
566,286.0,33600.0,-8.975263595581055,-2.022501945495605,2.9287071228027344
567,287.0,33700.0,-9.00160026550293,-2.0207061767578125,2.913743495941162
568,288.0,33800.0,-9.00160026550293,-2.0207061767578125,2.913743495941162
569,289.0,33900.0,-8.977059364318848,-2.0494365692138667,2.937685489654541
570,290.0,34000.0,-8.977059364318848,-2.0494365692138667,2.937685489654541
571,291.0,34100.0,-9.018359184265137,-2.078765630722046,2.9035680294036865
572,292.0,34200.0,-9.018359184265137,-2.078765630722046,2.9035680294036865
573,293.0,34300.0,-8.989029884338379,-2.0470423698425293,2.935291290283203
574,294.0,34400.0,-8.989029884338379,-2.0470423698425293,2.935291290283203
575,295.0,34500.0,-9.026140213012695,-2.078166961669922,2.8461072444915767
576,296.0,34600.0,-8.98005199432373,-2.0470423698425293,2.9035680294036865
577,297.0,34700.0,-8.98005199432373,-2.0470423698425293,2.9035680294036865
578,298.0,34800.0,-8.981847763061523,-2.0416555404663086,2.9053637981414795
579,299.0,34900.0,-8.981847763061523,-2.0416555404663086,2.9053637981414795
580,290.0,34000.0,-8.977059364318848,-2.0494365692138667,2.937685489654541
581,291.0,34100.0,-9.018359184265137,-2.078765630722046,2.9035680294036865
582,292.0,34200.0,-9.018359184265137,-2.078765630722046,2.9035680294036865
583,293.0,34300.0,-8.989029884338379,-2.0470423698425293,2.935291290283203
584,294.0,34400.0,-8.989029884338379,-2.0470423698425293,2.935291290283203
585,295.0,34500.0,-9.026140213012695,-2.078166961669922,2.8461072444915767
586,296.0,34600.0,-8.98005199432373,-2.0470423698425293,2.9035680294036865
587,297.0,34700.0,-8.98005199432373,-2.0470423698425293,2.9035680294036865
588,298.0,34800.0,-8.981847763061523,-2.0416555404663086,2.9053637981414795
589,299.0,34900.0,-8.981847763061523,-2.0416555404663086,2.9053637981414795
590,300.0,35000.0,-8.967482566833496,-2.030881643295288,2.9065608978271484
591,301.0,35100.0,-8.967482566833496,-2.030881643295288,2.9065608978271484
592,302.0,35200.0,-8.993818283081055,-2.0213048458099365,2.912546396255493
593,303.0,35300.0,-8.993818283081055,-2.0213048458099365,2.912546396255493
594,304.0,35400.0,-9.011775016784668,-2.021903276443481,2.9263129234313965
595,305.0,35500.0,-9.012971878051758,-2.0500352382659908,2.9221231937408447
596,306.0,35600.0,-9.012971878051758,-2.0500352382659908,2.9221231937408447
597,307.0,35700.0,-9.02254867553711,-2.0590133666992188,2.9430725574493413
598,308.0,35800.0,-9.02254867553711,-2.0590133666992188,2.9430725574493413
599,309.0,35900.0,-8.992023468017578,-2.0380642414093018,2.9263129234313965
600,300.0,35000.0,-8.967482566833496,-2.030881643295288,2.9065608978271484
601,301.0,35100.0,-8.967482566833496,-2.030881643295288,2.9065608978271484
602,302.0,35200.0,-8.993818283081055,-2.0213048458099365,2.912546396255493
603,303.0,35300.0,-8.993818283081055,-2.0213048458099365,2.912546396255493
604,304.0,35400.0,-9.011775016784668,-2.021903276443481,2.9263129234313965
605,305.0,35500.0,-9.012971878051758,-2.0500352382659908,2.9221231937408447
606,306.0,35600.0,-9.012971878051758,-2.0500352382659908,2.9221231937408447
607,307.0,35700.0,-9.02254867553711,-2.0590133666992188,2.9430725574493413
608,308.0,35800.0,-9.02254867553711,-2.0590133666992188,2.9430725574493413
609,309.0,35900.0,-8.992023468017578,-2.0380642414093018,2.9263129234313965
610,310.0,36000.0,-8.992023468017578,-2.0380642414093018,2.9263129234313965
611,311.0,36100.0,-8.974664688110352,-2.0416555404663086,2.9328970909118652
612,312.0,36200.0,-8.974664688110352,-2.0416555404663086,2.9328970909118652
613,313.0,36300.0,-9.013570785522461,-2.0320787429809566,2.93349552154541
614,314.0,36400.0,-8.993220329284668,-2.0458452701568604,2.928108692169189
615,315.0,36500.0,-8.993220329284668,-2.0458452701568604,2.928108692169189
616,316.0,36600.0,-8.987235069274902,-2.0368671417236333,2.9053637981414795
617,317.0,36700.0,-8.987235069274902,-2.0368671417236333,2.9053637981414795
618,318.0,36800.0,-8.98543930053711,-2.0452468395233154,2.9107506275177
619,319.0,36900.0,-8.98543930053711,-2.0452468395233154,2.9107506275177
620,310.0,36000.0,-8.992023468017578,-2.0380642414093018,2.9263129234313965
621,311.0,36100.0,-8.974664688110352,-2.0416555404663086,2.9328970909118652
622,312.0,36200.0,-8.974664688110352,-2.0416555404663086,2.9328970909118652
623,313.0,36300.0,-9.013570785522461,-2.0320787429809566,2.93349552154541
624,314.0,36400.0,-8.993220329284668,-2.0458452701568604,2.928108692169189
625,315.0,36500.0,-8.993220329284668,-2.0458452701568604,2.928108692169189
626,316.0,36600.0,-8.987235069274902,-2.0368671417236333,2.9053637981414795
627,317.0,36700.0,-8.987235069274902,-2.0368671417236333,2.9053637981414795
628,318.0,36800.0,-8.98543930053711,-2.0452468395233154,2.9107506275177
629,319.0,36900.0,-8.98543930053711,-2.0452468395233154,2.9107506275177
630,320.0,37000.0,-9.000402450561523,-2.0392613410949707,2.9227216243743896
631,321.0,37100.0,-9.000402450561523,-2.0392613410949707,2.9227216243743896
632,322.0,37200.0,-9.0051908493042,-2.04045844078064,2.917334794998169
633,323.0,37300.0,-9.005789756774902,-2.0368671417236333,2.928108692169189
634,324.0,37400.0,-9.005789756774902,-2.0368671417236333,2.928108692169189
635,325.0,37500.0,-8.987833023071289,-2.0649988651275635,2.928108692169189
636,326.0,37600.0,-8.987833023071289,-2.0649988651275635,2.928108692169189
637,327.0,37700.0,-9.012971878051758,-2.057217836380005,2.9017724990844727
638,328.0,37800.0,-9.012971878051758,-2.057217836380005,2.9017724990844727
639,329.0,37900.0,-8.978256225585938,-2.0482394695281982,2.9418752193450928
640,320.0,37000.0,-9.000402450561523,-2.0392613410949707,2.9227216243743896
641,321.0,37100.0,-9.000402450561523,-2.0392613410949707,2.9227216243743896
642,322.0,37200.0,-9.0051908493042,-2.04045844078064,2.917334794998169
643,323.0,37300.0,-9.005789756774902,-2.0368671417236333,2.928108692169189
644,324.0,37400.0,-9.005789756774902,-2.0368671417236333,2.928108692169189
645,325.0,37500.0,-8.987833023071289,-2.0649988651275635,2.928108692169189
646,326.0,37600.0,-8.987833023071289,-2.0649988651275635,2.928108692169189
647,327.0,37700.0,-9.012971878051758,-2.057217836380005,2.9017724990844727
648,328.0,37800.0,-9.012971878051758,-2.057217836380005,2.9017724990844727
649,329.0,37900.0,-8.978256225585938,-2.0482394695281982,2.9418752193450928
650,330.0,38000.0,-8.978256225585938,-2.0482394695281982,2.9418752193450928
651,331.0,38100.0,-8.98005199432373,-2.0679917335510254,2.9221231937408447
652,332.0,38200.0,-8.98005199432373,-2.0679917335510254,2.9221231937408447
653,333.0,38300.0,-8.981847763061523,-2.0434510707855225,2.927510023117065
654,334.0,38400.0,-9.017162322998047,-2.033275842666626,2.917933225631714
655,335.0,38500.0,-9.017162322998047,-2.033275842666626,2.917933225631714
656,336.0,38600.0,-8.999205589294434,-1.9979612827301023,2.9227216243743896
657,337.0,38700.0,-8.999205589294434,-1.9979612827301023,2.9227216243743896
658,338.0,38800.0,-8.958504676818848,-2.078166961669922,2.9724013805389404
659,339.0,38900.0,-8.958504676818848,-2.078166961669922,2.9724013805389404
660,330.0,38000.0,-8.978256225585938,-2.0482394695281982,2.9418752193450928
661,331.0,38100.0,-8.98005199432373,-2.0679917335510254,2.9221231937408447
662,332.0,38200.0,-8.98005199432373,-2.0679917335510254,2.9221231937408447
663,333.0,38300.0,-8.981847763061523,-2.0434510707855225,2.927510023117065
664,334.0,38400.0,-9.017162322998047,-2.033275842666626,2.917933225631714
665,335.0,38500.0,-9.017162322998047,-2.033275842666626,2.917933225631714
666,336.0,38600.0,-8.999205589294434,-1.9979612827301023,2.9227216243743896
667,337.0,38700.0,-8.999205589294434,-1.9979612827301023,2.9227216243743896
668,338.0,38800.0,-8.958504676818848,-2.078166961669922,2.9724013805389404
669,339.0,38900.0,-8.958504676818848,-2.078166961669922,2.9724013805389404
670,340.0,39000.0,-9.017760276794434,-2.126649618148804,2.8634653091430664
671,341.0,39100.0,-9.017760276794434,-2.126649618148804,2.8634653091430664
672,342.0,39200.0,-9.016563415527344,-2.0446481704711914,2.861669540405273
673,343.0,39300.0,-9.059659004211426,-2.0009541511535645,2.825756549835205
674,344.0,39400.0,-9.059659004211426,-2.0009541511535645,2.825756549835205
675,345.0,39500.0,-9.129091262817383,-1.999158382415772,2.777872562408448
676,346.0,39600.0,-9.129091262817383,-1.999158382415772,2.777872562408448
677,347.0,39700.0,-8.97885513305664,-1.9650410413742063,2.8754363059997563
678,348.0,39800.0,-8.97885513305664,-1.9650410413742063,2.8754363059997563
679,349.0,39900.0,-8.999205589294434,-2.0452468395233154,2.9035680294036865
680,340.0,39000.0,-9.017760276794434,-2.126649618148804,2.8634653091430664
681,341.0,39100.0,-9.017760276794434,-2.126649618148804,2.8634653091430664
682,342.0,39200.0,-9.016563415527344,-2.0446481704711914,2.861669540405273
683,343.0,39300.0,-9.059659004211426,-2.0009541511535645,2.825756549835205
684,344.0,39400.0,-9.059659004211426,-2.0009541511535645,2.825756549835205
685,345.0,39500.0,-9.129091262817383,-1.999158382415772,2.777872562408448
686,346.0,39600.0,-9.129091262817383,-1.999158382415772,2.777872562408448
687,347.0,39700.0,-8.97885513305664,-1.9650410413742063,2.8754363059997563
688,348.0,39800.0,-8.97885513305664,-1.9650410413742063,2.8754363059997563
689,349.0,39900.0,-8.999205589294434,-2.0452468395233154,2.9035680294036865
690,350.0,40000.0,-8.999205589294434,-2.0452468395233154,2.9035680294036865
691,351.0,40100.0,-9.113529205322266,-1.9823989868164065,2.7670986652374268
692,352.0,40200.0,-8.969876289367676,-2.1296424865722656,2.889801502227783
693,353.0,40300.0,-8.969876289367676,-2.1296424865722656,2.889801502227783
694,354.0,40400.0,-9.058462142944336,-2.2667105197906494,2.695871114730835
695,355.0,40500.0,-9.058462142944336,-2.2667105197906494,2.695871114730835
696,356.0,40600.0,-9.038111686706543,-2.1260511875152592,2.7664999961853027
697,357.0,40700.0,-9.038111686706543,-2.1260511875152592,2.7664999961853027
698,358.0,40800.0,-9.044695854187012,-2.1326351165771484,2.7730841636657715
699,359.0,40900.0,-9.019556045532227,-2.1296424865722656,2.795829057693481
700,350.0,40000.0,-8.999205589294434,-2.0452468395233154,2.9035680294036865
701,351.0,40100.0,-9.113529205322266,-1.9823989868164065,2.7670986652374268
702,352.0,40200.0,-8.969876289367676,-2.1296424865722656,2.889801502227783
703,353.0,40300.0,-8.969876289367676,-2.1296424865722656,2.889801502227783
704,354.0,40400.0,-9.058462142944336,-2.2667105197906494,2.695871114730835
705,355.0,40500.0,-9.058462142944336,-2.2667105197906494,2.695871114730835
706,356.0,40600.0,-9.038111686706543,-2.1260511875152592,2.7664999961853027
707,357.0,40700.0,-9.038111686706543,-2.1260511875152592,2.7664999961853027
708,358.0,40800.0,-9.044695854187012,-2.1326351165771484,2.7730841636657715
709,359.0,40900.0,-9.019556045532227,-2.1296424865722656,2.795829057693481
710,360.0,41000.0,-9.019556045532227,-2.1296424865722656,2.795829057693481
711,361.0,41100.0,-9.041702270507812,-2.121262788772583,2.739565372467041
712,362.0,41200.0,-9.041702270507812,-2.121262788772583,2.739565372467041
713,363.0,41300.0,-9.036913871765137,-2.126649618148804,2.761113166809082
714,364.0,41400.0,-9.036913871765137,-2.126649618148804,2.761113166809082
715,365.0,41500.0,-9.026739120483398,-2.1218612194061284,2.7952303886413574
716,366.0,41600.0,-9.026739120483398,-2.1218612194061284,2.7952303886413574
717,367.0,41700.0,-9.039308547973633,-2.1332337856292725,2.7910406589508057
718,368.0,41800.0,-9.039308547973633,-2.1332337856292725,2.7910406589508057
719,369.0,41900.0,-9.034520149230957,-2.122459888458252,2.780266761779785
720,360.0,41000.0,-9.019556045532227,-2.1296424865722656,2.795829057693481
721,361.0,41100.0,-9.041702270507812,-2.121262788772583,2.739565372467041
722,362.0,41200.0,-9.041702270507812,-2.121262788772583,2.739565372467041
723,363.0,41300.0,-9.036913871765137,-2.126649618148804,2.761113166809082
724,364.0,41400.0,-9.036913871765137,-2.126649618148804,2.761113166809082
725,365.0,41500.0,-9.026739120483398,-2.1218612194061284,2.7952303886413574
726,366.0,41600.0,-9.026739120483398,-2.1218612194061284,2.7952303886413574
727,367.0,41700.0,-9.039308547973633,-2.1332337856292725,2.7910406589508057
728,368.0,41800.0,-9.039308547973633,-2.1332337856292725,2.7910406589508057
729,369.0,41900.0,-9.034520149230957,-2.122459888458252,2.780266761779785
730,370.0,42000.0,-9.049484252929688,-2.1033062934875493,2.758718967437744
731,371.0,42100.0,-9.049484252929688,-2.1033062934875493,2.758718967437744
732,372.0,42200.0,-9.03751277923584,-2.120664119720459,2.786850690841675
733,373.0,42300.0,-9.03751277923584,-2.120664119720459,2.786850690841675
734,374.0,42400.0,-9.03511905670166,-2.122459888458252,2.757521867752075
735,375.0,42500.0,-9.03511905670166,-2.122459888458252,2.757521867752075
736,376.0,42600.0,-9.04828643798828,-2.117671489715576,2.7257986068725586
737,377.0,42700.0,-9.04828643798828,-2.117671489715576,2.7257986068725586
738,378.0,42800.0,-9.045293807983398,-2.118868589401245,2.779069662094116
739,379.0,42900.0,-9.057863235473633,-2.108693122863769,2.7724854946136475
740,370.0,42000.0,-9.049484252929688,-2.1033062934875493,2.758718967437744
741,371.0,42100.0,-9.049484252929688,-2.1033062934875493,2.758718967437744
742,372.0,42200.0,-9.03751277923584,-2.120664119720459,2.786850690841675
743,373.0,42300.0,-9.03751277923584,-2.120664119720459,2.786850690841675
744,374.0,42400.0,-9.03511905670166,-2.122459888458252,2.757521867752075
745,375.0,42500.0,-9.03511905670166,-2.122459888458252,2.757521867752075
746,376.0,42600.0,-9.04828643798828,-2.117671489715576,2.7257986068725586
747,377.0,42700.0,-9.04828643798828,-2.117671489715576,2.7257986068725586
748,378.0,42800.0,-9.045293807983398,-2.118868589401245,2.779069662094116
749,379.0,42900.0,-9.057863235473633,-2.108693122863769,2.7724854946136475
750,380.0,43000.0,-9.057863235473633,-2.108693122863769,2.7724854946136475
751,381.0,43100.0,-9.048885345458984,-2.1134815216064453,2.7748796939849854
752,382.0,43200.0,-9.048885345458984,-2.1134815216064453,2.7748796939849854
753,383.0,43300.0,-9.039907455444336,-2.1320366859436035,2.761113166809082
754,384.0,43400.0,-9.039907455444336,-2.1320366859436035,2.761113166809082
755,385.0,43500.0,-9.031527519226074,-2.1182699203491206,2.7748796939849854
756,386.0,43600.0,-9.031527519226074,-2.1182699203491206,2.7748796939849854
757,387.0,43700.0,-9.063250541687012,-2.1134815216064453,2.7240030765533447
758,388.0,43800.0,-8.999205589294434,-2.143409013748169,2.793434858322144
759,389.0,43900.0,-8.999205589294434,-2.143409013748169,2.793434858322144
760,380.0,43000.0,-9.057863235473633,-2.108693122863769,2.7724854946136475
761,381.0,43100.0,-9.048885345458984,-2.1134815216064453,2.7748796939849854
762,382.0,43200.0,-9.048885345458984,-2.1134815216064453,2.7748796939849854
763,383.0,43300.0,-9.039907455444336,-2.1320366859436035,2.761113166809082
764,384.0,43400.0,-9.039907455444336,-2.1320366859436035,2.761113166809082
765,385.0,43500.0,-9.031527519226074,-2.1182699203491206,2.7748796939849854
766,386.0,43600.0,-9.031527519226074,-2.1182699203491206,2.7748796939849854
767,387.0,43700.0,-9.063250541687012,-2.1134815216064453,2.7240030765533447
768,388.0,43800.0,-8.999205589294434,-2.143409013748169,2.793434858322144
769,389.0,43900.0,-8.999205589294434,-2.143409013748169,2.793434858322144
770,390.0,44000.0,-9.012971878051758,-2.1164743900299072,2.744353771209717
771,391.0,44100.0,-9.012971878051758,-2.1164743900299072,2.744353771209717
772,392.0,44200.0,-9.025542259216307,-2.1284453868865967,2.7742812633514404
773,393.0,44300.0,-9.025542259216307,-2.1284453868865967,2.7742812633514404
774,394.0,44400.0,-9.027337074279783,-2.1338322162628174,2.7210102081298837
775,395.0,44500.0,-9.027337074279783,-2.1338322162628174,2.7210102081298837
776,396.0,44600.0,-9.053074836730957,-2.1134815216064453,2.736572504043579
777,397.0,44700.0,-9.023746490478516,-2.117072820663452,2.759916067123413
778,398.0,44800.0,-9.023746490478516,-2.117072820663452,2.759916067123413
779,399.0,44900.0,-9.032724380493164,-2.1481974124908447,2.760514497756958
780,390.0,44000.0,-9.012971878051758,-2.1164743900299072,2.744353771209717
781,391.0,44100.0,-9.012971878051758,-2.1164743900299072,2.744353771209717
782,392.0,44200.0,-9.025542259216307,-2.1284453868865967,2.7742812633514404
783,393.0,44300.0,-9.025542259216307,-2.1284453868865967,2.7742812633514404
784,394.0,44400.0,-9.027337074279783,-2.1338322162628174,2.7210102081298837
785,395.0,44500.0,-9.027337074279783,-2.1338322162628174,2.7210102081298837
786,396.0,44600.0,-9.053074836730957,-2.1134815216064453,2.736572504043579
787,397.0,44700.0,-9.023746490478516,-2.117072820663452,2.759916067123413
788,398.0,44800.0,-9.023746490478516,-2.117072820663452,2.759916067123413
789,399.0,44900.0,-9.032724380493164,-2.1481974124908447,2.760514497756958
790,400.0,45000.0,-9.032724380493164,-2.1481974124908447,2.760514497756958
791,401.0,45100.0,-9.025542259216307,-2.121262788772583,2.761711597442627
792,402.0,45200.0,-9.025542259216307,-2.121262788772583,2.761711597442627
793,403.0,45300.0,-9.038111686706543,-2.097919225692749,2.7509377002716064
794,404.0,45400.0,-9.038111686706543,-2.097919225692749,2.7509377002716064
795,405.0,45500.0,-9.032125473022461,-2.098517894744873,2.762310266494751
796,406.0,45600.0,-9.027935981750488,-2.1260511875152592,2.7539305686950684
797,407.0,45700.0,-9.027935981750488,-2.1260511875152592,2.7539305686950684
798,408.0,45800.0,-9.032125473022461,-2.120664119720459,2.759916067123413
799,409.0,45900.0,-9.032125473022461,-2.120664119720459,2.759916067123413
800,400.0,45000.0,-9.032724380493164,-2.1481974124908447,2.760514497756958
801,401.0,45100.0,-9.025542259216307,-2.121262788772583,2.761711597442627
802,402.0,45200.0,-9.025542259216307,-2.121262788772583,2.761711597442627
803,403.0,45300.0,-9.038111686706543,-2.097919225692749,2.7509377002716064
804,404.0,45400.0,-9.038111686706543,-2.097919225692749,2.7509377002716064
805,405.0,45500.0,-9.032125473022461,-2.098517894744873,2.762310266494751
806,406.0,45600.0,-9.027935981750488,-2.1260511875152592,2.7539305686950684
807,407.0,45700.0,-9.027935981750488,-2.1260511875152592,2.7539305686950684
808,408.0,45800.0,-9.032125473022461,-2.120664119720459,2.759916067123413
809,409.0,45900.0,-9.032125473022461,-2.120664119720459,2.759916067123413
810,410.0,46000.0,-9.04290008544922,-2.1104888916015625,2.7455508708953857
811,411.0,46100.0,-9.04290008544922,-2.1104888916015625,2.7455508708953857
812,412.0,46200.0,-9.015965461730957,-2.126649618148804,2.7700912952423096
813,413.0,46300.0,-9.015965461730957,-2.126649618148804,2.7700912952423096
814,414.0,46400.0,-9.08838939666748,-2.117671489715576,2.7724854946136475
815,415.0,46500.0,-9.030330657958984,-2.1098902225494385,2.758718967437744
816,416.0,46600.0,-9.030330657958984,-2.1098902225494385,2.758718967437744
817,417.0,46700.0,-9.043498039245604,-2.124255418777466,2.778470993041992
818,418.0,46800.0,-9.043498039245604,-2.124255418777466,2.778470993041992
819,419.0,46900.0,-9.044695854187012,-2.1039047241210938,2.7521347999572754
820,410.0,46000.0,-9.04290008544922,-2.1104888916015625,2.7455508708953857
821,411.0,46100.0,-9.04290008544922,-2.1104888916015625,2.7455508708953857
822,412.0,46200.0,-9.015965461730957,-2.126649618148804,2.7700912952423096
823,413.0,46300.0,-9.015965461730957,-2.126649618148804,2.7700912952423096
824,414.0,46400.0,-9.08838939666748,-2.117671489715576,2.7724854946136475
825,415.0,46500.0,-9.030330657958984,-2.1098902225494385,2.758718967437744
826,416.0,46600.0,-9.030330657958984,-2.1098902225494385,2.758718967437744
827,417.0,46700.0,-9.043498039245604,-2.124255418777466,2.778470993041992
828,418.0,46800.0,-9.043498039245604,-2.124255418777466,2.778470993041992
829,419.0,46900.0,-9.044695854187012,-2.1039047241210938,2.7521347999572754
830,420.0,47000.0,-9.044695854187012,-2.1039047241210938,2.7521347999572754
831,421.0,47100.0,-9.032125473022461,-2.239177227020264,2.7311856746673584
832,422.0,47200.0,-9.032125473022461,-2.239177227020264,2.7311856746673584
833,423.0,47300.0,-9.005789756774902,-2.147000312805176,2.7449522018432617
834,424.0,47400.0,-9.065046310424805,-2.1152772903442383,2.7084407806396484
835,425.0,47500.0,-9.065046310424805,-2.1152772903442383,2.7084407806396484
836,426.0,47600.0,-9.01895809173584,-2.205059766769409,2.7539305686950684
837,427.0,47700.0,-9.01895809173584,-2.205059766769409,2.7539305686950684
838,428.0,47800.0,-9.043498039245604,-2.1057004928588867,2.737769603729248
839,429.0,47900.0,-9.043498039245604,-2.1057004928588867,2.737769603729248
840,420.0,47000.0,-9.044695854187012,-2.1039047241210938,2.7521347999572754
841,421.0,47100.0,-9.032125473022461,-2.239177227020264,2.7311856746673584
842,422.0,47200.0,-9.032125473022461,-2.239177227020264,2.7311856746673584
843,423.0,47300.0,-9.005789756774902,-2.147000312805176,2.7449522018432617
844,424.0,47400.0,-9.065046310424805,-2.1152772903442383,2.7084407806396484
845,425.0,47500.0,-9.065046310424805,-2.1152772903442383,2.7084407806396484
846,426.0,47600.0,-9.01895809173584,-2.205059766769409,2.7539305686950684
847,427.0,47700.0,-9.01895809173584,-2.205059766769409,2.7539305686950684
848,428.0,47800.0,-9.043498039245604,-2.1057004928588867,2.737769603729248
849,429.0,47900.0,-9.043498039245604,-2.1057004928588867,2.737769603729248
850,430.0,48000.0,-9.029132843017578,-2.121262788772583,2.756923198699951
851,431.0,48100.0,-9.029132843017578,-2.121262788772583,2.756923198699951
852,432.0,48200.0,-9.036913871765137,-2.10210919380188,2.7545289993286133
853,433.0,48300.0,-9.00279712677002,-2.1475989818573,2.779668092727661
854,434.0,48400.0,-9.00279712677002,-2.1475989818573,2.779668092727661
855,435.0,48500.0,-9.02015495300293,-2.1404163837432857,2.759317398071289
856,436.0,48600.0,-9.02015495300293,-2.1404163837432857,2.759317398071289
857,437.0,48700.0,-9.050082206726074,-2.07397723197937,2.741959571838379
858,438.0,48800.0,-9.050082206726074,-2.07397723197937,2.741959571838379
859,439.0,48900.0,-9.032125473022461,-2.1284453868865967,2.779069662094116
860,430.0,48000.0,-9.029132843017578,-2.121262788772583,2.756923198699951
861,431.0,48100.0,-9.029132843017578,-2.121262788772583,2.756923198699951
862,432.0,48200.0,-9.036913871765137,-2.10210919380188,2.7545289993286133
863,433.0,48300.0,-9.00279712677002,-2.1475989818573,2.779668092727661
864,434.0,48400.0,-9.00279712677002,-2.1475989818573,2.779668092727661
865,435.0,48500.0,-9.02015495300293,-2.1404163837432857,2.759317398071289
866,436.0,48600.0,-9.02015495300293,-2.1404163837432857,2.759317398071289
867,437.0,48700.0,-9.050082206726074,-2.07397723197937,2.741959571838379
868,438.0,48800.0,-9.050082206726074,-2.07397723197937,2.741959571838379
869,439.0,48900.0,-9.032125473022461,-2.1284453868865967,2.779069662094116
870,440.0,49000.0,-9.032125473022461,-2.1284453868865967,2.779069662094116
871,441.0,49100.0,-9.027337074279783,-2.1320366859436035,2.73537540435791
872,442.0,49200.0,-9.011775016784668,-2.1326351165771484,2.7928361892700195
873,443.0,49300.0,-9.011775016784668,-2.1326351165771484,2.7928361892700195
874,444.0,49400.0,-9.053074836730957,-2.121262788772583,2.75812029838562
875,445.0,49500.0,-9.053074836730957,-2.121262788772583,2.75812029838562
876,446.0,49600.0,-9.025542259216307,-2.1260511875152592,2.7491421699523926
877,447.0,49700.0,-9.025542259216307,-2.1260511875152592,2.7491421699523926
878,448.0,49800.0,-9.047089576721193,-2.1039047241210938,2.7473464012146
879,449.0,49900.0,-9.047089576721193,-2.1039047241210938,2.7473464012146
880,440.0,49000.0,-9.032125473022461,-2.1284453868865967,2.779069662094116
881,441.0,49100.0,-9.027337074279783,-2.1320366859436035,2.73537540435791
882,442.0,49200.0,-9.011775016784668,-2.1326351165771484,2.7928361892700195
883,443.0,49300.0,-9.011775016784668,-2.1326351165771484,2.7928361892700195
884,444.0,49400.0,-9.053074836730957,-2.121262788772583,2.75812029838562
885,445.0,49500.0,-9.053074836730957,-2.121262788772583,2.75812029838562
886,446.0,49600.0,-9.025542259216307,-2.1260511875152592,2.7491421699523926
887,447.0,49700.0,-9.025542259216307,-2.1260511875152592,2.7491421699523926
888,448.0,49800.0,-9.047089576721193,-2.1039047241210938,2.7473464012146
889,449.0,49900.0,-9.047089576721193,-2.1039047241210938,2.7473464012146
890,450.0,50000.0,-9.042301177978516,-2.1302409172058105,2.762310266494751
891,451.0,50100.0,-9.02015495300293,-2.1326351165771484,2.75812029838562
892,452.0,50200.0,-9.02015495300293,-2.1326351165771484,2.75812029838562
893,453.0,50300.0,-9.05367374420166,-2.1039047241210938,2.7563247680664062
894,454.0,50400.0,-9.05367374420166,-2.1039047241210938,2.7563247680664062
895,455.0,50500.0,-9.05606746673584,-2.1302409172058105,2.7527334690093994
896,456.0,50600.0,-9.05606746673584,-2.1302409172058105,2.7527334690093994
897,457.0,50700.0,-9.034520149230957,-2.1314380168914795,2.7527334690093994
898,458.0,50800.0,-9.034520149230957,-2.1314380168914795,2.7527334690093994
899,459.0,50900.0,-9.030928611755373,-2.1404163837432857,2.7664999961853027
900,450.0,50000.0,-9.042301177978516,-2.1302409172058105,2.762310266494751
901,451.0,50100.0,-9.02015495300293,-2.1326351165771484,2.75812029838562
902,452.0,50200.0,-9.02015495300293,-2.1326351165771484,2.75812029838562
903,453.0,50300.0,-9.05367374420166,-2.1039047241210938,2.7563247680664062
904,454.0,50400.0,-9.05367374420166,-2.1039047241210938,2.7563247680664062
905,455.0,50500.0,-9.05606746673584,-2.1302409172058105,2.7527334690093994
906,456.0,50600.0,-9.05606746673584,-2.1302409172058105,2.7527334690093994
907,457.0,50700.0,-9.034520149230957,-2.1314380168914795,2.7527334690093994
908,458.0,50800.0,-9.034520149230957,-2.1314380168914795,2.7527334690093994
909,459.0,50900.0,-9.030928611755373,-2.1404163837432857,2.7664999961853027
910,460.0,51000.0,-9.04828643798828,-2.127248287200928,2.75812029838562
911,461.0,51100.0,-9.04828643798828,-2.127248287200928,2.75812029838562
912,462.0,51200.0,-9.05487060546875,-2.118868589401245,2.7730841636657715
913,463.0,51300.0,-9.05487060546875,-2.118868589401245,2.7730841636657715
914,464.0,51400.0,-9.036913871765137,-2.1344308853149414,2.7653028964996342
915,465.0,51500.0,-9.036913871765137,-2.1344308853149414,2.7653028964996342
916,466.0,51600.0,-9.033323287963867,-2.1338322162628174,2.7712883949279785
917,467.0,51700.0,-9.033323287963867,-2.1338322162628174,2.7712883949279785
918,468.0,51800.0,-9.042301177978516,-2.1314380168914795,2.76350736618042
919,469.0,51900.0,-9.032125473022461,-2.1320366859436035,2.740163803100586
920,460.0,51000.0,-9.04828643798828,-2.127248287200928,2.75812029838562
921,461.0,51100.0,-9.04828643798828,-2.127248287200928,2.75812029838562
922,462.0,51200.0,-9.05487060546875,-2.118868589401245,2.7730841636657715
923,463.0,51300.0,-9.05487060546875,-2.118868589401245,2.7730841636657715
924,464.0,51400.0,-9.036913871765137,-2.1344308853149414,2.7653028964996342
925,465.0,51500.0,-9.036913871765137,-2.1344308853149414,2.7653028964996342
926,466.0,51600.0,-9.033323287963867,-2.1338322162628174,2.7712883949279785
927,467.0,51700.0,-9.033323287963867,-2.1338322162628174,2.7712883949279785
928,468.0,51800.0,-9.042301177978516,-2.1314380168914795,2.76350736618042
929,469.0,51900.0,-9.032125473022461,-2.1320366859436035,2.740163803100586
930,470.0,52000.0,-9.032125473022461,-2.1320366859436035,2.740163803100586
931,471.0,52100.0,-9.01895809173584,-2.1392192840576167,2.783858060836792
932,472.0,52200.0,-9.01895809173584,-2.1392192840576167,2.783858060836792
933,473.0,52300.0,-9.039907455444336,-2.147000312805176,2.738368272781372
934,474.0,52400.0,-9.039907455444336,-2.147000312805176,2.738368272781372
935,475.0,52500.0,-9.039308547973633,-2.1146786212921143,2.760514497756958
936,476.0,52600.0,-9.039308547973633,-2.1146786212921143,2.760514497756958
937,477.0,52700.0,-9.049484252929688,-2.123656988143921,2.7664999961853027
938,478.0,52800.0,-9.038111686706543,-2.1254525184631348,2.742558002471924
939,479.0,52900.0,-9.038111686706543,-2.1254525184631348,2.742558002471924
940,470.0,52000.0,-9.032125473022461,-2.1320366859436035,2.740163803100586
941,471.0,52100.0,-9.01895809173584,-2.1392192840576167,2.783858060836792
942,472.0,52200.0,-9.01895809173584,-2.1392192840576167,2.783858060836792
943,473.0,52300.0,-9.039907455444336,-2.147000312805176,2.738368272781372
944,474.0,52400.0,-9.039907455444336,-2.147000312805176,2.738368272781372
945,475.0,52500.0,-9.039308547973633,-2.1146786212921143,2.760514497756958
946,476.0,52600.0,-9.039308547973633,-2.1146786212921143,2.760514497756958
947,477.0,52700.0,-9.049484252929688,-2.123656988143921,2.7664999961853027
948,478.0,52800.0,-9.038111686706543,-2.1254525184631348,2.742558002471924
949,479.0,52900.0,-9.038111686706543,-2.1254525184631348,2.742558002471924
950,480.0,53000.0,-9.038111686706543,-2.1254525184631348,2.742558002471924
951,481.0,53100.0,-9.027337074279783,-2.13682508468628,2.7515363693237305
952,482.0,53200.0,-9.023746490478516,-2.123058319091797,2.782062292098999
953,483.0,53300.0,-9.023746490478516,-2.123058319091797,2.782062292098999
954,484.0,53400.0,-9.03511905670166,-2.1254525184631348,2.7700912952423096
955,485.0,53500.0,-9.03511905670166,-2.1254525184631348,2.7700912952423096
956,486.0,53600.0,-9.020753860473633,-2.1218612194061284,2.761711597442627
957,487.0,53700.0,-9.036913871765137,-2.1290438175201416,2.7461493015289307
958,488.0,53800.0,-9.036913871765137,-2.1290438175201416,2.7461493015289307
959,489.0,53900.0,-9.040505409240724,-2.120065689086914,2.7748796939849854
960,480.0,53000.0,-9.038111686706543,-2.1254525184631348,2.742558002471924
961,481.0,53100.0,-9.027337074279783,-2.13682508468628,2.7515363693237305
962,482.0,53200.0,-9.023746490478516,-2.123058319091797,2.782062292098999
963,483.0,53300.0,-9.023746490478516,-2.123058319091797,2.782062292098999
964,484.0,53400.0,-9.03511905670166,-2.1254525184631348,2.7700912952423096
965,485.0,53500.0,-9.03511905670166,-2.1254525184631348,2.7700912952423096
966,486.0,53600.0,-9.020753860473633,-2.1218612194061284,2.761711597442627
967,487.0,53700.0,-9.036913871765137,-2.1290438175201416,2.7461493015289307
968,488.0,53800.0,-9.036913871765137,-2.1290438175201416,2.7461493015289307
969,489.0,53900.0,-9.040505409240724,-2.120065689086914,2.7748796939849854
970,490.0,54000.0,-9.040505409240724,-2.120065689086914,2.7748796939849854
971,491.0,54100.0,-9.021950721740724,-2.1051018238067627,2.807201385498047
972,492.0,54200.0,-9.021950721740724,-2.1051018238067627,2.807201385498047
973,493.0,54300.0,-9.080010414123537,-2.122459888458252,2.702455282211304
974,494.0,54400.0,-9.080010414123537,-2.122459888458252,2.702455282211304
975,495.0,54500.0,-9.024344444274902,-2.163759708404541,2.779668092727661
976,496.0,54600.0,-9.072827339172363,-2.123058319091797,2.719813108444214
977,497.0,54700.0,-9.072827339172363,-2.123058319091797,2.719813108444214
978,498.0,54800.0,-9.038111686706543,-2.1529858112335205,2.7509377002716064
979,499.0,54900.0,-9.038111686706543,-2.1529858112335205,2.7509377002716064
980,490.0,54000.0,-9.040505409240724,-2.120065689086914,2.7748796939849854
981,491.0,54100.0,-9.021950721740724,-2.1051018238067627,2.807201385498047
982,492.0,54200.0,-9.021950721740724,-2.1051018238067627,2.807201385498047
983,493.0,54300.0,-9.080010414123537,-2.122459888458252,2.702455282211304
984,494.0,54400.0,-9.080010414123537,-2.122459888458252,2.702455282211304
985,495.0,54500.0,-9.024344444274902,-2.163759708404541,2.779668092727661
986,496.0,54600.0,-9.072827339172363,-2.123058319091797,2.719813108444214
987,497.0,54700.0,-9.072827339172363,-2.123058319091797,2.719813108444214
988,498.0,54800.0,-9.038111686706543,-2.1529858112335205,2.7509377002716064
989,499.0,54900.0,-9.038111686706543,-2.1529858112335205,2.7509377002716064
990,500.0,55000.0,-9.027337074279783,-2.145204782485962,2.729988574981689
991,501.0,55100.0,-9.027337074279783,-2.145204782485962,2.729988574981689
992,502.0,55200.0,-9.066842079162598,-2.154781579971313,2.718017578125
993,503.0,55300.0,-9.066842079162598,-2.154781579971313,2.718017578125
994,504.0,55400.0,-9.043498039245604,-2.077568531036377,2.758718967437744
995,505.0,55500.0,-9.02254867553711,-2.143409013748169,2.7706899642944336
996,506.0,55600.0,-9.02254867553711,-2.143409013748169,2.7706899642944336
997,507.0,55700.0,-9.024943351745604,-2.1493945121765137,2.785653591156006
998,508.0,55800.0,-9.024943351745604,-2.1493945121765137,2.785653591156006
999,509.0,55900.0,-9.05367374420166,-2.102707624435425,2.757521867752075
1000,500.0,55000.0,-9.027337074279783,-2.145204782485962,2.729988574981689
1001,501.0,55100.0,-9.027337074279783,-2.145204782485962,2.729988574981689
1002,502.0,55200.0,-9.066842079162598,-2.154781579971313,2.718017578125
1003,503.0,55300.0,-9.066842079162598,-2.154781579971313,2.718017578125
1004,504.0,55400.0,-9.043498039245604,-2.077568531036377,2.758718967437744
1005,505.0,55500.0,-9.02254867553711,-2.143409013748169,2.7706899642944336
1006,506.0,55600.0,-9.02254867553711,-2.143409013748169,2.7706899642944336
1007,507.0,55700.0,-9.024943351745604,-2.1493945121765137,2.785653591156006
1008,508.0,55800.0,-9.024943351745604,-2.1493945121765137,2.785653591156006
1009,509.0,55900.0,-9.05367374420166,-2.102707624435425,2.757521867752075
1010,510.0,56000.0,-9.05367374420166,-2.102707624435425,2.757521867752075
1011,511.0,56100.0,-9.02135181427002,-2.1182699203491206,2.764105796813965
1012,512.0,56200.0,-9.02135181427002,-2.1182699203491206,2.764105796813965
1013,513.0,56300.0,-9.034520149230957,-2.123058319091797,2.7335798740386963
1014,514.0,56400.0,-9.00279712677002,-2.1338322162628174,2.7712883949279785
1015,515.0,56500.0,-9.00279712677002,-2.1338322162628174,2.7712883949279785
1016,516.0,56600.0,-9.058462142944336,-2.1332337856292725,2.7455508708953857
1017,517.0,56700.0,-9.058462142944336,-2.1332337856292725,2.7455508708953857
1018,518.0,56800.0,-9.023746490478516,-2.151190280914306,2.742558002471924
1019,519.0,56900.0,-9.023746490478516,-2.151190280914306,2.742558002471924
1020,510.0,56000.0,-9.05367374420166,-2.102707624435425,2.757521867752075
1021,511.0,56100.0,-9.02135181427002,-2.1182699203491206,2.764105796813965
1022,512.0,56200.0,-9.02135181427002,-2.1182699203491206,2.764105796813965
1023,513.0,56300.0,-9.034520149230957,-2.123058319091797,2.7335798740386963
1024,514.0,56400.0,-9.00279712677002,-2.1338322162628174,2.7712883949279785
1025,515.0,56500.0,-9.00279712677002,-2.1338322162628174,2.7712883949279785
1026,516.0,56600.0,-9.058462142944336,-2.1332337856292725,2.7455508708953857
1027,517.0,56700.0,-9.058462142944336,-2.1332337856292725,2.7455508708953857
1028,518.0,56800.0,-9.023746490478516,-2.151190280914306,2.742558002471924
1029,519.0,56900.0,-9.023746490478516,-2.151190280914306,2.742558002471924
1030,520.0,57000.0,-9.046490669250488,-2.1290438175201416,2.750339269638061
1031,521.0,57100.0,-9.046490669250488,-2.1290438175201416,2.750339269638061
1032,522.0,57200.0,-9.017760276794434,-2.1146786212921143,2.785055160522461
1033,523.0,57300.0,-9.051279067993164,-2.0937294960021973,2.762310266494751
1034,524.0,57400.0,-9.051279067993164,-2.0937294960021973,2.762310266494751
1035,525.0,57500.0,-9.039308547973633,-2.1284453868865967,2.762908697128296
1036,526.0,57600.0,-9.039308547973633,-2.1284453868865967,2.762908697128296
1037,527.0,57700.0,-9.005789756774902,-2.154182910919189,2.7688941955566406
1038,528.0,57800.0,-9.005789756774902,-2.154182910919189,2.7688941955566406
1039,529.0,57900.0,-9.039907455444336,-2.146401882171631,2.738966703414917
1040,520.0,57000.0,-9.046490669250488,-2.1290438175201416,2.750339269638061
1041,521.0,57100.0,-9.046490669250488,-2.1290438175201416,2.750339269638061
1042,522.0,57200.0,-9.017760276794434,-2.1146786212921143,2.785055160522461
1043,523.0,57300.0,-9.051279067993164,-2.0937294960021973,2.762310266494751
1044,524.0,57400.0,-9.051279067993164,-2.0937294960021973,2.762310266494751
1045,525.0,57500.0,-9.039308547973633,-2.1284453868865967,2.762908697128296
1046,526.0,57600.0,-9.039308547973633,-2.1284453868865967,2.762908697128296
1047,527.0,57700.0,-9.005789756774902,-2.154182910919189,2.7688941955566406
1048,528.0,57800.0,-9.005789756774902,-2.154182910919189,2.7688941955566406
1049,529.0,57900.0,-9.039907455444336,-2.146401882171631,2.738966703414917
1050,530.0,58000.0,-9.039907455444336,-2.146401882171631,2.738966703414917
1051,531.0,58100.0,-9.04828643798828,-2.10210919380188,2.760514497756958
1052,532.0,58200.0,-9.035717010498047,-2.1284453868865967,2.779069662094116
1053,533.0,58300.0,-9.035717010498047,-2.1284453868865967,2.779069662094116
1054,534.0,58400.0,-9.048885345458984,-2.11946702003479,2.76350736618042
1055,535.0,58500.0,-9.048885345458984,-2.11946702003479,2.76350736618042
1056,536.0,58600.0,-9.039907455444336,-2.1380221843719482,2.749740600585937
1057,537.0,58700.0,-9.039907455444336,-2.1380221843719482,2.749740600585937
1058,538.0,58800.0,-9.012971878051758,-2.11946702003479,2.787449359893799
1059,539.0,58900.0,-9.012971878051758,-2.11946702003479,2.787449359893799
1060,530.0,58000.0,-9.039907455444336,-2.146401882171631,2.738966703414917
1061,531.0,58100.0,-9.04828643798828,-2.10210919380188,2.760514497756958
1062,532.0,58200.0,-9.035717010498047,-2.1284453868865967,2.779069662094116
1063,533.0,58300.0,-9.035717010498047,-2.1284453868865967,2.779069662094116
1064,534.0,58400.0,-9.048885345458984,-2.11946702003479,2.76350736618042
1065,535.0,58500.0,-9.048885345458984,-2.11946702003479,2.76350736618042
1066,536.0,58600.0,-9.039907455444336,-2.1380221843719482,2.749740600585937
1067,537.0,58700.0,-9.039907455444336,-2.1380221843719482,2.749740600585937
1068,538.0,58800.0,-9.012971878051758,-2.11946702003479,2.787449359893799
1069,539.0,58900.0,-9.012971878051758,-2.11946702003479,2.787449359893799
1070,540.0,59000.0,-9.044096946716307,-2.1308395862579346,2.7246015071868896
1071,541.0,59100.0,-9.023147583007812,-2.156577110290528,2.783858060836792
1072,542.0,59200.0,-9.023147583007812,-2.156577110290528,2.783858060836792
1073,543.0,59300.0,-9.041702270507812,-2.117671489715576,2.7473464012146
1074,544.0,59400.0,-9.041702270507812,-2.117671489715576,2.7473464012146
1075,545.0,59500.0,-9.004592895507812,-2.1116859912872314,2.788047790527344
1076,546.0,59600.0,-9.004592895507812,-2.1116859912872314,2.788047790527344
1077,547.0,59700.0,-9.03870964050293,-2.1218612194061284,2.7688941955566406
1078,548.0,59800.0,-9.03870964050293,-2.1218612194061284,2.7688941955566406
1079,549.0,59900.0,-9.044096946716307,-2.0991163253784184,2.782660961151123
1080,540.0,59000.0,-9.044096946716307,-2.1308395862579346,2.7246015071868896
1081,541.0,59100.0,-9.023147583007812,-2.156577110290528,2.783858060836792
1082,542.0,59200.0,-9.023147583007812,-2.156577110290528,2.783858060836792
1083,543.0,59300.0,-9.041702270507812,-2.117671489715576,2.7473464012146
1084,544.0,59400.0,-9.041702270507812,-2.117671489715576,2.7473464012146
1085,545.0,59500.0,-9.004592895507812,-2.1116859912872314,2.788047790527344
1086,546.0,59600.0,-9.004592895507812,-2.1116859912872314,2.788047790527344
1087,547.0,59700.0,-9.03870964050293,-2.1218612194061284,2.7688941955566406
1088,548.0,59800.0,-9.03870964050293,-2.1218612194061284,2.7688941955566406
1089,549.0,59900.0,-9.044096946716307,-2.0991163253784184,2.782660961151123
1090,550.0,60000.0,-9.042301177978516,-2.1074960231781006,2.7551276683807373
1091,551.0,60100.0,-9.042301177978516,-2.1074960231781006,2.7551276683807373
1092,552.0,60200.0,-9.009381294250488,-2.1290438175201416,2.815581083297728
1093,553.0,60300.0,-9.009381294250488,-2.1290438175201416,2.815581083297728
1094,554.0,60400.0,-9.017760276794434,-2.1338322162628174,2.8125884532928467
1095,555.0,60500.0,-9.017760276794434,-2.1338322162628174,2.8125884532928467
1096,556.0,60600.0,-9.012373924255373,-2.145803213119507,2.760514497756958
1097,557.0,60700.0,-9.012373924255373,-2.145803213119507,2.760514497756958
1098,558.0,60800.0,-9.001001358032227,-2.1248540878295903,2.79822325706482
1099,559.0,60900.0,-9.001001358032227,-2.1248540878295903,2.79822325706482
1100,550.0,60000.0,-9.042301177978516,-2.1074960231781006,2.7551276683807373
1101,551.0,60100.0,-9.042301177978516,-2.1074960231781006,2.7551276683807373
1102,552.0,60200.0,-9.009381294250488,-2.1290438175201416,2.815581083297728
1103,553.0,60300.0,-9.009381294250488,-2.1290438175201416,2.815581083297728
1104,554.0,60400.0,-9.017760276794434,-2.1338322162628174,2.8125884532928467
1105,555.0,60500.0,-9.017760276794434,-2.1338322162628174,2.8125884532928467
1106,556.0,60600.0,-9.012373924255373,-2.145803213119507,2.760514497756958
1107,557.0,60700.0,-9.012373924255373,-2.145803213119507,2.760514497756958
1108,558.0,60800.0,-9.001001358032227,-2.1248540878295903,2.79822325706482
1109,559.0,60900.0,-9.001001358032227,-2.1248540878295903,2.79822325706482
1110,560.0,61000.0,-9.074024200439453,-2.1254525184631348,2.720411777496338
1111,561.0,61100.0,-8.97885513305664,-2.1164743900299072,2.85987401008606
1112,562.0,61200.0,-8.97885513305664,-2.1164743900299072,2.85987401008606
1113,563.0,61300.0,-9.042301177978516,-2.162562608718872,2.73537540435791
1114,564.0,61400.0,-9.042301177978516,-2.162562608718872,2.73537540435791
1115,565.0,61500.0,-9.001001358032227,-2.1320366859436035,2.797624588012696
1116,566.0,61600.0,-9.001001358032227,-2.1320366859436035,2.797624588012696
1117,567.0,61700.0,-9.060855865478516,-2.122459888458252,2.7533318996429443
1118,568.0,61800.0,-9.047089576721193,-2.1302409172058105,2.7736825942993164
1119,569.0,61900.0,-9.047089576721193,-2.1302409172058105,2.7736825942993164
1120,560.0,61000.0,-9.074024200439453,-2.1254525184631348,2.720411777496338
1121,561.0,61100.0,-8.97885513305664,-2.1164743900299072,2.85987401008606
1122,562.0,61200.0,-8.97885513305664,-2.1164743900299072,2.85987401008606
1123,563.0,61300.0,-9.042301177978516,-2.162562608718872,2.73537540435791
1124,564.0,61400.0,-9.042301177978516,-2.162562608718872,2.73537540435791
1125,565.0,61500.0,-9.001001358032227,-2.1320366859436035,2.797624588012696
1126,566.0,61600.0,-9.001001358032227,-2.1320366859436035,2.797624588012696
1127,567.0,61700.0,-9.060855865478516,-2.122459888458252,2.7533318996429443
1128,568.0,61800.0,-9.047089576721193,-2.1302409172058105,2.7736825942993164
1129,569.0,61900.0,-9.047089576721193,-2.1302409172058105,2.7736825942993164
1130,570.0,62000.0,-9.03631591796875,-2.1499931812286377,2.7730841636657715
1131,571.0,62100.0,-9.03631591796875,-2.1499931812286377,2.7730841636657715
1132,572.0,62200.0,-9.025542259216307,-2.1356279850006104,2.783858060836792
1133,573.0,62300.0,-9.025542259216307,-2.1356279850006104,2.783858060836792
1134,574.0,62400.0,-9.017760276794434,-2.137423515319824,2.7515363693237305
1135,575.0,62500.0,-9.017760276794434,-2.137423515319824,2.7515363693237305
1136,576.0,62600.0,-9.010578155517578,-2.137423515319824,2.7521347999572754
1137,577.0,62700.0,-9.010578155517578,-2.137423515319824,2.7521347999572754
1138,578.0,62800.0,-9.040505409240724,-2.117072820663452,2.7653028964996342
1139,579.0,62900.0,-9.024943351745604,-2.1314380168914795,2.7563247680664062
1140,570.0,62000.0,-9.03631591796875,-2.1499931812286377,2.7730841636657715
1141,571.0,62100.0,-9.03631591796875,-2.1499931812286377,2.7730841636657715
1142,572.0,62200.0,-9.025542259216307,-2.1356279850006104,2.783858060836792
1143,573.0,62300.0,-9.025542259216307,-2.1356279850006104,2.783858060836792
1144,574.0,62400.0,-9.017760276794434,-2.137423515319824,2.7515363693237305
1145,575.0,62500.0,-9.017760276794434,-2.137423515319824,2.7515363693237305
1146,576.0,62600.0,-9.010578155517578,-2.137423515319824,2.7521347999572754
1147,577.0,62700.0,-9.010578155517578,-2.137423515319824,2.7521347999572754
1148,578.0,62800.0,-9.040505409240724,-2.117072820663452,2.7653028964996342
1149,579.0,62900.0,-9.024943351745604,-2.1314380168914795,2.7563247680664062
1150,580.0,63000.0,-9.024943351745604,-2.1314380168914795,2.7563247680664062
1151,581.0,63100.0,-9.015965461730957,-2.138620615005493,2.777872562408448
1152,582.0,63200.0,-9.015965461730957,-2.138620615005493,2.777872562408448
1153,583.0,63300.0,-9.008782386779783,-2.127248287200928,2.778470993041992
1154,584.0,63400.0,-9.008782386779783,-2.127248287200928,2.778470993041992
1155,585.0,63500.0,-9.024344444274902,-2.1308395862579346,2.788047790527344
1156,586.0,63600.0,-9.042301177978516,-2.1057004928588867,2.7515363693237305
1157,587.0,63700.0,-9.042301177978516,-2.1057004928588867,2.7515363693237305
1158,588.0,63800.0,-9.059659004211426,-2.102707624435425,2.783259391784668
1159,589.0,63900.0,-9.059659004211426,-2.102707624435425,2.783259391784668
1160,580.0,63000.0,-9.024943351745604,-2.1314380168914795,2.7563247680664062
1161,581.0,63100.0,-9.015965461730957,-2.138620615005493,2.777872562408448
1162,582.0,63200.0,-9.015965461730957,-2.138620615005493,2.777872562408448
1163,583.0,63300.0,-9.008782386779783,-2.127248287200928,2.778470993041992
1164,584.0,63400.0,-9.008782386779783,-2.127248287200928,2.778470993041992
1165,585.0,63500.0,-9.024344444274902,-2.1308395862579346,2.788047790527344
1166,586.0,63600.0,-9.042301177978516,-2.1057004928588867,2.7515363693237305
1167,587.0,63700.0,-9.042301177978516,-2.1057004928588867,2.7515363693237305
1168,588.0,63800.0,-9.059659004211426,-2.102707624435425,2.783259391784668
1169,589.0,63900.0,-9.059659004211426,-2.102707624435425,2.783259391784668
1170,590.0,64000.0,-9.024344444274902,-2.1422119140625,2.7072436809539795
1171,591.0,64100.0,-9.024344444274902,-2.1422119140625,2.7072436809539795
1172,592.0,64200.0,-9.033323287963867,-2.151788711547852,2.690484046936035
1173,593.0,64300.0,-9.033323287963867,-2.151788711547852,2.690484046936035
1174,594.0,64400.0,-9.060257911682127,-2.0655975341796875,2.7102363109588623
1175,595.0,64500.0,-9.060257911682127,-2.0655975341796875,2.7102363109588623
1176,596.0,64600.0,-9.062651634216307,-2.168548107147217,2.672527551651001
1177,597.0,64700.0,-9.005789756774902,-2.0955250263214107,2.7892448902130127
1178,598.0,64800.0,-9.005789756774902,-2.0955250263214107,2.7892448902130127
1179,599.0,64900.0,-9.182361602783203,-1.948880195617676,2.694674015045166
1180,590.0,64000.0,-9.024344444274902,-2.1422119140625,2.7072436809539795
1181,591.0,64100.0,-9.024344444274902,-2.1422119140625,2.7072436809539795
1182,592.0,64200.0,-9.033323287963867,-2.151788711547852,2.690484046936035
1183,593.0,64300.0,-9.033323287963867,-2.151788711547852,2.690484046936035
1184,594.0,64400.0,-9.060257911682127,-2.0655975341796875,2.7102363109588623
1185,595.0,64500.0,-9.060257911682127,-2.0655975341796875,2.7102363109588623
1186,596.0,64600.0,-9.062651634216307,-2.168548107147217,2.672527551651001
1187,597.0,64700.0,-9.005789756774902,-2.0955250263214107,2.7892448902130127
1188,598.0,64800.0,-9.005789756774902,-2.0955250263214107,2.7892448902130127
1189,599.0,64900.0,-9.182361602783203,-1.948880195617676,2.694674015045166
1190,600.0,65000.0,-9.182361602783203,-1.948880195617676,2.694674015045166
1191,601.0,65100.0,-9.03870964050293,-2.0278887748718257,2.73537540435791
1192,602.0,65200.0,-9.03870964050293,-2.0278887748718257,2.73537540435791
1193,603.0,65300.0,-9.053074836730957,-2.0320787429809566,2.7323827743530287
1194,604.0,65400.0,-9.053074836730957,-2.0320787429809566,2.7323827743530287
1195,605.0,65500.0,-9.039907455444336,-2.1733365058898926,2.762310266494751
1196,606.0,65600.0,-9.015965461730957,-2.029085874557495,2.736572504043579
1197,607.0,65700.0,-9.015965461730957,-2.029085874557495,2.736572504043579
1198,608.0,65800.0,-9.015366554260254,-2.098517894744873,2.7682957649230957
1199,609.0,65900.0,-9.015366554260254,-2.098517894744873,2.7682957649230957
1200,600.0,65000.0,-9.182361602783203,-1.948880195617676,2.694674015045166
1201,601.0,65100.0,-9.03870964050293,-2.0278887748718257,2.73537540435791
1202,602.0,65200.0,-9.03870964050293,-2.0278887748718257,2.73537540435791
1203,603.0,65300.0,-9.053074836730957,-2.0320787429809566,2.7323827743530287
1204,604.0,65400.0,-9.053074836730957,-2.0320787429809566,2.7323827743530287
1205,605.0,65500.0,-9.039907455444336,-2.1733365058898926,2.762310266494751
1206,606.0,65600.0,-9.015965461730957,-2.029085874557495,2.736572504043579
1207,607.0,65700.0,-9.015965461730957,-2.029085874557495,2.736572504043579
1208,608.0,65800.0,-9.015366554260254,-2.098517894744873,2.7682957649230957
1209,609.0,65900.0,-9.015366554260254,-2.098517894744873,2.7682957649230957
1210,610.0,66000.0,-9.026739120483398,-2.1338322162628174,2.7030537128448486
1211,611.0,66100.0,-9.026739120483398,-2.1338322162628174,2.7030537128448486
1212,612.0,66200.0,-9.057863235473633,-2.1146786212921143,2.7066450119018555
1213,613.0,66300.0,-9.057863235473633,-2.1146786212921143,2.7066450119018555
1214,614.0,66400.0,-9.089587211608887,-2.098517894744873,2.699462413787842
1215,615.0,66500.0,-9.016563415527344,-2.165555477142334,2.7347769737243652
1216,616.0,66600.0,-9.016563415527344,-2.165555477142334,2.7347769737243652
1217,617.0,66700.0,-9.054272651672363,-2.1493945121765137,2.715024709701538
1218,618.0,66800.0,-9.054272651672363,-2.1493945121765137,2.715024709701538
1219,619.0,66900.0,-9.049484252929688,-2.121262788772583,2.7335798740386963
1220,610.0,66000.0,-9.026739120483398,-2.1338322162628174,2.7030537128448486
1221,611.0,66100.0,-9.026739120483398,-2.1338322162628174,2.7030537128448486
1222,612.0,66200.0,-9.057863235473633,-2.1146786212921143,2.7066450119018555
1223,613.0,66300.0,-9.057863235473633,-2.1146786212921143,2.7066450119018555
1224,614.0,66400.0,-9.089587211608887,-2.098517894744873,2.699462413787842
1225,615.0,66500.0,-9.016563415527344,-2.165555477142334,2.7347769737243652
1226,616.0,66600.0,-9.016563415527344,-2.165555477142334,2.7347769737243652
1227,617.0,66700.0,-9.054272651672363,-2.1493945121765137,2.715024709701538
1228,618.0,66800.0,-9.054272651672363,-2.1493945121765137,2.715024709701538
1229,619.0,66900.0,-9.049484252929688,-2.121262788772583,2.7335798740386963
1230,620.0,67000.0,-9.049484252929688,-2.121262788772583,2.7335798740386963
1231,621.0,67100.0,-9.041104316711426,-2.146401882171631,2.729988574981689
1232,622.0,67200.0,-9.041104316711426,-2.146401882171631,2.729988574981689
1233,623.0,67300.0,-9.040505409240724,-2.1338322162628174,2.7563247680664062
1234,624.0,67400.0,-9.05247688293457,-2.117671489715576,2.7222073078155518
1235,625.0,67500.0,-9.05247688293457,-2.117671489715576,2.7222073078155518
1236,626.0,67600.0,-9.036913871765137,-2.123058319091797,2.762908697128296
1237,627.0,67700.0,-9.036913871765137,-2.123058319091797,2.762908697128296
1238,628.0,67800.0,-9.02254867553711,-2.117671489715576,2.742558002471924
1239,629.0,67900.0,-9.02254867553711,-2.117671489715576,2.742558002471924
1240,620.0,67000.0,-9.049484252929688,-2.121262788772583,2.7335798740386963
1241,621.0,67100.0,-9.041104316711426,-2.146401882171631,2.729988574981689
1242,622.0,67200.0,-9.041104316711426,-2.146401882171631,2.729988574981689
1243,623.0,67300.0,-9.040505409240724,-2.1338322162628174,2.7563247680664062
1244,624.0,67400.0,-9.05247688293457,-2.117671489715576,2.7222073078155518
1245,625.0,67500.0,-9.05247688293457,-2.117671489715576,2.7222073078155518
1246,626.0,67600.0,-9.036913871765137,-2.123058319091797,2.762908697128296
1247,627.0,67700.0,-9.036913871765137,-2.123058319091797,2.762908697128296
1248,628.0,67800.0,-9.02254867553711,-2.117671489715576,2.742558002471924
1249,629.0,67900.0,-9.02254867553711,-2.117671489715576,2.742558002471924
1250,630.0,68000.0,-9.02254867553711,-2.123058319091797,2.738966703414917
1251,631.0,68100.0,-9.02254867553711,-2.123058319091797,2.738966703414917
1252,632.0,68200.0,-9.074623107910156,-2.13682508468628,2.7126305103302
1253,633.0,68300.0,-9.03511905670166,-2.1164743900299072,2.738966703414917
1254,634.0,68400.0,-9.03511905670166,-2.1164743900299072,2.738966703414917
1255,635.0,68500.0,-9.03751277923584,-2.160168409347534,2.719813108444214
1256,636.0,68600.0,-9.03751277923584,-2.160168409347534,2.719813108444214
1257,637.0,68700.0,-9.059061050415039,-2.121262788772583,2.741959571838379
1258,638.0,68800.0,-9.059061050415039,-2.121262788772583,2.741959571838379
1259,639.0,68900.0,-9.03870964050293,-2.1033062934875493,2.7527334690093994
1260,630.0,68000.0,-9.02254867553711,-2.123058319091797,2.738966703414917
1261,631.0,68100.0,-9.02254867553711,-2.123058319091797,2.738966703414917
1262,632.0,68200.0,-9.074623107910156,-2.13682508468628,2.7126305103302
1263,633.0,68300.0,-9.03511905670166,-2.1164743900299072,2.738966703414917
1264,634.0,68400.0,-9.03511905670166,-2.1164743900299072,2.738966703414917
1265,635.0,68500.0,-9.03751277923584,-2.160168409347534,2.719813108444214
1266,636.0,68600.0,-9.03751277923584,-2.160168409347534,2.719813108444214
1267,637.0,68700.0,-9.059061050415039,-2.121262788772583,2.741959571838379
1268,638.0,68800.0,-9.059061050415039,-2.121262788772583,2.741959571838379
1269,639.0,68900.0,-9.03870964050293,-2.1033062934875493,2.7527334690093994
1270,640.0,69000.0,-9.03870964050293,-2.1033062934875493,2.7527334690093994
1271,641.0,69100.0,-9.041702270507812,-2.10210919380188,2.7311856746673584
1272,642.0,69200.0,-9.005789756774902,-2.123656988143921,2.739565372467041
1273,643.0,69300.0,-9.005789756774902,-2.123656988143921,2.739565372467041
1274,644.0,69400.0,-9.062053680419922,-2.1290438175201416,2.7084407806396484
1275,645.0,69500.0,-9.062053680419922,-2.1290438175201416,2.7084407806396484
1276,646.0,69600.0,-9.027935981750488,-2.1122844219207764,2.7455508708953857
1277,647.0,69700.0,-9.027935981750488,-2.1122844219207764,2.7455508708953857
1278,648.0,69800.0,-9.047688484191896,-2.1045033931732178,2.7060465812683105
1279,649.0,69900.0,-9.047688484191896,-2.1045033931732178,2.7060465812683105
1280,640.0,69000.0,-9.03870964050293,-2.1033062934875493,2.7527334690093994
1281,641.0,69100.0,-9.041702270507812,-2.10210919380188,2.7311856746673584
1282,642.0,69200.0,-9.005789756774902,-2.123656988143921,2.739565372467041
1283,643.0,69300.0,-9.005789756774902,-2.123656988143921,2.739565372467041
1284,644.0,69400.0,-9.062053680419922,-2.1290438175201416,2.7084407806396484
1285,645.0,69500.0,-9.062053680419922,-2.1290438175201416,2.7084407806396484
1286,646.0,69600.0,-9.027935981750488,-2.1122844219207764,2.7455508708953857
1287,647.0,69700.0,-9.027935981750488,-2.1122844219207764,2.7455508708953857
1288,648.0,69800.0,-9.047688484191896,-2.1045033931732178,2.7060465812683105
1289,649.0,69900.0,-9.047688484191896,-2.1045033931732178,2.7060465812683105
1290,650.0,70000.0,-9.03870964050293,-2.1481974124908447,2.736572504043579
1291,651.0,70100.0,-9.046490669250488,-2.1051018238067627,2.7066450119018555
1292,652.0,70200.0,-9.046490669250488,-2.1051018238067627,2.7066450119018555
1293,653.0,70300.0,-9.024943351745604,-2.1302409172058105,2.7467479705810547
1294,654.0,70400.0,-9.024943351745604,-2.1302409172058105,2.7467479705810547
1295,655.0,70500.0,-9.054272651672363,-2.154781579971313,2.697666883468628
1296,656.0,70600.0,-9.054272651672363,-2.154781579971313,2.697666883468628
1297,657.0,70700.0,-9.016563415527344,-2.1332337856292725,2.759916067123413
1298,658.0,70800.0,-9.016563415527344,-2.1332337856292725,2.759916067123413
1299,659.0,70900.0,-9.045293807983398,-2.075174331665039,2.736572504043579
1300,650.0,70000.0,-9.03870964050293,-2.1481974124908447,2.736572504043579
1301,651.0,70100.0,-9.046490669250488,-2.1051018238067627,2.7066450119018555
1302,652.0,70200.0,-9.046490669250488,-2.1051018238067627,2.7066450119018555
1303,653.0,70300.0,-9.024943351745604,-2.1302409172058105,2.7467479705810547
1304,654.0,70400.0,-9.024943351745604,-2.1302409172058105,2.7467479705810547
1305,655.0,70500.0,-9.054272651672363,-2.154781579971313,2.697666883468628
1306,656.0,70600.0,-9.054272651672363,-2.154781579971313,2.697666883468628
1307,657.0,70700.0,-9.016563415527344,-2.1332337856292725,2.759916067123413
1308,658.0,70800.0,-9.016563415527344,-2.1332337856292725,2.759916067123413
1309,659.0,70900.0,-9.045293807983398,-2.075174331665039,2.736572504043579
1310,660.0,71000.0,-9.033921241760254,-2.1314380168914795,2.741959571838379
1311,661.0,71100.0,-9.033921241760254,-2.1314380168914795,2.741959571838379
1312,662.0,71200.0,-9.04290008544922,-2.1302409172058105,2.7269957065582275
1313,663.0,71300.0,-9.04290008544922,-2.1302409172058105,2.7269957065582275
1314,664.0,71400.0,-9.043498039245604,-2.115875720977783,2.7240030765533447
1315,665.0,71500.0,-9.043498039245604,-2.115875720977783,2.7240030765533447
1316,666.0,71600.0,-9.046490669250488,-2.1128830909729004,2.7329812049865723
1317,667.0,71700.0,-9.046490669250488,-2.1128830909729004,2.7329812049865723
1318,668.0,71800.0,-9.039907455444336,-2.1057004928588867,2.7054479122161865
1319,669.0,71900.0,-9.008183479309082,-2.1936872005462646,2.7461493015289307
1320,660.0,71000.0,-9.033921241760254,-2.1314380168914795,2.741959571838379
1321,661.0,71100.0,-9.033921241760254,-2.1314380168914795,2.741959571838379
1322,662.0,71200.0,-9.04290008544922,-2.1302409172058105,2.7269957065582275
1323,663.0,71300.0,-9.04290008544922,-2.1302409172058105,2.7269957065582275
1324,664.0,71400.0,-9.043498039245604,-2.115875720977783,2.7240030765533447
1325,665.0,71500.0,-9.043498039245604,-2.115875720977783,2.7240030765533447
1326,666.0,71600.0,-9.046490669250488,-2.1128830909729004,2.7329812049865723
1327,667.0,71700.0,-9.046490669250488,-2.1128830909729004,2.7329812049865723
1328,668.0,71800.0,-9.039907455444336,-2.1057004928588867,2.7054479122161865
1329,669.0,71900.0,-9.008183479309082,-2.1936872005462646,2.7461493015289307
1330,670.0,72000.0,-9.008183479309082,-2.1936872005462646,2.7461493015289307
1331,671.0,72100.0,-9.063250541687012,-2.1392192840576167,2.716221809387207
1332,672.0,72200.0,-9.063250541687012,-2.1392192840576167,2.716221809387207
1333,673.0,72300.0,-9.05487060546875,-2.1080946922302246,2.735974073410034
1334,674.0,72400.0,-9.05487060546875,-2.1080946922302246,2.735974073410034
1335,675.0,72500.0,-9.029132843017578,-2.1045033931732178,2.742558002471924
1336,676.0,72600.0,-9.029132843017578,-2.1045033931732178,2.742558002471924
1337,677.0,72700.0,-9.05247688293457,-2.1248540878295903,2.7102363109588623
1338,678.0,72800.0,-9.01476764678955,-2.1481974124908447,2.7467479705810547
1339,679.0,72900.0,-9.01476764678955,-2.1481974124908447,2.7467479705810547
1340,670.0,72000.0,-9.008183479309082,-2.1936872005462646,2.7461493015289307
1341,671.0,72100.0,-9.063250541687012,-2.1392192840576167,2.716221809387207
1342,672.0,72200.0,-9.063250541687012,-2.1392192840576167,2.716221809387207
1343,673.0,72300.0,-9.05487060546875,-2.1080946922302246,2.735974073410034
1344,674.0,72400.0,-9.05487060546875,-2.1080946922302246,2.735974073410034
1345,675.0,72500.0,-9.029132843017578,-2.1045033931732178,2.742558002471924
1346,676.0,72600.0,-9.029132843017578,-2.1045033931732178,2.742558002471924
1347,677.0,72700.0,-9.05247688293457,-2.1248540878295903,2.7102363109588623
1348,678.0,72800.0,-9.01476764678955,-2.1481974124908447,2.7467479705810547
1349,679.0,72900.0,-9.01476764678955,-2.1481974124908447,2.7467479705810547
1350,680.0,73000.0,-9.084798812866213,-2.1284453868865967,2.7222073078155518
1351,681.0,73100.0,-9.084798812866213,-2.1284453868865967,2.7222073078155518
1352,682.0,73200.0,-9.045892715454102,-2.0949265956878658,2.7521347999572754
1353,683.0,73300.0,-9.045892715454102,-2.0949265956878658,2.7521347999572754
1354,684.0,73400.0,-9.056666374206543,-2.1045033931732178,2.7461493015289307
1355,685.0,73500.0,-9.056666374206543,-2.1045033931732178,2.7461493015289307
1356,686.0,73600.0,-9.013570785522461,-2.126649618148804,2.7766754627227783
1357,687.0,73700.0,-9.029132843017578,-2.115875720977783,2.750339269638061
1358,688.0,73800.0,-9.029132843017578,-2.115875720977783,2.750339269638061
1359,689.0,73900.0,-9.017162322998047,-2.108693122863769,2.7563247680664062
1360,680.0,73000.0,-9.084798812866213,-2.1284453868865967,2.7222073078155518
1361,681.0,73100.0,-9.084798812866213,-2.1284453868865967,2.7222073078155518
1362,682.0,73200.0,-9.045892715454102,-2.0949265956878658,2.7521347999572754
1363,683.0,73300.0,-9.045892715454102,-2.0949265956878658,2.7521347999572754
1364,684.0,73400.0,-9.056666374206543,-2.1045033931732178,2.7461493015289307
1365,685.0,73500.0,-9.056666374206543,-2.1045033931732178,2.7461493015289307
1366,686.0,73600.0,-9.013570785522461,-2.126649618148804,2.7766754627227783
1367,687.0,73700.0,-9.029132843017578,-2.115875720977783,2.750339269638061
1368,688.0,73800.0,-9.029132843017578,-2.115875720977783,2.750339269638061
1369,689.0,73900.0,-9.017162322998047,-2.108693122863769,2.7563247680664062
1370,690.0,74000.0,-9.017162322998047,-2.108693122863769,2.7563247680664062
1371,691.0,74100.0,-9.033921241760254,-2.1134815216064453,2.740163803100586
1372,692.0,74200.0,-9.033921241760254,-2.1134815216064453,2.740163803100586
1373,693.0,74300.0,-9.03631591796875,-2.1344308853149414,2.7311856746673584
1374,694.0,74400.0,-9.03631591796875,-2.1344308853149414,2.7311856746673584
1375,695.0,74500.0,-9.01476764678955,-2.1051018238067627,2.759916067123413
1376,696.0,74600.0,-9.041702270507812,-2.1308395862579346,2.7473464012146
1377,697.0,74700.0,-9.041702270507812,-2.1308395862579346,2.7473464012146
1378,698.0,74800.0,-9.045293807983398,-2.1254525184631348,2.7467479705810547
1379,699.0,74900.0,-9.045293807983398,-2.1254525184631348,2.7467479705810547
1380,690.0,74000.0,-9.017162322998047,-2.108693122863769,2.7563247680664062
1381,691.0,74100.0,-9.033921241760254,-2.1134815216064453,2.740163803100586
1382,692.0,74200.0,-9.033921241760254,-2.1134815216064453,2.740163803100586
1383,693.0,74300.0,-9.03631591796875,-2.1344308853149414,2.7311856746673584
1384,694.0,74400.0,-9.03631591796875,-2.1344308853149414,2.7311856746673584
1385,695.0,74500.0,-9.01476764678955,-2.1051018238067627,2.759916067123413
1386,696.0,74600.0,-9.041702270507812,-2.1308395862579346,2.7473464012146
1387,697.0,74700.0,-9.041702270507812,-2.1308395862579346,2.7473464012146
1388,698.0,74800.0,-9.045293807983398,-2.1254525184631348,2.7467479705810547
1389,699.0,74900.0,-9.045293807983398,-2.1254525184631348,2.7467479705810547
1390,700.0,75000.0,-9.041104316711426,-2.1326351165771484,2.758718967437744
1391,701.0,75100.0,-9.041104316711426,-2.1326351165771484,2.758718967437744
1392,702.0,75200.0,-9.02135181427002,-2.08594822883606,2.731784105300904
1393,703.0,75300.0,-9.02135181427002,-2.08594822883606,2.731784105300904
1394,704.0,75400.0,-9.033323287963867,-2.1033062934875493,2.759916067123413
1395,705.0,75500.0,-9.039907455444336,-2.1110873222351074,2.744353771209717
1396,706.0,75600.0,-9.039907455444336,-2.1110873222351074,2.744353771209717
1397,707.0,75700.0,-9.034520149230957,-2.1332337856292725,2.747945070266724
1398,708.0,75800.0,-9.034520149230957,-2.1332337856292725,2.747945070266724
1399,709.0,75900.0,-9.02015495300293,-2.1092917919158936,2.7527334690093994
1400,700.0,75000.0,-9.041104316711426,-2.1326351165771484,2.758718967437744
1401,701.0,75100.0,-9.041104316711426,-2.1326351165771484,2.758718967437744
1402,702.0,75200.0,-9.02135181427002,-2.08594822883606,2.731784105300904
1403,703.0,75300.0,-9.02135181427002,-2.08594822883606,2.731784105300904
1404,704.0,75400.0,-9.033323287963867,-2.1033062934875493,2.759916067123413
1405,705.0,75500.0,-9.039907455444336,-2.1110873222351074,2.744353771209717
1406,706.0,75600.0,-9.039907455444336,-2.1110873222351074,2.744353771209717
1407,707.0,75700.0,-9.034520149230957,-2.1332337856292725,2.747945070266724
1408,708.0,75800.0,-9.034520149230957,-2.1332337856292725,2.747945070266724
1409,709.0,75900.0,-9.02015495300293,-2.1092917919158936,2.7527334690093994
1410,710.0,76000.0,-9.02015495300293,-2.1092917919158936,2.7527334690093994
1411,711.0,76100.0,-9.046490669250488,-2.127248287200928,2.759317398071289
1412,712.0,76200.0,-9.046490669250488,-2.127248287200928,2.759317398071289
1413,713.0,76300.0,-9.029132843017578,-2.1128830909729004,2.741360902786255
1414,714.0,76400.0,-9.029132843017578,-2.1128830909729004,2.741360902786255
1415,715.0,76500.0,-9.017760276794434,-2.1338322162628174,2.738368272781372
1416,716.0,76600.0,-9.04290008544922,-2.1033062934875493,2.7688941955566406
1417,717.0,76700.0,-9.04290008544922,-2.1033062934875493,2.7688941955566406
1418,718.0,76800.0,-9.044695854187012,-2.1332337856292725,2.747945070266724
1419,719.0,76900.0,-9.044695854187012,-2.1332337856292725,2.747945070266724
1420,710.0,76000.0,-9.02015495300293,-2.1092917919158936,2.7527334690093994
1421,711.0,76100.0,-9.046490669250488,-2.127248287200928,2.759317398071289
1422,712.0,76200.0,-9.046490669250488,-2.127248287200928,2.759317398071289
1423,713.0,76300.0,-9.029132843017578,-2.1128830909729004,2.741360902786255
1424,714.0,76400.0,-9.029132843017578,-2.1128830909729004,2.741360902786255
1425,715.0,76500.0,-9.017760276794434,-2.1338322162628174,2.738368272781372
1426,716.0,76600.0,-9.04290008544922,-2.1033062934875493,2.7688941955566406
1427,717.0,76700.0,-9.04290008544922,-2.1033062934875493,2.7688941955566406
1428,718.0,76800.0,-9.044695854187012,-2.1332337856292725,2.747945070266724
1429,719.0,76900.0,-9.044695854187012,-2.1332337856292725,2.747945070266724
1430,720.0,77000.0,-9.041702270507812,-2.1146786212921143,2.74076247215271
1431,721.0,77100.0,-9.041702270507812,-2.1146786212921143,2.74076247215271
1432,722.0,77200.0,-9.030928611755373,-2.141613483428955,2.7539305686950684
1433,723.0,77300.0,-9.033323287963867,-2.1248540878295903,2.757521867752075
1434,724.0,77400.0,-9.033323287963867,-2.1248540878295903,2.757521867752075
1435,725.0,77500.0,-9.04828643798828,-2.1248540878295903,2.718616008758545
1436,726.0,77600.0,-9.04828643798828,-2.1248540878295903,2.718616008758545
1437,727.0,77700.0,-9.03511905670166,-2.1140801906585693,2.7461493015289307
1438,728.0,77800.0,-9.03511905670166,-2.1140801906585693,2.7461493015289307
1439,729.0,77900.0,-9.035717010498047,-2.1314380168914795,2.744353771209717
1440,720.0,77000.0,-9.041702270507812,-2.1146786212921143,2.74076247215271
1441,721.0,77100.0,-9.041702270507812,-2.1146786212921143,2.74076247215271
1442,722.0,77200.0,-9.030928611755373,-2.141613483428955,2.7539305686950684
1443,723.0,77300.0,-9.033323287963867,-2.1248540878295903,2.757521867752075
1444,724.0,77400.0,-9.033323287963867,-2.1248540878295903,2.757521867752075
1445,725.0,77500.0,-9.04828643798828,-2.1248540878295903,2.718616008758545
1446,726.0,77600.0,-9.04828643798828,-2.1248540878295903,2.718616008758545
1447,727.0,77700.0,-9.03511905670166,-2.1140801906585693,2.7461493015289307
1448,728.0,77800.0,-9.03511905670166,-2.1140801906585693,2.7461493015289307
1449,729.0,77900.0,-9.035717010498047,-2.1314380168914795,2.744353771209717
1450,730.0,78000.0,-9.035717010498047,-2.1314380168914795,2.744353771209717
1451,731.0,78100.0,-9.027337074279783,-2.141014814376831,2.738368272781372
1452,732.0,78200.0,-9.025542259216307,-2.1446061134338383,2.7491421699523926
1453,733.0,78300.0,-9.025542259216307,-2.1446061134338383,2.7491421699523926
1454,734.0,78400.0,-9.032125473022461,-2.1320366859436035,2.7509377002716064
1455,735.0,78500.0,-9.032125473022461,-2.1320366859436035,2.7509377002716064
1456,736.0,78600.0,-9.062053680419922,-2.1182699203491206,2.7736825942993164
1457,737.0,78700.0,-9.062053680419922,-2.1182699203491206,2.7736825942993164
1458,738.0,78800.0,-9.039907455444336,-2.126649618148804,2.757521867752075
1459,739.0,78900.0,-9.039907455444336,-2.126649618148804,2.757521867752075
1460,730.0,78000.0,-9.035717010498047,-2.1314380168914795,2.744353771209717
1461,731.0,78100.0,-9.027337074279783,-2.141014814376831,2.738368272781372
1462,732.0,78200.0,-9.025542259216307,-2.1446061134338383,2.7491421699523926
1463,733.0,78300.0,-9.025542259216307,-2.1446061134338383,2.7491421699523926
1464,734.0,78400.0,-9.032125473022461,-2.1320366859436035,2.7509377002716064
1465,735.0,78500.0,-9.032125473022461,-2.1320366859436035,2.7509377002716064
1466,736.0,78600.0,-9.062053680419922,-2.1182699203491206,2.7736825942993164
1467,737.0,78700.0,-9.062053680419922,-2.1182699203491206,2.7736825942993164
1468,738.0,78800.0,-9.039907455444336,-2.126649618148804,2.757521867752075
1469,739.0,78900.0,-9.039907455444336,-2.126649618148804,2.757521867752075
1470,740.0,79000.0,-9.03751277923584,-2.1350293159484863,2.759916067123413
1471,741.0,79100.0,-9.026140213012695,-2.120065689086914,2.7653028964996342
1472,742.0,79200.0,-9.026140213012695,-2.120065689086914,2.7653028964996342
1473,743.0,79300.0,-9.06863784790039,-2.11946702003479,2.716221809387207
1474,744.0,79400.0,-9.06863784790039,-2.11946702003479,2.716221809387207
1475,745.0,79500.0,-9.04290008544922,-2.1350293159484863,2.722805976867676
1476,746.0,79600.0,-9.04290008544922,-2.1350293159484863,2.722805976867676
1477,747.0,79700.0,-8.998008728027344,-2.11946702003479,2.78086519241333
1478,748.0,79800.0,-8.998008728027344,-2.11946702003479,2.78086519241333
1479,749.0,79900.0,-9.032724380493164,-2.1098902225494385,2.759317398071289
1480,740.0,79000.0,-9.03751277923584,-2.1350293159484863,2.759916067123413
1481,741.0,79100.0,-9.026140213012695,-2.120065689086914,2.7653028964996342
1482,742.0,79200.0,-9.026140213012695,-2.120065689086914,2.7653028964996342
1483,743.0,79300.0,-9.06863784790039,-2.11946702003479,2.716221809387207
1484,744.0,79400.0,-9.06863784790039,-2.11946702003479,2.716221809387207
1485,745.0,79500.0,-9.04290008544922,-2.1350293159484863,2.722805976867676
1486,746.0,79600.0,-9.04290008544922,-2.1350293159484863,2.722805976867676
1487,747.0,79700.0,-8.998008728027344,-2.11946702003479,2.78086519241333
1488,748.0,79800.0,-8.998008728027344,-2.11946702003479,2.78086519241333
1489,749.0,79900.0,-9.032724380493164,-2.1098902225494385,2.759317398071289
1490,750.0,80000.0,-9.016563415527344,-2.117671489715576,2.7557260990142822
1491,751.0,80100.0,-9.016563415527344,-2.117671489715576,2.7557260990142822
1492,752.0,80200.0,-9.06145477294922,-2.1092917919158936,2.720411777496338
1493,753.0,80300.0,-9.06145477294922,-2.1092917919158936,2.720411777496338
1494,754.0,80400.0,-9.008782386779783,-2.1404163837432857,2.7431566715240483
1495,755.0,80500.0,-9.008782386779783,-2.1404163837432857,2.7431566715240483
1496,756.0,80600.0,-9.029132843017578,-2.10210919380188,2.7509377002716064
1497,757.0,80700.0,-9.029132843017578,-2.10210919380188,2.7509377002716064
1498,758.0,80800.0,-9.045293807983398,-2.106897592544556,2.727594375610352
1499,759.0,80900.0,-9.036913871765137,-2.1110873222351074,2.741360902786255
1500,750.0,80000.0,-9.016563415527344,-2.117671489715576,2.7557260990142822
1501,751.0,80100.0,-9.016563415527344,-2.117671489715576,2.7557260990142822
1502,752.0,80200.0,-9.06145477294922,-2.1092917919158936,2.720411777496338
1503,753.0,80300.0,-9.06145477294922,-2.1092917919158936,2.720411777496338
1504,754.0,80400.0,-9.008782386779783,-2.1404163837432857,2.7431566715240483
1505,755.0,80500.0,-9.008782386779783,-2.1404163837432857,2.7431566715240483
1506,756.0,80600.0,-9.029132843017578,-2.10210919380188,2.7509377002716064
1507,757.0,80700.0,-9.029132843017578,-2.10210919380188,2.7509377002716064
1508,758.0,80800.0,-9.045293807983398,-2.106897592544556,2.727594375610352
1509,759.0,80900.0,-9.036913871765137,-2.1110873222351074,2.741360902786255
1510,760.0,81000.0,-9.036913871765137,-2.1110873222351074,2.741360902786255
1511,761.0,81100.0,-9.020753860473633,-2.1535844802856445,2.7659015655517583
1512,762.0,81200.0,-9.020753860473633,-2.1535844802856445,2.7659015655517583
1513,763.0,81300.0,-9.077615737915039,-2.1134815216064453,2.695871114730835
1514,764.0,81400.0,-9.077615737915039,-2.1134815216064453,2.695871114730835
1515,765.0,81500.0,-8.987235069274902,-2.1080946922302246,2.797624588012696
1516,766.0,81600.0,-8.987235069274902,-2.1080946922302246,2.797624588012696
1517,767.0,81700.0,-9.059061050415039,-2.120664119720459,2.713229179382324
1518,768.0,81800.0,-9.014169692993164,-2.1332337856292725,2.7754783630371094
1519,769.0,81900.0,-9.014169692993164,-2.1332337856292725,2.7754783630371094
1520,760.0,81000.0,-9.036913871765137,-2.1110873222351074,2.741360902786255
1521,761.0,81100.0,-9.020753860473633,-2.1535844802856445,2.7659015655517583
1522,762.0,81200.0,-9.020753860473633,-2.1535844802856445,2.7659015655517583
1523,763.0,81300.0,-9.077615737915039,-2.1134815216064453,2.695871114730835
1524,764.0,81400.0,-9.077615737915039,-2.1134815216064453,2.695871114730835
1525,765.0,81500.0,-8.987235069274902,-2.1080946922302246,2.797624588012696
1526,766.0,81600.0,-8.987235069274902,-2.1080946922302246,2.797624588012696
1527,767.0,81700.0,-9.059061050415039,-2.120664119720459,2.713229179382324
1528,768.0,81800.0,-9.014169692993164,-2.1332337856292725,2.7754783630371094
1529,769.0,81900.0,-9.014169692993164,-2.1332337856292725,2.7754783630371094
1530,770.0,82000.0,-9.066842079162598,-2.118868589401245,2.7072436809539795
1531,771.0,82100.0,-9.066842079162598,-2.118868589401245,2.7072436809539795
1532,772.0,82200.0,-9.020753860473633,-2.117671489715576,2.7718870639801025
1533,773.0,82300.0,-9.020753860473633,-2.117671489715576,2.7718870639801025
1534,774.0,82400.0,-9.046490669250488,-2.1164743900299072,2.70185661315918
1535,775.0,82500.0,-9.046490669250488,-2.1164743900299072,2.70185661315918
1536,776.0,82600.0,-9.02135181427002,-2.121262788772583,2.756923198699951
1537,777.0,82700.0,-9.02254867553711,-2.1104888916015625,2.738966703414917
1538,778.0,82800.0,-9.02254867553711,-2.1104888916015625,2.738966703414917
1539,779.0,82900.0,-9.017162322998047,-2.1290438175201416,2.7700912952423096
1540,770.0,82000.0,-9.066842079162598,-2.118868589401245,2.7072436809539795
1541,771.0,82100.0,-9.066842079162598,-2.118868589401245,2.7072436809539795
1542,772.0,82200.0,-9.020753860473633,-2.117671489715576,2.7718870639801025
1543,773.0,82300.0,-9.020753860473633,-2.117671489715576,2.7718870639801025
1544,774.0,82400.0,-9.046490669250488,-2.1164743900299072,2.70185661315918
1545,775.0,82500.0,-9.046490669250488,-2.1164743900299072,2.70185661315918
1546,776.0,82600.0,-9.02135181427002,-2.121262788772583,2.756923198699951
1547,777.0,82700.0,-9.02254867553711,-2.1104888916015625,2.738966703414917
1548,778.0,82800.0,-9.02254867553711,-2.1104888916015625,2.738966703414917
1549,779.0,82900.0,-9.017162322998047,-2.1290438175201416,2.7700912952423096
1550,780.0,83000.0,-9.017162322998047,-2.1290438175201416,2.7700912952423096
1551,781.0,83100.0,-9.029132843017578,-2.1302409172058105,2.7509377002716064
1552,782.0,83200.0,-9.029132843017578,-2.1302409172058105,2.7509377002716064
1553,783.0,83300.0,-9.041702270507812,-2.1398177146911617,2.7455508708953857
1554,784.0,83400.0,-9.041702270507812,-2.1398177146911617,2.7455508708953857
1555,785.0,83500.0,-9.041104316711426,-2.120065689086914,2.7455508708953857
1556,786.0,83600.0,-9.032724380493164,-2.1302409172058105,2.761113166809082
1557,787.0,83700.0,-9.032724380493164,-2.1302409172058105,2.761113166809082
1558,788.0,83800.0,-9.032724380493164,-2.1218612194061284,2.7305870056152344
1559,789.0,83900.0,-9.032724380493164,-2.1218612194061284,2.7305870056152344
1560,780.0,83000.0,-9.017162322998047,-2.1290438175201416,2.7700912952423096
1561,781.0,83100.0,-9.029132843017578,-2.1302409172058105,2.7509377002716064
1562,782.0,83200.0,-9.029132843017578,-2.1302409172058105,2.7509377002716064
1563,783.0,83300.0,-9.041702270507812,-2.1398177146911617,2.7455508708953857
1564,784.0,83400.0,-9.041702270507812,-2.1398177146911617,2.7455508708953857
1565,785.0,83500.0,-9.041104316711426,-2.120065689086914,2.7455508708953857
1566,786.0,83600.0,-9.032724380493164,-2.1302409172058105,2.761113166809082
1567,787.0,83700.0,-9.032724380493164,-2.1302409172058105,2.761113166809082
1568,788.0,83800.0,-9.032724380493164,-2.1218612194061284,2.7305870056152344
1569,789.0,83900.0,-9.032724380493164,-2.1218612194061284,2.7305870056152344
1570,790.0,84000.0,-9.039907455444336,-2.1475989818573,2.7461493015289307
1571,791.0,84100.0,-9.039907455444336,-2.1475989818573,2.7461493015289307
1572,792.0,84200.0,-9.045892715454102,-2.147000312805176,2.7287914752960205
1573,793.0,84300.0,-9.045892715454102,-2.147000312805176,2.7287914752960205
1574,794.0,84400.0,-9.029132843017578,-2.1260511875152592,2.7347769737243652
1575,795.0,84500.0,-9.029132843017578,-2.1260511875152592,2.7347769737243652
1576,796.0,84600.0,-9.03870964050293,-2.1320366859436035,2.739565372467041
1577,797.0,84700.0,-9.036913871765137,-2.122459888458252,2.7515363693237305
1578,798.0,84800.0,-9.036913871765137,-2.122459888458252,2.7515363693237305
1579,799.0,84900.0,-9.03511905670166,-2.1350293159484863,2.712032079696656
1580,790.0,84000.0,-9.039907455444336,-2.1475989818573,2.7461493015289307
1581,791.0,84100.0,-9.039907455444336,-2.1475989818573,2.7461493015289307
1582,792.0,84200.0,-9.045892715454102,-2.147000312805176,2.7287914752960205
1583,793.0,84300.0,-9.045892715454102,-2.147000312805176,2.7287914752960205
1584,794.0,84400.0,-9.029132843017578,-2.1260511875152592,2.7347769737243652
1585,795.0,84500.0,-9.029132843017578,-2.1260511875152592,2.7347769737243652
1586,796.0,84600.0,-9.03870964050293,-2.1320366859436035,2.739565372467041
1587,797.0,84700.0,-9.036913871765137,-2.122459888458252,2.7515363693237305
1588,798.0,84800.0,-9.036913871765137,-2.122459888458252,2.7515363693237305
1589,799.0,84900.0,-9.03511905670166,-2.1350293159484863,2.712032079696656
1590,800.0,85000.0,-9.03511905670166,-2.1350293159484863,2.712032079696656
1591,801.0,85100.0,-9.03751277923584,-2.122459888458252,2.7287914752960205
1592,802.0,85200.0,-9.03751277923584,-2.122459888458252,2.7287914752960205
1593,803.0,85300.0,-9.031527519226074,-2.118868589401245,2.7431566715240483
1594,804.0,85400.0,-9.031527519226074,-2.118868589401245,2.7431566715240483
1595,805.0,85500.0,-9.018359184265137,-2.1338322162628174,2.747945070266724
1596,806.0,85600.0,-9.014169692993164,-2.097320795059204,2.759916067123413
1597,807.0,85700.0,-9.014169692993164,-2.097320795059204,2.759916067123413
1598,808.0,85800.0,-9.034520149230957,-2.1296424865722656,2.7449522018432617
1599,809.0,85900.0,-9.034520149230957,-2.1296424865722656,2.7449522018432617
1600,800.0,85000.0,-9.03511905670166,-2.1350293159484863,2.712032079696656
1601,801.0,85100.0,-9.03751277923584,-2.122459888458252,2.7287914752960205
