,Unnamed: 0,timestamp,ax,ay,az
0,0.0,5000.0,9.21715259552002,0.9906285405158995,-2.167897224426269
1,1.0,5100.0,9.21715259552002,0.9906285405158995,-2.167897224426269
2,2.0,5200.0,9.21715259552002,0.9906285405158995,-2.167897224426269
3,3.0,5300.0,9.21715259552002,0.9906285405158995,-2.167897224426269
4,4.0,5400.0,9.504291534423828,1.1724830865859983,-2.0889341831207275
5,5.0,5500.0,9.504291534423828,1.1724830865859983,-2.0889341831207275
6,6.0,5600.0,9.221939086914062,1.06480610370636,-2.026720762252808
7,7.0,5700.0,9.221939086914062,1.06480610370636,-2.026720762252808
8,8.0,5800.0,9.394222259521484,1.1676974296569824,-2.1391832828521733
9,9.0,5900.0,9.394222259521484,1.1676974296569824,-2.1391832828521733
10,10.0,6000.0,9.394222259521484,1.1676974296569824,-2.1391832828521733
11,11.0,6100.0,9.370293617248537,1.1581261157989502,-2.0817556381225586
12,12.0,6200.0,9.370293617248537,1.1581261157989502,-2.0817556381225586
13,13.0,6300.0,9.34157943725586,1.129412293434143,-2.177468776702881
14,14.0,6400.0,9.34157943725586,1.129412293434143,-2.177468776702881
15,15.0,6500.0,9.34157943725586,1.129412293434143,-2.177468776702881
16,16.0,6600.0,9.293723106384276,1.1772687435150146,-2.1511476039886475
17,17.0,6700.0,9.293723106384276,1.1772687435150146,-2.1511476039886475
18,18.0,6800.0,9.422935485839844,1.0839486122131348,-2.100898265838623
19,19.0,6900.0,9.422935485839844,1.0839486122131348,-2.100898265838623
20,10.0,6000.0,9.394222259521484,1.1676974296569824,-2.1391832828521733
21,11.0,6100.0,9.370293617248537,1.1581261157989502,-2.0817556381225586
22,12.0,6200.0,9.370293617248537,1.1581261157989502,-2.0817556381225586
23,13.0,6300.0,9.34157943725586,1.129412293434143,-2.177468776702881
24,14.0,6400.0,9.34157943725586,1.129412293434143,-2.177468776702881
25,15.0,6500.0,9.34157943725586,1.129412293434143,-2.177468776702881
26,16.0,6600.0,9.293723106384276,1.1772687435150146,-2.1511476039886475
27,17.0,6700.0,9.293723106384276,1.1772687435150146,-2.1511476039886475
28,18.0,6800.0,9.422935485839844,1.0839486122131348,-2.100898265838623
29,19.0,6900.0,9.422935485839844,1.0839486122131348,-2.100898265838623
30,20.0,7000.0,9.34157943725586,1.1533405780792236,-2.12961220741272
31,21.0,7100.0,9.34157943725586,1.1533405780792236,-2.12961220741272
32,22.0,7200.0,9.384650230407717,1.1270195245742798,-2.1391832828521733
33,23.0,7300.0,9.384650230407717,1.1270195245742798,-2.1391832828521733
34,24.0,7400.0,9.379864692687988,1.0791629552841189,-2.021935224533081
35,25.0,7500.0,9.379864692687988,1.0791629552841189,-2.021935224533081
36,26.0,7600.0,9.375079154968262,1.0695916414260864,-2.0673987865448
37,27.0,7700.0,9.375079154968262,1.0695916414260864,-2.0673987865448
38,28.0,7800.0,9.351150512695312,1.0552347898483276,-2.0721843242645264
39,29.0,7900.0,9.351150512695312,1.0552347898483276,-2.0721843242645264
40,20.0,7000.0,9.34157943725586,1.1533405780792236,-2.12961220741272
41,21.0,7100.0,9.34157943725586,1.1533405780792236,-2.12961220741272
42,22.0,7200.0,9.384650230407717,1.1270195245742798,-2.1391832828521733
43,23.0,7300.0,9.384650230407717,1.1270195245742798,-2.1391832828521733
44,24.0,7400.0,9.379864692687988,1.0791629552841189,-2.021935224533081
45,25.0,7500.0,9.379864692687988,1.0791629552841189,-2.021935224533081
46,26.0,7600.0,9.375079154968262,1.0695916414260864,-2.0673987865448
47,27.0,7700.0,9.375079154968262,1.0695916414260864,-2.0673987865448
48,28.0,7800.0,9.351150512695312,1.0552347898483276,-2.0721843242645264
49,29.0,7900.0,9.351150512695312,1.0552347898483276,-2.0721843242645264
50,30.0,8000.0,9.351150512695312,1.0552347898483276,-2.0721843242645264
51,31.0,8100.0,9.40379238128662,1.031306505203247,-2.062613010406494
52,32.0,8200.0,9.40379238128662,1.031306505203247,-2.062613010406494
53,33.0,8300.0,9.327221870422363,1.1341978311538696,-2.050648927688598
54,34.0,8400.0,9.327221870422363,1.1341978311538696,-2.050648927688598
55,35.0,8500.0,9.370293617248537,1.1724830865859983,-2.057827472686768
56,36.0,8600.0,9.370293617248537,1.1724830865859983,-2.057827472686768
57,37.0,8700.0,9.370293617248537,1.1724830865859983,-2.057827472686768
58,38.0,8800.0,9.365508079528807,1.1102697849273682,-2.148754596710205
59,39.0,8900.0,9.365508079528807,1.1102697849273682,-2.148754596710205
60,30.0,8000.0,9.351150512695312,1.0552347898483276,-2.0721843242645264
61,31.0,8100.0,9.40379238128662,1.031306505203247,-2.062613010406494
62,32.0,8200.0,9.40379238128662,1.031306505203247,-2.062613010406494
63,33.0,8300.0,9.327221870422363,1.1341978311538696,-2.050648927688598
64,34.0,8400.0,9.327221870422363,1.1341978311538696,-2.050648927688598
65,35.0,8500.0,9.370293617248537,1.1724830865859983,-2.057827472686768
66,36.0,8600.0,9.370293617248537,1.1724830865859983,-2.057827472686768
67,37.0,8700.0,9.370293617248537,1.1724830865859983,-2.057827472686768
68,38.0,8800.0,9.365508079528807,1.1102697849273682,-2.148754596710205
69,39.0,8900.0,9.365508079528807,1.1102697849273682,-2.148754596710205
70,40.0,9000.0,9.355937004089355,1.0815558433532717,-2.031506299972534
71,41.0,9100.0,9.355937004089355,1.0815558433532717,-2.031506299972534
72,42.0,9200.0,9.355937004089355,1.1030912399291992,-2.031506299972534
73,43.0,9300.0,9.355937004089355,1.1030912399291992,-2.031506299972534
74,44.0,9400.0,9.355937004089355,1.1030912399291992,-2.031506299972534
75,45.0,9500.0,9.384650230407717,1.155733346939087,-2.0243279933929443
76,46.0,9600.0,9.384650230407717,1.155733346939087,-2.0243279933929443
77,47.0,9700.0,9.355937004089355,1.1437692642211914,-2.0817556381225586
78,48.0,9800.0,9.355937004089355,1.1437692642211914,-2.0817556381225586
79,49.0,9900.0,9.384650230407717,1.155733346939087,-2.084148406982422
80,40.0,9000.0,9.355937004089355,1.0815558433532717,-2.031506299972534
81,41.0,9100.0,9.355937004089355,1.0815558433532717,-2.031506299972534
82,42.0,9200.0,9.355937004089355,1.1030912399291992,-2.031506299972534
83,43.0,9300.0,9.355937004089355,1.1030912399291992,-2.031506299972534
84,44.0,9400.0,9.355937004089355,1.1030912399291992,-2.031506299972534
85,45.0,9500.0,9.384650230407717,1.155733346939087,-2.0243279933929443
86,46.0,9600.0,9.384650230407717,1.155733346939087,-2.0243279933929443
87,47.0,9700.0,9.355937004089355,1.1437692642211914,-2.0817556381225586
88,48.0,9800.0,9.355937004089355,1.1437692642211914,-2.0817556381225586
89,49.0,9900.0,9.384650230407717,1.155733346939087,-2.084148406982422
90,50.0,10000.0,9.384650230407717,1.155733346939087,-2.084148406982422
91,51.0,10100.0,9.336793899536133,1.105484127998352,-2.115255117416382
92,52.0,10200.0,9.336793899536133,1.105484127998352,-2.115255117416382
93,53.0,10300.0,9.322437286376953,1.0839486122131348,-2.050648927688598
94,54.0,10400.0,9.322437286376953,1.0839486122131348,-2.050648927688598
95,55.0,10500.0,9.322437286376953,1.0839486122131348,-2.050648927688598
96,56.0,10600.0,9.351150512695312,1.1700903177261353,-2.2085752487182617
97,57.0,10700.0,9.351150512695312,1.1700903177261353,-2.2085752487182617
98,58.0,10800.0,9.308080673217773,1.124626636505127,-2.0673987865448
99,59.0,10900.0,9.308080673217773,1.124626636505127,-2.0673987865448
100,50.0,10000.0,9.384650230407717,1.155733346939087,-2.084148406982422
101,51.0,10100.0,9.336793899536133,1.105484127998352,-2.115255117416382
102,52.0,10200.0,9.336793899536133,1.105484127998352,-2.115255117416382
103,53.0,10300.0,9.322437286376953,1.0839486122131348,-2.050648927688598
104,54.0,10400.0,9.322437286376953,1.0839486122131348,-2.050648927688598
105,55.0,10500.0,9.322437286376953,1.0839486122131348,-2.050648927688598
106,56.0,10600.0,9.351150512695312,1.1700903177261353,-2.2085752487182617
107,57.0,10700.0,9.351150512695312,1.1700903177261353,-2.2085752487182617
108,58.0,10800.0,9.308080673217773,1.124626636505127,-2.0673987865448
109,59.0,10900.0,9.308080673217773,1.124626636505127,-2.0673987865448
110,60.0,11000.0,9.250652313232422,1.112662434577942,-2.093719720840454
111,61.0,11100.0,9.250652313232422,1.112662434577942,-2.093719720840454
112,62.0,11200.0,9.250652313232422,1.112662434577942,-2.093719720840454
113,63.0,11300.0,9.3128662109375,1.1485549211502075,-2.1918253898620605
114,64.0,11400.0,9.3128662109375,1.1485549211502075,-2.1918253898620605
115,65.0,11500.0,9.327221870422363,1.1653046607971191,-2.1607186794281006
116,66.0,11600.0,9.327221870422363,1.1653046607971191,-2.1607186794281006
117,67.0,11700.0,9.375079154968262,1.1820544004440308,-2.1343977451324463
118,68.0,11800.0,9.375079154968262,1.1820544004440308,-2.1343977451324463
119,69.0,11900.0,9.351150512695312,1.155733346939087,-2.084148406982422
120,60.0,11000.0,9.250652313232422,1.112662434577942,-2.093719720840454
121,61.0,11100.0,9.250652313232422,1.112662434577942,-2.093719720840454
122,62.0,11200.0,9.250652313232422,1.112662434577942,-2.093719720840454
123,63.0,11300.0,9.3128662109375,1.1485549211502075,-2.1918253898620605
124,64.0,11400.0,9.3128662109375,1.1485549211502075,-2.1918253898620605
125,65.0,11500.0,9.327221870422363,1.1653046607971191,-2.1607186794281006
126,66.0,11600.0,9.327221870422363,1.1653046607971191,-2.1607186794281006
127,67.0,11700.0,9.375079154968262,1.1820544004440308,-2.1343977451324463
128,68.0,11800.0,9.375079154968262,1.1820544004440308,-2.1343977451324463
129,69.0,11900.0,9.351150512695312,1.155733346939087,-2.084148406982422
130,70.0,12000.0,9.351150512695312,1.155733346939087,-2.084148406982422
131,71.0,12100.0,9.351150512695312,1.155733346939087,-2.084148406982422
132,72.0,12200.0,9.336793899536133,1.1676974296569824,-2.060220241546631
133,73.0,12300.0,9.336793899536133,1.1676974296569824,-2.060220241546631
134,74.0,12400.0,9.418149948120117,1.1413763761520386,-1.947757601737976
135,75.0,12500.0,9.418149948120117,1.1413763761520386,-1.947757601737976
136,76.0,12600.0,9.418149948120117,1.1413763761520386,-1.947757601737976
137,77.0,12700.0,9.365508079528807,1.105484127998352,-2.038684844970703
138,78.0,12800.0,9.365508079528807,1.105484127998352,-2.038684844970703
139,79.0,12900.0,9.322437286376953,1.160519003868103,-2.007578134536743
140,70.0,12000.0,9.351150512695312,1.155733346939087,-2.084148406982422
141,71.0,12100.0,9.351150512695312,1.155733346939087,-2.084148406982422
142,72.0,12200.0,9.336793899536133,1.1676974296569824,-2.060220241546631
143,73.0,12300.0,9.336793899536133,1.1676974296569824,-2.060220241546631
144,74.0,12400.0,9.418149948120117,1.1413763761520386,-1.947757601737976
145,75.0,12500.0,9.418149948120117,1.1413763761520386,-1.947757601737976
146,76.0,12600.0,9.418149948120117,1.1413763761520386,-1.947757601737976
147,77.0,12700.0,9.365508079528807,1.105484127998352,-2.038684844970703
148,78.0,12800.0,9.365508079528807,1.105484127998352,-2.038684844970703
149,79.0,12900.0,9.322437286376953,1.160519003868103,-2.007578134536743
150,80.0,13000.0,9.322437286376953,1.160519003868103,-2.007578134536743
151,81.0,13100.0,9.384650230407717,1.179661512374878,-2.0554347038269043
152,82.0,13200.0,9.384650230407717,1.179661512374878,-2.0554347038269043
153,83.0,13300.0,9.399007797241213,1.1006983518600464,-2.0099709033966064
154,84.0,13400.0,9.399007797241213,1.1006983518600464,-2.0099709033966064
155,85.0,13500.0,9.399007797241213,1.1006983518600464,-2.0099709033966064
156,86.0,13600.0,9.375079154968262,1.0911270380020142,-2.060220241546631
157,87.0,13700.0,9.375079154968262,1.0911270380020142,-2.060220241546631
158,88.0,13800.0,9.38943576812744,1.0767701864242554,-2.062613010406494
159,89.0,13900.0,9.38943576812744,1.0767701864242554,-2.062613010406494
160,80.0,13000.0,9.322437286376953,1.160519003868103,-2.007578134536743
161,81.0,13100.0,9.384650230407717,1.179661512374878,-2.0554347038269043
162,82.0,13200.0,9.384650230407717,1.179661512374878,-2.0554347038269043
163,83.0,13300.0,9.399007797241213,1.1006983518600464,-2.0099709033966064
164,84.0,13400.0,9.399007797241213,1.1006983518600464,-2.0099709033966064
165,85.0,13500.0,9.399007797241213,1.1006983518600464,-2.0099709033966064
166,86.0,13600.0,9.375079154968262,1.0911270380020142,-2.060220241546631
167,87.0,13700.0,9.375079154968262,1.0911270380020142,-2.060220241546631
168,88.0,13800.0,9.38943576812744,1.0767701864242554,-2.062613010406494
169,89.0,13900.0,9.38943576812744,1.0767701864242554,-2.062613010406494
170,90.0,14000.0,9.298508644104004,1.1270195245742798,-1.998006820678711
171,91.0,14100.0,9.298508644104004,1.1270195245742798,-1.998006820678711
172,92.0,14200.0,9.298508644104004,1.1270195245742798,-1.998006820678711
173,93.0,14300.0,9.332008361816406,1.0456634759902954,-2.0889341831207275
174,94.0,14400.0,9.332008361816406,1.0456634759902954,-2.0889341831207275
175,95.0,14500.0,9.355937004089355,1.043270707130432,-2.033899307250977
176,96.0,14600.0,9.355937004089355,1.043270707130432,-2.033899307250977
177,97.0,14700.0,9.418149948120117,1.057627558708191,-2.045863389968872
178,98.0,14800.0,9.418149948120117,1.057627558708191,-2.045863389968872
179,99.0,14900.0,9.370293617248537,1.1509476900100708,-2.0410776138305664
180,90.0,14000.0,9.298508644104004,1.1270195245742798,-1.998006820678711
181,91.0,14100.0,9.298508644104004,1.1270195245742798,-1.998006820678711
182,92.0,14200.0,9.298508644104004,1.1270195245742798,-1.998006820678711
183,93.0,14300.0,9.332008361816406,1.0456634759902954,-2.0889341831207275
184,94.0,14400.0,9.332008361816406,1.0456634759902954,-2.0889341831207275
185,95.0,14500.0,9.355937004089355,1.043270707130432,-2.033899307250977
186,96.0,14600.0,9.355937004089355,1.043270707130432,-2.033899307250977
187,97.0,14700.0,9.418149948120117,1.057627558708191,-2.045863389968872
188,98.0,14800.0,9.418149948120117,1.057627558708191,-2.045863389968872
189,99.0,14900.0,9.370293617248537,1.1509476900100708,-2.0410776138305664
190,100.0,15000.0,9.370293617248537,1.1509476900100708,-2.0410776138305664
191,101.0,15100.0,9.370293617248537,1.1509476900100708,-2.0410776138305664
192,102.0,15200.0,9.379864692687988,1.1772687435150146,-2.0171494483947754
193,103.0,15300.0,9.379864692687988,1.1772687435150146,-2.0171494483947754
194,104.0,15400.0,9.384650230407717,1.124626636505127,-1.9932212829589844
195,105.0,15500.0,9.384650230407717,1.124626636505127,-1.9932212829589844
196,106.0,15600.0,9.370293617248537,1.1389836072921753,-2.09850549697876
197,107.0,15700.0,9.370293617248537,1.1389836072921753,-2.09850549697876
198,108.0,15800.0,9.360722541809082,1.1533405780792236,-2.048256158828736
199,109.0,15900.0,9.360722541809082,1.1533405780792236,-2.048256158828736
200,100.0,15000.0,9.370293617248537,1.1509476900100708,-2.0410776138305664
201,101.0,15100.0,9.370293617248537,1.1509476900100708,-2.0410776138305664
202,102.0,15200.0,9.379864692687988,1.1772687435150146,-2.0171494483947754
203,103.0,15300.0,9.379864692687988,1.1772687435150146,-2.0171494483947754
204,104.0,15400.0,9.384650230407717,1.124626636505127,-1.9932212829589844
205,105.0,15500.0,9.384650230407717,1.124626636505127,-1.9932212829589844
206,106.0,15600.0,9.370293617248537,1.1389836072921753,-2.09850549697876
207,107.0,15700.0,9.370293617248537,1.1389836072921753,-2.09850549697876
208,108.0,15800.0,9.360722541809082,1.1533405780792236,-2.048256158828736
209,109.0,15900.0,9.360722541809082,1.1533405780792236,-2.048256158828736
210,110.0,16000.0,9.379864692687988,1.1700903177261353,-2.069791555404663
211,111.0,16100.0,9.379864692687988,1.1700903177261353,-2.069791555404663
212,112.0,16200.0,9.379864692687988,1.1700903177261353,-2.069791555404663
213,113.0,16300.0,9.379864692687988,1.0600204467773438,-2.1032910346984863
214,114.0,16400.0,9.379864692687988,1.0600204467773438,-2.1032910346984863
215,115.0,16500.0,9.394222259521484,1.0983055830001829,-2.050648927688598
216,116.0,16600.0,9.394222259521484,1.0983055830001829,-2.050648927688598
217,117.0,16700.0,9.322437286376953,1.1581261157989502,-2.1846470832824707
218,118.0,16800.0,9.322437286376953,1.1581261157989502,-2.1846470832824707
219,119.0,16900.0,9.274580955505373,1.2059825658798218,-2.1966111660003658
220,110.0,16000.0,9.379864692687988,1.1700903177261353,-2.069791555404663
221,111.0,16100.0,9.379864692687988,1.1700903177261353,-2.069791555404663
222,112.0,16200.0,9.379864692687988,1.1700903177261353,-2.069791555404663
223,113.0,16300.0,9.379864692687988,1.0600204467773438,-2.1032910346984863
224,114.0,16400.0,9.379864692687988,1.0600204467773438,-2.1032910346984863
225,115.0,16500.0,9.394222259521484,1.0983055830001829,-2.050648927688598
226,116.0,16600.0,9.394222259521484,1.0983055830001829,-2.050648927688598
227,117.0,16700.0,9.322437286376953,1.1581261157989502,-2.1846470832824707
228,118.0,16800.0,9.322437286376953,1.1581261157989502,-2.1846470832824707
229,119.0,16900.0,9.274580955505373,1.2059825658798218,-2.1966111660003658
230,120.0,17000.0,9.274580955505373,1.2059825658798218,-2.1966111660003658
231,121.0,17100.0,9.274580955505373,1.2059825658798218,-2.1966111660003658
232,122.0,17200.0,9.322437286376953,1.1389836072921753,-2.1750757694244385
233,123.0,17300.0,9.322437286376953,1.1389836072921753,-2.1750757694244385
234,124.0,17400.0,9.322437286376953,1.1724830865859983,-2.2133607864379883
235,125.0,17500.0,9.322437286376953,1.1724830865859983,-2.2133607864379883
236,126.0,17600.0,9.355937004089355,1.1892328262329102,-2.218146562576294
237,127.0,17700.0,9.355937004089355,1.1892328262329102,-2.218146562576294
238,128.0,17800.0,9.355937004089355,1.1892328262329102,-2.218146562576294
239,129.0,17900.0,9.351150512695312,1.1006983518600464,-2.100898265838623
240,120.0,17000.0,9.274580955505373,1.2059825658798218,-2.1966111660003658
241,121.0,17100.0,9.274580955505373,1.2059825658798218,-2.1966111660003658
242,122.0,17200.0,9.322437286376953,1.1389836072921753,-2.1750757694244385
243,123.0,17300.0,9.322437286376953,1.1389836072921753,-2.1750757694244385
244,124.0,17400.0,9.322437286376953,1.1724830865859983,-2.2133607864379883
245,125.0,17500.0,9.322437286376953,1.1724830865859983,-2.2133607864379883
246,126.0,17600.0,9.355937004089355,1.1892328262329102,-2.218146562576294
247,127.0,17700.0,9.355937004089355,1.1892328262329102,-2.218146562576294
248,128.0,17800.0,9.355937004089355,1.1892328262329102,-2.218146562576294
249,129.0,17900.0,9.351150512695312,1.1006983518600464,-2.100898265838623
250,130.0,18000.0,9.351150512695312,1.1006983518600464,-2.100898265838623
251,131.0,18100.0,9.34157943725586,1.117448091506958,-2.076970100402832
252,132.0,18200.0,9.34157943725586,1.117448091506958,-2.076970100402832
253,133.0,18300.0,9.384650230407717,1.1222338676452637,-2.029113531112671
254,134.0,18400.0,9.384650230407717,1.1222338676452637,-2.029113531112671
255,135.0,18500.0,9.360722541809082,1.112662434577942,-2.062613010406494
256,136.0,18600.0,9.360722541809082,1.112662434577942,-2.062613010406494
257,137.0,18700.0,9.360722541809082,1.112662434577942,-2.062613010406494
258,138.0,18800.0,9.360722541809082,1.124626636505127,-2.007578134536743
259,139.0,18900.0,9.360722541809082,1.124626636505127,-2.007578134536743
260,130.0,18000.0,9.351150512695312,1.1006983518600464,-2.100898265838623
261,131.0,18100.0,9.34157943725586,1.117448091506958,-2.076970100402832
262,132.0,18200.0,9.34157943725586,1.117448091506958,-2.076970100402832
263,133.0,18300.0,9.384650230407717,1.1222338676452637,-2.029113531112671
264,134.0,18400.0,9.384650230407717,1.1222338676452637,-2.029113531112671
265,135.0,18500.0,9.360722541809082,1.112662434577942,-2.062613010406494
266,136.0,18600.0,9.360722541809082,1.112662434577942,-2.062613010406494
267,137.0,18700.0,9.360722541809082,1.112662434577942,-2.062613010406494
268,138.0,18800.0,9.360722541809082,1.124626636505127,-2.007578134536743
269,139.0,18900.0,9.360722541809082,1.124626636505127,-2.007578134536743
270,140.0,19000.0,9.446864128112793,1.1629117727279663,-2.0650060176849365
271,141.0,19100.0,9.446864128112793,1.1629117727279663,-2.0650060176849365
272,142.0,19200.0,9.379864692687988,1.0815558433532717,-2.045863389968872
273,143.0,19300.0,9.379864692687988,1.0815558433532717,-2.045863389968872
274,144.0,19400.0,9.379864692687988,1.0815558433532717,-2.045863389968872
275,145.0,19500.0,9.399007797241213,1.0743772983551023,-2.033899307250977
276,146.0,19600.0,9.399007797241213,1.0743772983551023,-2.033899307250977
277,147.0,19700.0,9.355937004089355,1.160519003868103,-2.1032910346984863
278,148.0,19800.0,9.355937004089355,1.160519003868103,-2.1032910346984863
279,149.0,19900.0,9.437292098999023,1.129412293434143,-2.0362920761108403
280,140.0,19000.0,9.446864128112793,1.1629117727279663,-2.0650060176849365
281,141.0,19100.0,9.446864128112793,1.1629117727279663,-2.0650060176849365
282,142.0,19200.0,9.379864692687988,1.0815558433532717,-2.045863389968872
283,143.0,19300.0,9.379864692687988,1.0815558433532717,-2.045863389968872
284,144.0,19400.0,9.379864692687988,1.0815558433532717,-2.045863389968872
285,145.0,19500.0,9.399007797241213,1.0743772983551023,-2.033899307250977
286,146.0,19600.0,9.399007797241213,1.0743772983551023,-2.033899307250977
287,147.0,19700.0,9.355937004089355,1.160519003868103,-2.1032910346984863
288,148.0,19800.0,9.355937004089355,1.160519003868103,-2.1032910346984863
289,149.0,19900.0,9.437292098999023,1.129412293434143,-2.0362920761108403
290,150.0,20000.0,9.437292098999023,1.129412293434143,-2.0362920761108403
291,151.0,20100.0,9.437292098999023,1.129412293434143,-2.0362920761108403
292,152.0,20200.0,9.384650230407717,1.1198409795761108,-1.9908283948898315
293,153.0,20300.0,9.384650230407717,1.1198409795761108,-1.9908283948898315
294,154.0,20400.0,9.355937004089355,1.179661512374878,-2.0362920761108403
295,155.0,20500.0,9.355937004089355,1.179661512374878,-2.0362920761108403
296,156.0,20600.0,9.370293617248537,1.1365907192230225,-1.9956141710281368
297,157.0,20700.0,9.370293617248537,1.1365907192230225,-1.9956141710281368
298,158.0,20800.0,9.370293617248537,1.1365907192230225,-1.9956141710281368
299,159.0,20900.0,9.394222259521484,1.057627558708191,-2.0003998279571533
300,150.0,20000.0,9.437292098999023,1.129412293434143,-2.0362920761108403
301,151.0,20100.0,9.437292098999023,1.129412293434143,-2.0362920761108403
302,152.0,20200.0,9.384650230407717,1.1198409795761108,-1.9908283948898315
303,153.0,20300.0,9.384650230407717,1.1198409795761108,-1.9908283948898315
304,154.0,20400.0,9.355937004089355,1.179661512374878,-2.0362920761108403
305,155.0,20500.0,9.355937004089355,1.179661512374878,-2.0362920761108403
306,156.0,20600.0,9.370293617248537,1.1365907192230225,-1.9956141710281368
307,157.0,20700.0,9.370293617248537,1.1365907192230225,-1.9956141710281368
308,158.0,20800.0,9.370293617248537,1.1365907192230225,-1.9956141710281368
309,159.0,20900.0,9.394222259521484,1.057627558708191,-2.0003998279571533
310,160.0,21000.0,9.394222259521484,1.057627558708191,-2.0003998279571533
311,161.0,21100.0,9.394222259521484,1.0504491329193115,-1.998006820678711
312,162.0,21200.0,9.394222259521484,1.0504491329193115,-1.998006820678711
313,163.0,21300.0,9.379864692687988,1.1030912399291992,-2.0195422172546387
314,164.0,21400.0,9.379864692687988,1.1030912399291992,-2.0195422172546387
315,165.0,21500.0,9.379864692687988,1.1030912399291992,-2.0195422172546387
316,166.0,21600.0,9.365508079528807,1.0695916414260864,-2.0410776138305664
317,167.0,21700.0,9.365508079528807,1.0695916414260864,-2.0410776138305664
318,168.0,21800.0,9.399007797241213,1.0719845294952393,-2.014756679534912
319,169.0,21900.0,9.399007797241213,1.0719845294952393,-2.014756679534912
320,160.0,21000.0,9.394222259521484,1.057627558708191,-2.0003998279571533
321,161.0,21100.0,9.394222259521484,1.0504491329193115,-1.998006820678711
322,162.0,21200.0,9.394222259521484,1.0504491329193115,-1.998006820678711
323,163.0,21300.0,9.379864692687988,1.1030912399291992,-2.0195422172546387
324,164.0,21400.0,9.379864692687988,1.1030912399291992,-2.0195422172546387
325,165.0,21500.0,9.379864692687988,1.1030912399291992,-2.0195422172546387
326,166.0,21600.0,9.365508079528807,1.0695916414260864,-2.0410776138305664
327,167.0,21700.0,9.365508079528807,1.0695916414260864,-2.0410776138305664
328,168.0,21800.0,9.399007797241213,1.0719845294952393,-2.014756679534912
329,169.0,21900.0,9.399007797241213,1.0719845294952393,-2.014756679534912
330,170.0,22000.0,9.379864692687988,1.0528419017791748,-2.050648927688598
331,171.0,22100.0,9.379864692687988,1.0528419017791748,-2.050648927688598
332,172.0,22200.0,9.379864692687988,1.0528419017791748,-2.050648927688598
333,173.0,22300.0,9.399007797241213,1.0839486122131348,-2.1128623485565186
334,174.0,22400.0,9.399007797241213,1.0839486122131348,-2.1128623485565186
335,175.0,22500.0,9.384650230407717,1.057627558708191,-1.9238293170928955
336,176.0,22600.0,9.384650230407717,1.057627558708191,-1.9238293170928955
337,177.0,22700.0,9.34157943725586,1.0289137363433838,-2.084148406982422
338,178.0,22800.0,9.34157943725586,1.0289137363433838,-2.084148406982422
339,179.0,22900.0,9.34157943725586,1.0289137363433838,-2.084148406982422
340,170.0,22000.0,9.379864692687988,1.0528419017791748,-2.050648927688598
341,171.0,22100.0,9.379864692687988,1.0528419017791748,-2.050648927688598
342,172.0,22200.0,9.379864692687988,1.0528419017791748,-2.050648927688598
343,173.0,22300.0,9.399007797241213,1.0839486122131348,-2.1128623485565186
344,174.0,22400.0,9.399007797241213,1.0839486122131348,-2.1128623485565186
345,175.0,22500.0,9.384650230407717,1.057627558708191,-1.9238293170928955
346,176.0,22600.0,9.384650230407717,1.057627558708191,-1.9238293170928955
347,177.0,22700.0,9.34157943725586,1.0289137363433838,-2.084148406982422
348,178.0,22800.0,9.34157943725586,1.0289137363433838,-2.084148406982422
349,179.0,22900.0,9.34157943725586,1.0289137363433838,-2.084148406982422
350,180.0,23000.0,9.38943576812744,1.0863415002822876,-1.9645073413848884
351,181.0,23100.0,9.38943576812744,1.0863415002822876,-1.9645073413848884
352,182.0,23200.0,9.399007797241213,1.0863415002822876,-1.986042737960816
353,183.0,23300.0,9.399007797241213,1.0863415002822876,-1.986042737960816
354,184.0,23400.0,9.408578872680664,1.0767701864242554,-1.983649969100952
355,185.0,23500.0,9.408578872680664,1.0767701864242554,-1.983649969100952
356,186.0,23600.0,9.408578872680664,1.0767701864242554,-1.983649969100952
357,187.0,23700.0,9.399007797241213,1.0695916414260864,-1.9908283948898315
358,188.0,23800.0,9.399007797241213,1.0695916414260864,-1.9908283948898315
359,189.0,23900.0,9.437292098999023,1.0887343883514404,-1.9740787744522093
360,180.0,23000.0,9.38943576812744,1.0863415002822876,-1.9645073413848884
361,181.0,23100.0,9.38943576812744,1.0863415002822876,-1.9645073413848884
362,182.0,23200.0,9.399007797241213,1.0863415002822876,-1.986042737960816
363,183.0,23300.0,9.399007797241213,1.0863415002822876,-1.986042737960816
364,184.0,23400.0,9.408578872680664,1.0767701864242554,-1.983649969100952
365,185.0,23500.0,9.408578872680664,1.0767701864242554,-1.983649969100952
366,186.0,23600.0,9.408578872680664,1.0767701864242554,-1.983649969100952
367,187.0,23700.0,9.399007797241213,1.0695916414260864,-1.9908283948898315
368,188.0,23800.0,9.399007797241213,1.0695916414260864,-1.9908283948898315
369,189.0,23900.0,9.437292098999023,1.0887343883514404,-1.9740787744522093
370,190.0,24000.0,9.437292098999023,1.0887343883514404,-1.9740787744522093
371,191.0,24100.0,9.365508079528807,1.0863415002822876,-2.045863389968872
372,192.0,24200.0,9.365508079528807,1.0863415002822876,-2.045863389968872
373,193.0,24300.0,9.365508079528807,1.0767701864242554,-2.033899307250977
374,194.0,24400.0,9.365508079528807,1.0767701864242554,-2.033899307250977
375,195.0,24500.0,9.370293617248537,1.0887343883514404,-1.954936146736145
376,196.0,24600.0,9.370293617248537,1.0887343883514404,-1.954936146736145
377,197.0,24700.0,9.370293617248537,1.0887343883514404,-1.954936146736145
378,198.0,24800.0,9.365508079528807,1.1150553226470947,-2.0673987865448
379,199.0,24900.0,9.365508079528807,1.1150553226470947,-2.0673987865448
380,190.0,24000.0,9.437292098999023,1.0887343883514404,-1.9740787744522093
381,191.0,24100.0,9.365508079528807,1.0863415002822876,-2.045863389968872
382,192.0,24200.0,9.365508079528807,1.0863415002822876,-2.045863389968872
383,193.0,24300.0,9.365508079528807,1.0767701864242554,-2.033899307250977
384,194.0,24400.0,9.365508079528807,1.0767701864242554,-2.033899307250977
385,195.0,24500.0,9.370293617248537,1.0887343883514404,-1.954936146736145
386,196.0,24600.0,9.370293617248537,1.0887343883514404,-1.954936146736145
387,197.0,24700.0,9.370293617248537,1.0887343883514404,-1.954936146736145
388,198.0,24800.0,9.365508079528807,1.1150553226470947,-2.0673987865448
389,199.0,24900.0,9.365508079528807,1.1150553226470947,-2.0673987865448
390,200.0,25000.0,9.394222259521484,1.1629117727279663,-2.1056838035583496
391,201.0,25100.0,9.394222259521484,1.1629117727279663,-2.1056838035583496
392,202.0,25200.0,9.394222259521484,1.1030912399291992,-2.0195422172546387
393,203.0,25300.0,9.394222259521484,1.1030912399291992,-2.0195422172546387
394,204.0,25400.0,9.394222259521484,1.1150553226470947,-2.0410776138305664
395,205.0,25500.0,9.394222259521484,1.1150553226470947,-2.0410776138305664
396,206.0,25600.0,9.399007797241213,1.112662434577942,-2.062613010406494
397,207.0,25700.0,9.399007797241213,1.112662434577942,-2.062613010406494
398,208.0,25800.0,9.413363456726074,1.0528419017791748,-2.021935224533081
399,209.0,25900.0,9.413363456726074,1.0528419017791748,-2.021935224533081
400,200.0,25000.0,9.394222259521484,1.1629117727279663,-2.1056838035583496
401,201.0,25100.0,9.394222259521484,1.1629117727279663,-2.1056838035583496
402,202.0,25200.0,9.394222259521484,1.1030912399291992,-2.0195422172546387
403,203.0,25300.0,9.394222259521484,1.1030912399291992,-2.0195422172546387
404,204.0,25400.0,9.394222259521484,1.1150553226470947,-2.0410776138305664
405,205.0,25500.0,9.394222259521484,1.1150553226470947,-2.0410776138305664
406,206.0,25600.0,9.399007797241213,1.112662434577942,-2.062613010406494
407,207.0,25700.0,9.399007797241213,1.112662434577942,-2.062613010406494
408,208.0,25800.0,9.413363456726074,1.0528419017791748,-2.021935224533081
409,209.0,25900.0,9.413363456726074,1.0528419017791748,-2.021935224533081
410,210.0,26000.0,9.413363456726074,1.0528419017791748,-2.021935224533081
411,211.0,26100.0,9.384650230407717,1.0791629552841189,-1.9764715433120728
412,212.0,26200.0,9.384650230407717,1.0791629552841189,-1.9764715433120728
413,213.0,26300.0,9.365508079528807,1.093519926071167,-2.038684844970703
414,214.0,26400.0,9.365508079528807,1.093519926071167,-2.038684844970703
415,215.0,26500.0,9.365508079528807,1.093519926071167,-2.038684844970703
416,216.0,26600.0,9.355937004089355,1.131805181503296,-2.0099709033966064
417,217.0,26700.0,9.355937004089355,1.131805181503296,-2.0099709033966064
418,218.0,26800.0,9.456435203552246,1.160519003868103,-2.057827472686768
419,219.0,26900.0,9.456435203552246,1.160519003868103,-2.057827472686768
420,210.0,26000.0,9.413363456726074,1.0528419017791748,-2.021935224533081
421,211.0,26100.0,9.384650230407717,1.0791629552841189,-1.9764715433120728
422,212.0,26200.0,9.384650230407717,1.0791629552841189,-1.9764715433120728
423,213.0,26300.0,9.365508079528807,1.093519926071167,-2.038684844970703
424,214.0,26400.0,9.365508079528807,1.093519926071167,-2.038684844970703
425,215.0,26500.0,9.365508079528807,1.093519926071167,-2.038684844970703
426,216.0,26600.0,9.355937004089355,1.131805181503296,-2.0099709033966064
427,217.0,26700.0,9.355937004089355,1.131805181503296,-2.0099709033966064
428,218.0,26800.0,9.456435203552246,1.160519003868103,-2.057827472686768
429,219.0,26900.0,9.456435203552246,1.160519003868103,-2.057827472686768
430,220.0,27000.0,9.384650230407717,1.0911270380020142,-1.978864312171936
431,221.0,27100.0,9.384650230407717,1.0911270380020142,-1.978864312171936
432,222.0,27200.0,9.413363456726074,1.1198409795761108,-2.0554347038269043
433,223.0,27300.0,9.413363456726074,1.1198409795761108,-2.0554347038269043
434,224.0,27400.0,9.413363456726074,1.1198409795761108,-2.0554347038269043
435,225.0,27500.0,9.408578872680664,1.196411371231079,-2.069791555404663
436,226.0,27600.0,9.408578872680664,1.196411371231079,-2.069791555404663
437,227.0,27700.0,9.394222259521484,1.131805181503296,-2.045863389968872
438,228.0,27800.0,9.394222259521484,1.131805181503296,-2.045863389968872
439,229.0,27900.0,9.327221870422363,1.057627558708191,-1.983649969100952
440,220.0,27000.0,9.384650230407717,1.0911270380020142,-1.978864312171936
441,221.0,27100.0,9.384650230407717,1.0911270380020142,-1.978864312171936
442,222.0,27200.0,9.413363456726074,1.1198409795761108,-2.0554347038269043
443,223.0,27300.0,9.413363456726074,1.1198409795761108,-2.0554347038269043
444,224.0,27400.0,9.413363456726074,1.1198409795761108,-2.0554347038269043
445,225.0,27500.0,9.408578872680664,1.196411371231079,-2.069791555404663
446,226.0,27600.0,9.408578872680664,1.196411371231079,-2.069791555404663
447,227.0,27700.0,9.394222259521484,1.131805181503296,-2.045863389968872
448,228.0,27800.0,9.394222259521484,1.131805181503296,-2.045863389968872
449,229.0,27900.0,9.327221870422363,1.057627558708191,-1.983649969100952
450,230.0,28000.0,9.327221870422363,1.057627558708191,-1.983649969100952
451,231.0,28100.0,9.327221870422363,1.057627558708191,-1.983649969100952
452,232.0,28200.0,9.379864692687988,1.131805181503296,-2.014756679534912
453,233.0,28300.0,9.379864692687988,1.131805181503296,-2.014756679534912
454,234.0,28400.0,9.394222259521484,1.0887343883514404,-2.0650060176849365
455,235.0,28500.0,9.394222259521484,1.0887343883514404,-2.0650060176849365
456,236.0,28600.0,9.437292098999023,1.0839486122131348,-2.021935224533081
457,237.0,28700.0,9.437292098999023,1.0839486122131348,-2.021935224533081
458,238.0,28800.0,9.437292098999023,1.0839486122131348,-2.021935224533081
459,239.0,28900.0,9.384650230407717,1.057627558708191,-1.9884356260299685
460,230.0,28000.0,9.327221870422363,1.057627558708191,-1.983649969100952
461,231.0,28100.0,9.327221870422363,1.057627558708191,-1.983649969100952
462,232.0,28200.0,9.379864692687988,1.131805181503296,-2.014756679534912
463,233.0,28300.0,9.379864692687988,1.131805181503296,-2.014756679534912
464,234.0,28400.0,9.394222259521484,1.0887343883514404,-2.0650060176849365
465,235.0,28500.0,9.394222259521484,1.0887343883514404,-2.0650060176849365
466,236.0,28600.0,9.437292098999023,1.0839486122131348,-2.021935224533081
467,237.0,28700.0,9.437292098999023,1.0839486122131348,-2.021935224533081
468,238.0,28800.0,9.437292098999023,1.0839486122131348,-2.021935224533081
469,239.0,28900.0,9.384650230407717,1.057627558708191,-1.9884356260299685
470,240.0,29000.0,9.384650230407717,1.057627558708191,-1.9884356260299685
471,241.0,29100.0,9.346364974975586,1.107876896858215,-1.998006820678711
472,242.0,29200.0,9.346364974975586,1.107876896858215,-1.998006820678711
473,243.0,29300.0,9.45164966583252,1.0552347898483276,-2.026720762252808
474,244.0,29400.0,9.45164966583252,1.0552347898483276,-2.026720762252808
475,245.0,29500.0,9.45164966583252,1.0552347898483276,-2.026720762252808
476,246.0,29600.0,9.418149948120117,1.1150553226470947,-1.9645073413848884
477,247.0,29700.0,9.418149948120117,1.1150553226470947,-1.9645073413848884
478,248.0,29800.0,9.375079154968262,1.0839486122131348,-1.9764715433120728
479,249.0,29900.0,9.375079154968262,1.0839486122131348,-1.9764715433120728
480,240.0,29000.0,9.384650230407717,1.057627558708191,-1.9884356260299685
481,241.0,29100.0,9.346364974975586,1.107876896858215,-1.998006820678711
482,242.0,29200.0,9.346364974975586,1.107876896858215,-1.998006820678711
483,243.0,29300.0,9.45164966583252,1.0552347898483276,-2.026720762252808
484,244.0,29400.0,9.45164966583252,1.0552347898483276,-2.026720762252808
485,245.0,29500.0,9.45164966583252,1.0552347898483276,-2.026720762252808
486,246.0,29600.0,9.418149948120117,1.1150553226470947,-1.9645073413848884
487,247.0,29700.0,9.418149948120117,1.1150553226470947,-1.9645073413848884
488,248.0,29800.0,9.375079154968262,1.0839486122131348,-1.9764715433120728
489,249.0,29900.0,9.375079154968262,1.0839486122131348,-1.9764715433120728
490,250.0,30000.0,9.365508079528807,1.0959126949310305,-1.9621145725250244
491,251.0,30100.0,9.365508079528807,1.0959126949310305,-1.9621145725250244
492,252.0,30200.0,9.365508079528807,1.0959126949310305,-1.9621145725250244
493,253.0,30300.0,9.408578872680664,1.129412293434143,-2.021935224533081
494,254.0,30400.0,9.408578872680664,1.129412293434143,-2.021935224533081
495,255.0,30500.0,9.418149948120117,1.1030912399291992,-1.954936146736145
496,256.0,30600.0,9.418149948120117,1.1030912399291992,-1.954936146736145
497,257.0,30700.0,9.394222259521484,1.124626636505127,-2.0027925968170166
498,258.0,30800.0,9.394222259521484,1.124626636505127,-2.0027925968170166
499,259.0,30900.0,9.394222259521484,1.124626636505127,-2.0027925968170166
500,250.0,30000.0,9.365508079528807,1.0959126949310305,-1.9621145725250244
501,251.0,30100.0,9.365508079528807,1.0959126949310305,-1.9621145725250244
502,252.0,30200.0,9.365508079528807,1.0959126949310305,-1.9621145725250244
503,253.0,30300.0,9.408578872680664,1.129412293434143,-2.021935224533081
504,254.0,30400.0,9.408578872680664,1.129412293434143,-2.021935224533081
505,255.0,30500.0,9.418149948120117,1.1030912399291992,-1.954936146736145
506,256.0,30600.0,9.418149948120117,1.1030912399291992,-1.954936146736145
507,257.0,30700.0,9.394222259521484,1.124626636505127,-2.0027925968170166
508,258.0,30800.0,9.394222259521484,1.124626636505127,-2.0027925968170166
509,259.0,30900.0,9.394222259521484,1.124626636505127,-2.0027925968170166
510,260.0,31000.0,9.442078590393066,1.184447169303894,-1.9884356260299685
511,261.0,31100.0,9.442078590393066,1.184447169303894,-1.9884356260299685
512,262.0,31200.0,9.327221870422363,1.093519926071167,-2.038684844970703
513,263.0,31300.0,9.327221870422363,1.093519926071167,-2.038684844970703
514,264.0,31400.0,9.40379238128662,1.1198409795761108,-1.9932212829589844
515,265.0,31500.0,9.40379238128662,1.1198409795761108,-1.9932212829589844
516,266.0,31600.0,9.40379238128662,1.1198409795761108,-1.9932212829589844
517,267.0,31700.0,9.418149948120117,1.1653046607971191,-2.0554347038269043
518,268.0,31800.0,9.418149948120117,1.1653046607971191,-2.0554347038269043
519,269.0,31900.0,9.413363456726074,1.1389836072921753,-1.9070796966552728
520,260.0,31000.0,9.442078590393066,1.184447169303894,-1.9884356260299685
521,261.0,31100.0,9.442078590393066,1.184447169303894,-1.9884356260299685
522,262.0,31200.0,9.327221870422363,1.093519926071167,-2.038684844970703
523,263.0,31300.0,9.327221870422363,1.093519926071167,-2.038684844970703
524,264.0,31400.0,9.40379238128662,1.1198409795761108,-1.9932212829589844
525,265.0,31500.0,9.40379238128662,1.1198409795761108,-1.9932212829589844
526,266.0,31600.0,9.40379238128662,1.1198409795761108,-1.9932212829589844
527,267.0,31700.0,9.418149948120117,1.1653046607971191,-2.0554347038269043
528,268.0,31800.0,9.418149948120117,1.1653046607971191,-2.0554347038269043
529,269.0,31900.0,9.413363456726074,1.1389836072921753,-1.9070796966552728
530,270.0,32000.0,9.413363456726074,1.1389836072921753,-1.9070796966552728
531,271.0,32100.0,9.413363456726074,1.1437692642211914,-2.0817556381225586
532,272.0,32200.0,9.413363456726074,1.1437692642211914,-2.0817556381225586
533,273.0,32300.0,9.38943576812744,1.0791629552841189,-1.9764715433120728
534,274.0,32400.0,9.38943576812744,1.0791629552841189,-1.9764715433120728
535,275.0,32500.0,9.38943576812744,1.0791629552841189,-1.9764715433120728
536,276.0,32600.0,9.408578872680664,1.155733346939087,-2.0243279933929443
537,277.0,32700.0,9.408578872680664,1.155733346939087,-2.0243279933929443
538,278.0,32800.0,9.336793899536133,1.0552347898483276,-1.931007981300354
539,279.0,32900.0,9.336793899536133,1.0552347898483276,-1.931007981300354
540,270.0,32000.0,9.413363456726074,1.1389836072921753,-1.9070796966552728
541,271.0,32100.0,9.413363456726074,1.1437692642211914,-2.0817556381225586
542,272.0,32200.0,9.413363456726074,1.1437692642211914,-2.0817556381225586
543,273.0,32300.0,9.38943576812744,1.0791629552841189,-1.9764715433120728
544,274.0,32400.0,9.38943576812744,1.0791629552841189,-1.9764715433120728
545,275.0,32500.0,9.38943576812744,1.0791629552841189,-1.9764715433120728
546,276.0,32600.0,9.408578872680664,1.155733346939087,-2.0243279933929443
547,277.0,32700.0,9.408578872680664,1.155733346939087,-2.0243279933929443
548,278.0,32800.0,9.336793899536133,1.0552347898483276,-1.931007981300354
549,279.0,32900.0,9.336793899536133,1.0552347898483276,-1.931007981300354
550,280.0,33000.0,9.351150512695312,1.0791629552841189,-1.9716858863830569
551,281.0,33100.0,9.351150512695312,1.0791629552841189,-1.9716858863830569
552,282.0,33200.0,9.394222259521484,1.1270195245742798,-2.057827472686768
553,283.0,33300.0,9.394222259521484,1.1270195245742798,-2.057827472686768
554,284.0,33400.0,9.394222259521484,1.1270195245742798,-2.057827472686768
555,285.0,33500.0,9.40379238128662,1.112662434577942,-1.986042737960816
556,286.0,33600.0,9.40379238128662,1.112662434577942,-1.986042737960816
557,287.0,33700.0,9.422935485839844,1.1102697849273682,-1.9764715433120728
558,288.0,33800.0,9.422935485839844,1.1102697849273682,-1.9764715433120728
559,289.0,33900.0,9.418149948120117,1.0911270380020142,-1.969292998313904
560,280.0,33000.0,9.351150512695312,1.0791629552841189,-1.9716858863830569
561,281.0,33100.0,9.351150512695312,1.0791629552841189,-1.9716858863830569
562,282.0,33200.0,9.394222259521484,1.1270195245742798,-2.057827472686768
563,283.0,33300.0,9.394222259521484,1.1270195245742798,-2.057827472686768
564,284.0,33400.0,9.394222259521484,1.1270195245742798,-2.057827472686768
565,285.0,33500.0,9.40379238128662,1.112662434577942,-1.986042737960816
566,286.0,33600.0,9.40379238128662,1.112662434577942,-1.986042737960816
567,287.0,33700.0,9.422935485839844,1.1102697849273682,-1.9764715433120728
568,288.0,33800.0,9.422935485839844,1.1102697849273682,-1.9764715433120728
569,289.0,33900.0,9.418149948120117,1.0911270380020142,-1.969292998313904
570,290.0,34000.0,9.418149948120117,1.0911270380020142,-1.969292998313904
571,291.0,34100.0,9.360722541809082,1.0552347898483276,-1.9956141710281368
572,292.0,34200.0,9.360722541809082,1.0552347898483276,-1.9956141710281368
573,293.0,34300.0,9.360722541809082,1.0552347898483276,-1.9956141710281368
574,294.0,34400.0,9.384650230407717,1.105484127998352,-2.0745770931243896
575,295.0,34500.0,9.384650230407717,1.105484127998352,-2.0745770931243896
576,296.0,34600.0,9.207581520080566,1.0839486122131348,-1.7754744291305542
577,297.0,34700.0,9.207581520080566,1.0839486122131348,-1.7754744291305542
578,298.0,34800.0,9.30329418182373,1.2323036193847656,-2.079362869262696
579,299.0,34900.0,9.30329418182373,1.2323036193847656,-2.079362869262696
580,290.0,34000.0,9.418149948120117,1.0911270380020142,-1.969292998313904
581,291.0,34100.0,9.360722541809082,1.0552347898483276,-1.9956141710281368
582,292.0,34200.0,9.360722541809082,1.0552347898483276,-1.9956141710281368
583,293.0,34300.0,9.360722541809082,1.0552347898483276,-1.9956141710281368
584,294.0,34400.0,9.384650230407717,1.105484127998352,-2.0745770931243896
585,295.0,34500.0,9.384650230407717,1.105484127998352,-2.0745770931243896
586,296.0,34600.0,9.207581520080566,1.0839486122131348,-1.7754744291305542
587,297.0,34700.0,9.207581520080566,1.0839486122131348,-1.7754744291305542
588,298.0,34800.0,9.30329418182373,1.2323036193847656,-2.079362869262696
589,299.0,34900.0,9.30329418182373,1.2323036193847656,-2.079362869262696
590,300.0,35000.0,9.408578872680664,1.0384850502014158,-1.940579175949097
591,301.0,35100.0,9.408578872680664,1.0384850502014158,-1.940579175949097
592,302.0,35200.0,9.298508644104004,1.2801601886749268,-2.021935224533081
593,303.0,35300.0,9.298508644104004,1.2801601886749268,-2.021935224533081
594,304.0,35400.0,9.298508644104004,1.2801601886749268,-2.021935224533081
595,305.0,35500.0,9.379864692687988,1.284945726394653,-1.7539390325546265
596,306.0,35600.0,9.379864692687988,1.284945726394653,-1.7539390325546265
597,307.0,35700.0,9.556933403015137,1.131805181503296,-1.7682960033416748
598,308.0,35800.0,9.556933403015137,1.131805181503296,-1.7682960033416748
599,309.0,35900.0,9.413363456726074,1.2538390159606934,-2.062613010406494
600,300.0,35000.0,9.408578872680664,1.0384850502014158,-1.940579175949097
601,301.0,35100.0,9.408578872680664,1.0384850502014158,-1.940579175949097
602,302.0,35200.0,9.298508644104004,1.2801601886749268,-2.021935224533081
603,303.0,35300.0,9.298508644104004,1.2801601886749268,-2.021935224533081
604,304.0,35400.0,9.298508644104004,1.2801601886749268,-2.021935224533081
605,305.0,35500.0,9.379864692687988,1.284945726394653,-1.7539390325546265
606,306.0,35600.0,9.379864692687988,1.284945726394653,-1.7539390325546265
607,307.0,35700.0,9.556933403015137,1.131805181503296,-1.7682960033416748
608,308.0,35800.0,9.556933403015137,1.131805181503296,-1.7682960033416748
609,309.0,35900.0,9.413363456726074,1.2538390159606934,-2.062613010406494
610,310.0,36000.0,9.413363456726074,1.2538390159606934,-2.062613010406494
611,311.0,36100.0,9.413363456726074,1.2538390159606934,-2.062613010406494
612,312.0,36200.0,9.360722541809082,1.2251251935958862,-2.0865414142608643
613,313.0,36300.0,9.360722541809082,1.2251251935958862,-2.0865414142608643
614,314.0,36400.0,9.42772102355957,1.0504491329193115,-1.9070796966552728
615,315.0,36500.0,9.42772102355957,1.0504491329193115,-1.9070796966552728
616,316.0,36600.0,9.422935485839844,1.2681961059570312,-2.043470621109009
617,317.0,36700.0,9.422935485839844,1.2681961059570312,-2.043470621109009
618,318.0,36800.0,9.4660062789917,0.882951557636261,-1.8544375896453853
619,319.0,36900.0,9.4660062789917,0.882951557636261,-1.8544375896453853
620,310.0,36000.0,9.413363456726074,1.2538390159606934,-2.062613010406494
621,311.0,36100.0,9.413363456726074,1.2538390159606934,-2.062613010406494
622,312.0,36200.0,9.360722541809082,1.2251251935958862,-2.0865414142608643
623,313.0,36300.0,9.360722541809082,1.2251251935958862,-2.0865414142608643
624,314.0,36400.0,9.42772102355957,1.0504491329193115,-1.9070796966552728
625,315.0,36500.0,9.42772102355957,1.0504491329193115,-1.9070796966552728
626,316.0,36600.0,9.422935485839844,1.2681961059570312,-2.043470621109009
627,317.0,36700.0,9.422935485839844,1.2681961059570312,-2.043470621109009
628,318.0,36800.0,9.4660062789917,0.882951557636261,-1.8544375896453853
629,319.0,36900.0,9.4660062789917,0.882951557636261,-1.8544375896453853
630,320.0,37000.0,9.260223388671877,1.2873386144638062,-2.1511476039886475
631,321.0,37100.0,9.260223388671877,1.2873386144638062,-2.1511476039886475
632,322.0,37200.0,9.260223388671877,1.2873386144638062,-2.1511476039886475
633,323.0,37300.0,9.384650230407717,1.0719845294952393,-1.7682960033416748
634,324.0,37400.0,9.384650230407717,1.0719845294952393,-1.7682960033416748
635,325.0,37500.0,9.456435203552246,1.1653046607971191,-2.0362920761108403
636,326.0,37600.0,9.456435203552246,1.1653046607971191,-2.0362920761108403
637,327.0,37700.0,9.456435203552246,1.1653046607971191,-2.0362920761108403
638,328.0,37800.0,9.370293617248537,1.1222338676452637,-1.8592231273651123
639,329.0,37900.0,9.370293617248537,1.1222338676452637,-1.8592231273651123
640,320.0,37000.0,9.260223388671877,1.2873386144638062,-2.1511476039886475
641,321.0,37100.0,9.260223388671877,1.2873386144638062,-2.1511476039886475
642,322.0,37200.0,9.260223388671877,1.2873386144638062,-2.1511476039886475
643,323.0,37300.0,9.384650230407717,1.0719845294952393,-1.7682960033416748
644,324.0,37400.0,9.384650230407717,1.0719845294952393,-1.7682960033416748
645,325.0,37500.0,9.456435203552246,1.1653046607971191,-2.0362920761108403
646,326.0,37600.0,9.456435203552246,1.1653046607971191,-2.0362920761108403
647,327.0,37700.0,9.456435203552246,1.1653046607971191,-2.0362920761108403
648,328.0,37800.0,9.370293617248537,1.1222338676452637,-1.8592231273651123
649,329.0,37900.0,9.370293617248537,1.1222338676452637,-1.8592231273651123
650,330.0,38000.0,9.355937004089355,1.0791629552841189,-2.09850549697876
651,331.0,38100.0,9.355937004089355,1.0791629552841189,-2.09850549697876
652,332.0,38200.0,9.38943576812744,1.0839486122131348,-1.9764715433120728
653,333.0,38300.0,9.38943576812744,1.0839486122131348,-1.9764715433120728
654,334.0,38400.0,9.40379238128662,1.1724830865859983,-2.0171494483947754
655,335.0,38500.0,9.40379238128662,1.1724830865859983,-2.0171494483947754
656,336.0,38600.0,9.413363456726074,1.1700903177261353,-2.053041696548462
657,337.0,38700.0,9.413363456726074,1.1700903177261353,-2.053041696548462
658,338.0,38800.0,9.413363456726074,1.1700903177261353,-2.053041696548462
659,339.0,38900.0,9.351150512695312,1.1365907192230225,-1.9956141710281368
660,330.0,38000.0,9.355937004089355,1.0791629552841189,-2.09850549697876
661,331.0,38100.0,9.355937004089355,1.0791629552841189,-2.09850549697876
662,332.0,38200.0,9.38943576812744,1.0839486122131348,-1.9764715433120728
663,333.0,38300.0,9.38943576812744,1.0839486122131348,-1.9764715433120728
664,334.0,38400.0,9.40379238128662,1.1724830865859983,-2.0171494483947754
665,335.0,38500.0,9.40379238128662,1.1724830865859983,-2.0171494483947754
666,336.0,38600.0,9.413363456726074,1.1700903177261353,-2.053041696548462
667,337.0,38700.0,9.413363456726074,1.1700903177261353,-2.053041696548462
668,338.0,38800.0,9.413363456726074,1.1700903177261353,-2.053041696548462
669,339.0,38900.0,9.351150512695312,1.1365907192230225,-1.9956141710281368
670,340.0,39000.0,9.351150512695312,1.1365907192230225,-1.9956141710281368
671,341.0,39100.0,9.370293617248537,1.1533405780792236,-2.048256158828736
672,342.0,39200.0,9.370293617248537,1.1533405780792236,-2.048256158828736
673,343.0,39300.0,9.370293617248537,1.1533405780792236,-2.048256158828736
674,344.0,39400.0,9.38943576812744,1.1270195245742798,-2.0171494483947754
675,345.0,39500.0,9.38943576812744,1.1270195245742798,-2.0171494483947754
676,346.0,39600.0,9.355937004089355,1.1868400573730469,-2.1224336624145512
677,347.0,39700.0,9.355937004089355,1.1868400573730469,-2.1224336624145512
678,348.0,39800.0,9.355937004089355,1.1509476900100708,-2.115255117416382
679,349.0,39900.0,9.355937004089355,1.1509476900100708,-2.115255117416382
680,340.0,39000.0,9.351150512695312,1.1365907192230225,-1.9956141710281368
681,341.0,39100.0,9.370293617248537,1.1533405780792236,-2.048256158828736
682,342.0,39200.0,9.370293617248537,1.1533405780792236,-2.048256158828736
683,343.0,39300.0,9.370293617248537,1.1533405780792236,-2.048256158828736
684,344.0,39400.0,9.38943576812744,1.1270195245742798,-2.0171494483947754
685,345.0,39500.0,9.38943576812744,1.1270195245742798,-2.0171494483947754
686,346.0,39600.0,9.355937004089355,1.1868400573730469,-2.1224336624145512
687,347.0,39700.0,9.355937004089355,1.1868400573730469,-2.1224336624145512
688,348.0,39800.0,9.355937004089355,1.1509476900100708,-2.115255117416382
689,349.0,39900.0,9.355937004089355,1.1509476900100708,-2.115255117416382
690,350.0,40000.0,9.355937004089355,1.1509476900100708,-2.115255117416382
691,351.0,40100.0,9.346364974975586,1.117448091506958,-2.076970100402832
692,352.0,40200.0,9.346364974975586,1.117448091506958,-2.076970100402832
693,353.0,40300.0,9.533005714416504,1.3184452056884766,-2.1056838035583496
694,354.0,40400.0,9.533005714416504,1.3184452056884766,-2.1056838035583496
695,355.0,40500.0,9.533005714416504,1.3543376922607422,-1.8783657550811768
696,356.0,40600.0,9.533005714416504,1.3543376922607422,-1.8783657550811768
697,357.0,40700.0,9.533005714416504,1.3543376922607422,-1.8783657550811768
698,358.0,40800.0,9.231510162353516,0.8590233325958252,-1.856830358505249
699,359.0,40900.0,9.231510162353516,0.8590233325958252,-1.856830358505249
700,350.0,40000.0,9.355937004089355,1.1509476900100708,-2.115255117416382
701,351.0,40100.0,9.346364974975586,1.117448091506958,-2.076970100402832
702,352.0,40200.0,9.346364974975586,1.117448091506958,-2.076970100402832
703,353.0,40300.0,9.533005714416504,1.3184452056884766,-2.1056838035583496
704,354.0,40400.0,9.533005714416504,1.3184452056884766,-2.1056838035583496
705,355.0,40500.0,9.533005714416504,1.3543376922607422,-1.8783657550811768
706,356.0,40600.0,9.533005714416504,1.3543376922607422,-1.8783657550811768
707,357.0,40700.0,9.533005714416504,1.3543376922607422,-1.8783657550811768
708,358.0,40800.0,9.231510162353516,0.8590233325958252,-1.856830358505249
709,359.0,40900.0,9.231510162353516,0.8590233325958252,-1.856830358505249
710,360.0,41000.0,9.260223388671877,1.2059825658798218,-2.1631116867065434
711,361.0,41100.0,9.260223388671877,1.2059825658798218,-2.1631116867065434
712,362.0,41200.0,9.044869422912598,0.7657032012939453,-1.8640089035034184
713,363.0,41300.0,9.044869422912598,0.7657032012939453,-1.8640089035034184
714,364.0,41400.0,9.456435203552246,1.227518081665039,-2.060220241546631
715,365.0,41500.0,9.456435203552246,1.227518081665039,-2.060220241546631
716,366.0,41600.0,9.456435203552246,1.227518081665039,-2.060220241546631
717,367.0,41700.0,9.442078590393066,1.2514461278915403,-1.7156537771224976
718,368.0,41800.0,9.442078590393066,1.2514461278915403,-1.7156537771224976
719,369.0,41900.0,9.140583038330078,1.0815558433532717,-1.794616937637329
720,360.0,41000.0,9.260223388671877,1.2059825658798218,-2.1631116867065434
721,361.0,41100.0,9.260223388671877,1.2059825658798218,-2.1631116867065434
722,362.0,41200.0,9.044869422912598,0.7657032012939453,-1.8640089035034184
723,363.0,41300.0,9.044869422912598,0.7657032012939453,-1.8640089035034184
724,364.0,41400.0,9.456435203552246,1.227518081665039,-2.060220241546631
725,365.0,41500.0,9.456435203552246,1.227518081665039,-2.060220241546631
726,366.0,41600.0,9.456435203552246,1.227518081665039,-2.060220241546631
727,367.0,41700.0,9.442078590393066,1.2514461278915403,-1.7156537771224976
728,368.0,41800.0,9.442078590393066,1.2514461278915403,-1.7156537771224976
729,369.0,41900.0,9.140583038330078,1.0815558433532717,-1.794616937637329
730,370.0,42000.0,9.140583038330078,1.0815558433532717,-1.794616937637329
731,371.0,42100.0,8.997013092041016,1.1748759746551514,-2.1032910346984863
732,372.0,42200.0,8.997013092041016,1.1748759746551514,-2.1032910346984863
733,373.0,42300.0,8.997013092041016,1.1748759746551514,-2.1032910346984863
734,374.0,42400.0,9.20279598236084,1.0911270380020142,-2.0889341831207275
735,375.0,42500.0,9.20279598236084,1.0911270380020142,-2.0889341831207275
736,376.0,42600.0,9.384650230407717,0.9906285405158995,-2.0171494483947754
737,377.0,42700.0,9.384650230407717,0.9906285405158995,-2.0171494483947754
738,378.0,42800.0,9.260223388671877,1.093519926071167,-1.8376877307891848
739,379.0,42900.0,9.260223388671877,1.093519926071167,-1.8376877307891848
740,370.0,42000.0,9.140583038330078,1.0815558433532717,-1.794616937637329
741,371.0,42100.0,8.997013092041016,1.1748759746551514,-2.1032910346984863
742,372.0,42200.0,8.997013092041016,1.1748759746551514,-2.1032910346984863
743,373.0,42300.0,8.997013092041016,1.1748759746551514,-2.1032910346984863
744,374.0,42400.0,9.20279598236084,1.0911270380020142,-2.0889341831207275
745,375.0,42500.0,9.20279598236084,1.0911270380020142,-2.0889341831207275
746,376.0,42600.0,9.384650230407717,0.9906285405158995,-2.0171494483947754
747,377.0,42700.0,9.384650230407717,0.9906285405158995,-2.0171494483947754
748,378.0,42800.0,9.260223388671877,1.093519926071167,-1.8376877307891848
749,379.0,42900.0,9.260223388671877,1.093519926071167,-1.8376877307891848
750,380.0,43000.0,9.489934921264648,1.0839486122131348,-1.9716858863830569
751,381.0,43100.0,9.489934921264648,1.0839486122131348,-1.9716858863830569
752,382.0,43200.0,9.336793899536133,1.2586246728897097,-2.2779672145843506
753,383.0,43300.0,9.336793899536133,1.2586246728897097,-2.2779672145843506
754,384.0,43400.0,9.336793899536133,1.2586246728897097,-2.2779672145843506
755,385.0,43500.0,9.322437286376953,1.1629117727279663,-2.0003998279571533
756,386.0,43600.0,9.322437286376953,1.1629117727279663,-2.0003998279571533
757,387.0,43700.0,9.432506561279297,1.117448091506958,-2.091326951980591
758,388.0,43800.0,9.432506561279297,1.117448091506958,-2.091326951980591
759,389.0,43900.0,9.432506561279297,1.117448091506958,-2.091326951980591
760,380.0,43000.0,9.489934921264648,1.0839486122131348,-1.9716858863830569
761,381.0,43100.0,9.489934921264648,1.0839486122131348,-1.9716858863830569
762,382.0,43200.0,9.336793899536133,1.2586246728897097,-2.2779672145843506
763,383.0,43300.0,9.336793899536133,1.2586246728897097,-2.2779672145843506
764,384.0,43400.0,9.336793899536133,1.2586246728897097,-2.2779672145843506
765,385.0,43500.0,9.322437286376953,1.1629117727279663,-2.0003998279571533
766,386.0,43600.0,9.322437286376953,1.1629117727279663,-2.0003998279571533
767,387.0,43700.0,9.432506561279297,1.117448091506958,-2.091326951980591
768,388.0,43800.0,9.432506561279297,1.117448091506958,-2.091326951980591
769,389.0,43900.0,9.432506561279297,1.117448091506958,-2.091326951980591
770,390.0,44000.0,9.413363456726074,1.0408778190612793,-2.232503652572632
771,391.0,44100.0,9.413363456726074,1.0408778190612793,-2.232503652572632
772,392.0,44200.0,9.255437850952148,1.1892328262329102,-2.2396819591522217
773,393.0,44300.0,9.255437850952148,1.1892328262329102,-2.2396819591522217
774,394.0,44400.0,9.34157943725586,1.0336993932724,-2.203789472579956
775,395.0,44500.0,9.34157943725586,1.0336993932724,-2.203789472579956
776,396.0,44600.0,9.332008361816406,1.0887343883514404,-2.2707886695861816
777,397.0,44700.0,9.332008361816406,1.0887343883514404,-2.2707886695861816
778,398.0,44800.0,9.293723106384276,1.2825528383255005,-2.400001049041748
779,399.0,44900.0,9.293723106384276,1.2825528383255005,-2.400001049041748
780,390.0,44000.0,9.413363456726074,1.0408778190612793,-2.232503652572632
781,391.0,44100.0,9.413363456726074,1.0408778190612793,-2.232503652572632
782,392.0,44200.0,9.255437850952148,1.1892328262329102,-2.2396819591522217
783,393.0,44300.0,9.255437850952148,1.1892328262329102,-2.2396819591522217
784,394.0,44400.0,9.34157943725586,1.0336993932724,-2.203789472579956
785,395.0,44500.0,9.34157943725586,1.0336993932724,-2.203789472579956
786,396.0,44600.0,9.332008361816406,1.0887343883514404,-2.2707886695861816
787,397.0,44700.0,9.332008361816406,1.0887343883514404,-2.2707886695861816
788,398.0,44800.0,9.293723106384276,1.2825528383255005,-2.400001049041748
789,399.0,44900.0,9.293723106384276,1.2825528383255005,-2.400001049041748
790,400.0,45000.0,9.293723106384276,1.2825528383255005,-2.400001049041748
791,401.0,45100.0,9.260223388671877,1.1150553226470947,-2.2085752487182617
792,402.0,45200.0,9.260223388671877,1.1150553226470947,-2.2085752487182617
793,403.0,45300.0,9.327221870422363,1.1676974296569824,-2.275574445724488
794,404.0,45400.0,9.327221870422363,1.1676974296569824,-2.275574445724488
795,405.0,45500.0,9.38943576812744,1.1533405780792236,-2.3162522315979004
796,406.0,45600.0,9.38943576812744,1.1533405780792236,-2.3162522315979004
797,407.0,45700.0,9.212367057800293,1.2801601886749268,-2.455036163330078
798,408.0,45800.0,9.212367057800293,1.2801601886749268,-2.455036163330078
799,409.0,45900.0,9.212367057800293,1.2801601886749268,-2.455036163330078
800,400.0,45000.0,9.293723106384276,1.2825528383255005,-2.400001049041748
801,401.0,45100.0,9.260223388671877,1.1150553226470947,-2.2085752487182617
802,402.0,45200.0,9.260223388671877,1.1150553226470947,-2.2085752487182617
803,403.0,45300.0,9.327221870422363,1.1676974296569824,-2.275574445724488
804,404.0,45400.0,9.327221870422363,1.1676974296569824,-2.275574445724488
805,405.0,45500.0,9.38943576812744,1.1533405780792236,-2.3162522315979004
806,406.0,45600.0,9.38943576812744,1.1533405780792236,-2.3162522315979004
807,407.0,45700.0,9.212367057800293,1.2801601886749268,-2.455036163330078
808,408.0,45800.0,9.212367057800293,1.2801601886749268,-2.455036163330078
809,409.0,45900.0,9.212367057800293,1.2801601886749268,-2.455036163330078
810,410.0,46000.0,9.322437286376953,1.2251251935958862,-2.5292134284973145
811,411.0,46100.0,9.322437286376953,1.2251251935958862,-2.5292134284973145
812,412.0,46200.0,9.322437286376953,1.2251251935958862,-2.5292134284973145
813,413.0,46300.0,9.31765079498291,1.1341978311538696,-2.2875385284423837
814,414.0,46400.0,9.31765079498291,1.1341978311538696,-2.2875385284423837
815,415.0,46500.0,9.322437286376953,1.1341978311538696,-2.3018953800201416
816,416.0,46600.0,9.322437286376953,1.1341978311538696,-2.3018953800201416
817,417.0,46700.0,9.365508079528807,1.191625714302063,-2.304288148880005
818,418.0,46800.0,9.365508079528807,1.191625714302063,-2.304288148880005
819,419.0,46900.0,9.355937004089355,1.2011969089508057,-2.2396819591522217
820,410.0,46000.0,9.322437286376953,1.2251251935958862,-2.5292134284973145
821,411.0,46100.0,9.322437286376953,1.2251251935958862,-2.5292134284973145
822,412.0,46200.0,9.322437286376953,1.2251251935958862,-2.5292134284973145
823,413.0,46300.0,9.31765079498291,1.1341978311538696,-2.2875385284423837
824,414.0,46400.0,9.31765079498291,1.1341978311538696,-2.2875385284423837
825,415.0,46500.0,9.322437286376953,1.1341978311538696,-2.3018953800201416
826,416.0,46600.0,9.322437286376953,1.1341978311538696,-2.3018953800201416
827,417.0,46700.0,9.365508079528807,1.191625714302063,-2.304288148880005
828,418.0,46800.0,9.365508079528807,1.191625714302063,-2.304288148880005
829,419.0,46900.0,9.355937004089355,1.2011969089508057,-2.2396819591522217
830,420.0,47000.0,9.355937004089355,1.2011969089508057,-2.2396819591522217
831,421.0,47100.0,9.265008926391602,1.2059825658798218,-2.400001049041748
832,422.0,47200.0,9.265008926391602,1.2059825658798218,-2.400001049041748
833,423.0,47300.0,9.265008926391602,1.2059825658798218,-2.400001049041748
834,424.0,47400.0,9.293723106384276,1.196411371231079,-2.411965131759644
835,425.0,47500.0,9.293723106384276,1.196411371231079,-2.411965131759644
836,426.0,47600.0,9.274580955505373,1.0839486122131348,-2.328216552734375
837,427.0,47700.0,9.274580955505373,1.0839486122131348,-2.328216552734375
838,428.0,47800.0,9.327221870422363,1.160519003868103,-2.304288148880005
839,429.0,47900.0,9.327221870422363,1.160519003868103,-2.304288148880005
840,420.0,47000.0,9.355937004089355,1.2011969089508057,-2.2396819591522217
841,421.0,47100.0,9.265008926391602,1.2059825658798218,-2.400001049041748
842,422.0,47200.0,9.265008926391602,1.2059825658798218,-2.400001049041748
843,423.0,47300.0,9.265008926391602,1.2059825658798218,-2.400001049041748
844,424.0,47400.0,9.293723106384276,1.196411371231079,-2.411965131759644
845,425.0,47500.0,9.293723106384276,1.196411371231079,-2.411965131759644
846,426.0,47600.0,9.274580955505373,1.0839486122131348,-2.328216552734375
847,427.0,47700.0,9.274580955505373,1.0839486122131348,-2.328216552734375
848,428.0,47800.0,9.327221870422363,1.160519003868103,-2.304288148880005
849,429.0,47900.0,9.327221870422363,1.160519003868103,-2.304288148880005
850,430.0,48000.0,9.327221870422363,1.160519003868103,-2.304288148880005
851,431.0,48100.0,9.260223388671877,1.1581261157989502,-2.344966173171997
852,432.0,48200.0,9.260223388671877,1.1581261157989502,-2.344966173171997
853,433.0,48300.0,9.332008361816406,1.1485549211502075,-2.266003131866455
854,434.0,48400.0,9.332008361816406,1.1485549211502075,-2.266003131866455
855,435.0,48500.0,9.293723106384276,1.1485549211502075,-2.3569302558898926
856,436.0,48600.0,9.293723106384276,1.1485549211502075,-2.3569302558898926
857,437.0,48700.0,9.269794464111328,1.1748759746551514,-2.344966173171997
858,438.0,48800.0,9.269794464111328,1.1748759746551514,-2.344966173171997
859,439.0,48900.0,9.269794464111328,1.1748759746551514,-2.344966173171997
860,430.0,48000.0,9.327221870422363,1.160519003868103,-2.304288148880005
861,431.0,48100.0,9.260223388671877,1.1581261157989502,-2.344966173171997
862,432.0,48200.0,9.260223388671877,1.1581261157989502,-2.344966173171997
863,433.0,48300.0,9.332008361816406,1.1485549211502075,-2.266003131866455
864,434.0,48400.0,9.332008361816406,1.1485549211502075,-2.266003131866455
865,435.0,48500.0,9.293723106384276,1.1485549211502075,-2.3569302558898926
866,436.0,48600.0,9.293723106384276,1.1485549211502075,-2.3569302558898926
867,437.0,48700.0,9.269794464111328,1.1748759746551514,-2.344966173171997
868,438.0,48800.0,9.269794464111328,1.1748759746551514,-2.344966173171997
869,439.0,48900.0,9.269794464111328,1.1748759746551514,-2.344966173171997
870,440.0,49000.0,9.336793899536133,1.1485549211502075,-2.3473589420318604
871,441.0,49100.0,9.336793899536133,1.1485549211502075,-2.3473589420318604
872,442.0,49200.0,9.336793899536133,1.1485549211502075,-2.3473589420318604
873,443.0,49300.0,9.279366493225098,1.146162033081055,-2.2923240661621094
874,444.0,49400.0,9.279366493225098,1.146162033081055,-2.2923240661621094
875,445.0,49500.0,9.31765079498291,1.1270195245742798,-2.368894338607788
876,446.0,49600.0,9.31765079498291,1.1270195245742798,-2.368894338607788
877,447.0,49700.0,9.298508644104004,1.1940184831619265,-2.3617160320281982
878,448.0,49800.0,9.298508644104004,1.1940184831619265,-2.3617160320281982
879,449.0,49900.0,9.298508644104004,1.1940184831619265,-2.3617160320281982
880,440.0,49000.0,9.336793899536133,1.1485549211502075,-2.3473589420318604
881,441.0,49100.0,9.336793899536133,1.1485549211502075,-2.3473589420318604
882,442.0,49200.0,9.336793899536133,1.1485549211502075,-2.3473589420318604
883,443.0,49300.0,9.279366493225098,1.146162033081055,-2.2923240661621094
884,444.0,49400.0,9.279366493225098,1.146162033081055,-2.2923240661621094
885,445.0,49500.0,9.31765079498291,1.1270195245742798,-2.368894338607788
886,446.0,49600.0,9.31765079498291,1.1270195245742798,-2.368894338607788
887,447.0,49700.0,9.298508644104004,1.1940184831619265,-2.3617160320281982
888,448.0,49800.0,9.298508644104004,1.1940184831619265,-2.3617160320281982
889,449.0,49900.0,9.298508644104004,1.1940184831619265,-2.3617160320281982
890,450.0,50000.0,9.336793899536133,1.112662434577942,-2.368894338607788
891,451.0,50100.0,9.336793899536133,1.112662434577942,-2.368894338607788
892,452.0,50200.0,9.274580955505373,1.112662434577942,-2.344966173171997
893,453.0,50300.0,9.274580955505373,1.112662434577942,-2.344966173171997
894,454.0,50400.0,9.245866775512695,1.2729815244674685,-2.4335007667541504
895,455.0,50500.0,9.245866775512695,1.2729815244674685,-2.4335007667541504
896,456.0,50600.0,9.308080673217773,1.215553879737854,-2.411965131759644
897,457.0,50700.0,9.308080673217773,1.215553879737854,-2.411965131759644
898,458.0,50800.0,9.308080673217773,1.215553879737854,-2.411965131759644
899,459.0,50900.0,9.284152030944824,1.0839486122131348,-2.3880369663238525
900,450.0,50000.0,9.336793899536133,1.112662434577942,-2.368894338607788
901,451.0,50100.0,9.336793899536133,1.112662434577942,-2.368894338607788
902,452.0,50200.0,9.274580955505373,1.112662434577942,-2.344966173171997
903,453.0,50300.0,9.274580955505373,1.112662434577942,-2.344966173171997
904,454.0,50400.0,9.245866775512695,1.2729815244674685,-2.4335007667541504
905,455.0,50500.0,9.245866775512695,1.2729815244674685,-2.4335007667541504
906,456.0,50600.0,9.308080673217773,1.215553879737854,-2.411965131759644
907,457.0,50700.0,9.308080673217773,1.215553879737854,-2.411965131759644
908,458.0,50800.0,9.308080673217773,1.215553879737854,-2.411965131759644
909,459.0,50900.0,9.284152030944824,1.0839486122131348,-2.3880369663238525
910,460.0,51000.0,9.284152030944824,1.0839486122131348,-2.3880369663238525
911,461.0,51100.0,9.212367057800293,1.1724830865859983,-2.4598214626312256
912,462.0,51200.0,9.212367057800293,1.1724830865859983,-2.4598214626312256
913,463.0,51300.0,9.336793899536133,1.1341978311538696,-2.3473589420318604
914,464.0,51400.0,9.336793899536133,1.1341978311538696,-2.3473589420318604
915,465.0,51500.0,9.322437286376953,1.093519926071167,-2.344966173171997
916,466.0,51600.0,9.322437286376953,1.093519926071167,-2.344966173171997
917,467.0,51700.0,9.322437286376953,1.093519926071167,-2.344966173171997
918,468.0,51800.0,9.327221870422363,1.1150553226470947,-2.392822742462158
919,469.0,51900.0,9.327221870422363,1.1150553226470947,-2.392822742462158
920,460.0,51000.0,9.284152030944824,1.0839486122131348,-2.3880369663238525
921,461.0,51100.0,9.212367057800293,1.1724830865859983,-2.4598214626312256
922,462.0,51200.0,9.212367057800293,1.1724830865859983,-2.4598214626312256
923,463.0,51300.0,9.336793899536133,1.1341978311538696,-2.3473589420318604
924,464.0,51400.0,9.336793899536133,1.1341978311538696,-2.3473589420318604
925,465.0,51500.0,9.322437286376953,1.093519926071167,-2.344966173171997
926,466.0,51600.0,9.322437286376953,1.093519926071167,-2.344966173171997
927,467.0,51700.0,9.322437286376953,1.093519926071167,-2.344966173171997
928,468.0,51800.0,9.327221870422363,1.1150553226470947,-2.392822742462158
929,469.0,51900.0,9.327221870422363,1.1150553226470947,-2.392822742462158
930,470.0,52000.0,9.298508644104004,1.1700903177261353,-2.426322221755981
931,471.0,52100.0,9.298508644104004,1.1700903177261353,-2.426322221755981
932,472.0,52200.0,9.327221870422363,1.1413763761520386,-2.400001049041748
933,473.0,52300.0,9.327221870422363,1.1413763761520386,-2.400001049041748
934,474.0,52400.0,9.332008361816406,1.0743772983551023,-2.3018953800201416
935,475.0,52500.0,9.332008361816406,1.0743772983551023,-2.3018953800201416
936,476.0,52600.0,9.332008361816406,1.0743772983551023,-2.3018953800201416
937,477.0,52700.0,9.279366493225098,0.9762716889381408,-2.368894338607788
938,478.0,52800.0,9.279366493225098,0.9762716889381408,-2.368894338607788
939,479.0,52900.0,9.284152030944824,1.0528419017791748,-2.3425734043121342
940,470.0,52000.0,9.298508644104004,1.1700903177261353,-2.426322221755981
941,471.0,52100.0,9.298508644104004,1.1700903177261353,-2.426322221755981
942,472.0,52200.0,9.327221870422363,1.1413763761520386,-2.400001049041748
943,473.0,52300.0,9.327221870422363,1.1413763761520386,-2.400001049041748
944,474.0,52400.0,9.332008361816406,1.0743772983551023,-2.3018953800201416
945,475.0,52500.0,9.332008361816406,1.0743772983551023,-2.3018953800201416
946,476.0,52600.0,9.332008361816406,1.0743772983551023,-2.3018953800201416
947,477.0,52700.0,9.279366493225098,0.9762716889381408,-2.368894338607788
948,478.0,52800.0,9.279366493225098,0.9762716889381408,-2.368894338607788
949,479.0,52900.0,9.284152030944824,1.0528419017791748,-2.3425734043121342
950,480.0,53000.0,9.284152030944824,1.0528419017791748,-2.3425734043121342
951,481.0,53100.0,9.30329418182373,1.1748759746551514,-2.3736801147460938
952,482.0,53200.0,9.30329418182373,1.1748759746551514,-2.3736801147460938
953,483.0,53300.0,9.30329418182373,1.1748759746551514,-2.3736801147460938
954,484.0,53400.0,9.322437286376953,1.105484127998352,-2.289931058883667
955,485.0,53500.0,9.322437286376953,1.105484127998352,-2.289931058883667
956,486.0,53600.0,9.28893756866455,1.1629117727279663,-2.402393817901612
957,487.0,53700.0,9.28893756866455,1.1629117727279663,-2.402393817901612
958,488.0,53800.0,9.269794464111328,1.0815558433532717,-2.368894338607788
959,489.0,53900.0,9.269794464111328,1.0815558433532717,-2.368894338607788
960,480.0,53000.0,9.284152030944824,1.0528419017791748,-2.3425734043121342
961,481.0,53100.0,9.30329418182373,1.1748759746551514,-2.3736801147460938
962,482.0,53200.0,9.30329418182373,1.1748759746551514,-2.3736801147460938
963,483.0,53300.0,9.30329418182373,1.1748759746551514,-2.3736801147460938
964,484.0,53400.0,9.322437286376953,1.105484127998352,-2.289931058883667
965,485.0,53500.0,9.322437286376953,1.105484127998352,-2.289931058883667
966,486.0,53600.0,9.28893756866455,1.1629117727279663,-2.402393817901612
967,487.0,53700.0,9.28893756866455,1.1629117727279663,-2.402393817901612
968,488.0,53800.0,9.269794464111328,1.0815558433532717,-2.368894338607788
969,489.0,53900.0,9.269794464111328,1.0815558433532717,-2.368894338607788
970,490.0,54000.0,9.269794464111328,1.0815558433532717,-2.368894338607788
971,491.0,54100.0,9.322437286376953,1.06480610370636,-2.2851457595825195
972,492.0,54200.0,9.322437286376953,1.06480610370636,-2.2851457595825195
973,493.0,54300.0,9.269794464111328,1.1629117727279663,-2.263610363006592
974,494.0,54400.0,9.269794464111328,1.1629117727279663,-2.263610363006592
975,495.0,54500.0,9.284152030944824,1.1533405780792236,-2.3569302558898926
976,496.0,54600.0,9.284152030944824,1.1533405780792236,-2.3569302558898926
977,497.0,54700.0,9.34157943725586,1.105484127998352,-2.2851457595825195
978,498.0,54800.0,9.34157943725586,1.105484127998352,-2.2851457595825195
979,499.0,54900.0,9.34157943725586,1.105484127998352,-2.2851457595825195
980,490.0,54000.0,9.269794464111328,1.0815558433532717,-2.368894338607788
981,491.0,54100.0,9.322437286376953,1.06480610370636,-2.2851457595825195
982,492.0,54200.0,9.322437286376953,1.06480610370636,-2.2851457595825195
983,493.0,54300.0,9.269794464111328,1.1629117727279663,-2.263610363006592
984,494.0,54400.0,9.269794464111328,1.1629117727279663,-2.263610363006592
985,495.0,54500.0,9.284152030944824,1.1533405780792236,-2.3569302558898926
986,496.0,54600.0,9.284152030944824,1.1533405780792236,-2.3569302558898926
987,497.0,54700.0,9.34157943725586,1.105484127998352,-2.2851457595825195
988,498.0,54800.0,9.34157943725586,1.105484127998352,-2.2851457595825195
989,499.0,54900.0,9.34157943725586,1.105484127998352,-2.2851457595825195
990,500.0,55000.0,9.293723106384276,1.0839486122131348,-2.313859462738037
991,501.0,55100.0,9.293723106384276,1.0839486122131348,-2.313859462738037
992,502.0,55200.0,9.327221870422363,1.0719845294952393,-2.2013967037200928
993,503.0,55300.0,9.327221870422363,1.0719845294952393,-2.2013967037200928
994,504.0,55400.0,9.327221870422363,1.0719845294952393,-2.2013967037200928
995,505.0,55500.0,9.355937004089355,1.057627558708191,-2.2013967037200928
996,506.0,55600.0,9.355937004089355,1.057627558708191,-2.2013967037200928
997,507.0,55700.0,9.351150512695312,1.1772687435150146,-2.2779672145843506
998,508.0,55800.0,9.351150512695312,1.1772687435150146,-2.2779672145843506
999,509.0,55900.0,9.260223388671877,1.0695916414260864,-2.2827527523040767
1000,500.0,55000.0,9.293723106384276,1.0839486122131348,-2.313859462738037
1001,501.0,55100.0,9.293723106384276,1.0839486122131348,-2.313859462738037
1002,502.0,55200.0,9.327221870422363,1.0719845294952393,-2.2013967037200928
1003,503.0,55300.0,9.327221870422363,1.0719845294952393,-2.2013967037200928
1004,504.0,55400.0,9.327221870422363,1.0719845294952393,-2.2013967037200928
1005,505.0,55500.0,9.355937004089355,1.057627558708191,-2.2013967037200928
1006,506.0,55600.0,9.355937004089355,1.057627558708191,-2.2013967037200928
1007,507.0,55700.0,9.351150512695312,1.1772687435150146,-2.2779672145843506
1008,508.0,55800.0,9.351150512695312,1.1772687435150146,-2.2779672145843506
1009,509.0,55900.0,9.260223388671877,1.0695916414260864,-2.2827527523040767
1010,510.0,56000.0,9.260223388671877,1.0695916414260864,-2.2827527523040767
1011,511.0,56100.0,9.28893756866455,1.1509476900100708,-2.321038007736206
1012,512.0,56200.0,9.28893756866455,1.1509476900100708,-2.321038007736206
1013,513.0,56300.0,9.28893756866455,1.1509476900100708,-2.321038007736206
1014,514.0,56400.0,9.284152030944824,1.1892328262329102,-2.4095723628997803
1015,515.0,56500.0,9.284152030944824,1.1892328262329102,-2.4095723628997803
1016,516.0,56600.0,9.379864692687988,1.0480562448501587,-2.2947168350219727
1017,517.0,56700.0,9.379864692687988,1.0480562448501587,-2.2947168350219727
1018,518.0,56800.0,9.336793899536133,1.117448091506958,-2.2827527523040767
1019,519.0,56900.0,9.336793899536133,1.117448091506958,-2.2827527523040767
1020,510.0,56000.0,9.260223388671877,1.0695916414260864,-2.2827527523040767
1021,511.0,56100.0,9.28893756866455,1.1509476900100708,-2.321038007736206
1022,512.0,56200.0,9.28893756866455,1.1509476900100708,-2.321038007736206
1023,513.0,56300.0,9.28893756866455,1.1509476900100708,-2.321038007736206
1024,514.0,56400.0,9.284152030944824,1.1892328262329102,-2.4095723628997803
1025,515.0,56500.0,9.284152030944824,1.1892328262329102,-2.4095723628997803
1026,516.0,56600.0,9.379864692687988,1.0480562448501587,-2.2947168350219727
1027,517.0,56700.0,9.379864692687988,1.0480562448501587,-2.2947168350219727
1028,518.0,56800.0,9.336793899536133,1.117448091506958,-2.2827527523040767
1029,519.0,56900.0,9.336793899536133,1.117448091506958,-2.2827527523040767
1030,520.0,57000.0,9.293723106384276,1.196411371231079,-2.3162522315979004
1031,521.0,57100.0,9.293723106384276,1.196411371231079,-2.3162522315979004
1032,522.0,57200.0,9.293723106384276,1.196411371231079,-2.3162522315979004
1033,523.0,57300.0,9.3128662109375,1.2083754539489746,-2.359323024749756
1034,524.0,57400.0,9.3128662109375,1.2083754539489746,-2.359323024749756
1035,525.0,57500.0,9.332008361816406,1.210768222808838,-2.337787628173828
1036,526.0,57600.0,9.332008361816406,1.210768222808838,-2.337787628173828
1037,527.0,57700.0,9.327221870422363,1.155733346939087,-2.400001049041748
1038,528.0,57800.0,9.327221870422363,1.155733346939087,-2.400001049041748
1039,529.0,57900.0,9.255437850952148,1.1270195245742798,-2.273181438446045
1040,520.0,57000.0,9.293723106384276,1.196411371231079,-2.3162522315979004
1041,521.0,57100.0,9.293723106384276,1.196411371231079,-2.3162522315979004
1042,522.0,57200.0,9.293723106384276,1.196411371231079,-2.3162522315979004
1043,523.0,57300.0,9.3128662109375,1.2083754539489746,-2.359323024749756
1044,524.0,57400.0,9.3128662109375,1.2083754539489746,-2.359323024749756
1045,525.0,57500.0,9.332008361816406,1.210768222808838,-2.337787628173828
1046,526.0,57600.0,9.332008361816406,1.210768222808838,-2.337787628173828
1047,527.0,57700.0,9.327221870422363,1.155733346939087,-2.400001049041748
1048,528.0,57800.0,9.327221870422363,1.155733346939087,-2.400001049041748
1049,529.0,57900.0,9.255437850952148,1.1270195245742798,-2.273181438446045
1050,530.0,58000.0,9.255437850952148,1.1270195245742798,-2.273181438446045
1051,531.0,58100.0,9.255437850952148,1.1270195245742798,-2.273181438446045
1052,532.0,58200.0,9.336793899536133,1.1700903177261353,-2.225324869155884
1053,533.0,58300.0,9.336793899536133,1.1700903177261353,-2.225324869155884
1054,534.0,58400.0,9.327221870422363,1.2059825658798218,-2.25403904914856
1055,535.0,58500.0,9.327221870422363,1.2059825658798218,-2.25403904914856
1056,536.0,58600.0,9.269794464111328,1.1581261157989502,-2.2827527523040767
1057,537.0,58700.0,9.269794464111328,1.1581261157989502,-2.2827527523040767
1058,538.0,58800.0,9.269794464111328,1.1581261157989502,-2.2827527523040767
1059,539.0,58900.0,9.30329418182373,1.131805181503296,-2.2468602657318115
1060,530.0,58000.0,9.255437850952148,1.1270195245742798,-2.273181438446045
1061,531.0,58100.0,9.255437850952148,1.1270195245742798,-2.273181438446045
1062,532.0,58200.0,9.336793899536133,1.1700903177261353,-2.225324869155884
1063,533.0,58300.0,9.336793899536133,1.1700903177261353,-2.225324869155884
1064,534.0,58400.0,9.327221870422363,1.2059825658798218,-2.25403904914856
1065,535.0,58500.0,9.327221870422363,1.2059825658798218,-2.25403904914856
1066,536.0,58600.0,9.269794464111328,1.1581261157989502,-2.2827527523040767
1067,537.0,58700.0,9.269794464111328,1.1581261157989502,-2.2827527523040767
1068,538.0,58800.0,9.269794464111328,1.1581261157989502,-2.2827527523040767
1069,539.0,58900.0,9.30329418182373,1.131805181503296,-2.2468602657318115
1070,540.0,59000.0,9.30329418182373,1.131805181503296,-2.2468602657318115
1071,541.0,59100.0,9.322437286376953,1.2227323055267334,-2.218146562576294
1072,542.0,59200.0,9.322437286376953,1.2227323055267334,-2.218146562576294
1073,543.0,59300.0,9.30329418182373,1.117448091506958,-2.266003131866455
1074,544.0,59400.0,9.30329418182373,1.117448091506958,-2.266003131866455
1075,545.0,59500.0,9.34157943725586,1.2370892763137815,-2.383251428604126
1076,546.0,59600.0,9.34157943725586,1.2370892763137815,-2.383251428604126
1077,547.0,59700.0,9.34157943725586,1.2370892763137815,-2.383251428604126
1078,548.0,59800.0,9.279366493225098,1.1222338676452637,-2.2612173557281494
1079,549.0,59900.0,9.279366493225098,1.1222338676452637,-2.2612173557281494
1080,540.0,59000.0,9.30329418182373,1.131805181503296,-2.2468602657318115
1081,541.0,59100.0,9.322437286376953,1.2227323055267334,-2.218146562576294
1082,542.0,59200.0,9.322437286376953,1.2227323055267334,-2.218146562576294
1083,543.0,59300.0,9.30329418182373,1.117448091506958,-2.266003131866455
1084,544.0,59400.0,9.30329418182373,1.117448091506958,-2.266003131866455
1085,545.0,59500.0,9.34157943725586,1.2370892763137815,-2.383251428604126
1086,546.0,59600.0,9.34157943725586,1.2370892763137815,-2.383251428604126
1087,547.0,59700.0,9.34157943725586,1.2370892763137815,-2.383251428604126
1088,548.0,59800.0,9.279366493225098,1.1222338676452637,-2.2612173557281494
1089,549.0,59900.0,9.279366493225098,1.1222338676452637,-2.2612173557281494
1090,550.0,60000.0,9.308080673217773,1.146162033081055,-2.3497519493103027
1091,551.0,60100.0,9.308080673217773,1.146162033081055,-2.3497519493103027
1092,552.0,60200.0,9.355937004089355,1.2083754539489746,-2.359323024749756
1093,553.0,60300.0,9.355937004089355,1.2083754539489746,-2.359323024749756
1094,554.0,60400.0,9.3128662109375,1.1485549211502075,-2.2205395698547363
1095,555.0,60500.0,9.3128662109375,1.1485549211502075,-2.2205395698547363
1096,556.0,60600.0,9.3128662109375,1.1485549211502075,-2.2205395698547363
1097,557.0,60700.0,9.255437850952148,1.117448091506958,-2.297109842300415
1098,558.0,60800.0,9.255437850952148,1.117448091506958,-2.297109842300415
1099,559.0,60900.0,9.255437850952148,1.1700903177261353,-2.321038007736206
1100,550.0,60000.0,9.308080673217773,1.146162033081055,-2.3497519493103027
1101,551.0,60100.0,9.308080673217773,1.146162033081055,-2.3497519493103027
1102,552.0,60200.0,9.355937004089355,1.2083754539489746,-2.359323024749756
1103,553.0,60300.0,9.355937004089355,1.2083754539489746,-2.359323024749756
1104,554.0,60400.0,9.3128662109375,1.1485549211502075,-2.2205395698547363
1105,555.0,60500.0,9.3128662109375,1.1485549211502075,-2.2205395698547363
1106,556.0,60600.0,9.3128662109375,1.1485549211502075,-2.2205395698547363
1107,557.0,60700.0,9.255437850952148,1.117448091506958,-2.297109842300415
1108,558.0,60800.0,9.255437850952148,1.117448091506958,-2.297109842300415
1109,559.0,60900.0,9.255437850952148,1.1700903177261353,-2.321038007736206
1110,560.0,61000.0,9.255437850952148,1.1700903177261353,-2.321038007736206
1111,561.0,61100.0,9.255437850952148,1.1700903177261353,-2.321038007736206
1112,562.0,61200.0,9.34157943725586,1.179661512374878,-2.242074966430664
1113,563.0,61300.0,9.34157943725586,1.179661512374878,-2.242074966430664
1114,564.0,61400.0,9.30329418182373,1.1629117727279663,-2.2827527523040767
1115,565.0,61500.0,9.30329418182373,1.1629117727279663,-2.2827527523040767
1116,566.0,61600.0,9.28893756866455,1.062413215637207,-2.2947168350219727
1117,567.0,61700.0,9.28893756866455,1.062413215637207,-2.2947168350219727
1118,568.0,61800.0,9.28893756866455,1.062413215637207,-2.2947168350219727
1119,569.0,61900.0,9.332008361816406,1.1030912399291992,-2.2827527523040767
1120,560.0,61000.0,9.255437850952148,1.1700903177261353,-2.321038007736206
1121,561.0,61100.0,9.255437850952148,1.1700903177261353,-2.321038007736206
1122,562.0,61200.0,9.34157943725586,1.179661512374878,-2.242074966430664
1123,563.0,61300.0,9.34157943725586,1.179661512374878,-2.242074966430664
1124,564.0,61400.0,9.30329418182373,1.1629117727279663,-2.2827527523040767
1125,565.0,61500.0,9.30329418182373,1.1629117727279663,-2.2827527523040767
1126,566.0,61600.0,9.28893756866455,1.062413215637207,-2.2947168350219727
1127,567.0,61700.0,9.28893756866455,1.062413215637207,-2.2947168350219727
1128,568.0,61800.0,9.28893756866455,1.062413215637207,-2.2947168350219727
1129,569.0,61900.0,9.332008361816406,1.1030912399291992,-2.2827527523040767
1130,570.0,62000.0,9.332008361816406,1.1030912399291992,-2.2827527523040767
1131,571.0,62100.0,9.30329418182373,1.155733346939087,-2.289931058883667
1132,572.0,62200.0,9.30329418182373,1.155733346939087,-2.289931058883667
1133,573.0,62300.0,9.336793899536133,1.1748759746551514,-2.313859462738037
1134,574.0,62400.0,9.336793899536133,1.1748759746551514,-2.313859462738037
1135,575.0,62500.0,9.336793899536133,1.1748759746551514,-2.313859462738037
1136,576.0,62600.0,9.322437286376953,1.0959126949310305,-2.273181438446045
1137,577.0,62700.0,9.322437286376953,1.0959126949310305,-2.273181438446045
1138,578.0,62800.0,9.260223388671877,1.1437692642211914,-2.2827527523040767
1139,579.0,62900.0,9.260223388671877,1.1437692642211914,-2.2827527523040767
1140,570.0,62000.0,9.332008361816406,1.1030912399291992,-2.2827527523040767
1141,571.0,62100.0,9.30329418182373,1.155733346939087,-2.289931058883667
1142,572.0,62200.0,9.30329418182373,1.155733346939087,-2.289931058883667
1143,573.0,62300.0,9.336793899536133,1.1748759746551514,-2.313859462738037
1144,574.0,62400.0,9.336793899536133,1.1748759746551514,-2.313859462738037
1145,575.0,62500.0,9.336793899536133,1.1748759746551514,-2.313859462738037
1146,576.0,62600.0,9.322437286376953,1.0959126949310305,-2.273181438446045
1147,577.0,62700.0,9.322437286376953,1.0959126949310305,-2.273181438446045
1148,578.0,62800.0,9.260223388671877,1.1437692642211914,-2.2827527523040767
1149,579.0,62900.0,9.260223388671877,1.1437692642211914,-2.2827527523040767
1150,580.0,63000.0,9.327221870422363,1.1748759746551514,-2.25403904914856
1151,581.0,63100.0,9.327221870422363,1.1748759746551514,-2.25403904914856
1152,582.0,63200.0,9.31765079498291,1.191625714302063,-2.364108800888061
1153,583.0,63300.0,9.31765079498291,1.191625714302063,-2.364108800888061
1154,584.0,63400.0,9.293723106384276,1.184447169303894,-2.3162522315979004
1155,585.0,63500.0,9.293723106384276,1.184447169303894,-2.3162522315979004
1156,586.0,63600.0,9.293723106384276,1.184447169303894,-2.3162522315979004
1157,587.0,63700.0,9.3128662109375,1.1676974296569824,-2.2468602657318115
1158,588.0,63800.0,9.3128662109375,1.1676974296569824,-2.2468602657318115
1159,589.0,63900.0,9.28893756866455,1.117448091506958,-2.3569302558898926
1160,580.0,63000.0,9.327221870422363,1.1748759746551514,-2.25403904914856
1161,581.0,63100.0,9.327221870422363,1.1748759746551514,-2.25403904914856
1162,582.0,63200.0,9.31765079498291,1.191625714302063,-2.364108800888061
1163,583.0,63300.0,9.31765079498291,1.191625714302063,-2.364108800888061
1164,584.0,63400.0,9.293723106384276,1.184447169303894,-2.3162522315979004
1165,585.0,63500.0,9.293723106384276,1.184447169303894,-2.3162522315979004
1166,586.0,63600.0,9.293723106384276,1.184447169303894,-2.3162522315979004
1167,587.0,63700.0,9.3128662109375,1.1676974296569824,-2.2468602657318115
1168,588.0,63800.0,9.3128662109375,1.1676974296569824,-2.2468602657318115
1169,589.0,63900.0,9.28893756866455,1.117448091506958,-2.3569302558898926
1170,590.0,64000.0,9.28893756866455,1.117448091506958,-2.3569302558898926
1171,591.0,64100.0,9.28893756866455,1.117448091506958,-2.3569302558898926
1172,592.0,64200.0,9.30329418182373,1.1676974296569824,-2.3401806354522705
1173,593.0,64300.0,9.30329418182373,1.1676974296569824,-2.3401806354522705
1174,594.0,64400.0,9.274580955505373,1.146162033081055,-2.273181438446045
1175,595.0,64500.0,9.274580955505373,1.146162033081055,-2.273181438446045
1176,596.0,64600.0,9.308080673217773,1.1700903177261353,-2.2851457595825195
1177,597.0,64700.0,9.308080673217773,1.1700903177261353,-2.2851457595825195
1178,598.0,64800.0,9.332008361816406,1.2083754539489746,-2.263610363006592
1179,599.0,64900.0,9.332008361816406,1.2083754539489746,-2.263610363006592
1180,590.0,64000.0,9.28893756866455,1.117448091506958,-2.3569302558898926
1181,591.0,64100.0,9.28893756866455,1.117448091506958,-2.3569302558898926
1182,592.0,64200.0,9.30329418182373,1.1676974296569824,-2.3401806354522705
1183,593.0,64300.0,9.30329418182373,1.1676974296569824,-2.3401806354522705
1184,594.0,64400.0,9.274580955505373,1.146162033081055,-2.273181438446045
1185,595.0,64500.0,9.274580955505373,1.146162033081055,-2.273181438446045
1186,596.0,64600.0,9.308080673217773,1.1700903177261353,-2.2851457595825195
1187,597.0,64700.0,9.308080673217773,1.1700903177261353,-2.2851457595825195
1188,598.0,64800.0,9.332008361816406,1.2083754539489746,-2.263610363006592
1189,599.0,64900.0,9.332008361816406,1.2083754539489746,-2.263610363006592
1190,600.0,65000.0,9.332008361816406,1.2083754539489746,-2.263610363006592
1191,601.0,65100.0,9.269794464111328,1.1150553226470947,-2.2827527523040767
1192,602.0,65200.0,9.269794464111328,1.1150553226470947,-2.2827527523040767
1193,603.0,65300.0,9.327221870422363,1.146162033081055,-2.2923240661621094
1194,604.0,65400.0,9.327221870422363,1.146162033081055,-2.2923240661621094
1195,605.0,65500.0,9.34157943725586,1.107876896858215,-2.266003131866455
1196,606.0,65600.0,9.34157943725586,1.107876896858215,-2.266003131866455
1197,607.0,65700.0,9.34157943725586,1.107876896858215,-2.266003131866455
1198,608.0,65800.0,9.327221870422363,1.0815558433532717,-2.203789472579956
1199,609.0,65900.0,9.327221870422363,1.0815558433532717,-2.203789472579956
1200,600.0,65000.0,9.332008361816406,1.2083754539489746,-2.263610363006592
1201,601.0,65100.0,9.269794464111328,1.1150553226470947,-2.2827527523040767
1202,602.0,65200.0,9.269794464111328,1.1150553226470947,-2.2827527523040767
1203,603.0,65300.0,9.327221870422363,1.146162033081055,-2.2923240661621094
1204,604.0,65400.0,9.327221870422363,1.146162033081055,-2.2923240661621094
1205,605.0,65500.0,9.34157943725586,1.107876896858215,-2.266003131866455
1206,606.0,65600.0,9.34157943725586,1.107876896858215,-2.266003131866455
1207,607.0,65700.0,9.34157943725586,1.107876896858215,-2.266003131866455
1208,608.0,65800.0,9.327221870422363,1.0815558433532717,-2.203789472579956
1209,609.0,65900.0,9.327221870422363,1.0815558433532717,-2.203789472579956
1210,610.0,66000.0,9.351150512695312,1.1724830865859983,-2.368894338607788
1211,611.0,66100.0,9.351150512695312,1.1724830865859983,-2.368894338607788
1212,612.0,66200.0,9.308080673217773,1.1485549211502075,-2.3425734043121342
1213,613.0,66300.0,9.308080673217773,1.1485549211502075,-2.3425734043121342
1214,614.0,66400.0,9.308080673217773,1.1485549211502075,-2.3425734043121342
1215,615.0,66500.0,9.308080673217773,1.179661512374878,-2.3018953800201416
1216,616.0,66600.0,9.308080673217773,1.179661512374878,-2.3018953800201416
1217,617.0,66700.0,9.265008926391602,1.160519003868103,-2.2133607864379883
1218,618.0,66800.0,9.265008926391602,1.160519003868103,-2.2133607864379883
1219,619.0,66900.0,9.265008926391602,1.2035897970199585,-2.3856441974639893
1220,610.0,66000.0,9.351150512695312,1.1724830865859983,-2.368894338607788
1221,611.0,66100.0,9.351150512695312,1.1724830865859983,-2.368894338607788
1222,612.0,66200.0,9.308080673217773,1.1485549211502075,-2.3425734043121342
1223,613.0,66300.0,9.308080673217773,1.1485549211502075,-2.3425734043121342
1224,614.0,66400.0,9.308080673217773,1.1485549211502075,-2.3425734043121342
1225,615.0,66500.0,9.308080673217773,1.179661512374878,-2.3018953800201416
1226,616.0,66600.0,9.308080673217773,1.179661512374878,-2.3018953800201416
1227,617.0,66700.0,9.265008926391602,1.160519003868103,-2.2133607864379883
1228,618.0,66800.0,9.265008926391602,1.160519003868103,-2.2133607864379883
1229,619.0,66900.0,9.265008926391602,1.2035897970199585,-2.3856441974639893
1230,620.0,67000.0,9.265008926391602,1.2035897970199585,-2.3856441974639893
1231,621.0,67100.0,9.265008926391602,1.2035897970199585,-2.3856441974639893
1232,622.0,67200.0,9.31765079498291,1.2083754539489746,-2.337787628173828
1233,623.0,67300.0,9.31765079498291,1.2083754539489746,-2.337787628173828
1234,624.0,67400.0,9.31765079498291,1.1700903177261353,-2.25403904914856
1235,625.0,67500.0,9.31765079498291,1.1700903177261353,-2.25403904914856
1236,626.0,67600.0,9.255437850952148,1.1892328262329102,-2.2827527523040767
1237,627.0,67700.0,9.255437850952148,1.1892328262329102,-2.2827527523040767
1238,628.0,67800.0,9.221939086914062,1.1868400573730469,-2.380858421325684
1239,629.0,67900.0,9.221939086914062,1.1868400573730469,-2.380858421325684
1240,620.0,67000.0,9.265008926391602,1.2035897970199585,-2.3856441974639893
1241,621.0,67100.0,9.265008926391602,1.2035897970199585,-2.3856441974639893
1242,622.0,67200.0,9.31765079498291,1.2083754539489746,-2.337787628173828
1243,623.0,67300.0,9.31765079498291,1.2083754539489746,-2.337787628173828
1244,624.0,67400.0,9.31765079498291,1.1700903177261353,-2.25403904914856
1245,625.0,67500.0,9.31765079498291,1.1700903177261353,-2.25403904914856
1246,626.0,67600.0,9.255437850952148,1.1892328262329102,-2.2827527523040767
1247,627.0,67700.0,9.255437850952148,1.1892328262329102,-2.2827527523040767
1248,628.0,67800.0,9.221939086914062,1.1868400573730469,-2.380858421325684
1249,629.0,67900.0,9.221939086914062,1.1868400573730469,-2.380858421325684
1250,630.0,68000.0,9.221939086914062,1.1868400573730469,-2.380858421325684
1251,631.0,68100.0,9.28893756866455,1.2011969089508057,-2.2707886695861816
1252,632.0,68200.0,9.28893756866455,1.2011969089508057,-2.2707886695861816
1253,633.0,68300.0,9.394222259521484,1.1270195245742798,-2.2947168350219727
1254,634.0,68400.0,9.394222259521484,1.1270195245742798,-2.2947168350219727
1255,635.0,68500.0,9.3128662109375,1.131805181503296,-2.2923240661621094
1256,636.0,68600.0,9.3128662109375,1.131805181503296,-2.2923240661621094
1257,637.0,68700.0,9.3128662109375,1.131805181503296,-2.2923240661621094
1258,638.0,68800.0,9.28893756866455,1.244267821311951,-2.3258235454559326
1259,639.0,68900.0,9.28893756866455,1.244267821311951,-2.3258235454559326
1260,630.0,68000.0,9.221939086914062,1.1868400573730469,-2.380858421325684
1261,631.0,68100.0,9.28893756866455,1.2011969089508057,-2.2707886695861816
1262,632.0,68200.0,9.28893756866455,1.2011969089508057,-2.2707886695861816
1263,633.0,68300.0,9.394222259521484,1.1270195245742798,-2.2947168350219727
1264,634.0,68400.0,9.394222259521484,1.1270195245742798,-2.2947168350219727
1265,635.0,68500.0,9.3128662109375,1.131805181503296,-2.2923240661621094
1266,636.0,68600.0,9.3128662109375,1.131805181503296,-2.2923240661621094
1267,637.0,68700.0,9.3128662109375,1.131805181503296,-2.2923240661621094
1268,638.0,68800.0,9.28893756866455,1.244267821311951,-2.3258235454559326
1269,639.0,68900.0,9.28893756866455,1.244267821311951,-2.3258235454559326
1270,640.0,69000.0,9.332008361816406,1.2370892763137815,-2.335394859313965
1271,641.0,69100.0,9.332008361816406,1.2370892763137815,-2.335394859313965
1272,642.0,69200.0,9.327221870422363,1.196411371231079,-2.2612173557281494
1273,643.0,69300.0,9.327221870422363,1.196411371231079,-2.2612173557281494
1274,644.0,69400.0,9.327221870422363,1.196411371231079,-2.2612173557281494
1275,645.0,69500.0,9.327221870422363,1.210768222808838,-2.2229323387146
1276,646.0,69600.0,9.327221870422363,1.210768222808838,-2.2229323387146
1277,647.0,69700.0,9.274580955505373,1.3471590280532837,-2.3497519493103027
1278,648.0,69800.0,9.274580955505373,1.3471590280532837,-2.3497519493103027
1279,649.0,69900.0,9.279366493225098,1.2993026971817017,-2.344966173171997
1280,640.0,69000.0,9.332008361816406,1.2370892763137815,-2.335394859313965
1281,641.0,69100.0,9.332008361816406,1.2370892763137815,-2.335394859313965
1282,642.0,69200.0,9.327221870422363,1.196411371231079,-2.2612173557281494
1283,643.0,69300.0,9.327221870422363,1.196411371231079,-2.2612173557281494
1284,644.0,69400.0,9.327221870422363,1.196411371231079,-2.2612173557281494
1285,645.0,69500.0,9.327221870422363,1.210768222808838,-2.2229323387146
1286,646.0,69600.0,9.327221870422363,1.210768222808838,-2.2229323387146
1287,647.0,69700.0,9.274580955505373,1.3471590280532837,-2.3497519493103027
1288,648.0,69800.0,9.274580955505373,1.3471590280532837,-2.3497519493103027
1289,649.0,69900.0,9.279366493225098,1.2993026971817017,-2.344966173171997
1290,650.0,70000.0,9.279366493225098,1.2993026971817017,-2.344966173171997
1291,651.0,70100.0,9.279366493225098,1.2993026971817017,-2.344966173171997
1292,652.0,70200.0,9.3128662109375,1.1437692642211914,-2.328216552734375
1293,653.0,70300.0,9.3128662109375,1.1437692642211914,-2.328216552734375
1294,654.0,70400.0,9.3128662109375,1.1533405780792236,-2.3617160320281982
1295,655.0,70500.0,9.3128662109375,1.1533405780792236,-2.3617160320281982
1296,656.0,70600.0,9.322437286376953,1.244267821311951,-2.311466693878174
1297,657.0,70700.0,9.322437286376953,1.244267821311951,-2.311466693878174
1298,658.0,70800.0,9.260223388671877,1.2490534782409668,-2.421536445617676
1299,659.0,70900.0,9.260223388671877,1.2490534782409668,-2.421536445617676
1300,650.0,70000.0,9.279366493225098,1.2993026971817017,-2.344966173171997
1301,651.0,70100.0,9.279366493225098,1.2993026971817017,-2.344966173171997
1302,652.0,70200.0,9.3128662109375,1.1437692642211914,-2.328216552734375
1303,653.0,70300.0,9.3128662109375,1.1437692642211914,-2.328216552734375
1304,654.0,70400.0,9.3128662109375,1.1533405780792236,-2.3617160320281982
1305,655.0,70500.0,9.3128662109375,1.1533405780792236,-2.3617160320281982
1306,656.0,70600.0,9.322437286376953,1.244267821311951,-2.311466693878174
1307,657.0,70700.0,9.322437286376953,1.244267821311951,-2.311466693878174
1308,658.0,70800.0,9.260223388671877,1.2490534782409668,-2.421536445617676
1309,659.0,70900.0,9.260223388671877,1.2490534782409668,-2.421536445617676
1310,660.0,71000.0,9.260223388671877,1.2490534782409668,-2.421536445617676
1311,661.0,71100.0,9.28893756866455,1.227518081665039,-2.311466693878174
1312,662.0,71200.0,9.28893756866455,1.227518081665039,-2.311466693878174
1313,663.0,71300.0,9.269794464111328,1.1988041400909424,-2.280359983444214
1314,664.0,71400.0,9.269794464111328,1.1988041400909424,-2.280359983444214
1315,665.0,71500.0,9.265008926391602,1.1940184831619265,-2.3569302558898926
1316,666.0,71600.0,9.265008926391602,1.1940184831619265,-2.3569302558898926
1317,667.0,71700.0,9.265008926391602,1.1940184831619265,-2.3569302558898926
1318,668.0,71800.0,9.274580955505373,1.191625714302063,-2.364108800888061
1319,669.0,71900.0,9.274580955505373,1.191625714302063,-2.364108800888061
1320,660.0,71000.0,9.260223388671877,1.2490534782409668,-2.421536445617676
1321,661.0,71100.0,9.28893756866455,1.227518081665039,-2.311466693878174
1322,662.0,71200.0,9.28893756866455,1.227518081665039,-2.311466693878174
1323,663.0,71300.0,9.269794464111328,1.1988041400909424,-2.280359983444214
1324,664.0,71400.0,9.269794464111328,1.1988041400909424,-2.280359983444214
1325,665.0,71500.0,9.265008926391602,1.1940184831619265,-2.3569302558898926
1326,666.0,71600.0,9.265008926391602,1.1940184831619265,-2.3569302558898926
1327,667.0,71700.0,9.265008926391602,1.1940184831619265,-2.3569302558898926
1328,668.0,71800.0,9.274580955505373,1.191625714302063,-2.364108800888061
1329,669.0,71900.0,9.274580955505373,1.191625714302063,-2.364108800888061
1330,670.0,72000.0,9.236295700073242,1.196411371231079,-2.352144718170166
1331,671.0,72100.0,9.236295700073242,1.196411371231079,-2.352144718170166
1332,672.0,72200.0,9.293723106384276,1.2299107313156128,-2.4406790733337402
1333,673.0,72300.0,9.293723106384276,1.2299107313156128,-2.4406790733337402
1334,674.0,72400.0,9.293723106384276,1.2299107313156128,-2.4406790733337402
1335,675.0,72500.0,9.327221870422363,1.1988041400909424,-2.376072883605957
1336,676.0,72600.0,9.327221870422363,1.1988041400909424,-2.376072883605957
1337,677.0,72700.0,9.34157943725586,1.2035897970199585,-2.3545374870300293
1338,678.0,72800.0,9.34157943725586,1.2035897970199585,-2.3545374870300293
1339,679.0,72900.0,9.308080673217773,1.1437692642211914,-2.4047868251800537
1340,670.0,72000.0,9.236295700073242,1.196411371231079,-2.352144718170166
1341,671.0,72100.0,9.236295700073242,1.196411371231079,-2.352144718170166
1342,672.0,72200.0,9.293723106384276,1.2299107313156128,-2.4406790733337402
1343,673.0,72300.0,9.293723106384276,1.2299107313156128,-2.4406790733337402
1344,674.0,72400.0,9.293723106384276,1.2299107313156128,-2.4406790733337402
1345,675.0,72500.0,9.327221870422363,1.1988041400909424,-2.376072883605957
1346,676.0,72600.0,9.327221870422363,1.1988041400909424,-2.376072883605957
1347,677.0,72700.0,9.34157943725586,1.2035897970199585,-2.3545374870300293
1348,678.0,72800.0,9.34157943725586,1.2035897970199585,-2.3545374870300293
1349,679.0,72900.0,9.308080673217773,1.1437692642211914,-2.4047868251800537
1350,680.0,73000.0,9.308080673217773,1.1437692642211914,-2.4047868251800537
1351,681.0,73100.0,9.269794464111328,1.2011969089508057,-2.426322221755981
1352,682.0,73200.0,9.269794464111328,1.2011969089508057,-2.426322221755981
1353,683.0,73300.0,9.269794464111328,1.2011969089508057,-2.426322221755981
1354,684.0,73400.0,9.332008361816406,1.2227323055267334,-2.4047868251800537
1355,685.0,73500.0,9.332008361816406,1.2227323055267334,-2.4047868251800537
1356,686.0,73600.0,9.250652313232422,1.1748759746551514,-2.3784656524658203
1357,687.0,73700.0,9.250652313232422,1.1748759746551514,-2.3784656524658203
1358,688.0,73800.0,9.269794464111328,1.244267821311951,-2.376072883605957
1359,689.0,73900.0,9.269794464111328,1.244267821311951,-2.376072883605957
1360,680.0,73000.0,9.308080673217773,1.1437692642211914,-2.4047868251800537
1361,681.0,73100.0,9.269794464111328,1.2011969089508057,-2.426322221755981
1362,682.0,73200.0,9.269794464111328,1.2011969089508057,-2.426322221755981
1363,683.0,73300.0,9.269794464111328,1.2011969089508057,-2.426322221755981
1364,684.0,73400.0,9.332008361816406,1.2227323055267334,-2.4047868251800537
1365,685.0,73500.0,9.332008361816406,1.2227323055267334,-2.4047868251800537
1366,686.0,73600.0,9.250652313232422,1.1748759746551514,-2.3784656524658203
1367,687.0,73700.0,9.250652313232422,1.1748759746551514,-2.3784656524658203
1368,688.0,73800.0,9.269794464111328,1.244267821311951,-2.376072883605957
1369,689.0,73900.0,9.269794464111328,1.244267821311951,-2.376072883605957
1370,690.0,74000.0,9.269794464111328,1.244267821311951,-2.376072883605957
1371,691.0,74100.0,9.279366493225098,1.2251251935958862,-2.328216552734375
1372,692.0,74200.0,9.279366493225098,1.2251251935958862,-2.328216552734375
1373,693.0,74300.0,9.274580955505373,1.146162033081055,-2.352144718170166
1374,694.0,74400.0,9.274580955505373,1.146162033081055,-2.352144718170166
1375,695.0,74500.0,9.28893756866455,1.227518081665039,-2.402393817901612
1376,696.0,74600.0,9.28893756866455,1.227518081665039,-2.402393817901612
1377,697.0,74700.0,9.28893756866455,1.227518081665039,-2.402393817901612
1378,698.0,74800.0,9.269794464111328,1.1365907192230225,-2.321038007736206
1379,699.0,74900.0,9.269794464111328,1.1365907192230225,-2.321038007736206
1380,690.0,74000.0,9.269794464111328,1.244267821311951,-2.376072883605957
1381,691.0,74100.0,9.279366493225098,1.2251251935958862,-2.328216552734375
1382,692.0,74200.0,9.279366493225098,1.2251251935958862,-2.328216552734375
1383,693.0,74300.0,9.274580955505373,1.146162033081055,-2.352144718170166
1384,694.0,74400.0,9.274580955505373,1.146162033081055,-2.352144718170166
1385,695.0,74500.0,9.28893756866455,1.227518081665039,-2.402393817901612
1386,696.0,74600.0,9.28893756866455,1.227518081665039,-2.402393817901612
1387,697.0,74700.0,9.28893756866455,1.227518081665039,-2.402393817901612
1388,698.0,74800.0,9.269794464111328,1.1365907192230225,-2.321038007736206
1389,699.0,74900.0,9.269794464111328,1.1365907192230225,-2.321038007736206
1390,700.0,75000.0,9.308080673217773,1.1581261157989502,-2.328216552734375
1391,701.0,75100.0,9.308080673217773,1.1581261157989502,-2.328216552734375
1392,702.0,75200.0,9.28893756866455,1.1629117727279663,-2.3234307765960693
1393,703.0,75300.0,9.28893756866455,1.1629117727279663,-2.3234307765960693
1394,704.0,75400.0,9.279366493225098,1.107876896858215,-2.2947168350219727
1395,705.0,75500.0,9.279366493225098,1.107876896858215,-2.2947168350219727
1396,706.0,75600.0,9.293723106384276,1.0959126949310305,-2.3401806354522705
1397,707.0,75700.0,9.293723106384276,1.0959126949310305,-2.3401806354522705
1398,708.0,75800.0,9.293723106384276,1.0959126949310305,-2.3401806354522705
1399,709.0,75900.0,9.28893756866455,1.1150553226470947,-2.383251428604126
1400,700.0,75000.0,9.308080673217773,1.1581261157989502,-2.328216552734375
1401,701.0,75100.0,9.308080673217773,1.1581261157989502,-2.328216552734375
1402,702.0,75200.0,9.28893756866455,1.1629117727279663,-2.3234307765960693
1403,703.0,75300.0,9.28893756866455,1.1629117727279663,-2.3234307765960693
1404,704.0,75400.0,9.279366493225098,1.107876896858215,-2.2947168350219727
1405,705.0,75500.0,9.279366493225098,1.107876896858215,-2.2947168350219727
1406,706.0,75600.0,9.293723106384276,1.0959126949310305,-2.3401806354522705
1407,707.0,75700.0,9.293723106384276,1.0959126949310305,-2.3401806354522705
1408,708.0,75800.0,9.293723106384276,1.0959126949310305,-2.3401806354522705
1409,709.0,75900.0,9.28893756866455,1.1150553226470947,-2.383251428604126
1410,710.0,76000.0,9.28893756866455,1.1150553226470947,-2.383251428604126
1411,711.0,76100.0,9.298508644104004,1.146162033081055,-2.263610363006592
1412,712.0,76200.0,9.298508644104004,1.146162033081055,-2.263610363006592
1413,713.0,76300.0,9.298508644104004,1.146162033081055,-2.263610363006592
1414,714.0,76400.0,9.327221870422363,1.2370892763137815,-2.414358139038086
1415,715.0,76500.0,9.327221870422363,1.2370892763137815,-2.414358139038086
1416,716.0,76600.0,9.265008926391602,1.2251251935958862,-2.313859462738037
1417,717.0,76700.0,9.265008926391602,1.2251251935958862,-2.313859462738037
1418,718.0,76800.0,9.322437286376953,1.2299107313156128,-2.3162522315979004
1419,719.0,76900.0,9.322437286376953,1.2299107313156128,-2.3162522315979004
1420,710.0,76000.0,9.28893756866455,1.1150553226470947,-2.383251428604126
1421,711.0,76100.0,9.298508644104004,1.146162033081055,-2.263610363006592
1422,712.0,76200.0,9.298508644104004,1.146162033081055,-2.263610363006592
1423,713.0,76300.0,9.298508644104004,1.146162033081055,-2.263610363006592
1424,714.0,76400.0,9.327221870422363,1.2370892763137815,-2.414358139038086
1425,715.0,76500.0,9.327221870422363,1.2370892763137815,-2.414358139038086
1426,716.0,76600.0,9.265008926391602,1.2251251935958862,-2.313859462738037
1427,717.0,76700.0,9.265008926391602,1.2251251935958862,-2.313859462738037
1428,718.0,76800.0,9.322437286376953,1.2299107313156128,-2.3162522315979004
1429,719.0,76900.0,9.322437286376953,1.2299107313156128,-2.3162522315979004
1430,720.0,77000.0,9.384650230407717,1.2035897970199585,-2.359323024749756
1431,721.0,77100.0,9.384650230407717,1.2035897970199585,-2.359323024749756
1432,722.0,77200.0,9.384650230407717,1.2035897970199585,-2.359323024749756
1433,723.0,77300.0,9.30329418182373,1.2179466485977173,-2.3258235454559326
1434,724.0,77400.0,9.30329418182373,1.2179466485977173,-2.3258235454559326
1435,725.0,77500.0,9.31765079498291,1.2203395366668701,-2.3186452388763428
1436,726.0,77600.0,9.31765079498291,1.2203395366668701,-2.3186452388763428
1437,727.0,77700.0,9.31765079498291,1.2203395366668701,-2.3186452388763428
1438,728.0,77800.0,9.260223388671877,1.1748759746551514,-2.3330020904541016
1439,729.0,77900.0,9.260223388671877,1.1748759746551514,-2.3330020904541016
1440,720.0,77000.0,9.384650230407717,1.2035897970199585,-2.359323024749756
1441,721.0,77100.0,9.384650230407717,1.2035897970199585,-2.359323024749756
1442,722.0,77200.0,9.384650230407717,1.2035897970199585,-2.359323024749756
1443,723.0,77300.0,9.30329418182373,1.2179466485977173,-2.3258235454559326
1444,724.0,77400.0,9.30329418182373,1.2179466485977173,-2.3258235454559326
1445,725.0,77500.0,9.31765079498291,1.2203395366668701,-2.3186452388763428
1446,726.0,77600.0,9.31765079498291,1.2203395366668701,-2.3186452388763428
1447,727.0,77700.0,9.31765079498291,1.2203395366668701,-2.3186452388763428
1448,728.0,77800.0,9.260223388671877,1.1748759746551514,-2.3330020904541016
1449,729.0,77900.0,9.260223388671877,1.1748759746551514,-2.3330020904541016
1450,730.0,78000.0,9.265008926391602,1.2251251935958862,-2.297109842300415
1451,731.0,78100.0,9.265008926391602,1.2251251935958862,-2.297109842300415
1452,732.0,78200.0,9.332008361816406,1.2370892763137815,-2.368894338607788
1453,733.0,78300.0,9.332008361816406,1.2370892763137815,-2.368894338607788
1454,734.0,78400.0,9.293723106384276,1.146162033081055,-2.2779672145843506
1455,735.0,78500.0,9.293723106384276,1.146162033081055,-2.2779672145843506
1456,736.0,78600.0,9.293723106384276,1.146162033081055,-2.2779672145843506
1457,737.0,78700.0,9.3128662109375,1.146162033081055,-2.146361827850342
1458,738.0,78800.0,9.3128662109375,1.146162033081055,-2.146361827850342
1459,739.0,78900.0,9.28893756866455,1.210768222808838,-2.321038007736206
1460,730.0,78000.0,9.265008926391602,1.2251251935958862,-2.297109842300415
1461,731.0,78100.0,9.265008926391602,1.2251251935958862,-2.297109842300415
1462,732.0,78200.0,9.332008361816406,1.2370892763137815,-2.368894338607788
1463,733.0,78300.0,9.332008361816406,1.2370892763137815,-2.368894338607788
1464,734.0,78400.0,9.293723106384276,1.146162033081055,-2.2779672145843506
1465,735.0,78500.0,9.293723106384276,1.146162033081055,-2.2779672145843506
1466,736.0,78600.0,9.293723106384276,1.146162033081055,-2.2779672145843506
1467,737.0,78700.0,9.3128662109375,1.146162033081055,-2.146361827850342
1468,738.0,78800.0,9.3128662109375,1.146162033081055,-2.146361827850342
1469,739.0,78900.0,9.28893756866455,1.210768222808838,-2.321038007736206
1470,740.0,79000.0,9.28893756866455,1.210768222808838,-2.321038007736206
1471,741.0,79100.0,9.28893756866455,1.210768222808838,-2.321038007736206
1472,742.0,79200.0,9.298508644104004,1.1533405780792236,-2.093719720840454
1473,743.0,79300.0,9.298508644104004,1.1533405780792236,-2.093719720840454
1474,744.0,79400.0,9.322437286376953,1.2083754539489746,-2.26839566230774
1475,745.0,79500.0,9.322437286376953,1.2083754539489746,-2.26839566230774
1476,746.0,79600.0,9.332008361816406,1.65583336353302,-2.620140790939331
1477,747.0,79700.0,9.332008361816406,1.65583336353302,-2.620140790939331
1478,748.0,79800.0,9.394222259521484,1.107876896858215,-2.014756679534912
1479,749.0,79900.0,9.394222259521484,1.107876896858215,-2.014756679534912
1480,740.0,79000.0,9.28893756866455,1.210768222808838,-2.321038007736206
1481,741.0,79100.0,9.28893756866455,1.210768222808838,-2.321038007736206
1482,742.0,79200.0,9.298508644104004,1.1533405780792236,-2.093719720840454
1483,743.0,79300.0,9.298508644104004,1.1533405780792236,-2.093719720840454
1484,744.0,79400.0,9.322437286376953,1.2083754539489746,-2.26839566230774
1485,745.0,79500.0,9.322437286376953,1.2083754539489746,-2.26839566230774
1486,746.0,79600.0,9.332008361816406,1.65583336353302,-2.620140790939331
1487,747.0,79700.0,9.332008361816406,1.65583336353302,-2.620140790939331
1488,748.0,79800.0,9.394222259521484,1.107876896858215,-2.014756679534912
1489,749.0,79900.0,9.394222259521484,1.107876896858215,-2.014756679534912
1490,750.0,80000.0,9.394222259521484,1.107876896858215,-2.014756679534912
1491,751.0,80100.0,9.327221870422363,1.2227323055267334,-2.062613010406494
1492,752.0,80200.0,9.327221870422363,1.2227323055267334,-2.062613010406494
1493,753.0,80300.0,9.57607650756836,1.2921242713928225,-2.4430718421936035
1494,754.0,80400.0,9.57607650756836,1.2921242713928225,-2.4430718421936035
1495,755.0,80500.0,9.384650230407717,1.196411371231079,-1.9142580032348635
1496,756.0,80600.0,9.384650230407717,1.196411371231079,-1.9142580032348635
1497,757.0,80700.0,9.384650230407717,1.196411371231079,-1.9142580032348635
1498,758.0,80800.0,9.269794464111328,1.244267821311951,-2.234896183013916
1499,759.0,80900.0,9.269794464111328,1.244267821311951,-2.234896183013916
1500,750.0,80000.0,9.394222259521484,1.107876896858215,-2.014756679534912
1501,751.0,80100.0,9.327221870422363,1.2227323055267334,-2.062613010406494
1502,752.0,80200.0,9.327221870422363,1.2227323055267334,-2.062613010406494
1503,753.0,80300.0,9.57607650756836,1.2921242713928225,-2.4430718421936035
1504,754.0,80400.0,9.57607650756836,1.2921242713928225,-2.4430718421936035
1505,755.0,80500.0,9.384650230407717,1.196411371231079,-1.9142580032348635
1506,756.0,80600.0,9.384650230407717,1.196411371231079,-1.9142580032348635
1507,757.0,80700.0,9.384650230407717,1.196411371231079,-1.9142580032348635
1508,758.0,80800.0,9.269794464111328,1.244267821311951,-2.234896183013916
1509,759.0,80900.0,9.269794464111328,1.244267821311951,-2.234896183013916
1510,760.0,81000.0,9.470791816711426,0.9595218896865844,-1.916650891304016
1511,761.0,81100.0,9.470791816711426,0.9595218896865844,-1.916650891304016
1512,762.0,81200.0,9.422935485839844,1.146162033081055,-2.1367905139923096
1513,763.0,81300.0,9.422935485839844,1.146162033081055,-2.1367905139923096
1514,764.0,81400.0,9.422935485839844,1.146162033081055,-2.1367905139923096
1515,765.0,81500.0,9.370293617248537,1.131805181503296,-2.2133607864379883
1516,766.0,81600.0,9.370293617248537,1.131805181503296,-2.2133607864379883
1517,767.0,81700.0,9.360722541809082,1.0839486122131348,-2.1583259105682373
1518,768.0,81800.0,9.360722541809082,1.0839486122131348,-2.1583259105682373
1519,769.0,81900.0,9.351150512695312,1.0456634759902954,-2.1846470832824707
1520,760.0,81000.0,9.470791816711426,0.9595218896865844,-1.916650891304016
1521,761.0,81100.0,9.470791816711426,0.9595218896865844,-1.916650891304016
1522,762.0,81200.0,9.422935485839844,1.146162033081055,-2.1367905139923096
1523,763.0,81300.0,9.422935485839844,1.146162033081055,-2.1367905139923096
1524,764.0,81400.0,9.422935485839844,1.146162033081055,-2.1367905139923096
1525,765.0,81500.0,9.370293617248537,1.131805181503296,-2.2133607864379883
1526,766.0,81600.0,9.370293617248537,1.131805181503296,-2.2133607864379883
1527,767.0,81700.0,9.360722541809082,1.0839486122131348,-2.1583259105682373
1528,768.0,81800.0,9.360722541809082,1.0839486122131348,-2.1583259105682373
1529,769.0,81900.0,9.351150512695312,1.0456634759902954,-2.1846470832824707
1530,770.0,82000.0,9.351150512695312,1.0456634759902954,-2.1846470832824707
1531,771.0,82100.0,9.351150512695312,1.0456634759902954,-2.1846470832824707
1532,772.0,82200.0,9.322437286376953,1.1102697849273682,-2.225324869155884
1533,773.0,82300.0,9.322437286376953,1.1102697849273682,-2.225324869155884
1534,774.0,82400.0,9.30329418182373,1.3184452056884766,-2.2923240661621094
1535,775.0,82500.0,9.30329418182373,1.3184452056884766,-2.2923240661621094
1536,776.0,82600.0,9.384650230407717,1.0863415002822876,-2.210968255996704
1537,777.0,82700.0,9.384650230407717,1.0863415002822876,-2.210968255996704
1538,778.0,82800.0,9.384650230407717,1.0863415002822876,-2.210968255996704
1539,779.0,82900.0,9.351150512695312,1.1389836072921753,-2.069791555404663
1540,770.0,82000.0,9.351150512695312,1.0456634759902954,-2.1846470832824707
1541,771.0,82100.0,9.351150512695312,1.0456634759902954,-2.1846470832824707
1542,772.0,82200.0,9.322437286376953,1.1102697849273682,-2.225324869155884
1543,773.0,82300.0,9.322437286376953,1.1102697849273682,-2.225324869155884
1544,774.0,82400.0,9.30329418182373,1.3184452056884766,-2.2923240661621094
1545,775.0,82500.0,9.30329418182373,1.3184452056884766,-2.2923240661621094
1546,776.0,82600.0,9.384650230407717,1.0863415002822876,-2.210968255996704
1547,777.0,82700.0,9.384650230407717,1.0863415002822876,-2.210968255996704
1548,778.0,82800.0,9.384650230407717,1.0863415002822876,-2.210968255996704
1549,779.0,82900.0,9.351150512695312,1.1389836072921753,-2.069791555404663
1550,780.0,83000.0,9.351150512695312,1.1389836072921753,-2.069791555404663
1551,781.0,83100.0,9.3128662109375,1.0863415002822876,-2.210968255996704
1552,782.0,83200.0,9.3128662109375,1.0863415002822876,-2.210968255996704
1553,783.0,83300.0,9.346364974975586,1.1629117727279663,-2.297109842300415
1554,784.0,83400.0,9.346364974975586,1.1629117727279663,-2.297109842300415
1555,785.0,83500.0,9.346364974975586,1.1629117727279663,-2.297109842300415
1556,786.0,83600.0,9.30329418182373,1.131805181503296,-2.232503652572632
1557,787.0,83700.0,9.30329418182373,1.131805181503296,-2.232503652572632
1558,788.0,83800.0,9.365508079528807,1.0959126949310305,-2.0721843242645264
1559,789.0,83900.0,9.365508079528807,1.0959126949310305,-2.0721843242645264
1560,780.0,83000.0,9.351150512695312,1.1389836072921753,-2.069791555404663
1561,781.0,83100.0,9.3128662109375,1.0863415002822876,-2.210968255996704
1562,782.0,83200.0,9.3128662109375,1.0863415002822876,-2.210968255996704
1563,783.0,83300.0,9.346364974975586,1.1629117727279663,-2.297109842300415
1564,784.0,83400.0,9.346364974975586,1.1629117727279663,-2.297109842300415
1565,785.0,83500.0,9.346364974975586,1.1629117727279663,-2.297109842300415
1566,786.0,83600.0,9.30329418182373,1.131805181503296,-2.232503652572632
1567,787.0,83700.0,9.30329418182373,1.131805181503296,-2.232503652572632
1568,788.0,83800.0,9.365508079528807,1.0959126949310305,-2.0721843242645264
1569,789.0,83900.0,9.365508079528807,1.0959126949310305,-2.0721843242645264
1570,790.0,84000.0,9.346364974975586,1.0887343883514404,-2.12961220741272
1571,791.0,84100.0,9.346364974975586,1.0887343883514404,-2.12961220741272
1572,792.0,84200.0,9.432506561279297,1.124626636505127,-2.1128623485565186
1573,793.0,84300.0,9.432506561279297,1.124626636505127,-2.1128623485565186
1574,794.0,84400.0,9.322437286376953,1.1533405780792236,-2.1750757694244385
1575,795.0,84500.0,9.322437286376953,1.1533405780792236,-2.1750757694244385
1576,796.0,84600.0,9.322437286376953,1.1533405780792236,-2.1750757694244385
1577,797.0,84700.0,9.360722541809082,1.1341978311538696,-2.2205395698547363
1578,798.0,84800.0,9.360722541809082,1.1341978311538696,-2.2205395698547363
1579,799.0,84900.0,9.31765079498291,1.0887343883514404,-2.12961220741272
1580,790.0,84000.0,9.346364974975586,1.0887343883514404,-2.12961220741272
1581,791.0,84100.0,9.346364974975586,1.0887343883514404,-2.12961220741272
1582,792.0,84200.0,9.432506561279297,1.124626636505127,-2.1128623485565186
1583,793.0,84300.0,9.432506561279297,1.124626636505127,-2.1128623485565186
1584,794.0,84400.0,9.322437286376953,1.1533405780792236,-2.1750757694244385
1585,795.0,84500.0,9.322437286376953,1.1533405780792236,-2.1750757694244385
1586,796.0,84600.0,9.322437286376953,1.1533405780792236,-2.1750757694244385
1587,797.0,84700.0,9.360722541809082,1.1341978311538696,-2.2205395698547363
1588,798.0,84800.0,9.360722541809082,1.1341978311538696,-2.2205395698547363
1589,799.0,84900.0,9.31765079498291,1.0887343883514404,-2.12961220741272
1590,800.0,85000.0,9.31765079498291,1.0887343883514404,-2.12961220741272
1591,801.0,85100.0,9.332008361816406,1.0911270380020142,-2.225324869155884
1592,802.0,85200.0,9.332008361816406,1.0911270380020142,-2.225324869155884
1593,803.0,85300.0,9.379864692687988,1.0384850502014158,-2.187039852142334
1594,804.0,85400.0,9.379864692687988,1.0384850502014158,-2.187039852142334
1595,805.0,85500.0,9.38943576812744,1.0600204467773438,-2.210968255996704
1596,806.0,85600.0,9.38943576812744,1.0600204467773438,-2.210968255996704
1597,807.0,85700.0,9.38943576812744,1.0600204467773438,-2.210968255996704
1598,808.0,85800.0,9.31765079498291,1.0695916414260864,-2.1918253898620605
1599,809.0,85900.0,9.31765079498291,1.0695916414260864,-2.1918253898620605
1600,800.0,85000.0,9.31765079498291,1.0887343883514404,-2.12961220741272
1601,801.0,85100.0,9.332008361816406,1.0911270380020142,-2.225324869155884
1602,802.0,85200.0,9.332008361816406,1.0911270380020142,-2.225324869155884
1603,803.0,85300.0,9.379864692687988,1.0384850502014158,-2.187039852142334
1604,804.0,85400.0,9.379864692687988,1.0384850502014158,-2.187039852142334
1605,805.0,85500.0,9.38943576812744,1.0600204467773438,-2.210968255996704
1606,806.0,85600.0,9.38943576812744,1.0600204467773438,-2.210968255996704
1607,807.0,85700.0,9.38943576812744,1.0600204467773438,-2.210968255996704
1608,808.0,85800.0,9.31765079498291,1.0695916414260864,-2.1918253898620605
1609,809.0,85900.0,9.31765079498291,1.0695916414260864,-2.1918253898620605
1610,810.0,86000.0,9.332008361816406,1.1150553226470947,-2.227717876434326
1611,811.0,86100.0,9.332008361816406,1.1150553226470947,-2.227717876434326
1612,812.0,86200.0,9.332008361816406,1.1150553226470947,-2.227717876434326
1613,813.0,86300.0,9.365508079528807,1.0911270380020142,-2.1655044555664062
1614,814.0,86400.0,9.365508079528807,1.0911270380020142,-2.1655044555664062
1615,815.0,86500.0,9.365508079528807,1.0983055830001829,-2.26839566230774
1616,816.0,86600.0,9.365508079528807,1.0983055830001829,-2.26839566230774
1617,817.0,86700.0,9.336793899536133,1.1389836072921753,-2.234896183013916
1618,818.0,86800.0,9.336793899536133,1.1389836072921753,-2.234896183013916
