,Unnamed: 0,timestamp,ax,ay,az
0,0.0,5000.0,9.121439933776855,1.4045867919921875,-3.4265220165252686
1,1.0,5100.0,9.121439933776855,1.4045867919921875,-3.4265220165252686
2,2.0,5200.0,9.121439933776855,1.4045867919921875,-3.4265220165252686
3,3.0,5300.0,9.346364974975586,0.8997013568878174,-3.249453067779541
4,4.0,5400.0,9.346364974975586,0.8997013568878174,-3.249453067779541
5,5.0,5500.0,9.346364974975586,0.8997013568878174,-3.249453067779541
6,6.0,5600.0,9.087940216064453,1.215553879737854,-2.919243574142456
7,7.0,5700.0,9.087940216064453,1.215553879737854,-2.919243574142456
8,8.0,5800.0,9.198010444641113,1.043270707130432,-2.964707374572754
9,9.0,5900.0,9.198010444641113,1.043270707130432,-2.964707374572754
10,10.0,6000.0,9.198010444641113,1.043270707130432,-2.964707374572754
11,11.0,6100.0,9.193224906921387,1.0456634759902954,-2.96949315071106
12,12.0,6200.0,9.193224906921387,1.0456634759902954,-2.96949315071106
13,13.0,6300.0,9.28893756866455,1.2011969089508057,-2.801995038986206
14,14.0,6400.0,9.28893756866455,1.2011969089508057,-2.801995038986206
15,15.0,6500.0,9.17886734008789,0.9332008361816406,-2.7804601192474365
16,16.0,6600.0,9.17886734008789,0.9332008361816406,-2.7804601192474365
17,17.0,6700.0,9.073582649230957,1.0959126949310305,-2.768495798110962
18,18.0,6800.0,9.073582649230957,1.0959126949310305,-2.768495798110962
19,19.0,6900.0,9.4660062789917,1.155733346939087,-2.801995038986206
20,20.0,7000.0,9.4660062789917,1.155733346939087,-2.801995038986206
21,21.0,7100.0,9.4660062789917,1.155733346939087,-2.801995038986206
22,22.0,7200.0,9.284152030944824,0.9643075466156006,-2.768495798110962
23,23.0,7300.0,9.284152030944824,0.9643075466156006,-2.768495798110962
24,24.0,7400.0,9.135796546936037,1.0408778190612793,-2.84506630897522
25,25.0,7500.0,9.135796546936037,1.0408778190612793,-2.84506630897522
26,26.0,7600.0,9.135796546936037,1.0408778190612793,-2.84506630897522
27,27.0,7700.0,9.28893756866455,1.057627558708191,-3.050848960876465
28,28.0,7800.0,9.28893756866455,1.057627558708191,-3.050848960876465
29,29.0,7900.0,9.121439933776855,0.9858429431915284,-3.005385160446167
30,15.0,6500.0,9.17886734008789,0.9332008361816406,-2.7804601192474365
31,16.0,6600.0,9.17886734008789,0.9332008361816406,-2.7804601192474365
32,17.0,6700.0,9.073582649230957,1.0959126949310305,-2.768495798110962
33,18.0,6800.0,9.073582649230957,1.0959126949310305,-2.768495798110962
34,19.0,6900.0,9.4660062789917,1.155733346939087,-2.801995038986206
35,20.0,7000.0,9.4660062789917,1.155733346939087,-2.801995038986206
36,21.0,7100.0,9.4660062789917,1.155733346939087,-2.801995038986206
37,22.0,7200.0,9.284152030944824,0.9643075466156006,-2.768495798110962
38,23.0,7300.0,9.284152030944824,0.9643075466156006,-2.768495798110962
39,24.0,7400.0,9.135796546936037,1.0408778190612793,-2.84506630897522
40,25.0,7500.0,9.135796546936037,1.0408778190612793,-2.84506630897522
41,26.0,7600.0,9.135796546936037,1.0408778190612793,-2.84506630897522
42,27.0,7700.0,9.28893756866455,1.057627558708191,-3.050848960876465
43,28.0,7800.0,9.28893756866455,1.057627558708191,-3.050848960876465
44,29.0,7900.0,9.121439933776855,0.9858429431915284,-3.005385160446167
45,30.0,8000.0,9.121439933776855,0.9858429431915284,-3.005385160446167
46,31.0,8100.0,9.054441452026367,0.8374879360198975,-2.9216365814208984
47,32.0,8200.0,9.054441452026367,0.8374879360198975,-2.9216365814208984
48,33.0,8300.0,9.054441452026367,0.8374879360198975,-2.9216365814208984
49,34.0,8400.0,9.06401252746582,1.117448091506958,-3.192025184631348
50,35.0,8500.0,9.06401252746582,1.117448091506958,-3.192025184631348
51,36.0,8600.0,8.920442581176758,1.062413215637207,-2.71346116065979
52,37.0,8700.0,8.920442581176758,1.062413215637207,-2.71346116065979
53,38.0,8800.0,9.231510162353516,0.6364907622337341,-3.0628128051757812
54,39.0,8900.0,9.231510162353516,0.6364907622337341,-3.0628128051757812
55,40.0,9000.0,9.231510162353516,0.6364907622337341,-3.0628128051757812
56,41.0,9100.0,9.097511291503906,0.7106683850288391,-2.9168508052825928
57,42.0,9200.0,9.097511291503906,0.7106683850288391,-2.9168508052825928
58,43.0,9300.0,9.087940216064453,0.1052841916680336,-2.117647886276245
59,44.0,9400.0,9.087940216064453,0.1052841916680336,-2.117647886276245
60,30.0,8000.0,9.121439933776855,0.9858429431915284,-3.005385160446167
61,31.0,8100.0,9.054441452026367,0.8374879360198975,-2.9216365814208984
62,32.0,8200.0,9.054441452026367,0.8374879360198975,-2.9216365814208984
63,33.0,8300.0,9.054441452026367,0.8374879360198975,-2.9216365814208984
64,34.0,8400.0,9.06401252746582,1.117448091506958,-3.192025184631348
65,35.0,8500.0,9.06401252746582,1.117448091506958,-3.192025184631348
66,36.0,8600.0,8.920442581176758,1.062413215637207,-2.71346116065979
67,37.0,8700.0,8.920442581176758,1.062413215637207,-2.71346116065979
68,38.0,8800.0,9.231510162353516,0.6364907622337341,-3.0628128051757812
69,39.0,8900.0,9.231510162353516,0.6364907622337341,-3.0628128051757812
70,40.0,9000.0,9.231510162353516,0.6364907622337341,-3.0628128051757812
71,41.0,9100.0,9.097511291503906,0.7106683850288391,-2.9168508052825928
72,42.0,9200.0,9.097511291503906,0.7106683850288391,-2.9168508052825928
73,43.0,9300.0,9.087940216064453,0.1052841916680336,-2.117647886276245
74,44.0,9400.0,9.087940216064453,0.1052841916680336,-2.117647886276245
75,45.0,9500.0,9.21715259552002,0.5766702890396118,-3.012563943862915
76,46.0,9600.0,9.21715259552002,0.5766702890396118,-3.012563943862915
77,47.0,9700.0,9.21715259552002,0.5766702890396118,-3.012563943862915
78,48.0,9800.0,9.31765079498291,0.7657032012939453,-2.945564746856689
79,49.0,9900.0,9.31765079498291,0.7657032012939453,-2.945564746856689
80,50.0,10000.0,9.260223388671877,0.4067798554897308,-3.0963122844696045
81,51.0,10100.0,9.260223388671877,0.4067798554897308,-3.0963122844696045
82,52.0,10200.0,9.18843936920166,0.4163511395454407,-2.943171739578247
83,53.0,10300.0,9.18843936920166,0.4163511395454407,-2.943171739578247
84,54.0,10400.0,9.18843936920166,0.4163511395454407,-2.943171739578247
85,55.0,10500.0,9.111868858337402,0.41156551241874695,-3.005385160446167
86,56.0,10600.0,9.111868858337402,0.41156551241874695,-3.005385160446167
87,57.0,10700.0,9.231510162353516,0.4091726541519165,-2.995814085006714
88,58.0,10800.0,9.231510162353516,0.4091726541519165,-2.995814085006714
89,59.0,10900.0,9.10229778289795,0.3852444589138031,-2.9527432918548584
90,45.0,9500.0,9.21715259552002,0.5766702890396118,-3.012563943862915
91,46.0,9600.0,9.21715259552002,0.5766702890396118,-3.012563943862915
92,47.0,9700.0,9.21715259552002,0.5766702890396118,-3.012563943862915
93,48.0,9800.0,9.31765079498291,0.7657032012939453,-2.945564746856689
94,49.0,9900.0,9.31765079498291,0.7657032012939453,-2.945564746856689
95,50.0,10000.0,9.260223388671877,0.4067798554897308,-3.0963122844696045
96,51.0,10100.0,9.260223388671877,0.4067798554897308,-3.0963122844696045
97,52.0,10200.0,9.18843936920166,0.4163511395454407,-2.943171739578247
98,53.0,10300.0,9.18843936920166,0.4163511395454407,-2.943171739578247
99,54.0,10400.0,9.18843936920166,0.4163511395454407,-2.943171739578247
100,55.0,10500.0,9.111868858337402,0.41156551241874695,-3.005385160446167
101,56.0,10600.0,9.111868858337402,0.41156551241874695,-3.005385160446167
102,57.0,10700.0,9.231510162353516,0.4091726541519165,-2.995814085006714
103,58.0,10800.0,9.231510162353516,0.4091726541519165,-2.995814085006714
104,59.0,10900.0,9.10229778289795,0.3852444589138031,-2.9527432918548584
105,60.0,11000.0,9.10229778289795,0.3852444589138031,-2.9527432918548584
106,61.0,11100.0,9.360722541809082,0.6532405614852905,-2.8666017055511475
107,62.0,11200.0,9.360722541809082,0.6532405614852905,-2.8666017055511475
108,63.0,11300.0,9.360722541809082,0.6532405614852905,-2.8666017055511475
109,64.0,11400.0,9.097511291503906,0.6675975918769836,-2.7254250049591064
110,65.0,11500.0,9.097511291503906,0.6675975918769836,-2.7254250049591064
111,66.0,11600.0,9.035298347473145,0.3182453811168671,-2.7732813358306885
112,67.0,11700.0,9.035298347473145,0.3182453811168671,-2.7732813358306885
113,68.0,11800.0,9.207581520080566,0.5766702890396118,-2.7661027908325195
114,69.0,11900.0,9.207581520080566,0.5766702890396118,-2.7661027908325195
115,70.0,12000.0,9.226724624633787,0.5623133182525635,-2.8594231605529785
116,71.0,12100.0,9.226724624633787,0.5623133182525635,-2.8594231605529785
117,72.0,12200.0,9.226724624633787,0.5623133182525635,-2.8594231605529785
118,73.0,12300.0,9.31765079498291,0.5958128571510315,-2.687139749526977
119,74.0,12400.0,9.31765079498291,0.5958128571510315,-2.687139749526977
120,60.0,11000.0,9.10229778289795,0.3852444589138031,-2.9527432918548584
121,61.0,11100.0,9.360722541809082,0.6532405614852905,-2.8666017055511475
122,62.0,11200.0,9.360722541809082,0.6532405614852905,-2.8666017055511475
123,63.0,11300.0,9.360722541809082,0.6532405614852905,-2.8666017055511475
124,64.0,11400.0,9.097511291503906,0.6675975918769836,-2.7254250049591064
125,65.0,11500.0,9.097511291503906,0.6675975918769836,-2.7254250049591064
126,66.0,11600.0,9.035298347473145,0.3182453811168671,-2.7732813358306885
127,67.0,11700.0,9.035298347473145,0.3182453811168671,-2.7732813358306885
128,68.0,11800.0,9.207581520080566,0.5766702890396118,-2.7661027908325195
129,69.0,11900.0,9.207581520080566,0.5766702890396118,-2.7661027908325195
130,70.0,12000.0,9.226724624633787,0.5623133182525635,-2.8594231605529785
131,71.0,12100.0,9.226724624633787,0.5623133182525635,-2.8594231605529785
132,72.0,12200.0,9.226724624633787,0.5623133182525635,-2.8594231605529785
133,73.0,12300.0,9.31765079498291,0.5958128571510315,-2.687139749526977
134,74.0,12400.0,9.31765079498291,0.5958128571510315,-2.687139749526977
135,75.0,12500.0,9.250652313232422,0.5048855543136597,-2.778067111968994
136,76.0,12600.0,9.250652313232422,0.5048855543136597,-2.778067111968994
137,77.0,12700.0,9.18843936920166,0.6245267391204834,-2.730210542678833
138,78.0,12800.0,9.18843936920166,0.6245267391204834,-2.730210542678833
139,79.0,12900.0,9.18843936920166,0.6245267391204834,-2.730210542678833
140,80.0,13000.0,9.375079154968262,0.6604190468788147,-2.900100946426392
141,81.0,13100.0,9.375079154968262,0.6604190468788147,-2.900100946426392
142,82.0,13200.0,9.164510726928713,0.6412764191627502,-2.749353408813477
143,83.0,13300.0,9.164510726928713,0.6412764191627502,-2.749353408813477
144,84.0,13400.0,9.111868858337402,0.662811815738678,-2.9527432918548584
145,85.0,13500.0,9.111868858337402,0.662811815738678,-2.9527432918548584
146,86.0,13600.0,9.145368576049805,0.794417142868042,-2.7732813358306885
147,87.0,13700.0,9.145368576049805,0.794417142868042,-2.7732813358306885
148,88.0,13800.0,9.145368576049805,0.794417142868042,-2.7732813358306885
149,89.0,13900.0,9.18843936920166,0.6699903011322021,-3.117847919464112
150,75.0,12500.0,9.250652313232422,0.5048855543136597,-2.778067111968994
151,76.0,12600.0,9.250652313232422,0.5048855543136597,-2.778067111968994
152,77.0,12700.0,9.18843936920166,0.6245267391204834,-2.730210542678833
153,78.0,12800.0,9.18843936920166,0.6245267391204834,-2.730210542678833
154,79.0,12900.0,9.18843936920166,0.6245267391204834,-2.730210542678833
155,80.0,13000.0,9.375079154968262,0.6604190468788147,-2.900100946426392
156,81.0,13100.0,9.375079154968262,0.6604190468788147,-2.900100946426392
157,82.0,13200.0,9.164510726928713,0.6412764191627502,-2.749353408813477
158,83.0,13300.0,9.164510726928713,0.6412764191627502,-2.749353408813477
159,84.0,13400.0,9.111868858337402,0.662811815738678,-2.9527432918548584
160,85.0,13500.0,9.111868858337402,0.662811815738678,-2.9527432918548584
161,86.0,13600.0,9.145368576049805,0.794417142868042,-2.7732813358306885
162,87.0,13700.0,9.145368576049805,0.794417142868042,-2.7732813358306885
163,88.0,13800.0,9.145368576049805,0.794417142868042,-2.7732813358306885
164,89.0,13900.0,9.18843936920166,0.6699903011322021,-3.117847919464112
165,90.0,14000.0,9.18843936920166,0.6699903011322021,-3.117847919464112
166,91.0,14100.0,9.485149383544922,0.7824530005455017,-2.964707374572754
167,92.0,14200.0,9.485149383544922,0.7824530005455017,-2.964707374572754
168,93.0,14300.0,9.485149383544922,0.7824530005455017,-2.964707374572754
169,94.0,14400.0,9.150154113769533,0.935593605041504,-2.945564746856689
170,95.0,14500.0,9.150154113769533,0.935593605041504,-2.945564746856689
171,96.0,14600.0,9.073582649230957,0.6508477926254272,-2.9527432918548584
172,97.0,14700.0,9.073582649230957,0.6508477926254272,-2.9527432918548584
173,98.0,14800.0,9.245866775512695,0.7896314859390259,-2.8929224014282227
174,99.0,14900.0,9.245866775512695,0.7896314859390259,-2.8929224014282227
175,100.0,15000.0,9.17886734008789,1.0073783397674558,-2.8713872432708736
176,101.0,15100.0,9.17886734008789,1.0073783397674558,-2.8713872432708736
177,102.0,15200.0,9.17886734008789,1.0073783397674558,-2.8713872432708736
178,103.0,15300.0,9.231510162353516,0.8853443264961243,-2.9766712188720703
179,104.0,15400.0,9.231510162353516,0.8853443264961243,-2.9766712188720703
180,90.0,14000.0,9.18843936920166,0.6699903011322021,-3.117847919464112
181,91.0,14100.0,9.485149383544922,0.7824530005455017,-2.964707374572754
182,92.0,14200.0,9.485149383544922,0.7824530005455017,-2.964707374572754
183,93.0,14300.0,9.485149383544922,0.7824530005455017,-2.964707374572754
184,94.0,14400.0,9.150154113769533,0.935593605041504,-2.945564746856689
185,95.0,14500.0,9.150154113769533,0.935593605041504,-2.945564746856689
186,96.0,14600.0,9.073582649230957,0.6508477926254272,-2.9527432918548584
187,97.0,14700.0,9.073582649230957,0.6508477926254272,-2.9527432918548584
188,98.0,14800.0,9.245866775512695,0.7896314859390259,-2.8929224014282227
189,99.0,14900.0,9.245866775512695,0.7896314859390259,-2.8929224014282227
190,100.0,15000.0,9.17886734008789,1.0073783397674558,-2.8713872432708736
191,101.0,15100.0,9.17886734008789,1.0073783397674558,-2.8713872432708736
192,102.0,15200.0,9.17886734008789,1.0073783397674558,-2.8713872432708736
193,103.0,15300.0,9.231510162353516,0.8853443264961243,-2.9766712188720703
194,104.0,15400.0,9.231510162353516,0.8853443264961243,-2.9766712188720703
195,105.0,15500.0,9.269794464111328,0.7537391781806946,-2.7972097396850586
196,106.0,15600.0,9.269794464111328,0.7537391781806946,-2.7972097396850586
197,107.0,15700.0,9.269794464111328,0.7537391781806946,-2.7972097396850586
198,108.0,15800.0,9.207581520080566,0.818345308303833,-2.7876384258270264
199,109.0,15900.0,9.207581520080566,0.818345308303833,-2.7876384258270264
200,110.0,16000.0,9.231510162353516,0.8805587291717529,-2.861815929412842
201,111.0,16100.0,9.231510162353516,0.8805587291717529,-2.861815929412842
202,112.0,16200.0,9.207581520080566,0.916451096534729,-2.8713872432708736
203,113.0,16300.0,9.207581520080566,0.916451096534729,-2.8713872432708736
204,114.0,16400.0,9.193224906921387,0.9020940661430359,-2.8713872432708736
205,115.0,16500.0,9.193224906921387,0.9020940661430359,-2.8713872432708736
206,116.0,16600.0,9.193224906921387,0.9020940661430359,-2.8713872432708736
207,117.0,16700.0,9.3128662109375,0.8446664214134216,-2.9862425327301025
208,118.0,16800.0,9.3128662109375,0.8446664214134216,-2.9862425327301025
209,119.0,16900.0,9.28893756866455,0.8901299238204956,-2.71346116065979
210,105.0,15500.0,9.269794464111328,0.7537391781806946,-2.7972097396850586
211,106.0,15600.0,9.269794464111328,0.7537391781806946,-2.7972097396850586
212,107.0,15700.0,9.269794464111328,0.7537391781806946,-2.7972097396850586
213,108.0,15800.0,9.207581520080566,0.818345308303833,-2.7876384258270264
214,109.0,15900.0,9.207581520080566,0.818345308303833,-2.7876384258270264
215,110.0,16000.0,9.231510162353516,0.8805587291717529,-2.861815929412842
216,111.0,16100.0,9.231510162353516,0.8805587291717529,-2.861815929412842
217,112.0,16200.0,9.207581520080566,0.916451096534729,-2.8713872432708736
218,113.0,16300.0,9.207581520080566,0.916451096534729,-2.8713872432708736
219,114.0,16400.0,9.193224906921387,0.9020940661430359,-2.8713872432708736
220,115.0,16500.0,9.193224906921387,0.9020940661430359,-2.8713872432708736
221,116.0,16600.0,9.193224906921387,0.9020940661430359,-2.8713872432708736
222,117.0,16700.0,9.3128662109375,0.8446664214134216,-2.9862425327301025
223,118.0,16800.0,9.3128662109375,0.8446664214134216,-2.9862425327301025
224,119.0,16900.0,9.28893756866455,0.8901299238204956,-2.71346116065979
225,120.0,17000.0,9.28893756866455,0.8901299238204956,-2.71346116065979
226,121.0,17100.0,9.15493869781494,0.8757730722427368,-2.991028308868408
227,122.0,17200.0,9.15493869781494,0.8757730722427368,-2.991028308868408
228,123.0,17300.0,9.250652313232422,0.8446664214134216,-2.9862425327301025
229,124.0,17400.0,9.250652313232422,0.8446664214134216,-2.9862425327301025
230,125.0,17500.0,9.250652313232422,0.8446664214134216,-2.9862425327301025
231,126.0,17600.0,9.260223388671877,0.861416220664978,-2.8546373844146733
232,127.0,17700.0,9.260223388671877,0.861416220664978,-2.8546373844146733
233,128.0,17800.0,9.269794464111328,0.8733802437782288,-2.809173583984375
234,129.0,17900.0,9.269794464111328,0.8733802437782288,-2.809173583984375
235,130.0,18000.0,9.17886734008789,0.8542376756668091,-2.816352128982544
236,131.0,18100.0,9.17886734008789,0.8542376756668091,-2.816352128982544
237,132.0,18200.0,9.078369140625,0.9882357716560364,-2.8378877639770512
238,133.0,18300.0,9.078369140625,0.9882357716560364,-2.8378877639770512
239,134.0,18400.0,9.078369140625,0.9882357716560364,-2.8378877639770512
240,120.0,17000.0,9.28893756866455,0.8901299238204956,-2.71346116065979
241,121.0,17100.0,9.15493869781494,0.8757730722427368,-2.991028308868408
242,122.0,17200.0,9.15493869781494,0.8757730722427368,-2.991028308868408
243,123.0,17300.0,9.250652313232422,0.8446664214134216,-2.9862425327301025
244,124.0,17400.0,9.250652313232422,0.8446664214134216,-2.9862425327301025
245,125.0,17500.0,9.250652313232422,0.8446664214134216,-2.9862425327301025
246,126.0,17600.0,9.260223388671877,0.861416220664978,-2.8546373844146733
247,127.0,17700.0,9.260223388671877,0.861416220664978,-2.8546373844146733
248,128.0,17800.0,9.269794464111328,0.8733802437782288,-2.809173583984375
249,129.0,17900.0,9.269794464111328,0.8733802437782288,-2.809173583984375
250,130.0,18000.0,9.17886734008789,0.8542376756668091,-2.816352128982544
251,131.0,18100.0,9.17886734008789,0.8542376756668091,-2.816352128982544
252,132.0,18200.0,9.078369140625,0.9882357716560364,-2.8378877639770512
253,133.0,18300.0,9.078369140625,0.9882357716560364,-2.8378877639770512
254,134.0,18400.0,9.078369140625,0.9882357716560364,-2.8378877639770512
255,135.0,18500.0,9.054441452026367,1.1509476900100708,-3.1058835983276367
256,136.0,18600.0,9.054441452026367,1.1509476900100708,-3.1058835983276367
257,137.0,18700.0,9.265008926391602,1.2634103298187256,-2.8498516082763667
258,138.0,18800.0,9.265008926391602,1.2634103298187256,-2.8498516082763667
259,139.0,18900.0,9.265008926391602,1.2634103298187256,-2.8498516082763667
260,140.0,19000.0,9.193224906921387,1.4404792785644531,-2.885744333267212
261,141.0,19100.0,9.193224906921387,1.4404792785644531,-2.885744333267212
262,142.0,19200.0,9.040083885192873,1.5960125923156738,-2.7900311946868896
263,143.0,19300.0,9.040083885192873,1.5960125923156738,-2.7900311946868896
264,144.0,19400.0,9.15493869781494,1.6989041566848757,-2.833101987838745
265,145.0,19500.0,9.15493869781494,1.6989041566848757,-2.833101987838745
266,146.0,19600.0,9.011369705200195,1.8161523342132568,-2.5842485427856445
267,147.0,19700.0,9.011369705200195,1.8161523342132568,-2.5842485427856445
268,148.0,19800.0,9.011369705200195,1.8161523342132568,-2.5842485427856445
269,149.0,19900.0,9.31765079498291,1.6797614097595217,-2.878565788269043
270,135.0,18500.0,9.054441452026367,1.1509476900100708,-3.1058835983276367
271,136.0,18600.0,9.054441452026367,1.1509476900100708,-3.1058835983276367
272,137.0,18700.0,9.265008926391602,1.2634103298187256,-2.8498516082763667
273,138.0,18800.0,9.265008926391602,1.2634103298187256,-2.8498516082763667
274,139.0,18900.0,9.265008926391602,1.2634103298187256,-2.8498516082763667
275,140.0,19000.0,9.193224906921387,1.4404792785644531,-2.885744333267212
276,141.0,19100.0,9.193224906921387,1.4404792785644531,-2.885744333267212
277,142.0,19200.0,9.040083885192873,1.5960125923156738,-2.7900311946868896
278,143.0,19300.0,9.040083885192873,1.5960125923156738,-2.7900311946868896
279,144.0,19400.0,9.15493869781494,1.6989041566848757,-2.833101987838745
280,145.0,19500.0,9.15493869781494,1.6989041566848757,-2.833101987838745
281,146.0,19600.0,9.011369705200195,1.8161523342132568,-2.5842485427856445
282,147.0,19700.0,9.011369705200195,1.8161523342132568,-2.5842485427856445
283,148.0,19800.0,9.011369705200195,1.8161523342132568,-2.5842485427856445
284,149.0,19900.0,9.31765079498291,1.6797614097595217,-2.878565788269043
285,150.0,20000.0,9.31765079498291,1.6797614097595217,-2.878565788269043
286,151.0,20100.0,9.054441452026367,1.5098710060119631,-2.667997360229492
287,152.0,20200.0,9.054441452026367,1.5098710060119631,-2.667997360229492
288,153.0,20300.0,9.054441452026367,1.5098710060119631,-2.667997360229492
289,154.0,20400.0,9.140583038330078,1.4931212663650513,-2.7182462215423584
290,155.0,20500.0,9.140583038330078,1.4931212663650513,-2.7182462215423584
291,156.0,20600.0,9.198010444641113,1.5457634925842283,-2.7421746253967285
292,157.0,20700.0,9.198010444641113,1.5457634925842283,-2.7421746253967285
293,158.0,20800.0,9.145368576049805,1.6247265338897705,-2.691925525665283
294,159.0,20900.0,9.145368576049805,1.6247265338897705,-2.691925525665283
295,160.0,21000.0,9.236295700073242,1.5385849475860596,-2.644068956375122
296,161.0,21100.0,9.236295700073242,1.5385849475860596,-2.644068956375122
297,162.0,21200.0,9.236295700073242,1.5385849475860596,-2.644068956375122
298,163.0,21300.0,9.140583038330078,1.5242280960083008,-2.57228422164917
299,164.0,21400.0,9.140583038330078,1.5242280960083008,-2.57228422164917
300,150.0,20000.0,9.31765079498291,1.6797614097595217,-2.878565788269043
301,151.0,20100.0,9.054441452026367,1.5098710060119631,-2.667997360229492
302,152.0,20200.0,9.054441452026367,1.5098710060119631,-2.667997360229492
303,153.0,20300.0,9.054441452026367,1.5098710060119631,-2.667997360229492
304,154.0,20400.0,9.140583038330078,1.4931212663650513,-2.7182462215423584
305,155.0,20500.0,9.140583038330078,1.4931212663650513,-2.7182462215423584
306,156.0,20600.0,9.198010444641113,1.5457634925842283,-2.7421746253967285
307,157.0,20700.0,9.198010444641113,1.5457634925842283,-2.7421746253967285
308,158.0,20800.0,9.145368576049805,1.6247265338897705,-2.691925525665283
309,159.0,20900.0,9.145368576049805,1.6247265338897705,-2.691925525665283
310,160.0,21000.0,9.236295700073242,1.5385849475860596,-2.644068956375122
311,161.0,21100.0,9.236295700073242,1.5385849475860596,-2.644068956375122
312,162.0,21200.0,9.236295700073242,1.5385849475860596,-2.644068956375122
313,163.0,21300.0,9.140583038330078,1.5242280960083008,-2.57228422164917
314,164.0,21400.0,9.140583038330078,1.5242280960083008,-2.57228422164917
315,165.0,21500.0,9.207581520080566,1.184447169303894,-2.8546373844146733
316,166.0,21600.0,9.207581520080566,1.184447169303894,-2.8546373844146733
317,167.0,21700.0,9.418149948120117,1.574477195739746,-2.431107759475708
318,168.0,21800.0,9.418149948120117,1.574477195739746,-2.431107759475708
319,169.0,21900.0,9.418149948120117,1.574477195739746,-2.431107759475708
320,170.0,22000.0,9.15493869781494,1.3112668991088867,-2.723031997680664
321,171.0,22100.0,9.15493869781494,1.3112668991088867,-2.723031997680664
322,172.0,22200.0,9.226724624633787,1.3351951837539673,-2.5435702800750732
323,173.0,22300.0,9.226724624633787,1.3351951837539673,-2.5435702800750732
324,174.0,22400.0,9.150154113769533,1.2131611108779907,-2.730210542678833
325,175.0,22500.0,9.150154113769533,1.2131611108779907,-2.730210542678833
326,176.0,22600.0,9.150154113769533,1.2131611108779907,-2.730210542678833
327,177.0,22700.0,9.035298347473145,1.3328022956848145,-2.569891452789306
328,178.0,22800.0,9.035298347473145,1.3328022956848145,-2.569891452789306
329,179.0,22900.0,9.126225471496582,1.3902300596237185,-2.6703903675079346
330,165.0,21500.0,9.207581520080566,1.184447169303894,-2.8546373844146733
331,166.0,21600.0,9.207581520080566,1.184447169303894,-2.8546373844146733
332,167.0,21700.0,9.418149948120117,1.574477195739746,-2.431107759475708
333,168.0,21800.0,9.418149948120117,1.574477195739746,-2.431107759475708
334,169.0,21900.0,9.418149948120117,1.574477195739746,-2.431107759475708
335,170.0,22000.0,9.15493869781494,1.3112668991088867,-2.723031997680664
336,171.0,22100.0,9.15493869781494,1.3112668991088867,-2.723031997680664
337,172.0,22200.0,9.226724624633787,1.3351951837539673,-2.5435702800750732
338,173.0,22300.0,9.226724624633787,1.3351951837539673,-2.5435702800750732
339,174.0,22400.0,9.150154113769533,1.2131611108779907,-2.730210542678833
340,175.0,22500.0,9.150154113769533,1.2131611108779907,-2.730210542678833
341,176.0,22600.0,9.150154113769533,1.2131611108779907,-2.730210542678833
342,177.0,22700.0,9.035298347473145,1.3328022956848145,-2.569891452789306
343,178.0,22800.0,9.035298347473145,1.3328022956848145,-2.569891452789306
344,179.0,22900.0,9.126225471496582,1.3902300596237185,-2.6703903675079346
345,180.0,23000.0,9.126225471496582,1.3902300596237185,-2.6703903675079346
346,181.0,23100.0,9.207581520080566,1.2921242713928225,-2.723031997680664
347,182.0,23200.0,9.207581520080566,1.2921242713928225,-2.723031997680664
348,183.0,23300.0,9.226724624633787,1.289731502532959,-2.744567632675171
349,184.0,23400.0,9.226724624633787,1.289731502532959,-2.744567632675171
350,185.0,23500.0,9.226724624633787,1.289731502532959,-2.744567632675171
351,186.0,23600.0,9.016156196594238,1.2490534782409668,-2.636890411376953
352,187.0,23700.0,9.016156196594238,1.2490534782409668,-2.636890411376953
353,188.0,23800.0,9.145368576049805,1.37587308883667,-2.720639228820801
354,189.0,23900.0,9.145368576049805,1.37587308883667,-2.720639228820801
355,190.0,24000.0,9.145368576049805,1.37587308883667,-2.720639228820801
356,191.0,24100.0,9.150154113769533,1.3328022956848145,-2.6608188152313232
357,192.0,24200.0,9.150154113769533,1.3328022956848145,-2.6608188152313232
358,193.0,24300.0,9.284152030944824,1.3280165195465088,-2.6153552532196045
359,194.0,24400.0,9.284152030944824,1.3280165195465088,-2.6153552532196045
360,180.0,23000.0,9.126225471496582,1.3902300596237185,-2.6703903675079346
361,181.0,23100.0,9.207581520080566,1.2921242713928225,-2.723031997680664
362,182.0,23200.0,9.207581520080566,1.2921242713928225,-2.723031997680664
363,183.0,23300.0,9.226724624633787,1.289731502532959,-2.744567632675171
364,184.0,23400.0,9.226724624633787,1.289731502532959,-2.744567632675171
365,185.0,23500.0,9.226724624633787,1.289731502532959,-2.744567632675171
366,186.0,23600.0,9.016156196594238,1.2490534782409668,-2.636890411376953
367,187.0,23700.0,9.016156196594238,1.2490534782409668,-2.636890411376953
368,188.0,23800.0,9.145368576049805,1.37587308883667,-2.720639228820801
369,189.0,23900.0,9.145368576049805,1.37587308883667,-2.720639228820801
370,190.0,24000.0,9.145368576049805,1.37587308883667,-2.720639228820801
371,191.0,24100.0,9.150154113769533,1.3328022956848145,-2.6608188152313232
372,192.0,24200.0,9.150154113769533,1.3328022956848145,-2.6608188152313232
373,193.0,24300.0,9.284152030944824,1.3280165195465088,-2.6153552532196045
374,194.0,24400.0,9.284152030944824,1.3280165195465088,-2.6153552532196045
375,195.0,24500.0,8.958727836608887,1.2969098091125488,-2.6416761875152592
376,196.0,24600.0,8.958727836608887,1.2969098091125488,-2.6416761875152592
377,197.0,24700.0,8.958727836608887,1.2969098091125488,-2.6416761875152592
378,198.0,24800.0,9.164510726928713,1.191625714302063,-2.706282377243042
379,199.0,24900.0,9.164510726928713,1.191625714302063,-2.706282377243042
380,200.0,25000.0,9.336793899536133,1.2825528383255005,-2.723031997680664
381,201.0,25100.0,9.336793899536133,1.2825528383255005,-2.723031997680664
382,202.0,25200.0,9.336793899536133,1.2825528383255005,-2.723031997680664
383,203.0,25300.0,9.164510726928713,1.3854442834854126,-2.67278265953064
384,204.0,25400.0,9.164510726928713,1.3854442834854126,-2.67278265953064
385,205.0,25500.0,9.260223388671877,1.4620146751403809,-2.7038896083831787
386,206.0,25600.0,9.260223388671877,1.4620146751403809,-2.7038896083831787
387,207.0,25700.0,9.207581520080566,1.3160523176193235,-2.6416761875152592
388,208.0,25800.0,9.207581520080566,1.3160523176193235,-2.6416761875152592
389,209.0,25900.0,9.17886734008789,1.380658507347107,-2.6536402702331543
390,195.0,24500.0,8.958727836608887,1.2969098091125488,-2.6416761875152592
391,196.0,24600.0,8.958727836608887,1.2969098091125488,-2.6416761875152592
392,197.0,24700.0,8.958727836608887,1.2969098091125488,-2.6416761875152592
393,198.0,24800.0,9.164510726928713,1.191625714302063,-2.706282377243042
394,199.0,24900.0,9.164510726928713,1.191625714302063,-2.706282377243042
395,200.0,25000.0,9.336793899536133,1.2825528383255005,-2.723031997680664
396,201.0,25100.0,9.336793899536133,1.2825528383255005,-2.723031997680664
397,202.0,25200.0,9.336793899536133,1.2825528383255005,-2.723031997680664
398,203.0,25300.0,9.164510726928713,1.3854442834854126,-2.67278265953064
399,204.0,25400.0,9.164510726928713,1.3854442834854126,-2.67278265953064
400,205.0,25500.0,9.260223388671877,1.4620146751403809,-2.7038896083831787
401,206.0,25600.0,9.260223388671877,1.4620146751403809,-2.7038896083831787
402,207.0,25700.0,9.207581520080566,1.3160523176193235,-2.6416761875152592
403,208.0,25800.0,9.207581520080566,1.3160523176193235,-2.6416761875152592
404,209.0,25900.0,9.17886734008789,1.380658507347107,-2.6536402702331543
405,210.0,26000.0,9.17886734008789,1.380658507347107,-2.6536402702331543
406,211.0,26100.0,9.17886734008789,1.380658507347107,-2.6536402702331543
407,212.0,26200.0,9.284152030944824,1.3016955852508545,-2.7349963188171387
408,213.0,26300.0,9.284152030944824,1.3016955852508545,-2.7349963188171387
409,214.0,26400.0,9.38943576812744,1.3519448041915894,-2.612962245941162
410,215.0,26500.0,9.38943576812744,1.3519448041915894,-2.612962245941162
411,216.0,26600.0,9.087940216064453,1.3519448041915894,-2.502892255783081
412,217.0,26700.0,9.087940216064453,1.3519448041915894,-2.502892255783081
413,218.0,26800.0,9.087940216064453,1.3519448041915894,-2.502892255783081
414,219.0,26900.0,9.207581520080566,1.3328022956848145,-2.8809585571289062
415,220.0,27000.0,9.207581520080566,1.3328022956848145,-2.8809585571289062
416,221.0,27100.0,9.221939086914062,1.380658507347107,-2.7900311946868896
417,222.0,27200.0,9.221939086914062,1.380658507347107,-2.7900311946868896
418,223.0,27300.0,9.174081802368164,1.2681961059570312,-2.6799612045288086
419,224.0,27400.0,9.174081802368164,1.2681961059570312,-2.6799612045288086
420,210.0,26000.0,9.17886734008789,1.380658507347107,-2.6536402702331543
421,211.0,26100.0,9.17886734008789,1.380658507347107,-2.6536402702331543
422,212.0,26200.0,9.284152030944824,1.3016955852508545,-2.7349963188171387
423,213.0,26300.0,9.284152030944824,1.3016955852508545,-2.7349963188171387
424,214.0,26400.0,9.38943576812744,1.3519448041915894,-2.612962245941162
425,215.0,26500.0,9.38943576812744,1.3519448041915894,-2.612962245941162
426,216.0,26600.0,9.087940216064453,1.3519448041915894,-2.502892255783081
427,217.0,26700.0,9.087940216064453,1.3519448041915894,-2.502892255783081
428,218.0,26800.0,9.087940216064453,1.3519448041915894,-2.502892255783081
429,219.0,26900.0,9.207581520080566,1.3328022956848145,-2.8809585571289062
430,220.0,27000.0,9.207581520080566,1.3328022956848145,-2.8809585571289062
431,221.0,27100.0,9.221939086914062,1.380658507347107,-2.7900311946868896
432,222.0,27200.0,9.221939086914062,1.380658507347107,-2.7900311946868896
433,223.0,27300.0,9.174081802368164,1.2681961059570312,-2.6799612045288086
434,224.0,27400.0,9.174081802368164,1.2681961059570312,-2.6799612045288086
435,225.0,27500.0,9.174081802368164,1.2681961059570312,-2.6799612045288086
436,226.0,27600.0,9.159724235534668,1.2227323055267334,-2.7876384258270264
437,227.0,27700.0,9.159724235534668,1.2227323055267334,-2.7876384258270264
438,228.0,27800.0,9.198010444641113,1.2658032178878784,-2.746960401535034
439,229.0,27900.0,9.198010444641113,1.2658032178878784,-2.746960401535034
440,230.0,28000.0,9.17886734008789,1.3328022956848145,-2.770888566970825
441,231.0,28100.0,9.17886734008789,1.3328022956848145,-2.770888566970825
442,232.0,28200.0,9.260223388671877,1.3591231107711792,-2.7421746253967285
443,233.0,28300.0,9.260223388671877,1.3591231107711792,-2.7421746253967285
444,234.0,28400.0,9.260223388671877,1.3591231107711792,-2.7421746253967285
445,235.0,28500.0,9.265008926391602,1.2538390159606934,-2.746960401535034
446,236.0,28600.0,9.265008926391602,1.2538390159606934,-2.746960401535034
447,237.0,28700.0,9.269794464111328,1.3184452056884766,-2.6943180561065674
448,238.0,28800.0,9.269794464111328,1.3184452056884766,-2.6943180561065674
449,239.0,28900.0,9.207581520080566,1.3399806022644043,-2.7326035499572754
450,225.0,27500.0,9.174081802368164,1.2681961059570312,-2.6799612045288086
451,226.0,27600.0,9.159724235534668,1.2227323055267334,-2.7876384258270264
452,227.0,27700.0,9.159724235534668,1.2227323055267334,-2.7876384258270264
453,228.0,27800.0,9.198010444641113,1.2658032178878784,-2.746960401535034
454,229.0,27900.0,9.198010444641113,1.2658032178878784,-2.746960401535034
455,230.0,28000.0,9.17886734008789,1.3328022956848145,-2.770888566970825
456,231.0,28100.0,9.17886734008789,1.3328022956848145,-2.770888566970825
457,232.0,28200.0,9.260223388671877,1.3591231107711792,-2.7421746253967285
458,233.0,28300.0,9.260223388671877,1.3591231107711792,-2.7421746253967285
459,234.0,28400.0,9.260223388671877,1.3591231107711792,-2.7421746253967285
460,235.0,28500.0,9.265008926391602,1.2538390159606934,-2.746960401535034
461,236.0,28600.0,9.265008926391602,1.2538390159606934,-2.746960401535034
462,237.0,28700.0,9.269794464111328,1.3184452056884766,-2.6943180561065674
463,238.0,28800.0,9.269794464111328,1.3184452056884766,-2.6943180561065674
464,239.0,28900.0,9.207581520080566,1.3399806022644043,-2.7326035499572754
465,240.0,29000.0,9.207581520080566,1.3399806022644043,-2.7326035499572754
466,241.0,29100.0,9.28893756866455,1.2610174417495728,-2.691925525665283
467,242.0,29200.0,9.28893756866455,1.2610174417495728,-2.691925525665283
468,243.0,29300.0,9.260223388671877,1.3232309818267822,-2.7589242458343506
469,244.0,29400.0,9.260223388671877,1.3232309818267822,-2.7589242458343506
470,245.0,29500.0,9.260223388671877,1.3232309818267822,-2.7589242458343506
471,246.0,29600.0,9.207581520080566,1.3639088869094849,-2.715853452682495
472,247.0,29700.0,9.207581520080566,1.3639088869094849,-2.715853452682495
473,248.0,29800.0,9.17886734008789,1.1892328262329102,-2.7326035499572754
474,249.0,29900.0,9.17886734008789,1.1892328262329102,-2.7326035499572754
475,250.0,30000.0,9.245866775512695,1.4380863904953003,-2.7972097396850586
476,251.0,30100.0,9.245866775512695,1.4380863904953003,-2.7972097396850586
477,252.0,30200.0,9.245866775512695,1.4380863904953003,-2.7972097396850586
478,253.0,30300.0,9.164510726928713,1.2370892763137815,-2.737389087677002
479,254.0,30400.0,9.164510726928713,1.2370892763137815,-2.737389087677002
480,240.0,29000.0,9.207581520080566,1.3399806022644043,-2.7326035499572754
481,241.0,29100.0,9.28893756866455,1.2610174417495728,-2.691925525665283
482,242.0,29200.0,9.28893756866455,1.2610174417495728,-2.691925525665283
483,243.0,29300.0,9.260223388671877,1.3232309818267822,-2.7589242458343506
484,244.0,29400.0,9.260223388671877,1.3232309818267822,-2.7589242458343506
485,245.0,29500.0,9.260223388671877,1.3232309818267822,-2.7589242458343506
486,246.0,29600.0,9.207581520080566,1.3639088869094849,-2.715853452682495
487,247.0,29700.0,9.207581520080566,1.3639088869094849,-2.715853452682495
488,248.0,29800.0,9.17886734008789,1.1892328262329102,-2.7326035499572754
489,249.0,29900.0,9.17886734008789,1.1892328262329102,-2.7326035499572754
490,250.0,30000.0,9.245866775512695,1.4380863904953003,-2.7972097396850586
491,251.0,30100.0,9.245866775512695,1.4380863904953003,-2.7972097396850586
492,252.0,30200.0,9.245866775512695,1.4380863904953003,-2.7972097396850586
493,253.0,30300.0,9.164510726928713,1.2370892763137815,-2.737389087677002
494,254.0,30400.0,9.164510726928713,1.2370892763137815,-2.737389087677002
495,255.0,30500.0,9.059226989746094,1.380658507347107,-2.68953275680542
496,256.0,30600.0,9.059226989746094,1.380658507347107,-2.68953275680542
497,257.0,30700.0,9.265008926391602,1.246660590171814,-2.68953275680542
498,258.0,30800.0,9.265008926391602,1.246660590171814,-2.68953275680542
499,259.0,30900.0,9.265008926391602,1.246660590171814,-2.68953275680542
500,260.0,31000.0,9.198010444641113,1.3160523176193235,-2.6416761875152592
501,261.0,31100.0,9.198010444641113,1.3160523176193235,-2.6416761875152592
502,262.0,31200.0,9.207581520080566,1.3591231107711792,-2.5555346012115483
503,263.0,31300.0,9.207581520080566,1.3591231107711792,-2.5555346012115483
504,264.0,31400.0,9.145368576049805,1.2227323055267334,-2.6057839393615723
505,265.0,31500.0,9.145368576049805,1.2227323055267334,-2.6057839393615723
506,266.0,31600.0,9.231510162353516,1.184447169303894,-2.548356056213379
507,267.0,31700.0,9.231510162353516,1.184447169303894,-2.548356056213379
508,268.0,31800.0,9.231510162353516,1.184447169303894,-2.548356056213379
509,269.0,31900.0,9.245866775512695,1.5242280960083008,-2.8043880462646484
510,255.0,30500.0,9.059226989746094,1.380658507347107,-2.68953275680542
511,256.0,30600.0,9.059226989746094,1.380658507347107,-2.68953275680542
512,257.0,30700.0,9.265008926391602,1.246660590171814,-2.68953275680542
513,258.0,30800.0,9.265008926391602,1.246660590171814,-2.68953275680542
514,259.0,30900.0,9.265008926391602,1.246660590171814,-2.68953275680542
515,260.0,31000.0,9.198010444641113,1.3160523176193235,-2.6416761875152592
516,261.0,31100.0,9.198010444641113,1.3160523176193235,-2.6416761875152592
517,262.0,31200.0,9.207581520080566,1.3591231107711792,-2.5555346012115483
518,263.0,31300.0,9.207581520080566,1.3591231107711792,-2.5555346012115483
519,264.0,31400.0,9.145368576049805,1.2227323055267334,-2.6057839393615723
520,265.0,31500.0,9.145368576049805,1.2227323055267334,-2.6057839393615723
521,266.0,31600.0,9.231510162353516,1.184447169303894,-2.548356056213379
522,267.0,31700.0,9.231510162353516,1.184447169303894,-2.548356056213379
523,268.0,31800.0,9.231510162353516,1.184447169303894,-2.548356056213379
524,269.0,31900.0,9.245866775512695,1.5242280960083008,-2.8043880462646484
525,270.0,32000.0,9.245866775512695,1.5242280960083008,-2.8043880462646484
526,271.0,32100.0,9.164510726928713,1.497907042503357,-2.768495798110962
527,272.0,32200.0,9.164510726928713,1.497907042503357,-2.768495798110962
528,273.0,32300.0,9.30329418182373,1.2610174417495728,-2.723031997680664
529,274.0,32400.0,9.30329418182373,1.2610174417495728,-2.723031997680664
530,275.0,32500.0,9.212367057800293,1.196411371231079,-2.53399920463562
531,276.0,32600.0,9.212367057800293,1.196411371231079,-2.53399920463562
532,277.0,32700.0,9.126225471496582,1.3351951837539673,-2.7038896083831787
533,278.0,32800.0,9.126225471496582,1.3351951837539673,-2.7038896083831787
534,279.0,32900.0,9.126225471496582,1.3351951837539673,-2.7038896083831787
535,280.0,33000.0,9.260223388671877,1.5050854682922363,-2.8354949951171875
536,281.0,33100.0,9.260223388671877,1.5050854682922363,-2.8354949951171875
537,282.0,33200.0,9.21715259552002,1.4787644147872925,-2.7876384258270264
538,283.0,33300.0,9.21715259552002,1.4787644147872925,-2.7876384258270264
539,284.0,33400.0,9.21715259552002,1.4787644147872925,-2.7876384258270264
540,270.0,32000.0,9.245866775512695,1.5242280960083008,-2.8043880462646484
541,271.0,32100.0,9.164510726928713,1.497907042503357,-2.768495798110962
542,272.0,32200.0,9.164510726928713,1.497907042503357,-2.768495798110962
543,273.0,32300.0,9.30329418182373,1.2610174417495728,-2.723031997680664
544,274.0,32400.0,9.30329418182373,1.2610174417495728,-2.723031997680664
545,275.0,32500.0,9.212367057800293,1.196411371231079,-2.53399920463562
546,276.0,32600.0,9.212367057800293,1.196411371231079,-2.53399920463562
547,277.0,32700.0,9.126225471496582,1.3351951837539673,-2.7038896083831787
548,278.0,32800.0,9.126225471496582,1.3351951837539673,-2.7038896083831787
549,279.0,32900.0,9.126225471496582,1.3351951837539673,-2.7038896083831787
550,280.0,33000.0,9.260223388671877,1.5050854682922363,-2.8354949951171875
551,281.0,33100.0,9.260223388671877,1.5050854682922363,-2.8354949951171875
552,282.0,33200.0,9.21715259552002,1.4787644147872925,-2.7876384258270264
553,283.0,33300.0,9.21715259552002,1.4787644147872925,-2.7876384258270264
554,284.0,33400.0,9.21715259552002,1.4787644147872925,-2.7876384258270264
555,285.0,33500.0,9.221939086914062,1.2753744125366209,-2.627319574356079
556,286.0,33600.0,9.221939086914062,1.2753744125366209,-2.627319574356079
557,287.0,33700.0,9.159724235534668,1.3112668991088867,-2.596212387084961
558,288.0,33800.0,9.159724235534668,1.3112668991088867,-2.596212387084961
559,289.0,33900.0,9.226724624633787,1.4452648162841797,-2.699103832244873
560,290.0,34000.0,9.226724624633787,1.4452648162841797,-2.699103832244873
561,291.0,34100.0,9.226724624633787,1.4452648162841797,-2.699103832244873
562,292.0,34200.0,9.21715259552002,1.4093725681304932,-2.6847469806671143
563,293.0,34300.0,9.21715259552002,1.4093725681304932,-2.6847469806671143
564,294.0,34400.0,9.15493869781494,1.428515076637268,-2.63449764251709
565,295.0,34500.0,9.15493869781494,1.428515076637268,-2.63449764251709
566,296.0,34600.0,9.193224906921387,1.3351951837539673,-2.715853452682495
567,297.0,34700.0,9.193224906921387,1.3351951837539673,-2.715853452682495
568,298.0,34800.0,9.193224906921387,1.3351951837539673,-2.715853452682495
569,299.0,34900.0,9.126225471496582,1.3040882349014282,-2.603391170501709
570,285.0,33500.0,9.221939086914062,1.2753744125366209,-2.627319574356079
571,286.0,33600.0,9.221939086914062,1.2753744125366209,-2.627319574356079
572,287.0,33700.0,9.159724235534668,1.3112668991088867,-2.596212387084961
573,288.0,33800.0,9.159724235534668,1.3112668991088867,-2.596212387084961
574,289.0,33900.0,9.226724624633787,1.4452648162841797,-2.699103832244873
575,290.0,34000.0,9.226724624633787,1.4452648162841797,-2.699103832244873
576,291.0,34100.0,9.226724624633787,1.4452648162841797,-2.699103832244873
577,292.0,34200.0,9.21715259552002,1.4093725681304932,-2.6847469806671143
578,293.0,34300.0,9.21715259552002,1.4093725681304932,-2.6847469806671143
579,294.0,34400.0,9.15493869781494,1.428515076637268,-2.63449764251709
580,295.0,34500.0,9.15493869781494,1.428515076637268,-2.63449764251709
581,296.0,34600.0,9.193224906921387,1.3351951837539673,-2.715853452682495
582,297.0,34700.0,9.193224906921387,1.3351951837539673,-2.715853452682495
583,298.0,34800.0,9.193224906921387,1.3351951837539673,-2.715853452682495
584,299.0,34900.0,9.126225471496582,1.3040882349014282,-2.603391170501709
585,300.0,35000.0,9.126225471496582,1.3040882349014282,-2.603391170501709
586,301.0,35100.0,9.226724624633787,1.3639088869094849,-2.6943180561065674
587,302.0,35200.0,9.226724624633787,1.3639088869094849,-2.6943180561065674
588,303.0,35300.0,9.226724624633787,1.289731502532959,-2.744567632675171
589,304.0,35400.0,9.226724624633787,1.289731502532959,-2.744567632675171
590,305.0,35500.0,9.226724624633787,1.289731502532959,-2.744567632675171
591,306.0,35600.0,9.231510162353516,1.3878371715545654,-2.581855773925781
592,307.0,35700.0,9.231510162353516,1.3878371715545654,-2.581855773925781
593,308.0,35800.0,9.164510726928713,1.3136597871780396,-2.6009981632232666
594,309.0,35900.0,9.164510726928713,1.3136597871780396,-2.6009981632232666
595,310.0,36000.0,9.34157943725586,1.289731502532959,-2.931207656860352
596,311.0,36100.0,9.34157943725586,1.289731502532959,-2.931207656860352
597,312.0,36200.0,9.241080284118652,1.3184452056884766,-2.744567632675171
598,313.0,36300.0,9.241080284118652,1.3184452056884766,-2.744567632675171
599,314.0,36400.0,9.241080284118652,1.3184452056884766,-2.744567632675171
600,300.0,35000.0,9.126225471496582,1.3040882349014282,-2.603391170501709
601,301.0,35100.0,9.226724624633787,1.3639088869094849,-2.6943180561065674
602,302.0,35200.0,9.226724624633787,1.3639088869094849,-2.6943180561065674
603,303.0,35300.0,9.226724624633787,1.289731502532959,-2.744567632675171
604,304.0,35400.0,9.226724624633787,1.289731502532959,-2.744567632675171
605,305.0,35500.0,9.226724624633787,1.289731502532959,-2.744567632675171
606,306.0,35600.0,9.231510162353516,1.3878371715545654,-2.581855773925781
607,307.0,35700.0,9.231510162353516,1.3878371715545654,-2.581855773925781
608,308.0,35800.0,9.164510726928713,1.3136597871780396,-2.6009981632232666
609,309.0,35900.0,9.164510726928713,1.3136597871780396,-2.6009981632232666
610,310.0,36000.0,9.34157943725586,1.289731502532959,-2.931207656860352
611,311.0,36100.0,9.34157943725586,1.289731502532959,-2.931207656860352
612,312.0,36200.0,9.241080284118652,1.3184452056884766,-2.744567632675171
613,313.0,36300.0,9.241080284118652,1.3184452056884766,-2.744567632675171
614,314.0,36400.0,9.241080284118652,1.3184452056884766,-2.744567632675171
615,315.0,36500.0,9.241080284118652,1.2921242713928225,-2.68953275680542
616,316.0,36600.0,9.241080284118652,1.2921242713928225,-2.68953275680542
617,317.0,36700.0,9.241080284118652,1.215553879737854,-2.935993194580078
618,318.0,36800.0,9.241080284118652,1.215553879737854,-2.935993194580078
619,319.0,36900.0,9.241080284118652,1.215553879737854,-2.935993194580078
620,320.0,37000.0,9.255437850952148,1.2825528383255005,-2.816352128982544
621,321.0,37100.0,9.255437850952148,1.2825528383255005,-2.816352128982544
622,322.0,37200.0,9.10229778289795,1.2035897970199585,-2.8067808151245117
623,323.0,37300.0,9.10229778289795,1.2035897970199585,-2.8067808151245117
624,324.0,37400.0,9.09272575378418,1.2227323055267334,-2.7421746253967285
625,325.0,37500.0,9.09272575378418,1.2227323055267334,-2.7421746253967285
626,326.0,37600.0,9.260223388671877,1.1988041400909424,-2.914458036422728
627,327.0,37700.0,9.260223388671877,1.1988041400909424,-2.914458036422728
628,328.0,37800.0,9.260223388671877,1.1988041400909424,-2.914458036422728
629,329.0,37900.0,9.20279598236084,1.2059825658798218,-2.6416761875152592
630,315.0,36500.0,9.241080284118652,1.2921242713928225,-2.68953275680542
631,316.0,36600.0,9.241080284118652,1.2921242713928225,-2.68953275680542
632,317.0,36700.0,9.241080284118652,1.215553879737854,-2.935993194580078
633,318.0,36800.0,9.241080284118652,1.215553879737854,-2.935993194580078
634,319.0,36900.0,9.241080284118652,1.215553879737854,-2.935993194580078
635,320.0,37000.0,9.255437850952148,1.2825528383255005,-2.816352128982544
636,321.0,37100.0,9.255437850952148,1.2825528383255005,-2.816352128982544
637,322.0,37200.0,9.10229778289795,1.2035897970199585,-2.8067808151245117
638,323.0,37300.0,9.10229778289795,1.2035897970199585,-2.8067808151245117
639,324.0,37400.0,9.09272575378418,1.2227323055267334,-2.7421746253967285
640,325.0,37500.0,9.09272575378418,1.2227323055267334,-2.7421746253967285
641,326.0,37600.0,9.260223388671877,1.1988041400909424,-2.914458036422728
642,327.0,37700.0,9.260223388671877,1.1988041400909424,-2.914458036422728
643,328.0,37800.0,9.260223388671877,1.1988041400909424,-2.914458036422728
644,329.0,37900.0,9.20279598236084,1.2059825658798218,-2.6416761875152592
645,330.0,38000.0,9.20279598236084,1.2059825658798218,-2.6416761875152592
646,331.0,38100.0,9.274580955505373,1.4213367700576782,-2.792424201965332
647,332.0,38200.0,9.274580955505373,1.4213367700576782,-2.792424201965332
648,333.0,38300.0,9.274580955505373,1.4213367700576782,-2.792424201965332
649,334.0,38400.0,8.858229637145996,1.3112668991088867,-2.7326035499572754
650,335.0,38500.0,8.858229637145996,1.3112668991088867,-2.7326035499572754
651,336.0,38600.0,9.135796546936037,1.4021940231323242,-2.89052963256836
652,337.0,38700.0,9.135796546936037,1.4021940231323242,-2.89052963256836
653,338.0,38800.0,9.145368576049805,1.3519448041915894,-2.799602746963501
654,339.0,38900.0,9.145368576049805,1.3519448041915894,-2.799602746963501
655,340.0,39000.0,9.17886734008789,1.4787644147872925,-2.9240293502807617
656,341.0,39100.0,9.17886734008789,1.4787644147872925,-2.9240293502807617
657,342.0,39200.0,9.17886734008789,1.4787644147872925,-2.9240293502807617
658,343.0,39300.0,9.131011009216307,1.2753744125366209,-2.9048867225646973
659,344.0,39400.0,9.131011009216307,1.2753744125366209,-2.9048867225646973
660,330.0,38000.0,9.20279598236084,1.2059825658798218,-2.6416761875152592
661,331.0,38100.0,9.274580955505373,1.4213367700576782,-2.792424201965332
662,332.0,38200.0,9.274580955505373,1.4213367700576782,-2.792424201965332
663,333.0,38300.0,9.274580955505373,1.4213367700576782,-2.792424201965332
664,334.0,38400.0,8.858229637145996,1.3112668991088867,-2.7326035499572754
665,335.0,38500.0,8.858229637145996,1.3112668991088867,-2.7326035499572754
666,336.0,38600.0,9.135796546936037,1.4021940231323242,-2.89052963256836
667,337.0,38700.0,9.135796546936037,1.4021940231323242,-2.89052963256836
668,338.0,38800.0,9.145368576049805,1.3519448041915894,-2.799602746963501
669,339.0,38900.0,9.145368576049805,1.3519448041915894,-2.799602746963501
670,340.0,39000.0,9.17886734008789,1.4787644147872925,-2.9240293502807617
671,341.0,39100.0,9.17886734008789,1.4787644147872925,-2.9240293502807617
672,342.0,39200.0,9.17886734008789,1.4787644147872925,-2.9240293502807617
673,343.0,39300.0,9.131011009216307,1.2753744125366209,-2.9048867225646973
674,344.0,39400.0,9.131011009216307,1.2753744125366209,-2.9048867225646973
675,345.0,39500.0,9.135796546936037,1.4811571836471558,-2.8689942359924316
676,346.0,39600.0,9.135796546936037,1.4811571836471558,-2.8689942359924316
677,347.0,39700.0,9.135796546936037,1.4811571836471558,-2.8689942359924316
678,348.0,39800.0,9.250652313232422,1.3280165195465088,-2.9240293502807617
679,349.0,39900.0,9.250652313232422,1.3280165195465088,-2.9240293502807617
680,350.0,40000.0,8.939584732055664,1.3471590280532837,-2.861815929412842
681,351.0,40100.0,8.939584732055664,1.3471590280532837,-2.861815929412842
682,352.0,40200.0,9.370293617248537,1.6079767942428589,-2.9216365814208984
683,353.0,40300.0,9.370293617248537,1.6079767942428589,-2.9216365814208984
684,354.0,40400.0,9.370293617248537,1.6079767942428589,-2.9216365814208984
685,355.0,40500.0,9.078369140625,1.4620146751403809,-2.502892255783081
686,356.0,40600.0,9.078369140625,1.4620146751403809,-2.502892255783081
687,357.0,40700.0,8.997013092041016,1.2729815244674685,-2.8809585571289062
688,358.0,40800.0,8.997013092041016,1.2729815244674685,-2.8809585571289062
689,359.0,40900.0,9.016156196594238,1.3878371715545654,-3.0149567127227783
690,345.0,39500.0,9.135796546936037,1.4811571836471558,-2.8689942359924316
691,346.0,39600.0,9.135796546936037,1.4811571836471558,-2.8689942359924316
692,347.0,39700.0,9.135796546936037,1.4811571836471558,-2.8689942359924316
693,348.0,39800.0,9.250652313232422,1.3280165195465088,-2.9240293502807617
694,349.0,39900.0,9.250652313232422,1.3280165195465088,-2.9240293502807617
695,350.0,40000.0,8.939584732055664,1.3471590280532837,-2.861815929412842
696,351.0,40100.0,8.939584732055664,1.3471590280532837,-2.861815929412842
697,352.0,40200.0,9.370293617248537,1.6079767942428589,-2.9216365814208984
698,353.0,40300.0,9.370293617248537,1.6079767942428589,-2.9216365814208984
699,354.0,40400.0,9.370293617248537,1.6079767942428589,-2.9216365814208984
700,355.0,40500.0,9.078369140625,1.4620146751403809,-2.502892255783081
701,356.0,40600.0,9.078369140625,1.4620146751403809,-2.502892255783081
702,357.0,40700.0,8.997013092041016,1.2729815244674685,-2.8809585571289062
703,358.0,40800.0,8.997013092041016,1.2729815244674685,-2.8809585571289062
704,359.0,40900.0,9.016156196594238,1.3878371715545654,-3.0149567127227783
705,360.0,41000.0,9.016156196594238,1.3878371715545654,-3.0149567127227783
706,361.0,41100.0,9.016156196594238,1.3878371715545654,-3.0149567127227783
707,362.0,41200.0,8.925228118896484,1.4620146751403809,-2.9814569950103764
708,363.0,41300.0,8.925228118896484,1.4620146751403809,-2.9814569950103764
709,364.0,41400.0,8.671588897705076,1.519442439079285,-2.785245418548584
710,365.0,41500.0,8.671588897705076,1.519442439079285,-2.785245418548584
711,366.0,41600.0,9.145368576049805,1.0719845294952393,-3.072384119033813
712,367.0,41700.0,9.145368576049805,1.0719845294952393,-3.072384119033813
713,368.0,41800.0,9.456435203552246,1.423729419708252,-2.833101987838745
714,369.0,41900.0,9.456435203552246,1.423729419708252,-2.833101987838745
715,370.0,42000.0,9.456435203552246,1.423729419708252,-2.833101987838745
716,371.0,42100.0,9.226724624633787,1.3543376922607422,-2.864208698272705
717,372.0,42200.0,9.226724624633787,1.3543376922607422,-2.864208698272705
718,373.0,42300.0,9.145368576049805,1.2729815244674685,-2.8043880462646484
719,374.0,42400.0,9.145368576049805,1.2729815244674685,-2.8043880462646484
720,360.0,41000.0,9.016156196594238,1.3878371715545654,-3.0149567127227783
721,361.0,41100.0,9.016156196594238,1.3878371715545654,-3.0149567127227783
722,362.0,41200.0,8.925228118896484,1.4620146751403809,-2.9814569950103764
723,363.0,41300.0,8.925228118896484,1.4620146751403809,-2.9814569950103764
724,364.0,41400.0,8.671588897705076,1.519442439079285,-2.785245418548584
725,365.0,41500.0,8.671588897705076,1.519442439079285,-2.785245418548584
726,366.0,41600.0,9.145368576049805,1.0719845294952393,-3.072384119033813
727,367.0,41700.0,9.145368576049805,1.0719845294952393,-3.072384119033813
728,368.0,41800.0,9.456435203552246,1.423729419708252,-2.833101987838745
729,369.0,41900.0,9.456435203552246,1.423729419708252,-2.833101987838745
730,370.0,42000.0,9.456435203552246,1.423729419708252,-2.833101987838745
731,371.0,42100.0,9.226724624633787,1.3543376922607422,-2.864208698272705
732,372.0,42200.0,9.226724624633787,1.3543376922607422,-2.864208698272705
733,373.0,42300.0,9.145368576049805,1.2729815244674685,-2.8043880462646484
734,374.0,42400.0,9.145368576049805,1.2729815244674685,-2.8043880462646484
735,375.0,42500.0,9.212367057800293,1.294516921043396,-2.8737800121307373
736,376.0,42600.0,9.212367057800293,1.294516921043396,-2.8737800121307373
737,377.0,42700.0,9.212367057800293,1.294516921043396,-2.8737800121307373
738,378.0,42800.0,9.107083320617676,1.3471590280532837,-2.8115665912628174
739,379.0,42900.0,9.107083320617676,1.3471590280532837,-2.8115665912628174
740,380.0,43000.0,9.131011009216307,1.325623631477356,-2.8594231605529785
741,381.0,43100.0,9.131011009216307,1.325623631477356,-2.8594231605529785
742,382.0,43200.0,9.164510726928713,1.3543376922607422,-2.763710021972656
743,383.0,43300.0,9.164510726928713,1.3543376922607422,-2.763710021972656
744,384.0,43400.0,9.044869422912598,1.4165509939193726,-2.778067111968994
745,385.0,43500.0,9.044869422912598,1.4165509939193726,-2.778067111968994
746,386.0,43600.0,9.044869422912598,1.4165509939193726,-2.778067111968994
747,387.0,43700.0,9.10229778289795,1.373480200767517,-2.864208698272705
748,388.0,43800.0,9.10229778289795,1.373480200767517,-2.864208698272705
749,389.0,43900.0,9.140583038330078,1.4763716459274292,-2.9168508052825928
750,375.0,42500.0,9.212367057800293,1.294516921043396,-2.8737800121307373
751,376.0,42600.0,9.212367057800293,1.294516921043396,-2.8737800121307373
752,377.0,42700.0,9.212367057800293,1.294516921043396,-2.8737800121307373
753,378.0,42800.0,9.107083320617676,1.3471590280532837,-2.8115665912628174
754,379.0,42900.0,9.107083320617676,1.3471590280532837,-2.8115665912628174
755,380.0,43000.0,9.131011009216307,1.325623631477356,-2.8594231605529785
756,381.0,43100.0,9.131011009216307,1.325623631477356,-2.8594231605529785
757,382.0,43200.0,9.164510726928713,1.3543376922607422,-2.763710021972656
758,383.0,43300.0,9.164510726928713,1.3543376922607422,-2.763710021972656
759,384.0,43400.0,9.044869422912598,1.4165509939193726,-2.778067111968994
760,385.0,43500.0,9.044869422912598,1.4165509939193726,-2.778067111968994
761,386.0,43600.0,9.044869422912598,1.4165509939193726,-2.778067111968994
762,387.0,43700.0,9.10229778289795,1.373480200767517,-2.864208698272705
763,388.0,43800.0,9.10229778289795,1.373480200767517,-2.864208698272705
764,389.0,43900.0,9.140583038330078,1.4763716459274292,-2.9168508052825928
765,390.0,44000.0,9.140583038330078,1.4763716459274292,-2.9168508052825928
766,391.0,44100.0,9.379864692687988,1.5864413976669312,-2.885744333267212
767,392.0,44200.0,9.379864692687988,1.5864413976669312,-2.885744333267212
768,393.0,44300.0,9.379864692687988,1.5864413976669312,-2.885744333267212
769,394.0,44400.0,9.236295700073242,1.5984054803848269,-2.8115665912628174
770,395.0,44500.0,9.236295700073242,1.5984054803848269,-2.8115665912628174
771,396.0,44600.0,9.073582649230957,1.4165509939193726,-2.964707374572754
772,397.0,44700.0,9.073582649230957,1.4165509939193726,-2.964707374572754
773,398.0,44800.0,9.226724624633787,1.56969153881073,-2.991028308868408
774,399.0,44900.0,9.226724624633787,1.56969153881073,-2.991028308868408
775,400.0,45000.0,9.226724624633787,1.56969153881073,-2.991028308868408
776,401.0,45100.0,8.992227554321289,1.4045867919921875,-2.8689942359924316
777,402.0,45200.0,8.992227554321289,1.4045867919921875,-2.8689942359924316
778,403.0,45300.0,9.298508644104004,1.4500504732131958,-2.9790639877319336
779,404.0,45400.0,9.298508644104004,1.4500504732131958,-2.9790639877319336
780,390.0,44000.0,9.140583038330078,1.4763716459274292,-2.9168508052825928
781,391.0,44100.0,9.379864692687988,1.5864413976669312,-2.885744333267212
782,392.0,44200.0,9.379864692687988,1.5864413976669312,-2.885744333267212
783,393.0,44300.0,9.379864692687988,1.5864413976669312,-2.885744333267212
784,394.0,44400.0,9.236295700073242,1.5984054803848269,-2.8115665912628174
785,395.0,44500.0,9.236295700073242,1.5984054803848269,-2.8115665912628174
786,396.0,44600.0,9.073582649230957,1.4165509939193726,-2.964707374572754
787,397.0,44700.0,9.073582649230957,1.4165509939193726,-2.964707374572754
788,398.0,44800.0,9.226724624633787,1.56969153881073,-2.991028308868408
789,399.0,44900.0,9.226724624633787,1.56969153881073,-2.991028308868408
790,400.0,45000.0,9.226724624633787,1.56969153881073,-2.991028308868408
791,401.0,45100.0,8.992227554321289,1.4045867919921875,-2.8689942359924316
792,402.0,45200.0,8.992227554321289,1.4045867919921875,-2.8689942359924316
793,403.0,45300.0,9.298508644104004,1.4500504732131958,-2.9790639877319336
794,404.0,45400.0,9.298508644104004,1.4500504732131958,-2.9790639877319336
795,405.0,45500.0,9.332008361816406,1.5170495510101318,-2.9168508052825928
796,406.0,45600.0,9.332008361816406,1.5170495510101318,-2.9168508052825928
797,407.0,45700.0,9.332008361816406,1.5170495510101318,-2.9168508052825928
798,408.0,45800.0,8.910871505737305,1.4189438819885254,-2.8522443771362305
799,409.0,45900.0,8.910871505737305,1.4189438819885254,-2.8522443771362305
800,410.0,46000.0,9.059226989746094,1.3519448041915894,-2.9551358222961426
801,411.0,46100.0,9.059226989746094,1.3519448041915894,-2.9551358222961426
802,412.0,46200.0,9.131011009216307,1.4739787578582764,-2.830709218978882
803,413.0,46300.0,9.131011009216307,1.4739787578582764,-2.830709218978882
804,414.0,46400.0,9.059226989746094,1.392622709274292,-2.785245418548584
805,415.0,46500.0,9.059226989746094,1.392622709274292,-2.785245418548584
806,416.0,46600.0,9.059226989746094,1.392622709274292,-2.785245418548584
807,417.0,46700.0,9.145368576049805,1.56969153881073,-2.8498516082763667
808,418.0,46800.0,9.145368576049805,1.56969153881073,-2.8498516082763667
809,419.0,46900.0,9.131011009216307,1.5170495510101318,-2.8115665912628174
810,405.0,45500.0,9.332008361816406,1.5170495510101318,-2.9168508052825928
811,406.0,45600.0,9.332008361816406,1.5170495510101318,-2.9168508052825928
812,407.0,45700.0,9.332008361816406,1.5170495510101318,-2.9168508052825928
813,408.0,45800.0,8.910871505737305,1.4189438819885254,-2.8522443771362305
814,409.0,45900.0,8.910871505737305,1.4189438819885254,-2.8522443771362305
815,410.0,46000.0,9.059226989746094,1.3519448041915894,-2.9551358222961426
816,411.0,46100.0,9.059226989746094,1.3519448041915894,-2.9551358222961426
817,412.0,46200.0,9.131011009216307,1.4739787578582764,-2.830709218978882
818,413.0,46300.0,9.131011009216307,1.4739787578582764,-2.830709218978882
819,414.0,46400.0,9.059226989746094,1.392622709274292,-2.785245418548584
820,415.0,46500.0,9.059226989746094,1.392622709274292,-2.785245418548584
821,416.0,46600.0,9.059226989746094,1.392622709274292,-2.785245418548584
822,417.0,46700.0,9.145368576049805,1.56969153881073,-2.8498516082763667
823,418.0,46800.0,9.145368576049805,1.56969153881073,-2.8498516082763667
824,419.0,46900.0,9.131011009216307,1.5170495510101318,-2.8115665912628174
825,420.0,47000.0,9.131011009216307,1.5170495510101318,-2.8115665912628174
826,421.0,47100.0,9.135796546936037,1.423729419708252,-2.8067808151245117
827,422.0,47200.0,9.135796546936037,1.423729419708252,-2.8067808151245117
828,423.0,47300.0,9.135796546936037,1.423729419708252,-2.8067808151245117
829,424.0,47400.0,9.159724235534668,1.5122638940811155,-2.8737800121307373
830,425.0,47500.0,9.159724235534668,1.5122638940811155,-2.8737800121307373
831,426.0,47600.0,9.087940216064453,1.4859429597854614,-2.8522443771362305
832,427.0,47700.0,9.087940216064453,1.4859429597854614,-2.8522443771362305
833,428.0,47800.0,9.183652877807617,1.428515076637268,-2.816352128982544
834,429.0,47900.0,9.183652877807617,1.428515076637268,-2.816352128982544
835,430.0,48000.0,9.183652877807617,1.428515076637268,-2.816352128982544
836,431.0,48100.0,9.150154113769533,1.5122638940811155,-2.933600425720215
837,432.0,48200.0,9.150154113769533,1.5122638940811155,-2.933600425720215
838,433.0,48300.0,9.121439933776855,1.5314064025878906,-2.888136863708496
839,434.0,48400.0,9.121439933776855,1.5314064025878906,-2.888136863708496
840,420.0,47000.0,9.131011009216307,1.5170495510101318,-2.8115665912628174
841,421.0,47100.0,9.135796546936037,1.423729419708252,-2.8067808151245117
842,422.0,47200.0,9.135796546936037,1.423729419708252,-2.8067808151245117
843,423.0,47300.0,9.135796546936037,1.423729419708252,-2.8067808151245117
844,424.0,47400.0,9.159724235534668,1.5122638940811155,-2.8737800121307373
845,425.0,47500.0,9.159724235534668,1.5122638940811155,-2.8737800121307373
846,426.0,47600.0,9.087940216064453,1.4859429597854614,-2.8522443771362305
847,427.0,47700.0,9.087940216064453,1.4859429597854614,-2.8522443771362305
848,428.0,47800.0,9.183652877807617,1.428515076637268,-2.816352128982544
849,429.0,47900.0,9.183652877807617,1.428515076637268,-2.816352128982544
850,430.0,48000.0,9.183652877807617,1.428515076637268,-2.816352128982544
851,431.0,48100.0,9.150154113769533,1.5122638940811155,-2.933600425720215
852,432.0,48200.0,9.150154113769533,1.5122638940811155,-2.933600425720215
853,433.0,48300.0,9.121439933776855,1.5314064025878906,-2.888136863708496
854,434.0,48400.0,9.121439933776855,1.5314064025878906,-2.888136863708496
855,435.0,48500.0,9.131011009216307,1.4668002128601074,-2.8283162117004395
856,436.0,48600.0,9.131011009216307,1.4668002128601074,-2.8283162117004395
857,437.0,48700.0,9.131011009216307,1.4668002128601074,-2.8283162117004395
858,438.0,48800.0,9.159724235534668,1.5936198234558103,-2.830709218978882
859,439.0,48900.0,9.159724235534668,1.5936198234558103,-2.830709218978882
860,440.0,49000.0,9.150154113769533,1.550549030303955,-2.7900311946868896
861,441.0,49100.0,9.150154113769533,1.550549030303955,-2.7900311946868896
862,442.0,49200.0,9.169296264648438,1.4787644147872925,-2.8139593601226807
863,443.0,49300.0,9.169296264648438,1.4787644147872925,-2.8139593601226807
864,444.0,49400.0,9.169296264648438,1.4787644147872925,-2.8139593601226807
865,445.0,49500.0,9.030512809753418,1.5098710060119631,-2.7589242458343506
866,446.0,49600.0,9.030512809753418,1.5098710060119631,-2.7589242458343506
867,447.0,49700.0,9.097511291503906,1.5098710060119631,-2.8187451362609863
868,448.0,49800.0,9.097511291503906,1.5098710060119631,-2.8187451362609863
869,449.0,49900.0,9.107083320617676,1.5409778356552124,-2.9048867225646973
870,435.0,48500.0,9.131011009216307,1.4668002128601074,-2.8283162117004395
871,436.0,48600.0,9.131011009216307,1.4668002128601074,-2.8283162117004395
872,437.0,48700.0,9.131011009216307,1.4668002128601074,-2.8283162117004395
873,438.0,48800.0,9.159724235534668,1.5936198234558103,-2.830709218978882
874,439.0,48900.0,9.159724235534668,1.5936198234558103,-2.830709218978882
875,440.0,49000.0,9.150154113769533,1.550549030303955,-2.7900311946868896
876,441.0,49100.0,9.150154113769533,1.550549030303955,-2.7900311946868896
877,442.0,49200.0,9.169296264648438,1.4787644147872925,-2.8139593601226807
878,443.0,49300.0,9.169296264648438,1.4787644147872925,-2.8139593601226807
879,444.0,49400.0,9.169296264648438,1.4787644147872925,-2.8139593601226807
880,445.0,49500.0,9.030512809753418,1.5098710060119631,-2.7589242458343506
881,446.0,49600.0,9.030512809753418,1.5098710060119631,-2.7589242458343506
882,447.0,49700.0,9.097511291503906,1.5098710060119631,-2.8187451362609863
883,448.0,49800.0,9.097511291503906,1.5098710060119631,-2.8187451362609863
884,449.0,49900.0,9.107083320617676,1.5409778356552124,-2.9048867225646973
885,450.0,50000.0,9.107083320617676,1.5409778356552124,-2.9048867225646973
886,451.0,50100.0,9.107083320617676,1.5409778356552124,-2.9048867225646973
887,452.0,50200.0,9.111868858337402,1.5481561422348022,-2.8929224014282227
888,453.0,50300.0,9.111868858337402,1.5481561422348022,-2.8929224014282227
889,454.0,50400.0,9.207581520080566,1.574477195739746,-2.909672498703003
890,455.0,50500.0,9.207581520080566,1.574477195739746,-2.909672498703003
891,456.0,50600.0,9.097511291503906,1.4859429597854614,-2.857030153274536
892,457.0,50700.0,9.097511291503906,1.4859429597854614,-2.857030153274536
893,458.0,50800.0,9.107083320617676,1.4811571836471558,-2.8833510875701904
894,459.0,50900.0,9.107083320617676,1.4811571836471558,-2.8833510875701904
895,460.0,51000.0,9.107083320617676,1.4811571836471558,-2.8833510875701904
896,461.0,51100.0,9.116654396057127,1.5361920595169067,-2.9168508052825928
897,462.0,51200.0,9.116654396057127,1.5361920595169067,-2.9168508052825928
898,463.0,51300.0,9.126225471496582,1.588834285736084,-2.8929224014282227
899,464.0,51400.0,9.126225471496582,1.588834285736084,-2.8929224014282227
900,450.0,50000.0,9.107083320617676,1.5409778356552124,-2.9048867225646973
901,451.0,50100.0,9.107083320617676,1.5409778356552124,-2.9048867225646973
902,452.0,50200.0,9.111868858337402,1.5481561422348022,-2.8929224014282227
903,453.0,50300.0,9.111868858337402,1.5481561422348022,-2.8929224014282227
904,454.0,50400.0,9.207581520080566,1.574477195739746,-2.909672498703003
905,455.0,50500.0,9.207581520080566,1.574477195739746,-2.909672498703003
906,456.0,50600.0,9.097511291503906,1.4859429597854614,-2.857030153274536
907,457.0,50700.0,9.097511291503906,1.4859429597854614,-2.857030153274536
908,458.0,50800.0,9.107083320617676,1.4811571836471558,-2.8833510875701904
909,459.0,50900.0,9.107083320617676,1.4811571836471558,-2.8833510875701904
910,460.0,51000.0,9.107083320617676,1.4811571836471558,-2.8833510875701904
911,461.0,51100.0,9.116654396057127,1.5361920595169067,-2.9168508052825928
912,462.0,51200.0,9.116654396057127,1.5361920595169067,-2.9168508052825928
913,463.0,51300.0,9.126225471496582,1.588834285736084,-2.8929224014282227
914,464.0,51400.0,9.126225471496582,1.588834285736084,-2.8929224014282227
915,465.0,51500.0,9.126225471496582,1.588834285736084,-2.8929224014282227
916,466.0,51600.0,9.078369140625,1.497907042503357,-2.723031997680664
917,467.0,51700.0,9.078369140625,1.497907042503357,-2.723031997680664
918,468.0,51800.0,9.18843936920166,1.442872166633606,-2.926422357559204
919,469.0,51900.0,9.18843936920166,1.442872166633606,-2.926422357559204
920,470.0,52000.0,9.10229778289795,1.5481561422348022,-3.0173492431640625
921,471.0,52100.0,9.10229778289795,1.5481561422348022,-3.0173492431640625
922,472.0,52200.0,8.997013092041016,1.6199408769607544,-2.96949315071106
923,473.0,52300.0,8.997013092041016,1.6199408769607544,-2.96949315071106
924,474.0,52400.0,8.997013092041016,1.6199408769607544,-2.96949315071106
925,475.0,52500.0,9.164510726928713,1.56251323223114,-2.9383859634399414
926,476.0,52600.0,9.164510726928713,1.56251323223114,-2.9383859634399414
927,477.0,52700.0,9.078369140625,1.529013752937317,-2.9527432918548584
928,478.0,52800.0,9.078369140625,1.529013752937317,-2.9527432918548584
929,479.0,52900.0,9.044869422912598,1.5314064025878906,-2.8115665912628174
930,465.0,51500.0,9.126225471496582,1.588834285736084,-2.8929224014282227
931,466.0,51600.0,9.078369140625,1.497907042503357,-2.723031997680664
932,467.0,51700.0,9.078369140625,1.497907042503357,-2.723031997680664
933,468.0,51800.0,9.18843936920166,1.442872166633606,-2.926422357559204
934,469.0,51900.0,9.18843936920166,1.442872166633606,-2.926422357559204
935,470.0,52000.0,9.10229778289795,1.5481561422348022,-3.0173492431640625
936,471.0,52100.0,9.10229778289795,1.5481561422348022,-3.0173492431640625
937,472.0,52200.0,8.997013092041016,1.6199408769607544,-2.96949315071106
938,473.0,52300.0,8.997013092041016,1.6199408769607544,-2.96949315071106
939,474.0,52400.0,8.997013092041016,1.6199408769607544,-2.96949315071106
940,475.0,52500.0,9.164510726928713,1.56251323223114,-2.9383859634399414
941,476.0,52600.0,9.164510726928713,1.56251323223114,-2.9383859634399414
942,477.0,52700.0,9.078369140625,1.529013752937317,-2.9527432918548584
943,478.0,52800.0,9.078369140625,1.529013752937317,-2.9527432918548584
944,479.0,52900.0,9.044869422912598,1.5314064025878906,-2.8115665912628174
945,480.0,53000.0,9.044869422912598,1.5314064025878906,-2.8115665912628174
946,481.0,53100.0,9.044869422912598,1.5314064025878906,-2.8115665912628174
947,482.0,53200.0,9.020941734313963,1.3974084854125977,-2.9551358222961426
948,483.0,53300.0,9.020941734313963,1.3974084854125977,-2.9551358222961426
949,484.0,53400.0,9.059226989746094,1.430907964706421,-2.885744333267212
950,485.0,53500.0,9.059226989746094,1.430907964706421,-2.885744333267212
951,486.0,53600.0,9.226724624633787,1.6677974462509155,-2.7828526496887207
952,487.0,53700.0,9.226724624633787,1.6677974462509155,-2.7828526496887207
953,488.0,53800.0,9.15493869781494,1.4213367700576782,-2.9216365814208984
954,489.0,53900.0,9.15493869781494,1.4213367700576782,-2.9216365814208984
955,490.0,54000.0,9.15493869781494,1.4213367700576782,-2.9216365814208984
956,491.0,54100.0,9.116654396057127,1.5026925802230835,-2.801995038986206
957,492.0,54200.0,9.116654396057127,1.5026925802230835,-2.801995038986206
958,493.0,54300.0,9.073582649230957,1.6031911373138428,-3.1513471603393555
959,494.0,54400.0,9.073582649230957,1.6031911373138428,-3.1513471603393555
960,480.0,53000.0,9.044869422912598,1.5314064025878906,-2.8115665912628174
961,481.0,53100.0,9.044869422912598,1.5314064025878906,-2.8115665912628174
962,482.0,53200.0,9.020941734313963,1.3974084854125977,-2.9551358222961426
963,483.0,53300.0,9.020941734313963,1.3974084854125977,-2.9551358222961426
964,484.0,53400.0,9.059226989746094,1.430907964706421,-2.885744333267212
965,485.0,53500.0,9.059226989746094,1.430907964706421,-2.885744333267212
966,486.0,53600.0,9.226724624633787,1.6677974462509155,-2.7828526496887207
967,487.0,53700.0,9.226724624633787,1.6677974462509155,-2.7828526496887207
968,488.0,53800.0,9.15493869781494,1.4213367700576782,-2.9216365814208984
969,489.0,53900.0,9.15493869781494,1.4213367700576782,-2.9216365814208984
970,490.0,54000.0,9.15493869781494,1.4213367700576782,-2.9216365814208984
971,491.0,54100.0,9.116654396057127,1.5026925802230835,-2.801995038986206
972,492.0,54200.0,9.116654396057127,1.5026925802230835,-2.801995038986206
973,493.0,54300.0,9.073582649230957,1.6031911373138428,-3.1513471603393555
974,494.0,54400.0,9.073582649230957,1.6031911373138428,-3.1513471603393555
975,495.0,54500.0,9.073582649230957,1.6031911373138428,-3.1513471603393555
976,496.0,54600.0,8.968299865722656,1.7635102272033691,-2.8929224014282227
977,497.0,54700.0,8.968299865722656,1.7635102272033691,-2.8929224014282227
978,498.0,54800.0,9.030512809753418,1.6175479888916016,-2.8594231605529785
979,499.0,54900.0,9.030512809753418,1.6175479888916016,-2.8594231605529785
980,500.0,55000.0,9.183652877807617,1.5337992906570437,-2.926422357559204
981,501.0,55100.0,9.183652877807617,1.5337992906570437,-2.926422357559204
982,502.0,55200.0,9.226724624633787,1.4859429597854614,-3.0436704158782963
983,503.0,55300.0,9.226724624633787,1.4859429597854614,-3.0436704158782963
984,504.0,55400.0,9.226724624633787,1.4859429597854614,-3.0436704158782963
985,505.0,55500.0,9.21715259552002,1.6223337650299072,-2.761317014694214
986,506.0,55600.0,9.21715259552002,1.6223337650299072,-2.761317014694214
987,507.0,55700.0,8.886943817138672,1.6654045581817627,-2.617748022079468
988,508.0,55800.0,8.886943817138672,1.6654045581817627,-2.617748022079468
989,509.0,55900.0,8.886943817138672,1.6654045581817627,-2.617748022079468
990,495.0,54500.0,9.073582649230957,1.6031911373138428,-3.1513471603393555
991,496.0,54600.0,8.968299865722656,1.7635102272033691,-2.8929224014282227
992,497.0,54700.0,8.968299865722656,1.7635102272033691,-2.8929224014282227
993,498.0,54800.0,9.030512809753418,1.6175479888916016,-2.8594231605529785
994,499.0,54900.0,9.030512809753418,1.6175479888916016,-2.8594231605529785
995,500.0,55000.0,9.183652877807617,1.5337992906570437,-2.926422357559204
996,501.0,55100.0,9.183652877807617,1.5337992906570437,-2.926422357559204
997,502.0,55200.0,9.226724624633787,1.4859429597854614,-3.0436704158782963
998,503.0,55300.0,9.226724624633787,1.4859429597854614,-3.0436704158782963
999,504.0,55400.0,9.226724624633787,1.4859429597854614,-3.0436704158782963
1000,505.0,55500.0,9.21715259552002,1.6223337650299072,-2.761317014694214
1001,506.0,55600.0,9.21715259552002,1.6223337650299072,-2.761317014694214
1002,507.0,55700.0,8.886943817138672,1.6654045581817627,-2.617748022079468
1003,508.0,55800.0,8.886943817138672,1.6654045581817627,-2.617748022079468
1004,509.0,55900.0,8.886943817138672,1.6654045581817627,-2.617748022079468
1005,510.0,56000.0,8.767301559448242,1.7371891736984253,-2.8211379051208496
1006,511.0,56100.0,8.767301559448242,1.7371891736984253,-2.8211379051208496
1007,512.0,56200.0,8.61894702911377,1.8209381103515625,-2.124826431274414
1008,513.0,56300.0,8.61894702911377,1.8209381103515625,-2.124826431274414
1009,514.0,56400.0,9.169296264648438,1.5337992906570437,-2.3473589420318604
1010,515.0,56500.0,9.169296264648438,1.5337992906570437,-2.3473589420318604
1011,516.0,56600.0,9.006584167480469,1.380658507347107,-2.4837498664855957
1012,517.0,56700.0,9.006584167480469,1.380658507347107,-2.4837498664855957
1013,518.0,56800.0,9.006584167480469,1.380658507347107,-2.4837498664855957
1014,519.0,56900.0,9.384650230407717,1.495514154434204,-2.517249345779419
1015,520.0,57000.0,9.384650230407717,1.495514154434204,-2.517249345779419
1016,521.0,57100.0,9.087940216064453,1.2658032178878784,-2.691925525665283
1017,522.0,57200.0,9.087940216064453,1.2658032178878784,-2.691925525665283
1018,523.0,57300.0,9.087940216064453,1.2658032178878784,-2.691925525665283
1019,524.0,57400.0,9.078369140625,1.2490534782409668,-2.7421746253967285
1020,510.0,56000.0,8.767301559448242,1.7371891736984253,-2.8211379051208496
1021,511.0,56100.0,8.767301559448242,1.7371891736984253,-2.8211379051208496
1022,512.0,56200.0,8.61894702911377,1.8209381103515625,-2.124826431274414
1023,513.0,56300.0,8.61894702911377,1.8209381103515625,-2.124826431274414
1024,514.0,56400.0,9.169296264648438,1.5337992906570437,-2.3473589420318604
1025,515.0,56500.0,9.169296264648438,1.5337992906570437,-2.3473589420318604
1026,516.0,56600.0,9.006584167480469,1.380658507347107,-2.4837498664855957
1027,517.0,56700.0,9.006584167480469,1.380658507347107,-2.4837498664855957
1028,518.0,56800.0,9.006584167480469,1.380658507347107,-2.4837498664855957
1029,519.0,56900.0,9.384650230407717,1.495514154434204,-2.517249345779419
1030,520.0,57000.0,9.384650230407717,1.495514154434204,-2.517249345779419
1031,521.0,57100.0,9.087940216064453,1.2658032178878784,-2.691925525665283
1032,522.0,57200.0,9.087940216064453,1.2658032178878784,-2.691925525665283
1033,523.0,57300.0,9.087940216064453,1.2658032178878784,-2.691925525665283
1034,524.0,57400.0,9.078369140625,1.2490534782409668,-2.7421746253967285
1035,525.0,57500.0,9.078369140625,1.2490534782409668,-2.7421746253967285
1036,526.0,57600.0,9.164510726928713,1.428515076637268,-2.7254250049591064
1037,527.0,57700.0,9.164510726928713,1.428515076637268,-2.7254250049591064
1038,528.0,57800.0,9.131011009216307,1.1868400573730469,-2.6967110633850098
1039,529.0,57900.0,9.131011009216307,1.1868400573730469,-2.6967110633850098
1040,530.0,58000.0,9.131011009216307,1.1868400573730469,-2.6967110633850098
1041,531.0,58100.0,9.269794464111328,1.4333008527755735,-2.754138946533203
1042,532.0,58200.0,9.269794464111328,1.4333008527755735,-2.754138946533203
1043,533.0,58300.0,9.260223388671877,1.3974084854125977,-2.7349963188171387
1044,534.0,58400.0,9.260223388671877,1.3974084854125977,-2.7349963188171387
1045,535.0,58500.0,9.221939086914062,1.4021940231323242,-2.7828526496887207
1046,536.0,58600.0,9.221939086914062,1.4021940231323242,-2.7828526496887207
1047,537.0,58700.0,9.221939086914062,1.4021940231323242,-2.7828526496887207
1048,538.0,58800.0,9.10229778289795,1.294516921043396,-2.7014968395233154
1049,539.0,58900.0,9.10229778289795,1.294516921043396,-2.7014968395233154
1050,525.0,57500.0,9.078369140625,1.2490534782409668,-2.7421746253967285
1051,526.0,57600.0,9.164510726928713,1.428515076637268,-2.7254250049591064
1052,527.0,57700.0,9.164510726928713,1.428515076637268,-2.7254250049591064
1053,528.0,57800.0,9.131011009216307,1.1868400573730469,-2.6967110633850098
1054,529.0,57900.0,9.131011009216307,1.1868400573730469,-2.6967110633850098
1055,530.0,58000.0,9.131011009216307,1.1868400573730469,-2.6967110633850098
1056,531.0,58100.0,9.269794464111328,1.4333008527755735,-2.754138946533203
1057,532.0,58200.0,9.269794464111328,1.4333008527755735,-2.754138946533203
1058,533.0,58300.0,9.260223388671877,1.3974084854125977,-2.7349963188171387
1059,534.0,58400.0,9.260223388671877,1.3974084854125977,-2.7349963188171387
1060,535.0,58500.0,9.221939086914062,1.4021940231323242,-2.7828526496887207
1061,536.0,58600.0,9.221939086914062,1.4021940231323242,-2.7828526496887207
1062,537.0,58700.0,9.221939086914062,1.4021940231323242,-2.7828526496887207
1063,538.0,58800.0,9.10229778289795,1.294516921043396,-2.7014968395233154
1064,539.0,58900.0,9.10229778289795,1.294516921043396,-2.7014968395233154
1065,540.0,59000.0,9.193224906921387,1.4093725681304932,-2.699103832244873
1066,541.0,59100.0,9.193224906921387,1.4093725681304932,-2.699103832244873
1067,542.0,59200.0,9.193224906921387,1.4093725681304932,-2.699103832244873
1068,543.0,59300.0,9.174081802368164,1.2538390159606934,-2.761317014694214
1069,544.0,59400.0,9.174081802368164,1.2538390159606934,-2.761317014694214
1070,545.0,59500.0,9.28893756866455,1.3495519161224363,-2.6799612045288086
1071,546.0,59600.0,9.28893756866455,1.3495519161224363,-2.6799612045288086
1072,547.0,59700.0,9.20279598236084,1.306481122970581,-2.7182462215423584
1073,548.0,59800.0,9.20279598236084,1.306481122970581,-2.7182462215423584
1074,549.0,59900.0,9.17886734008789,1.2131611108779907,-2.7589242458343506
1075,550.0,60000.0,9.17886734008789,1.2131611108779907,-2.7589242458343506
1076,551.0,60100.0,9.17886734008789,1.2131611108779907,-2.7589242458343506
1077,552.0,60200.0,9.322437286376953,1.423729419708252,-2.7876384258270264
1078,553.0,60300.0,9.322437286376953,1.423729419708252,-2.7876384258270264
1079,554.0,60400.0,9.274580955505373,1.2299107313156128,-2.7326035499572754
1080,540.0,59000.0,9.193224906921387,1.4093725681304932,-2.699103832244873
1081,541.0,59100.0,9.193224906921387,1.4093725681304932,-2.699103832244873
1082,542.0,59200.0,9.193224906921387,1.4093725681304932,-2.699103832244873
1083,543.0,59300.0,9.174081802368164,1.2538390159606934,-2.761317014694214
1084,544.0,59400.0,9.174081802368164,1.2538390159606934,-2.761317014694214
1085,545.0,59500.0,9.28893756866455,1.3495519161224363,-2.6799612045288086
1086,546.0,59600.0,9.28893756866455,1.3495519161224363,-2.6799612045288086
1087,547.0,59700.0,9.20279598236084,1.306481122970581,-2.7182462215423584
1088,548.0,59800.0,9.20279598236084,1.306481122970581,-2.7182462215423584
1089,549.0,59900.0,9.17886734008789,1.2131611108779907,-2.7589242458343506
1090,550.0,60000.0,9.17886734008789,1.2131611108779907,-2.7589242458343506
1091,551.0,60100.0,9.17886734008789,1.2131611108779907,-2.7589242458343506
1092,552.0,60200.0,9.322437286376953,1.423729419708252,-2.7876384258270264
1093,553.0,60300.0,9.322437286376953,1.423729419708252,-2.7876384258270264
1094,554.0,60400.0,9.274580955505373,1.2299107313156128,-2.7326035499572754
1095,555.0,60500.0,9.274580955505373,1.2299107313156128,-2.7326035499572754
1096,556.0,60600.0,9.207581520080566,1.2562319040298462,-2.6608188152313232
1097,557.0,60700.0,9.207581520080566,1.2562319040298462,-2.6608188152313232
1098,558.0,60800.0,9.198010444641113,1.3878371715545654,-2.756531953811645
1099,559.0,60900.0,9.198010444641113,1.3878371715545654,-2.756531953811645
1100,560.0,61000.0,9.198010444641113,1.3878371715545654,-2.756531953811645
1101,561.0,61100.0,9.212367057800293,1.2059825658798218,-2.720639228820801
1102,562.0,61200.0,9.212367057800293,1.2059825658798218,-2.720639228820801
1103,563.0,61300.0,9.15493869781494,1.1772687435150146,-2.63449764251709
1104,564.0,61400.0,9.15493869781494,1.1772687435150146,-2.63449764251709
1105,565.0,61500.0,9.15493869781494,1.1772687435150146,-2.63449764251709
1106,566.0,61600.0,9.150154113769533,1.3328022956848145,-2.6943180561065674
1107,567.0,61700.0,9.150154113769533,1.3328022956848145,-2.6943180561065674
1108,568.0,61800.0,9.212367057800293,1.2059825658798218,-2.629711866378784
1109,569.0,61900.0,9.212367057800293,1.2059825658798218,-2.629711866378784
1110,555.0,60500.0,9.274580955505373,1.2299107313156128,-2.7326035499572754
1111,556.0,60600.0,9.207581520080566,1.2562319040298462,-2.6608188152313232
1112,557.0,60700.0,9.207581520080566,1.2562319040298462,-2.6608188152313232
1113,558.0,60800.0,9.198010444641113,1.3878371715545654,-2.756531953811645
1114,559.0,60900.0,9.198010444641113,1.3878371715545654,-2.756531953811645
1115,560.0,61000.0,9.198010444641113,1.3878371715545654,-2.756531953811645
1116,561.0,61100.0,9.212367057800293,1.2059825658798218,-2.720639228820801
1117,562.0,61200.0,9.212367057800293,1.2059825658798218,-2.720639228820801
1118,563.0,61300.0,9.15493869781494,1.1772687435150146,-2.63449764251709
1119,564.0,61400.0,9.15493869781494,1.1772687435150146,-2.63449764251709
1120,565.0,61500.0,9.15493869781494,1.1772687435150146,-2.63449764251709
1121,566.0,61600.0,9.150154113769533,1.3328022956848145,-2.6943180561065674
1122,567.0,61700.0,9.150154113769533,1.3328022956848145,-2.6943180561065674
1123,568.0,61800.0,9.212367057800293,1.2059825658798218,-2.629711866378784
1124,569.0,61900.0,9.212367057800293,1.2059825658798218,-2.629711866378784
1125,570.0,62000.0,9.308080673217773,1.3232309818267822,-2.6943180561065674
1126,571.0,62100.0,9.308080673217773,1.3232309818267822,-2.6943180561065674
1127,572.0,62200.0,9.140583038330078,1.2681961059570312,-2.6321046352386475
1128,573.0,62300.0,9.140583038330078,1.2681961059570312,-2.6321046352386475
1129,574.0,62400.0,9.140583038330078,1.2681961059570312,-2.6321046352386475
1130,575.0,62500.0,9.241080284118652,1.244267821311951,-2.730210542678833
1131,576.0,62600.0,9.241080284118652,1.244267821311951,-2.730210542678833
1132,577.0,62700.0,9.241080284118652,1.2418749332427979,-2.6632115840911865
1133,578.0,62800.0,9.241080284118652,1.2418749332427979,-2.6632115840911865
1134,579.0,62900.0,9.226724624633787,1.325623631477356,-2.65842604637146
1135,580.0,63000.0,9.226724624633787,1.325623631477356,-2.65842604637146
1136,581.0,63100.0,9.116654396057127,1.227518081665039,-2.7589242458343506
1137,582.0,63200.0,9.116654396057127,1.227518081665039,-2.7589242458343506
1138,583.0,63300.0,8.97787094116211,1.1485549211502075,-2.900100946426392
1139,584.0,63400.0,8.97787094116211,1.1485549211502075,-2.900100946426392
1140,570.0,62000.0,9.308080673217773,1.3232309818267822,-2.6943180561065674
1141,571.0,62100.0,9.308080673217773,1.3232309818267822,-2.6943180561065674
1142,572.0,62200.0,9.140583038330078,1.2681961059570312,-2.6321046352386475
1143,573.0,62300.0,9.140583038330078,1.2681961059570312,-2.6321046352386475
1144,574.0,62400.0,9.140583038330078,1.2681961059570312,-2.6321046352386475
1145,575.0,62500.0,9.241080284118652,1.244267821311951,-2.730210542678833
1146,576.0,62600.0,9.241080284118652,1.244267821311951,-2.730210542678833
1147,577.0,62700.0,9.241080284118652,1.2418749332427979,-2.6632115840911865
1148,578.0,62800.0,9.241080284118652,1.2418749332427979,-2.6632115840911865
1149,579.0,62900.0,9.226724624633787,1.325623631477356,-2.65842604637146
1150,580.0,63000.0,9.226724624633787,1.325623631477356,-2.65842604637146
1151,581.0,63100.0,9.116654396057127,1.227518081665039,-2.7589242458343506
1152,582.0,63200.0,9.116654396057127,1.227518081665039,-2.7589242458343506
1153,583.0,63300.0,8.97787094116211,1.1485549211502075,-2.900100946426392
1154,584.0,63400.0,8.97787094116211,1.1485549211502075,-2.900100946426392
1155,585.0,63500.0,8.97787094116211,1.1485549211502075,-2.900100946426392
1156,586.0,63600.0,9.17886734008789,1.1700903177261353,-2.9048867225646973
1157,587.0,63700.0,9.17886734008789,1.1700903177261353,-2.9048867225646973
1158,588.0,63800.0,9.293723106384276,1.062413215637207,-2.6967110633850098
1159,589.0,63900.0,9.293723106384276,1.062413215637207,-2.6967110633850098
1160,590.0,64000.0,9.293723106384276,1.062413215637207,-2.6967110633850098
1161,591.0,64100.0,9.236295700073242,1.0241280794143677,-2.84506630897522
1162,592.0,64200.0,9.236295700073242,1.0241280794143677,-2.84506630897522
1163,593.0,64300.0,9.18843936920166,1.062413215637207,-2.603391170501709
1164,594.0,64400.0,9.18843936920166,1.062413215637207,-2.603391170501709
1165,595.0,64500.0,9.207581520080566,1.0552347898483276,-2.7349963188171387
1166,596.0,64600.0,9.207581520080566,1.0552347898483276,-2.7349963188171387
1167,597.0,64700.0,9.279366493225098,0.9619146585464478,-2.7900311946868896
1168,598.0,64800.0,9.279366493225098,0.9619146585464478,-2.7900311946868896
1169,599.0,64900.0,9.279366493225098,0.9619146585464478,-2.7900311946868896
1170,585.0,63500.0,8.97787094116211,1.1485549211502075,-2.900100946426392
1171,586.0,63600.0,9.17886734008789,1.1700903177261353,-2.9048867225646973
1172,587.0,63700.0,9.17886734008789,1.1700903177261353,-2.9048867225646973
1173,588.0,63800.0,9.293723106384276,1.062413215637207,-2.6967110633850098
1174,589.0,63900.0,9.293723106384276,1.062413215637207,-2.6967110633850098
1175,590.0,64000.0,9.293723106384276,1.062413215637207,-2.6967110633850098
1176,591.0,64100.0,9.236295700073242,1.0241280794143677,-2.84506630897522
1177,592.0,64200.0,9.236295700073242,1.0241280794143677,-2.84506630897522
1178,593.0,64300.0,9.18843936920166,1.062413215637207,-2.603391170501709
1179,594.0,64400.0,9.18843936920166,1.062413215637207,-2.603391170501709
1180,595.0,64500.0,9.207581520080566,1.0552347898483276,-2.7349963188171387
1181,596.0,64600.0,9.207581520080566,1.0552347898483276,-2.7349963188171387
1182,597.0,64700.0,9.279366493225098,0.9619146585464478,-2.7900311946868896
1183,598.0,64800.0,9.279366493225098,0.9619146585464478,-2.7900311946868896
1184,599.0,64900.0,9.279366493225098,0.9619146585464478,-2.7900311946868896
1185,600.0,65000.0,9.298508644104004,1.0719845294952393,-2.7397818565368652
1186,601.0,65100.0,9.298508644104004,1.0719845294952393,-2.7397818565368652
1187,602.0,65200.0,9.17886734008789,1.1509476900100708,-2.7038896083831787
1188,603.0,65300.0,9.17886734008789,1.1509476900100708,-2.7038896083831787
1189,604.0,65400.0,9.17886734008789,1.1509476900100708,-2.7038896083831787
1190,605.0,65500.0,9.17886734008789,1.155733346939087,-2.67278265953064
1191,606.0,65600.0,9.17886734008789,1.155733346939087,-2.67278265953064
1192,607.0,65700.0,9.17886734008789,1.1772687435150146,-2.847458839416504
1193,608.0,65800.0,9.17886734008789,1.1772687435150146,-2.847458839416504
1194,609.0,65900.0,9.34157943725586,1.1006983518600464,-2.75174617767334
1195,610.0,66000.0,9.34157943725586,1.1006983518600464,-2.75174617767334
1196,611.0,66100.0,9.107083320617676,1.0552347898483276,-2.675175428390503
1197,612.0,66200.0,9.107083320617676,1.0552347898483276,-2.675175428390503
1198,613.0,66300.0,9.107083320617676,1.0552347898483276,-2.675175428390503
1199,614.0,66400.0,9.169296264648438,1.0839486122131348,-2.715853452682495
1200,600.0,65000.0,9.298508644104004,1.0719845294952393,-2.7397818565368652
1201,601.0,65100.0,9.298508644104004,1.0719845294952393,-2.7397818565368652
1202,602.0,65200.0,9.17886734008789,1.1509476900100708,-2.7038896083831787
1203,603.0,65300.0,9.17886734008789,1.1509476900100708,-2.7038896083831787
1204,604.0,65400.0,9.17886734008789,1.1509476900100708,-2.7038896083831787
1205,605.0,65500.0,9.17886734008789,1.155733346939087,-2.67278265953064
1206,606.0,65600.0,9.17886734008789,1.155733346939087,-2.67278265953064
1207,607.0,65700.0,9.17886734008789,1.1772687435150146,-2.847458839416504
1208,608.0,65800.0,9.17886734008789,1.1772687435150146,-2.847458839416504
1209,609.0,65900.0,9.34157943725586,1.1006983518600464,-2.75174617767334
1210,610.0,66000.0,9.34157943725586,1.1006983518600464,-2.75174617767334
1211,611.0,66100.0,9.107083320617676,1.0552347898483276,-2.675175428390503
1212,612.0,66200.0,9.107083320617676,1.0552347898483276,-2.675175428390503
1213,613.0,66300.0,9.107083320617676,1.0552347898483276,-2.675175428390503
1214,614.0,66400.0,9.169296264648438,1.0839486122131348,-2.715853452682495
1215,615.0,66500.0,9.169296264648438,1.0839486122131348,-2.715853452682495
1216,616.0,66600.0,9.418149948120117,1.2634103298187256,-2.6775684356689453
1217,617.0,66700.0,9.418149948120117,1.2634103298187256,-2.6775684356689453
1218,618.0,66800.0,9.418149948120117,1.2634103298187256,-2.6775684356689453
1219,619.0,66900.0,9.111868858337402,1.4021940231323242,-2.691925525665283
1220,620.0,67000.0,9.111868858337402,1.4021940231323242,-2.691925525665283
1221,621.0,67100.0,9.322437286376953,1.3782659769058228,-2.756531953811645
1222,622.0,67200.0,9.322437286376953,1.3782659769058228,-2.756531953811645
1223,623.0,67300.0,9.09272575378418,1.0911270380020142,-2.830709218978882
1224,624.0,67400.0,9.09272575378418,1.0911270380020142,-2.830709218978882
1225,625.0,67500.0,9.231510162353516,1.2323036193847656,-2.914458036422728
1226,626.0,67600.0,9.231510162353516,1.2323036193847656,-2.914458036422728
1227,627.0,67700.0,9.231510162353516,1.2323036193847656,-2.914458036422728
1228,628.0,67800.0,9.221939086914062,1.184447169303894,-2.8402805328369136
1229,629.0,67900.0,9.221939086914062,1.184447169303894,-2.8402805328369136
1230,615.0,66500.0,9.169296264648438,1.0839486122131348,-2.715853452682495
1231,616.0,66600.0,9.418149948120117,1.2634103298187256,-2.6775684356689453
1232,617.0,66700.0,9.418149948120117,1.2634103298187256,-2.6775684356689453
1233,618.0,66800.0,9.418149948120117,1.2634103298187256,-2.6775684356689453
1234,619.0,66900.0,9.111868858337402,1.4021940231323242,-2.691925525665283
1235,620.0,67000.0,9.111868858337402,1.4021940231323242,-2.691925525665283
1236,621.0,67100.0,9.322437286376953,1.3782659769058228,-2.756531953811645
1237,622.0,67200.0,9.322437286376953,1.3782659769058228,-2.756531953811645
1238,623.0,67300.0,9.09272575378418,1.0911270380020142,-2.830709218978882
1239,624.0,67400.0,9.09272575378418,1.0911270380020142,-2.830709218978882
1240,625.0,67500.0,9.231510162353516,1.2323036193847656,-2.914458036422728
1241,626.0,67600.0,9.231510162353516,1.2323036193847656,-2.914458036422728
1242,627.0,67700.0,9.231510162353516,1.2323036193847656,-2.914458036422728
1243,628.0,67800.0,9.221939086914062,1.184447169303894,-2.8402805328369136
1244,629.0,67900.0,9.221939086914062,1.184447169303894,-2.8402805328369136
1245,630.0,68000.0,9.054441452026367,1.0528419017791748,-2.885744333267212
1246,631.0,68100.0,9.054441452026367,1.0528419017791748,-2.885744333267212
1247,632.0,68200.0,9.231510162353516,1.1437692642211914,-2.8426735401153564
1248,633.0,68300.0,9.231510162353516,1.1437692642211914,-2.8426735401153564
1249,634.0,68400.0,9.174081802368164,1.0480562448501587,-2.7421746253967285
1250,635.0,68500.0,9.174081802368164,1.0480562448501587,-2.7421746253967285
1251,636.0,68600.0,9.174081802368164,1.0480562448501587,-2.7421746253967285
1252,637.0,68700.0,9.250652313232422,1.105484127998352,-2.940778970718384
1253,638.0,68800.0,9.250652313232422,1.105484127998352,-2.940778970718384
1254,639.0,68900.0,9.18843936920166,0.9954141974449158,-2.7254250049591064
1255,640.0,69000.0,9.18843936920166,0.9954141974449158,-2.7254250049591064
1256,641.0,69100.0,9.284152030944824,1.1198409795761108,-2.8139593601226807
1257,642.0,69200.0,9.284152030944824,1.1198409795761108,-2.8139593601226807
1258,643.0,69300.0,9.241080284118652,0.9882357716560364,-2.792424201965332
1259,644.0,69400.0,9.241080284118652,0.9882357716560364,-2.792424201965332
1260,630.0,68000.0,9.054441452026367,1.0528419017791748,-2.885744333267212
1261,631.0,68100.0,9.054441452026367,1.0528419017791748,-2.885744333267212
1262,632.0,68200.0,9.231510162353516,1.1437692642211914,-2.8426735401153564
1263,633.0,68300.0,9.231510162353516,1.1437692642211914,-2.8426735401153564
1264,634.0,68400.0,9.174081802368164,1.0480562448501587,-2.7421746253967285
1265,635.0,68500.0,9.174081802368164,1.0480562448501587,-2.7421746253967285
1266,636.0,68600.0,9.174081802368164,1.0480562448501587,-2.7421746253967285
1267,637.0,68700.0,9.250652313232422,1.105484127998352,-2.940778970718384
1268,638.0,68800.0,9.250652313232422,1.105484127998352,-2.940778970718384
1269,639.0,68900.0,9.18843936920166,0.9954141974449158,-2.7254250049591064
1270,640.0,69000.0,9.18843936920166,0.9954141974449158,-2.7254250049591064
1271,641.0,69100.0,9.284152030944824,1.1198409795761108,-2.8139593601226807
1272,642.0,69200.0,9.284152030944824,1.1198409795761108,-2.8139593601226807
1273,643.0,69300.0,9.241080284118652,0.9882357716560364,-2.792424201965332
1274,644.0,69400.0,9.241080284118652,0.9882357716560364,-2.792424201965332
1275,645.0,69500.0,9.241080284118652,0.9882357716560364,-2.792424201965332
1276,646.0,69600.0,9.20279598236084,1.06480610370636,-2.833101987838745
1277,647.0,69700.0,9.20279598236084,1.06480610370636,-2.833101987838745
1278,648.0,69800.0,9.231510162353516,1.1341978311538696,-2.715853452682495
1279,649.0,69900.0,9.231510162353516,1.1341978311538696,-2.715853452682495
1280,650.0,70000.0,9.001798629760742,1.0600204467773438,-2.935993194580078
1281,651.0,70100.0,9.001798629760742,1.0600204467773438,-2.935993194580078
1282,652.0,70200.0,9.001798629760742,1.0600204467773438,-2.935993194580078
1283,653.0,70300.0,9.059226989746094,1.1868400573730469,-2.756531953811645
1284,654.0,70400.0,9.059226989746094,1.1868400573730469,-2.756531953811645
1285,655.0,70500.0,9.116654396057127,1.3184452056884766,-2.940778970718384
1286,656.0,70600.0,9.116654396057127,1.3184452056884766,-2.940778970718384
1287,657.0,70700.0,9.207581520080566,1.1150553226470947,-3.072384119033813
1288,658.0,70800.0,9.207581520080566,1.1150553226470947,-3.072384119033813
1289,659.0,70900.0,9.044869422912598,1.0145567655563354,-3.156132936477661
1290,645.0,69500.0,9.241080284118652,0.9882357716560364,-2.792424201965332
1291,646.0,69600.0,9.20279598236084,1.06480610370636,-2.833101987838745
1292,647.0,69700.0,9.20279598236084,1.06480610370636,-2.833101987838745
1293,648.0,69800.0,9.231510162353516,1.1341978311538696,-2.715853452682495
1294,649.0,69900.0,9.231510162353516,1.1341978311538696,-2.715853452682495
1295,650.0,70000.0,9.001798629760742,1.0600204467773438,-2.935993194580078
1296,651.0,70100.0,9.001798629760742,1.0600204467773438,-2.935993194580078
1297,652.0,70200.0,9.001798629760742,1.0600204467773438,-2.935993194580078
1298,653.0,70300.0,9.059226989746094,1.1868400573730469,-2.756531953811645
1299,654.0,70400.0,9.059226989746094,1.1868400573730469,-2.756531953811645
1300,655.0,70500.0,9.116654396057127,1.3184452056884766,-2.940778970718384
1301,656.0,70600.0,9.116654396057127,1.3184452056884766,-2.940778970718384
1302,657.0,70700.0,9.207581520080566,1.1150553226470947,-3.072384119033813
1303,658.0,70800.0,9.207581520080566,1.1150553226470947,-3.072384119033813
1304,659.0,70900.0,9.044869422912598,1.0145567655563354,-3.156132936477661
1305,660.0,71000.0,9.044869422912598,1.0145567655563354,-3.156132936477661
1306,661.0,71100.0,9.044869422912598,1.0145567655563354,-3.156132936477661
1307,662.0,71200.0,9.183652877807617,1.3328022956848145,-3.208775281906128
1308,663.0,71300.0,9.183652877807617,1.3328022956848145,-3.208775281906128
1309,664.0,71400.0,9.150154113769533,1.4524433612823486,-3.0029923915863037
1310,665.0,71500.0,9.150154113769533,1.4524433612823486,-3.0029923915863037
1311,666.0,71600.0,9.06401252746582,1.3950155973434448,-3.067598581314087
1312,667.0,71700.0,9.06401252746582,1.3950155973434448,-3.067598581314087
1313,668.0,71800.0,9.06401252746582,1.3950155973434448,-3.067598581314087
1314,669.0,71900.0,9.30329418182373,1.0911270380020142,-2.864208698272705
1315,670.0,72000.0,9.30329418182373,1.0911270380020142,-2.864208698272705
1316,671.0,72100.0,9.221939086914062,1.210768222808838,-2.8761727809906006
1317,672.0,72200.0,9.221939086914062,1.210768222808838,-2.8761727809906006
1318,673.0,72300.0,9.183652877807617,1.2969098091125488,-2.7828526496887207
1319,674.0,72400.0,9.183652877807617,1.2969098091125488,-2.7828526496887207
1320,660.0,71000.0,9.044869422912598,1.0145567655563354,-3.156132936477661
1321,661.0,71100.0,9.044869422912598,1.0145567655563354,-3.156132936477661
1322,662.0,71200.0,9.183652877807617,1.3328022956848145,-3.208775281906128
1323,663.0,71300.0,9.183652877807617,1.3328022956848145,-3.208775281906128
1324,664.0,71400.0,9.150154113769533,1.4524433612823486,-3.0029923915863037
1325,665.0,71500.0,9.150154113769533,1.4524433612823486,-3.0029923915863037
1326,666.0,71600.0,9.06401252746582,1.3950155973434448,-3.067598581314087
1327,667.0,71700.0,9.06401252746582,1.3950155973434448,-3.067598581314087
1328,668.0,71800.0,9.06401252746582,1.3950155973434448,-3.067598581314087
1329,669.0,71900.0,9.30329418182373,1.0911270380020142,-2.864208698272705
1330,670.0,72000.0,9.30329418182373,1.0911270380020142,-2.864208698272705
1331,671.0,72100.0,9.221939086914062,1.210768222808838,-2.8761727809906006
1332,672.0,72200.0,9.221939086914062,1.210768222808838,-2.8761727809906006
1333,673.0,72300.0,9.183652877807617,1.2969098091125488,-2.7828526496887207
1334,674.0,72400.0,9.183652877807617,1.2969098091125488,-2.7828526496887207
1335,675.0,72500.0,9.183652877807617,1.2969098091125488,-2.7828526496887207
1336,676.0,72600.0,9.370293617248537,1.497907042503357,-2.9072794914245605
1337,677.0,72700.0,9.370293617248537,1.497907042503357,-2.9072794914245605
1338,678.0,72800.0,9.169296264648438,1.191625714302063,-2.816352128982544
1339,679.0,72900.0,9.169296264648438,1.191625714302063,-2.816352128982544
1340,680.0,73000.0,9.078369140625,1.3375877141952517,-2.675175428390503
1341,681.0,73100.0,9.078369140625,1.3375877141952517,-2.675175428390503
1342,682.0,73200.0,9.078369140625,1.3375877141952517,-2.675175428390503
1343,683.0,73300.0,9.274580955505373,1.3950155973434448,-2.8713872432708736
1344,684.0,73400.0,9.274580955505373,1.3950155973434448,-2.8713872432708736
1345,685.0,73500.0,9.18843936920166,1.3591231107711792,-2.8833510875701904
1346,686.0,73600.0,9.18843936920166,1.3591231107711792,-2.8833510875701904
1347,687.0,73700.0,9.820144653320312,1.6319050788879397,-2.622533798217773
1348,688.0,73800.0,9.820144653320312,1.6319050788879397,-2.622533798217773
1349,689.0,73900.0,9.30329418182373,1.1820544004440308,-3.0005996227264404
1350,675.0,72500.0,9.183652877807617,1.2969098091125488,-2.7828526496887207
1351,676.0,72600.0,9.370293617248537,1.497907042503357,-2.9072794914245605
1352,677.0,72700.0,9.370293617248537,1.497907042503357,-2.9072794914245605
1353,678.0,72800.0,9.169296264648438,1.191625714302063,-2.816352128982544
1354,679.0,72900.0,9.169296264648438,1.191625714302063,-2.816352128982544
1355,680.0,73000.0,9.078369140625,1.3375877141952517,-2.675175428390503
1356,681.0,73100.0,9.078369140625,1.3375877141952517,-2.675175428390503
1357,682.0,73200.0,9.078369140625,1.3375877141952517,-2.675175428390503
1358,683.0,73300.0,9.274580955505373,1.3950155973434448,-2.8713872432708736
1359,684.0,73400.0,9.274580955505373,1.3950155973434448,-2.8713872432708736
1360,685.0,73500.0,9.18843936920166,1.3591231107711792,-2.8833510875701904
1361,686.0,73600.0,9.18843936920166,1.3591231107711792,-2.8833510875701904
1362,687.0,73700.0,9.820144653320312,1.6319050788879397,-2.622533798217773
1363,688.0,73800.0,9.820144653320312,1.6319050788879397,-2.622533798217773
1364,689.0,73900.0,9.30329418182373,1.1820544004440308,-3.0005996227264404
1365,690.0,74000.0,9.30329418182373,1.1820544004440308,-3.0005996227264404
1366,691.0,74100.0,9.30329418182373,1.1820544004440308,-3.0005996227264404
1367,692.0,74200.0,9.198010444641113,1.3351951837539673,-2.7900311946868896
1368,693.0,74300.0,9.198010444641113,1.3351951837539673,-2.7900311946868896
1369,694.0,74400.0,8.853443145751953,1.2873386144638062,-2.785245418548584
1370,695.0,74500.0,8.853443145751953,1.2873386144638062,-2.785245418548584
1371,696.0,74600.0,8.973085403442383,1.3208380937576294,-2.950350284576416
1372,697.0,74700.0,8.973085403442383,1.3208380937576294,-2.950350284576416
1373,698.0,74800.0,8.973085403442383,1.3208380937576294,-2.950350284576416
1374,699.0,74900.0,9.226724624633787,1.356730580329895,-3.060420036315918
1375,700.0,75000.0,9.226724624633787,1.356730580329895,-3.060420036315918
1376,701.0,75100.0,9.198010444641113,1.277767300605774,-3.005385160446167
1377,702.0,75200.0,9.198010444641113,1.277767300605774,-3.005385160446167
1378,703.0,75300.0,9.241080284118652,1.2705888748168943,-3.1082763671875
1379,704.0,75400.0,9.241080284118652,1.2705888748168943,-3.1082763671875
1380,690.0,74000.0,9.30329418182373,1.1820544004440308,-3.0005996227264404
1381,691.0,74100.0,9.30329418182373,1.1820544004440308,-3.0005996227264404
1382,692.0,74200.0,9.198010444641113,1.3351951837539673,-2.7900311946868896
1383,693.0,74300.0,9.198010444641113,1.3351951837539673,-2.7900311946868896
1384,694.0,74400.0,8.853443145751953,1.2873386144638062,-2.785245418548584
1385,695.0,74500.0,8.853443145751953,1.2873386144638062,-2.785245418548584
1386,696.0,74600.0,8.973085403442383,1.3208380937576294,-2.950350284576416
1387,697.0,74700.0,8.973085403442383,1.3208380937576294,-2.950350284576416
1388,698.0,74800.0,8.973085403442383,1.3208380937576294,-2.950350284576416
1389,699.0,74900.0,9.226724624633787,1.356730580329895,-3.060420036315918
1390,700.0,75000.0,9.226724624633787,1.356730580329895,-3.060420036315918
1391,701.0,75100.0,9.198010444641113,1.277767300605774,-3.005385160446167
1392,702.0,75200.0,9.198010444641113,1.277767300605774,-3.005385160446167
1393,703.0,75300.0,9.241080284118652,1.2705888748168943,-3.1082763671875
1394,704.0,75400.0,9.241080284118652,1.2705888748168943,-3.1082763671875
1395,705.0,75500.0,9.006584167480469,1.129412293434143,-2.8929224014282227
1396,706.0,75600.0,9.006584167480469,1.129412293434143,-2.8929224014282227
1397,707.0,75700.0,9.006584167480469,1.129412293434143,-2.8929224014282227
1398,708.0,75800.0,9.06401252746582,1.1485549211502075,-2.9623143672943115
1399,709.0,75900.0,9.06401252746582,1.1485549211502075,-2.9623143672943115
1400,710.0,76000.0,9.040083885192873,1.0504491329193115,-3.0939197540283203
1401,711.0,76100.0,9.040083885192873,1.0504491329193115,-3.0939197540283203
1402,712.0,76200.0,9.054441452026367,1.0815558433532717,-2.957528829574585
1403,713.0,76300.0,9.054441452026367,1.0815558433532717,-2.957528829574585
1404,714.0,76400.0,9.054441452026367,1.0815558433532717,-2.957528829574585
1405,715.0,76500.0,9.245866775512695,1.0193424224853516,-2.998206615447998
1406,716.0,76600.0,9.245866775512695,1.0193424224853516,-2.998206615447998
1407,717.0,76700.0,9.087940216064453,1.0600204467773438,-3.0460631847381587
1408,718.0,76800.0,9.087940216064453,1.0600204467773438,-3.0460631847381587
1409,719.0,76900.0,9.030512809753418,0.9810572862625122,-3.0005996227264404
1410,705.0,75500.0,9.006584167480469,1.129412293434143,-2.8929224014282227
1411,706.0,75600.0,9.006584167480469,1.129412293434143,-2.8929224014282227
1412,707.0,75700.0,9.006584167480469,1.129412293434143,-2.8929224014282227
1413,708.0,75800.0,9.06401252746582,1.1485549211502075,-2.9623143672943115
1414,709.0,75900.0,9.06401252746582,1.1485549211502075,-2.9623143672943115
1415,710.0,76000.0,9.040083885192873,1.0504491329193115,-3.0939197540283203
1416,711.0,76100.0,9.040083885192873,1.0504491329193115,-3.0939197540283203
1417,712.0,76200.0,9.054441452026367,1.0815558433532717,-2.957528829574585
1418,713.0,76300.0,9.054441452026367,1.0815558433532717,-2.957528829574585
1419,714.0,76400.0,9.054441452026367,1.0815558433532717,-2.957528829574585
1420,715.0,76500.0,9.245866775512695,1.0193424224853516,-2.998206615447998
1421,716.0,76600.0,9.245866775512695,1.0193424224853516,-2.998206615447998
1422,717.0,76700.0,9.087940216064453,1.0600204467773438,-3.0460631847381587
1423,718.0,76800.0,9.087940216064453,1.0600204467773438,-3.0460631847381587
1424,719.0,76900.0,9.030512809753418,0.9810572862625122,-3.0005996227264404
1425,720.0,77000.0,9.030512809753418,0.9810572862625122,-3.0005996227264404
1426,721.0,77100.0,9.030512809753418,0.9810572862625122,-3.0005996227264404
1427,722.0,77200.0,9.116654396057127,1.0528419017791748,-3.117847919464112
1428,723.0,77300.0,9.116654396057127,1.0528419017791748,-3.117847919464112
1429,724.0,77400.0,9.15493869781494,1.057627558708191,-3.25663161277771
1430,725.0,77500.0,9.15493869781494,1.057627558708191,-3.25663161277771
1431,726.0,77600.0,9.059226989746094,0.906879723072052,-3.146562099456787
1432,727.0,77700.0,9.059226989746094,0.906879723072052,-3.146562099456787
1433,728.0,77800.0,9.059226989746094,0.906879723072052,-3.146562099456787
1434,729.0,77900.0,9.131011009216307,1.0217353105545044,-3.177668571472168
1435,730.0,78000.0,9.131011009216307,1.0217353105545044,-3.177668571472168
1436,731.0,78100.0,8.997013092041016,1.160519003868103,-3.1082763671875
1437,732.0,78200.0,8.997013092041016,1.160519003868103,-3.1082763671875
1438,733.0,78300.0,9.087940216064453,1.1270195245742798,-3.0077781677246094
1439,734.0,78400.0,9.087940216064453,1.1270195245742798,-3.0077781677246094
1440,720.0,77000.0,9.030512809753418,0.9810572862625122,-3.0005996227264404
1441,721.0,77100.0,9.030512809753418,0.9810572862625122,-3.0005996227264404
1442,722.0,77200.0,9.116654396057127,1.0528419017791748,-3.117847919464112
1443,723.0,77300.0,9.116654396057127,1.0528419017791748,-3.117847919464112
1444,724.0,77400.0,9.15493869781494,1.057627558708191,-3.25663161277771
1445,725.0,77500.0,9.15493869781494,1.057627558708191,-3.25663161277771
1446,726.0,77600.0,9.059226989746094,0.906879723072052,-3.146562099456787
1447,727.0,77700.0,9.059226989746094,0.906879723072052,-3.146562099456787
1448,728.0,77800.0,9.059226989746094,0.906879723072052,-3.146562099456787
1449,729.0,77900.0,9.131011009216307,1.0217353105545044,-3.177668571472168
1450,730.0,78000.0,9.131011009216307,1.0217353105545044,-3.177668571472168
1451,731.0,78100.0,8.997013092041016,1.160519003868103,-3.1082763671875
1452,732.0,78200.0,8.997013092041016,1.160519003868103,-3.1082763671875
1453,733.0,78300.0,9.087940216064453,1.1270195245742798,-3.0077781677246094
1454,734.0,78400.0,9.087940216064453,1.1270195245742798,-3.0077781677246094
1455,735.0,78500.0,9.087940216064453,1.1270195245742798,-3.0077781677246094
1456,736.0,78600.0,9.212367057800293,1.2323036193847656,-3.050848960876465
1457,737.0,78700.0,9.212367057800293,1.2323036193847656,-3.050848960876465
1458,738.0,78800.0,9.437292098999023,1.2083754539489746,-2.761317014694214
1459,739.0,78900.0,9.437292098999023,1.2083754539489746,-2.761317014694214
1460,740.0,79000.0,9.231510162353516,1.2658032178878784,-2.75174617767334
1461,741.0,79100.0,9.231510162353516,1.2658032178878784,-2.75174617767334
1462,742.0,79200.0,9.231510162353516,1.2658032178878784,-2.75174617767334
1463,743.0,79300.0,9.193224906921387,1.373480200767517,-2.737389087677002
1464,744.0,79400.0,9.193224906921387,1.373480200767517,-2.737389087677002
1465,745.0,79500.0,9.28893756866455,1.3591231107711792,-2.746960401535034
1466,746.0,79600.0,9.28893756866455,1.3591231107711792,-2.746960401535034
1467,747.0,79700.0,9.107083320617676,1.3184452056884766,-2.665604591369629
1468,748.0,79800.0,9.107083320617676,1.3184452056884766,-2.665604591369629
1469,749.0,79900.0,9.107083320617676,1.3184452056884766,-2.665604591369629
1470,735.0,78500.0,9.087940216064453,1.1270195245742798,-3.0077781677246094
1471,736.0,78600.0,9.212367057800293,1.2323036193847656,-3.050848960876465
1472,737.0,78700.0,9.212367057800293,1.2323036193847656,-3.050848960876465
1473,738.0,78800.0,9.437292098999023,1.2083754539489746,-2.761317014694214
1474,739.0,78900.0,9.437292098999023,1.2083754539489746,-2.761317014694214
1475,740.0,79000.0,9.231510162353516,1.2658032178878784,-2.75174617767334
1476,741.0,79100.0,9.231510162353516,1.2658032178878784,-2.75174617767334
1477,742.0,79200.0,9.231510162353516,1.2658032178878784,-2.75174617767334
1478,743.0,79300.0,9.193224906921387,1.373480200767517,-2.737389087677002
1479,744.0,79400.0,9.193224906921387,1.373480200767517,-2.737389087677002
1480,745.0,79500.0,9.28893756866455,1.3591231107711792,-2.746960401535034
1481,746.0,79600.0,9.28893756866455,1.3591231107711792,-2.746960401535034
1482,747.0,79700.0,9.107083320617676,1.3184452056884766,-2.665604591369629
1483,748.0,79800.0,9.107083320617676,1.3184452056884766,-2.665604591369629
1484,749.0,79900.0,9.107083320617676,1.3184452056884766,-2.665604591369629
1485,750.0,80000.0,9.06879711151123,1.2801601886749268,-2.809173583984375
1486,751.0,80100.0,9.06879711151123,1.2801601886749268,-2.809173583984375
1487,752.0,80200.0,9.116654396057127,1.3328022956848145,-2.8666017055511475
1488,753.0,80300.0,9.116654396057127,1.3328022956848145,-2.8666017055511475
1489,754.0,80400.0,9.274580955505373,1.4380863904953003,-2.756531953811645
1490,755.0,80500.0,9.274580955505373,1.4380863904953003,-2.756531953811645
1491,756.0,80600.0,9.274580955505373,1.4380863904953003,-2.756531953811645
1492,757.0,80700.0,9.20279598236084,1.1150553226470947,-2.816352128982544
1493,758.0,80800.0,9.20279598236084,1.1150553226470947,-2.816352128982544
1494,759.0,80900.0,9.212367057800293,1.2346963882446291,-2.7014968395233154
1495,760.0,81000.0,9.212367057800293,1.2346963882446291,-2.7014968395233154
1496,761.0,81100.0,9.375079154968262,1.361515998840332,-2.825923442840576
1497,762.0,81200.0,9.375079154968262,1.361515998840332,-2.825923442840576
1498,763.0,81300.0,9.375079154968262,1.361515998840332,-2.825923442840576
1499,764.0,81400.0,9.164510726928713,1.179661512374878,-2.8713872432708736
1500,750.0,80000.0,9.06879711151123,1.2801601886749268,-2.809173583984375
1501,751.0,80100.0,9.06879711151123,1.2801601886749268,-2.809173583984375
1502,752.0,80200.0,9.116654396057127,1.3328022956848145,-2.8666017055511475
1503,753.0,80300.0,9.116654396057127,1.3328022956848145,-2.8666017055511475
1504,754.0,80400.0,9.274580955505373,1.4380863904953003,-2.756531953811645
1505,755.0,80500.0,9.274580955505373,1.4380863904953003,-2.756531953811645
1506,756.0,80600.0,9.274580955505373,1.4380863904953003,-2.756531953811645
1507,757.0,80700.0,9.20279598236084,1.1150553226470947,-2.816352128982544
1508,758.0,80800.0,9.20279598236084,1.1150553226470947,-2.816352128982544
1509,759.0,80900.0,9.212367057800293,1.2346963882446291,-2.7014968395233154
1510,760.0,81000.0,9.212367057800293,1.2346963882446291,-2.7014968395233154
1511,761.0,81100.0,9.375079154968262,1.361515998840332,-2.825923442840576
1512,762.0,81200.0,9.375079154968262,1.361515998840332,-2.825923442840576
1513,763.0,81300.0,9.375079154968262,1.361515998840332,-2.825923442840576
1514,764.0,81400.0,9.164510726928713,1.179661512374878,-2.8713872432708736
1515,765.0,81500.0,9.164510726928713,1.179661512374878,-2.8713872432708736
1516,766.0,81600.0,9.231510162353516,1.2418749332427979,-2.8354949951171875
1517,767.0,81700.0,9.231510162353516,1.2418749332427979,-2.8354949951171875
1518,768.0,81800.0,9.159724235534668,1.1629117727279663,-2.761317014694214
1519,769.0,81900.0,9.159724235534668,1.1629117727279663,-2.761317014694214
1520,770.0,82000.0,9.159724235534668,1.1629117727279663,-2.761317014694214
1521,771.0,82100.0,9.18843936920166,1.2753744125366209,-2.89052963256836
1522,772.0,82200.0,9.18843936920166,1.2753744125366209,-2.89052963256836
1523,773.0,82300.0,9.126225471496582,1.2610174417495728,-2.9240293502807617
1524,774.0,82400.0,9.126225471496582,1.2610174417495728,-2.9240293502807617
1525,775.0,82500.0,9.174081802368164,1.3016955852508545,-2.720639228820801
1526,776.0,82600.0,9.174081802368164,1.3016955852508545,-2.720639228820801
1527,777.0,82700.0,9.183652877807617,1.184447169303894,-2.933600425720215
1528,778.0,82800.0,9.183652877807617,1.184447169303894,-2.933600425720215
1529,779.0,82900.0,9.183652877807617,1.184447169303894,-2.933600425720215
1530,765.0,81500.0,9.164510726928713,1.179661512374878,-2.8713872432708736
1531,766.0,81600.0,9.231510162353516,1.2418749332427979,-2.8354949951171875
1532,767.0,81700.0,9.231510162353516,1.2418749332427979,-2.8354949951171875
1533,768.0,81800.0,9.159724235534668,1.1629117727279663,-2.761317014694214
1534,769.0,81900.0,9.159724235534668,1.1629117727279663,-2.761317014694214
1535,770.0,82000.0,9.159724235534668,1.1629117727279663,-2.761317014694214
1536,771.0,82100.0,9.18843936920166,1.2753744125366209,-2.89052963256836
1537,772.0,82200.0,9.18843936920166,1.2753744125366209,-2.89052963256836
1538,773.0,82300.0,9.126225471496582,1.2610174417495728,-2.9240293502807617
1539,774.0,82400.0,9.126225471496582,1.2610174417495728,-2.9240293502807617
1540,775.0,82500.0,9.174081802368164,1.3016955852508545,-2.720639228820801
1541,776.0,82600.0,9.174081802368164,1.3016955852508545,-2.720639228820801
1542,777.0,82700.0,9.183652877807617,1.184447169303894,-2.933600425720215
1543,778.0,82800.0,9.183652877807617,1.184447169303894,-2.933600425720215
1544,779.0,82900.0,9.183652877807617,1.184447169303894,-2.933600425720215
1545,780.0,83000.0,9.580862045288086,1.2873386144638062,-2.799602746963501
1546,781.0,83100.0,9.580862045288086,1.2873386144638062,-2.799602746963501
1547,782.0,83200.0,9.097511291503906,1.1772687435150146,-2.943171739578247
1548,783.0,83300.0,9.097511291503906,1.1772687435150146,-2.943171739578247
1549,784.0,83400.0,9.011369705200195,0.9260223507881165,-2.6321046352386475
1550,785.0,83500.0,9.011369705200195,0.9260223507881165,-2.6321046352386475
1551,786.0,83600.0,9.011369705200195,0.9260223507881165,-2.6321046352386475
1552,787.0,83700.0,9.145368576049805,1.2131611108779907,-2.945564746856689
1553,788.0,83800.0,9.145368576049805,1.2131611108779907,-2.945564746856689
1554,789.0,83900.0,8.97787094116211,1.0217353105545044,-2.9718859195709237
1555,790.0,84000.0,8.97787094116211,1.0217353105545044,-2.9718859195709237
1556,791.0,84100.0,9.116654396057127,0.973878800868988,-2.902493953704834
1557,792.0,84200.0,9.116654396057127,0.973878800868988,-2.902493953704834
1558,793.0,84300.0,9.116654396057127,0.973878800868988,-2.902493953704834
1559,794.0,84400.0,9.69093132019043,1.2179466485977173,-2.8833510875701904
1560,780.0,83000.0,9.580862045288086,1.2873386144638062,-2.799602746963501
1561,781.0,83100.0,9.580862045288086,1.2873386144638062,-2.799602746963501
1562,782.0,83200.0,9.097511291503906,1.1772687435150146,-2.943171739578247
1563,783.0,83300.0,9.097511291503906,1.1772687435150146,-2.943171739578247
1564,784.0,83400.0,9.011369705200195,0.9260223507881165,-2.6321046352386475
1565,785.0,83500.0,9.011369705200195,0.9260223507881165,-2.6321046352386475
1566,786.0,83600.0,9.011369705200195,0.9260223507881165,-2.6321046352386475
1567,787.0,83700.0,9.145368576049805,1.2131611108779907,-2.945564746856689
1568,788.0,83800.0,9.145368576049805,1.2131611108779907,-2.945564746856689
1569,789.0,83900.0,8.97787094116211,1.0217353105545044,-2.9718859195709237
1570,790.0,84000.0,8.97787094116211,1.0217353105545044,-2.9718859195709237
1571,791.0,84100.0,9.116654396057127,0.973878800868988,-2.902493953704834
1572,792.0,84200.0,9.116654396057127,0.973878800868988,-2.902493953704834
1573,793.0,84300.0,9.116654396057127,0.973878800868988,-2.902493953704834
1574,794.0,84400.0,9.69093132019043,1.2179466485977173,-2.8833510875701904
1575,795.0,84500.0,9.69093132019043,1.2179466485977173,-2.8833510875701904
1576,796.0,84600.0,8.896513938903809,0.9427721500396729,-2.933600425720215
1577,797.0,84700.0,8.896513938903809,0.9427721500396729,-2.933600425720215
1578,798.0,84800.0,8.767301559448242,0.8518448472023009,-2.825923442840576
1579,799.0,84900.0,8.767301559448242,0.8518448472023009,-2.825923442840576
1580,800.0,85000.0,8.767301559448242,0.8518448472023009,-2.825923442840576
1581,801.0,85100.0,8.858229637145996,1.0408778190612793,-3.067598581314087
1582,802.0,85200.0,8.858229637145996,1.0408778190612793,-3.067598581314087
1583,803.0,85300.0,9.379864692687988,1.3208380937576294,-2.763710021972656
1584,804.0,85400.0,9.379864692687988,1.3208380937576294,-2.763710021972656
1585,805.0,85500.0,9.260223388671877,1.160519003868103,-3.0939197540283203
1586,806.0,85600.0,9.260223388671877,1.160519003868103,-3.0939197540283203
1587,807.0,85700.0,8.949156761169434,1.0073783397674558,-2.8211379051208496
1588,808.0,85800.0,8.949156761169434,1.0073783397674558,-2.8211379051208496
1589,809.0,85900.0,8.949156761169434,1.0073783397674558,-2.8211379051208496
1590,795.0,84500.0,9.69093132019043,1.2179466485977173,-2.8833510875701904
1591,796.0,84600.0,8.896513938903809,0.9427721500396729,-2.933600425720215
1592,797.0,84700.0,8.896513938903809,0.9427721500396729,-2.933600425720215
1593,798.0,84800.0,8.767301559448242,0.8518448472023009,-2.825923442840576
1594,799.0,84900.0,8.767301559448242,0.8518448472023009,-2.825923442840576
1595,800.0,85000.0,8.767301559448242,0.8518448472023009,-2.825923442840576
1596,801.0,85100.0,8.858229637145996,1.0408778190612793,-3.067598581314087
1597,802.0,85200.0,8.858229637145996,1.0408778190612793,-3.067598581314087
1598,803.0,85300.0,9.379864692687988,1.3208380937576294,-2.763710021972656
1599,804.0,85400.0,9.379864692687988,1.3208380937576294,-2.763710021972656
1600,805.0,85500.0,9.260223388671877,1.160519003868103,-3.0939197540283203
1601,806.0,85600.0,9.260223388671877,1.160519003868103,-3.0939197540283203
1602,807.0,85700.0,8.949156761169434,1.0073783397674558,-2.8211379051208496
1603,808.0,85800.0,8.949156761169434,1.0073783397674558,-2.8211379051208496
1604,809.0,85900.0,8.949156761169434,1.0073783397674558,-2.8211379051208496
1605,810.0,86000.0,9.351150512695312,1.2131611108779907,-3.1130621433258057
1606,811.0,86100.0,9.351150512695312,1.2131611108779907,-3.1130621433258057
1607,812.0,86200.0,9.260223388671877,1.146162033081055,-3.0484561920166016
1608,813.0,86300.0,9.260223388671877,1.146162033081055,-3.0484561920166016
1609,814.0,86400.0,9.260223388671877,1.146162033081055,-3.0484561920166016
1610,815.0,86500.0,9.164510726928713,1.2610174417495728,-2.89052963256836
1611,816.0,86600.0,9.164510726928713,1.2610174417495728,-2.89052963256836
1612,817.0,86700.0,9.174081802368164,1.3160523176193235,-2.902493953704834
1613,818.0,86800.0,9.174081802368164,1.3160523176193235,-2.902493953704834
1614,819.0,86900.0,9.231510162353516,1.1102697849273682,-3.0149567127227783
1615,820.0,87000.0,9.231510162353516,1.1102697849273682,-3.0149567127227783
1616,821.0,87100.0,9.159724235534668,1.2586246728897097,-3.0221347808837886
1617,822.0,87200.0,9.159724235534668,1.2586246728897097,-3.0221347808837886
1618,823.0,87300.0,9.159724235534668,1.2586246728897097,-3.0221347808837886
