,timestamp,ax,ay,az
0,7000.0,-8.919598579406738,-1.708262920379639,3.2758665084838867
1,7100.0,-8.919598579406738,-1.708262920379639,3.2758665084838867
2,7200.0,-8.919598579406738,-1.708262920379639,3.2758665084838867
3,7300.0,-8.919598579406738,-1.7693150043487549,3.2872388362884517
4,7400.0,-8.922591209411621,-1.731606364250183,3.277063608169556
5,7500.0,-8.922591209411621,-1.731606364250183,3.277063608169556
6,7600.0,-8.974066734313965,-1.7274165153503418,3.2423477172851562
7,7700.0,-8.974066734313965,-1.7274165153503418,3.2423477172851562
8,7800.0,-8.893860816955566,-1.7830817699432373,3.288435935974121
9,7900.0,-8.893860816955566,-1.7830817699432373,3.288435935974121
10,8000.0,-8.8878755569458,-1.7884687185287476,3.2710781097412114
11,8100.0,-8.8878755569458,-1.7884687185287476,3.2710781097412114
12,8200.0,-8.878896713256836,-1.764526605606079,3.265092611312866
13,8300.0,-8.904036521911621,-1.7250223159790041,3.263296842575073
14,8400.0,-8.904036521911621,-1.7250223159790041,3.263296842575073
15,8500.0,-8.875904083251953,-1.7094600200653076,3.263296842575073
16,8600.0,-8.875904083251953,-1.7094600200653076,3.263296842575073
17,8700.0,-8.909422874450684,-1.746570110321045,3.2680852413177486
18,8800.0,-8.909422874450684,-1.746570110321045,3.2680852413177486
19,8900.0,-8.901641845703125,-1.7369933128356934,3.266289710998535
20,9000.0,-8.901641845703125,-1.7369933128356934,3.266289710998535
21,9100.0,-8.920795440673828,-1.7304092645645142,3.290830135345459
22,9200.0,-8.898649215698242,-1.7040730714797974,3.2836475372314453
23,9300.0,-8.898649215698242,-1.7040730714797974,3.2836475372314453
24,9400.0,-8.966285705566406,-1.726817965507507,3.286041736602783
25,9500.0,-8.966285705566406,-1.726817965507507,3.286041736602783
26,9600.0,-8.913613319396973,-1.7573440074920654,3.277063608169556
27,9700.0,-8.913613319396973,-1.7573440074920654,3.277063608169556
28,9800.0,-8.910021781921387,-1.7747019529342651,3.2872388362884517
29,9900.0,-8.910021781921387,-1.7747019529342651,3.2872388362884517
30,8500.0,-8.875904083251953,-1.7094600200653076,3.263296842575073
31,8600.0,-8.875904083251953,-1.7094600200653076,3.263296842575073
32,8700.0,-8.909422874450684,-1.746570110321045,3.2680852413177486
33,8800.0,-8.909422874450684,-1.746570110321045,3.2680852413177486
34,8900.0,-8.901641845703125,-1.7369933128356934,3.266289710998535
35,9000.0,-8.901641845703125,-1.7369933128356934,3.266289710998535
36,9100.0,-8.920795440673828,-1.7304092645645142,3.290830135345459
37,9200.0,-8.898649215698242,-1.7040730714797974,3.2836475372314453
38,9300.0,-8.898649215698242,-1.7040730714797974,3.2836475372314453
39,9400.0,-8.966285705566406,-1.726817965507507,3.286041736602783
40,9500.0,-8.966285705566406,-1.726817965507507,3.286041736602783
41,9600.0,-8.913613319396973,-1.7573440074920654,3.277063608169556
42,9700.0,-8.913613319396973,-1.7573440074920654,3.277063608169556
43,9800.0,-8.910021781921387,-1.7747019529342651,3.2872388362884517
44,9900.0,-8.910021781921387,-1.7747019529342651,3.2872388362884517
45,10000.0,-8.910619735717773,-1.7393875122070312,3.2716765403747563
46,10100.0,-8.96149730682373,-1.7519570589065552,3.273472309112549
47,10200.0,-8.96149730682373,-1.7519570589065552,3.273472309112549
48,10300.0,-8.91301441192627,-1.7705121040344238,3.2620997428894043
49,10400.0,-8.91301441192627,-1.7705121040344238,3.2620997428894043
50,10500.0,-8.927379608154297,-1.7274165153503418,3.272873640060425
51,10600.0,-8.927379608154297,-1.7274165153503418,3.272873640060425
52,10700.0,-8.900444984436035,-1.7776948213577268,3.2848446369171143
53,10800.0,-8.900444984436035,-1.7776948213577268,3.2848446369171143
54,10900.0,-8.967482566833496,-1.648407816886902,3.3165678977966313
55,11000.0,-8.87291145324707,-1.8160020112991333,3.2710781097412114
56,11100.0,-8.87291145324707,-1.8160020112991333,3.2710781097412114
57,11200.0,-8.878896713256836,-1.7615338563919067,3.27227520942688
58,11300.0,-8.878896713256836,-1.7615338563919067,3.27227520942688
59,11400.0,-8.925583839416504,-1.7585411071777344,3.2848446369171143
60,10000.0,-8.910619735717773,-1.7393875122070312,3.2716765403747563
61,10100.0,-8.96149730682373,-1.7519570589065552,3.273472309112549
62,10200.0,-8.96149730682373,-1.7519570589065552,3.273472309112549
63,10300.0,-8.91301441192627,-1.7705121040344238,3.2620997428894043
64,10400.0,-8.91301441192627,-1.7705121040344238,3.2620997428894043
65,10500.0,-8.927379608154297,-1.7274165153503418,3.272873640060425
66,10600.0,-8.927379608154297,-1.7274165153503418,3.272873640060425
67,10700.0,-8.900444984436035,-1.7776948213577268,3.2848446369171143
68,10800.0,-8.900444984436035,-1.7776948213577268,3.2848446369171143
69,10900.0,-8.967482566833496,-1.648407816886902,3.3165678977966313
70,11000.0,-8.87291145324707,-1.8160020112991333,3.2710781097412114
71,11100.0,-8.87291145324707,-1.8160020112991333,3.2710781097412114
72,11200.0,-8.878896713256836,-1.7615338563919067,3.27227520942688
73,11300.0,-8.878896713256836,-1.7615338563919067,3.27227520942688
74,11400.0,-8.925583839416504,-1.7585411071777344,3.2848446369171143
75,11500.0,-8.925583839416504,-1.7585411071777344,3.2848446369171143
76,11600.0,-8.892065048217773,-1.7363947629928589,3.272873640060425
77,11700.0,-8.892065048217773,-1.7363947629928589,3.272873640060425
78,11800.0,-8.920196533203125,-1.7489643096923828,3.2842462062835693
79,11900.0,-8.923788070678711,-1.7387889623641968,3.2483332157135014
80,12000.0,-8.923788070678711,-1.7387889623641968,3.2483332157135014
81,12100.0,-8.921992301940918,-1.7304092645645142,3.2716765403747563
82,12200.0,-8.921992301940918,-1.7304092645645142,3.2716765403747563
83,12300.0,-8.896254539489746,-1.7699135541915894,3.2758665084838867
84,12400.0,-8.896254539489746,-1.7699135541915894,3.2758665084838867
85,12500.0,-8.91540813446045,-1.734000563621521,3.278859138488769
86,12600.0,-8.91540813446045,-1.734000563621521,3.278859138488769
87,12700.0,-8.984241485595703,-1.7214310169219968,3.2537200450897217
88,12800.0,-8.878896713256836,-1.8189947605133057,3.266289710998535
89,12900.0,-8.878896713256836,-1.8189947605133057,3.266289710998535
90,11500.0,-8.925583839416504,-1.7585411071777344,3.2848446369171143
91,11600.0,-8.892065048217773,-1.7363947629928589,3.272873640060425
92,11700.0,-8.892065048217773,-1.7363947629928589,3.272873640060425
93,11800.0,-8.920196533203125,-1.7489643096923828,3.2842462062835693
94,11900.0,-8.923788070678711,-1.7387889623641968,3.2483332157135014
95,12000.0,-8.923788070678711,-1.7387889623641968,3.2483332157135014
96,12100.0,-8.921992301940918,-1.7304092645645142,3.2716765403747563
97,12200.0,-8.921992301940918,-1.7304092645645142,3.2716765403747563
98,12300.0,-8.896254539489746,-1.7699135541915894,3.2758665084838867
99,12400.0,-8.896254539489746,-1.7699135541915894,3.2758665084838867
100,12500.0,-8.91540813446045,-1.734000563621521,3.278859138488769
101,12600.0,-8.91540813446045,-1.734000563621521,3.278859138488769
102,12700.0,-8.984241485595703,-1.7214310169219968,3.2537200450897217
103,12800.0,-8.878896713256836,-1.8189947605133057,3.266289710998535
104,12900.0,-8.878896713256836,-1.8189947605133057,3.266289710998535
105,13000.0,-8.87829875946045,-1.7753005027770996,3.3057940006256104
106,13100.0,-8.87829875946045,-1.7753005027770996,3.3057940006256104
107,13200.0,-8.923190116882324,-1.7304092645645142,3.265092611312866
108,13300.0,-8.923190116882324,-1.7304092645645142,3.265092611312866
109,13400.0,-8.905233383178711,-1.7345991134643557,3.266289710998535
110,13500.0,-8.905233383178711,-1.7345991134643557,3.266289710998535
111,13600.0,-8.884882926940918,-1.79146146774292,3.286041736602783
112,13700.0,-8.845377922058105,-1.734000563621521,3.2746694087982178
113,13800.0,-8.845377922058105,-1.734000563621521,3.2746694087982178
114,13900.0,-8.91421127319336,-1.726817965507507,3.291428804397583
115,14000.0,-8.91421127319336,-1.726817965507507,3.291428804397583
116,14100.0,-8.923788070678711,-1.759738206863403,3.2842462062835693
117,14200.0,-8.923788070678711,-1.759738206863403,3.2842462062835693
118,14300.0,-8.901042938232422,-1.7747019529342651,3.2776620388031006
119,14400.0,-8.901042938232422,-1.7747019529342651,3.2776620388031006
120,13000.0,-8.87829875946045,-1.7753005027770996,3.3057940006256104
121,13100.0,-8.87829875946045,-1.7753005027770996,3.3057940006256104
122,13200.0,-8.923190116882324,-1.7304092645645142,3.265092611312866
123,13300.0,-8.923190116882324,-1.7304092645645142,3.265092611312866
124,13400.0,-8.905233383178711,-1.7345991134643557,3.266289710998535
125,13500.0,-8.905233383178711,-1.7345991134643557,3.266289710998535
126,13600.0,-8.884882926940918,-1.79146146774292,3.286041736602783
127,13700.0,-8.845377922058105,-1.734000563621521,3.2746694087982178
128,13800.0,-8.845377922058105,-1.734000563621521,3.2746694087982178
129,13900.0,-8.91421127319336,-1.726817965507507,3.291428804397583
130,14000.0,-8.91421127319336,-1.726817965507507,3.291428804397583
131,14100.0,-8.923788070678711,-1.759738206863403,3.2842462062835693
132,14200.0,-8.923788070678711,-1.759738206863403,3.2842462062835693
133,14300.0,-8.901042938232422,-1.7747019529342651,3.2776620388031006
134,14400.0,-8.901042938232422,-1.7747019529342651,3.2776620388031006
135,14500.0,-8.909422874450684,-1.7399860620498655,3.2674868106842037
136,14600.0,-8.967482566833496,-1.7214310169219968,3.2525229454040527
137,14700.0,-8.967482566833496,-1.7214310169219968,3.2525229454040527
138,14800.0,-8.923788070678711,-1.765723705291748,3.2998085021972656
139,14900.0,-8.923788070678711,-1.765723705291748,3.2998085021972656
140,15000.0,-8.93037223815918,-1.753154158592224,3.2620997428894043
141,15100.0,-8.93037223815918,-1.753154158592224,3.2620997428894043
142,15200.0,-8.887276649475098,-1.8285715579986568,3.288435935974121
143,15300.0,-8.887276649475098,-1.8285715579986568,3.288435935974121
144,15400.0,-8.901042938232422,-1.7962498664855957,3.2674868106842037
145,15500.0,-8.938153266906738,-1.7286136150360107,3.2644939422607417
146,15600.0,-8.938153266906738,-1.7286136150360107,3.2644939422607417
147,15700.0,-8.916605949401855,-1.7328034639358518,3.266289710998535
148,15800.0,-8.916605949401855,-1.7328034639358518,3.266289710998535
149,15900.0,-8.917802810668945,-1.7585411071777344,3.272873640060425
150,14500.0,-8.909422874450684,-1.7399860620498655,3.2674868106842037
151,14600.0,-8.967482566833496,-1.7214310169219968,3.2525229454040527
152,14700.0,-8.967482566833496,-1.7214310169219968,3.2525229454040527
153,14800.0,-8.923788070678711,-1.765723705291748,3.2998085021972656
154,14900.0,-8.923788070678711,-1.765723705291748,3.2998085021972656
155,15000.0,-8.93037223815918,-1.753154158592224,3.2620997428894043
156,15100.0,-8.93037223815918,-1.753154158592224,3.2620997428894043
157,15200.0,-8.887276649475098,-1.8285715579986568,3.288435935974121
158,15300.0,-8.887276649475098,-1.8285715579986568,3.288435935974121
159,15400.0,-8.901042938232422,-1.7962498664855957,3.2674868106842037
160,15500.0,-8.938153266906738,-1.7286136150360107,3.2644939422607417
161,15600.0,-8.938153266906738,-1.7286136150360107,3.2644939422607417
162,15700.0,-8.916605949401855,-1.7328034639358518,3.266289710998535
163,15800.0,-8.916605949401855,-1.7328034639358518,3.266289710998535
164,15900.0,-8.917802810668945,-1.7585411071777344,3.272873640060425
165,16000.0,-8.917802810668945,-1.7585411071777344,3.272873640060425
166,16100.0,-8.9680814743042,-1.7118542194366455,3.269282341003418
167,16200.0,-8.9680814743042,-1.7118542194366455,3.269282341003418
168,16300.0,-8.89445972442627,-1.7776948213577268,3.2674868106842037
169,16400.0,-8.904036521911621,-1.759738206863403,3.28963303565979
170,16500.0,-8.904036521911621,-1.759738206863403,3.28963303565979
171,16600.0,-8.91181755065918,-1.7741034030914309,3.265092611312866
172,16700.0,-8.91181755065918,-1.7741034030914309,3.265092611312866
173,16800.0,-8.917203903198242,-1.766920804977417,3.256712913513184
174,16900.0,-8.917203903198242,-1.766920804977417,3.256712913513184
175,17000.0,-8.936956405639648,-1.7334020137786863,3.241749048233032
176,17100.0,-8.936956405639648,-1.7334020137786863,3.241749048233032
177,17200.0,-8.885480880737305,-1.7920600175857544,3.288435935974121
178,17300.0,-8.900444984436035,-1.7585411071777344,3.277063608169556
179,17400.0,-8.900444984436035,-1.7585411071777344,3.277063608169556
180,16000.0,-8.917802810668945,-1.7585411071777344,3.272873640060425
181,16100.0,-8.9680814743042,-1.7118542194366455,3.269282341003418
182,16200.0,-8.9680814743042,-1.7118542194366455,3.269282341003418
183,16300.0,-8.89445972442627,-1.7776948213577268,3.2674868106842037
184,16400.0,-8.904036521911621,-1.759738206863403,3.28963303565979
185,16500.0,-8.904036521911621,-1.759738206863403,3.28963303565979
186,16600.0,-8.91181755065918,-1.7741034030914309,3.265092611312866
187,16700.0,-8.91181755065918,-1.7741034030914309,3.265092611312866
188,16800.0,-8.917203903198242,-1.766920804977417,3.256712913513184
189,16900.0,-8.917203903198242,-1.766920804977417,3.256712913513184
190,17000.0,-8.936956405639648,-1.7334020137786863,3.241749048233032
191,17100.0,-8.936956405639648,-1.7334020137786863,3.241749048233032
192,17200.0,-8.885480880737305,-1.7920600175857544,3.288435935974121
193,17300.0,-8.900444984436035,-1.7585411071777344,3.277063608169556
194,17400.0,-8.900444984436035,-1.7585411071777344,3.277063608169556
195,17500.0,-8.905831336975098,-1.7435773611068726,3.2956185340881348
196,17600.0,-8.905831336975098,-1.7435773611068726,3.2956185340881348
197,17700.0,-8.918999671936035,-1.7633295059204102,3.2674868106842037
198,17800.0,-8.918999671936035,-1.7633295059204102,3.2674868106842037
199,17900.0,-8.972869873046875,-1.7070658206939695,3.258508443832397
200,18000.0,-8.972869873046875,-1.7070658206939695,3.258508443832397
201,18100.0,-8.917203903198242,-1.7615338563919067,3.2782607078552246
202,18200.0,-8.917203903198242,-1.7615338563919067,3.2782607078552246
203,18300.0,-8.921394348144531,-1.6747441291809082,3.2118215560913086
204,18400.0,-8.848370552062988,-1.7393875122070312,3.3734302520751958
205,18500.0,-8.848370552062988,-1.7393875122070312,3.3734302520751958
206,18600.0,-8.890868186950684,-1.7872716188430786,3.2620997428894043
207,18700.0,-8.890868186950684,-1.7872716188430786,3.2620997428894043
208,18800.0,-8.908226013183594,-1.681926727294922,3.3075895309448238
209,18900.0,-8.908226013183594,-1.681926727294922,3.3075895309448238
210,17500.0,-8.905831336975098,-1.7435773611068726,3.2956185340881348
211,17600.0,-8.905831336975098,-1.7435773611068726,3.2956185340881348
212,17700.0,-8.918999671936035,-1.7633295059204102,3.2674868106842037
213,17800.0,-8.918999671936035,-1.7633295059204102,3.2674868106842037
214,17900.0,-8.972869873046875,-1.7070658206939695,3.258508443832397
215,18000.0,-8.972869873046875,-1.7070658206939695,3.258508443832397
216,18100.0,-8.917203903198242,-1.7615338563919067,3.2782607078552246
217,18200.0,-8.917203903198242,-1.7615338563919067,3.2782607078552246
218,18300.0,-8.921394348144531,-1.6747441291809082,3.2118215560913086
219,18400.0,-8.848370552062988,-1.7393875122070312,3.3734302520751958
220,18500.0,-8.848370552062988,-1.7393875122070312,3.3734302520751958
221,18600.0,-8.890868186950684,-1.7872716188430786,3.2620997428894043
222,18700.0,-8.890868186950684,-1.7872716188430786,3.2620997428894043
223,18800.0,-8.908226013183594,-1.681926727294922,3.3075895309448238
224,18900.0,-8.908226013183594,-1.681926727294922,3.3075895309448238
225,19000.0,-8.923788070678711,-1.7573440074920654,3.28963303565979
226,19100.0,-8.923788070678711,-1.7573440074920654,3.28963303565979
227,19200.0,-8.859743118286133,-1.7890672683715818,3.291428804397583
228,19300.0,-8.918999671936035,-1.7591396570205688,3.26688814163208
229,19400.0,-8.918999671936035,-1.7591396570205688,3.26688814163208
230,19500.0,-8.889671325683594,-1.7423802614212036,3.3045969009399414
231,19600.0,-8.889671325683594,-1.7423802614212036,3.3045969009399414
232,19700.0,-8.863334655761719,-1.734000563621521,3.289034605026245
233,19800.0,-8.863334655761719,-1.734000563621521,3.289034605026245
234,19900.0,-8.883685111999512,-1.7699135541915894,3.2956185340881348
235,20000.0,-8.883685111999512,-1.7699135541915894,3.2956185340881348
236,20100.0,-8.905831336975098,-1.7423802614212036,3.2746694087982178
237,20200.0,-8.8878755569458,-1.7663222551345823,3.287837505340576
238,20300.0,-8.8878755569458,-1.7663222551345823,3.287837505340576
239,20400.0,-8.922591209411621,-1.7142484188079834,3.273472309112549
240,19000.0,-8.923788070678711,-1.7573440074920654,3.28963303565979
241,19100.0,-8.923788070678711,-1.7573440074920654,3.28963303565979
242,19200.0,-8.859743118286133,-1.7890672683715818,3.291428804397583
243,19300.0,-8.918999671936035,-1.7591396570205688,3.26688814163208
244,19400.0,-8.918999671936035,-1.7591396570205688,3.26688814163208
245,19500.0,-8.889671325683594,-1.7423802614212036,3.3045969009399414
246,19600.0,-8.889671325683594,-1.7423802614212036,3.3045969009399414
247,19700.0,-8.863334655761719,-1.734000563621521,3.289034605026245
248,19800.0,-8.863334655761719,-1.734000563621521,3.289034605026245
249,19900.0,-8.883685111999512,-1.7699135541915894,3.2956185340881348
250,20000.0,-8.883685111999512,-1.7699135541915894,3.2956185340881348
251,20100.0,-8.905831336975098,-1.7423802614212036,3.2746694087982178
252,20200.0,-8.8878755569458,-1.7663222551345823,3.287837505340576
253,20300.0,-8.8878755569458,-1.7663222551345823,3.287837505340576
254,20400.0,-8.922591209411621,-1.7142484188079834,3.273472309112549
255,20500.0,-8.922591209411621,-1.7142484188079834,3.273472309112549
256,20600.0,-8.921394348144531,-1.7280150651931765,3.2992098331451416
257,20700.0,-8.921394348144531,-1.7280150651931765,3.2992098331451416
258,20800.0,-8.904036521911621,-1.741183161735535,3.3045969009399414
259,20900.0,-8.893860816955566,-1.7651251554489136,3.2782607078552246
260,21000.0,-8.893860816955566,-1.7651251554489136,3.2782607078552246
261,21100.0,-8.905831336975098,-1.7501614093780518,3.308786630630493
262,21200.0,-8.905831336975098,-1.7501614093780518,3.308786630630493
263,21300.0,-8.877100944519043,-1.8740613460540767,3.292027235031128
264,21400.0,-8.877100944519043,-1.8740613460540767,3.292027235031128
265,21500.0,-8.907029151916504,-1.7064672708511353,3.296815633773804
266,21600.0,-8.907029151916504,-1.7064672708511353,3.296815633773804
267,21700.0,-8.905831336975098,-1.7136498689651491,3.3028011322021484
268,21800.0,-8.905831336975098,-1.7136498689651491,3.3028011322021484
269,21900.0,-8.878896713256836,-1.766920804977417,3.293224334716797
270,20500.0,-8.922591209411621,-1.7142484188079834,3.273472309112549
271,20600.0,-8.921394348144531,-1.7280150651931765,3.2992098331451416
272,20700.0,-8.921394348144531,-1.7280150651931765,3.2992098331451416
273,20800.0,-8.904036521911621,-1.741183161735535,3.3045969009399414
274,20900.0,-8.893860816955566,-1.7651251554489136,3.2782607078552246
275,21000.0,-8.893860816955566,-1.7651251554489136,3.2782607078552246
276,21100.0,-8.905831336975098,-1.7501614093780518,3.308786630630493
277,21200.0,-8.905831336975098,-1.7501614093780518,3.308786630630493
278,21300.0,-8.877100944519043,-1.8740613460540767,3.292027235031128
279,21400.0,-8.877100944519043,-1.8740613460540767,3.292027235031128
280,21500.0,-8.907029151916504,-1.7064672708511353,3.296815633773804
281,21600.0,-8.907029151916504,-1.7064672708511353,3.296815633773804
282,21700.0,-8.905831336975098,-1.7136498689651491,3.3028011322021484
283,21800.0,-8.905831336975098,-1.7136498689651491,3.3028011322021484
284,21900.0,-8.878896713256836,-1.766920804977417,3.293224334716797
285,22000.0,-8.941744804382324,-1.7369933128356934,3.277063608169556
286,22100.0,-8.941744804382324,-1.7369933128356934,3.277063608169556
287,22200.0,-8.923190116882324,-1.829170107841492,3.3010056018829346
288,22300.0,-8.923190116882324,-1.829170107841492,3.3010056018829346
289,22400.0,-8.881889343261719,-1.8136078119277956,3.292625904083252
290,22500.0,-8.881889343261719,-1.8136078119277956,3.292625904083252
291,22600.0,-8.951920509338379,-1.7214310169219968,3.2740707397460938
292,22700.0,-8.951920509338379,-1.7214310169219968,3.2740707397460938
293,22800.0,-8.90762710571289,-1.7489643096923828,3.277063608169556
294,22900.0,-8.92917537689209,-1.7387889623641968,3.2525229454040527
295,23000.0,-8.92917537689209,-1.7387889623641968,3.2525229454040527
296,23100.0,-8.9680814743042,-1.7196353673934937,3.2620997428894043
297,23200.0,-8.9680814743042,-1.7196353673934937,3.2620997428894043
298,23300.0,-8.908824920654297,-1.7824832201004028,3.3010056018829346
299,23400.0,-8.908824920654297,-1.7824832201004028,3.3010056018829346
300,22000.0,-8.941744804382324,-1.7369933128356934,3.277063608169556
301,22100.0,-8.941744804382324,-1.7369933128356934,3.277063608169556
302,22200.0,-8.923190116882324,-1.829170107841492,3.3010056018829346
303,22300.0,-8.923190116882324,-1.829170107841492,3.3010056018829346
304,22400.0,-8.881889343261719,-1.8136078119277956,3.292625904083252
305,22500.0,-8.881889343261719,-1.8136078119277956,3.292625904083252
306,22600.0,-8.951920509338379,-1.7214310169219968,3.2740707397460938
307,22700.0,-8.951920509338379,-1.7214310169219968,3.2740707397460938
308,22800.0,-8.90762710571289,-1.7489643096923828,3.277063608169556
309,22900.0,-8.92917537689209,-1.7387889623641968,3.2525229454040527
310,23000.0,-8.92917537689209,-1.7387889623641968,3.2525229454040527
311,23100.0,-8.9680814743042,-1.7196353673934937,3.2620997428894043
312,23200.0,-8.9680814743042,-1.7196353673934937,3.2620997428894043
313,23300.0,-8.908824920654297,-1.7824832201004028,3.3010056018829346
314,23400.0,-8.908824920654297,-1.7824832201004028,3.3010056018829346
315,23500.0,-8.903437614440918,-1.7549498081207275,3.2800562381744385
316,23600.0,-8.903437614440918,-1.7549498081207275,3.2800562381744385
317,23700.0,-8.897452354431152,-1.7609353065490725,3.277063608169556
318,23800.0,-8.885480880737305,-1.7818846702575684,3.2794578075408936
319,23900.0,-8.885480880737305,-1.7818846702575684,3.2794578075408936
320,24000.0,-8.877100944519043,-1.7142484188079834,3.265691041946411
321,24100.0,-8.877100944519043,-1.7142484188079834,3.265691041946411
322,24200.0,-8.904036521911621,-1.759738206863403,3.2758665084838867
323,24300.0,-8.904036521911621,-1.759738206863403,3.2758665084838867
324,24400.0,-8.905233383178711,-1.764526605606079,3.2740707397460938
325,24500.0,-8.905233383178711,-1.764526605606079,3.2740707397460938
326,24600.0,-8.911218643188477,-1.7286136150360107,3.245939016342163
327,24700.0,-8.91301441192627,-1.7363947629928589,3.2842462062835693
328,24800.0,-8.91301441192627,-1.7363947629928589,3.2842462062835693
329,24900.0,-8.899846076965332,-1.7441759109497068,3.2710781097412114
330,23500.0,-8.903437614440918,-1.7549498081207275,3.2800562381744385
331,23600.0,-8.903437614440918,-1.7549498081207275,3.2800562381744385
332,23700.0,-8.897452354431152,-1.7609353065490725,3.277063608169556
333,23800.0,-8.885480880737305,-1.7818846702575684,3.2794578075408936
334,23900.0,-8.885480880737305,-1.7818846702575684,3.2794578075408936
335,24000.0,-8.877100944519043,-1.7142484188079834,3.265691041946411
336,24100.0,-8.877100944519043,-1.7142484188079834,3.265691041946411
337,24200.0,-8.904036521911621,-1.759738206863403,3.2758665084838867
338,24300.0,-8.904036521911621,-1.759738206863403,3.2758665084838867
339,24400.0,-8.905233383178711,-1.764526605606079,3.2740707397460938
340,24500.0,-8.905233383178711,-1.764526605606079,3.2740707397460938
341,24600.0,-8.911218643188477,-1.7286136150360107,3.245939016342163
342,24700.0,-8.91301441192627,-1.7363947629928589,3.2842462062835693
343,24800.0,-8.91301441192627,-1.7363947629928589,3.2842462062835693
344,24900.0,-8.899846076965332,-1.7441759109497068,3.2710781097412114
345,25000.0,-8.899846076965332,-1.7441759109497068,3.2710781097412114
346,25100.0,-8.880094528198242,-1.7699135541915894,3.2848446369171143
347,25200.0,-8.880094528198242,-1.7699135541915894,3.2848446369171143
348,25300.0,-8.905831336975098,-1.7549498081207275,3.2752678394317627
349,25400.0,-8.905831336975098,-1.7549498081207275,3.2752678394317627
350,25500.0,-8.908226013183594,-1.7507599592208862,3.266289710998535
351,25600.0,-8.908824920654297,-1.7232266664505005,3.3051953315734863
352,25700.0,-8.908824920654297,-1.7232266664505005,3.3051953315734863
353,25800.0,-8.866926193237305,-1.7735048532485962,3.2794578075408936
354,25900.0,-8.866926193237305,-1.7735048532485962,3.2794578075408936
355,26000.0,-8.872312545776367,-1.764526605606079,3.2782607078552246
356,26100.0,-8.872312545776367,-1.764526605606079,3.2782607078552246
357,26200.0,-8.920196533203125,-1.7471686601638794,3.2806549072265625
358,26300.0,-8.920196533203125,-1.7471686601638794,3.2806549072265625
359,26400.0,-8.928576469421387,-1.7232266664505005,3.2716765403747563
360,25000.0,-8.899846076965332,-1.7441759109497068,3.2710781097412114
361,25100.0,-8.880094528198242,-1.7699135541915894,3.2848446369171143
362,25200.0,-8.880094528198242,-1.7699135541915894,3.2848446369171143
363,25300.0,-8.905831336975098,-1.7549498081207275,3.2752678394317627
364,25400.0,-8.905831336975098,-1.7549498081207275,3.2752678394317627
365,25500.0,-8.908226013183594,-1.7507599592208862,3.266289710998535
366,25600.0,-8.908824920654297,-1.7232266664505005,3.3051953315734863
367,25700.0,-8.908824920654297,-1.7232266664505005,3.3051953315734863
368,25800.0,-8.866926193237305,-1.7735048532485962,3.2794578075408936
369,25900.0,-8.866926193237305,-1.7735048532485962,3.2794578075408936
370,26000.0,-8.872312545776367,-1.764526605606079,3.2782607078552246
371,26100.0,-8.872312545776367,-1.764526605606079,3.2782607078552246
372,26200.0,-8.920196533203125,-1.7471686601638794,3.2806549072265625
373,26300.0,-8.920196533203125,-1.7471686601638794,3.2806549072265625
374,26400.0,-8.928576469421387,-1.7232266664505005,3.2716765403747563
375,26500.0,-8.91301441192627,-1.7381904125213623,3.27227520942688
376,26600.0,-8.91301441192627,-1.7381904125213623,3.27227520942688
377,26700.0,-8.920795440673828,-1.7292121648788452,3.276464939117432
378,26800.0,-8.920795440673828,-1.7292121648788452,3.276464939117432
379,26900.0,-8.923788070678711,-1.731606364250183,3.291428804397583
380,27000.0,-8.923788070678711,-1.731606364250183,3.291428804397583
381,27100.0,-8.893860816955566,-1.7747019529342651,3.256712913513184
382,27200.0,-8.893860816955566,-1.7747019529342651,3.256712913513184
383,27300.0,-8.905233383178711,-1.7525556087493896,3.292625904083252
384,27400.0,-8.902838706970215,-1.7980455160140991,3.2800562381744385
385,27500.0,-8.902838706970215,-1.7980455160140991,3.2800562381744385
386,27600.0,-8.921394348144531,-1.7004817724227903,3.290830135345459
387,27700.0,-8.921394348144531,-1.7004817724227903,3.290830135345459
388,27800.0,-8.916605949401855,-1.7860745191574097,3.2800562381744385
389,27900.0,-8.916605949401855,-1.7860745191574097,3.2800562381744385
390,26500.0,-8.91301441192627,-1.7381904125213623,3.27227520942688
391,26600.0,-8.91301441192627,-1.7381904125213623,3.27227520942688
392,26700.0,-8.920795440673828,-1.7292121648788452,3.276464939117432
393,26800.0,-8.920795440673828,-1.7292121648788452,3.276464939117432
394,26900.0,-8.923788070678711,-1.731606364250183,3.291428804397583
395,27000.0,-8.923788070678711,-1.731606364250183,3.291428804397583
396,27100.0,-8.893860816955566,-1.7747019529342651,3.256712913513184
397,27200.0,-8.893860816955566,-1.7747019529342651,3.256712913513184
398,27300.0,-8.905233383178711,-1.7525556087493896,3.292625904083252
399,27400.0,-8.902838706970215,-1.7980455160140991,3.2800562381744385
400,27500.0,-8.902838706970215,-1.7980455160140991,3.2800562381744385
401,27600.0,-8.921394348144531,-1.7004817724227903,3.290830135345459
402,27700.0,-8.921394348144531,-1.7004817724227903,3.290830135345459
403,27800.0,-8.916605949401855,-1.7860745191574097,3.2800562381744385
404,27900.0,-8.916605949401855,-1.7860745191574097,3.2800562381744385
405,28000.0,-8.91421127319336,-1.7040730714797974,3.2794578075408936
406,28100.0,-8.91421127319336,-1.7040730714797974,3.2794578075408936
407,28200.0,-8.880094528198242,-1.7184382677078247,3.2746694087982178
408,28300.0,-8.85794734954834,-1.8632874488830569,3.2872388362884517
409,28400.0,-8.85794734954834,-1.8632874488830569,3.2872388362884517
410,28500.0,-8.938153266906738,-1.7603367567062378,3.2842462062835693
411,28600.0,-8.938153266906738,-1.7603367567062378,3.2842462062835693
412,28700.0,-8.902838706970215,-1.7208324670791626,3.3261446952819824
413,28800.0,-8.902838706970215,-1.7208324670791626,3.3261446952819824
414,28900.0,-8.938752174377441,-1.766920804977417,3.3028011322021484
415,29000.0,-8.938752174377441,-1.766920804977417,3.3028011322021484
416,29100.0,-8.910619735717773,-1.7651251554489136,3.2752678394317627
417,29200.0,-8.956110000610352,-1.7621324062347412,3.2998085021972656
418,29300.0,-8.956110000610352,-1.7621324062347412,3.2998085021972656
419,29400.0,-8.904036521911621,-1.7926585674285889,3.2824504375457764
420,28000.0,-8.91421127319336,-1.7040730714797974,3.2794578075408936
421,28100.0,-8.91421127319336,-1.7040730714797974,3.2794578075408936
422,28200.0,-8.880094528198242,-1.7184382677078247,3.2746694087982178
423,28300.0,-8.85794734954834,-1.8632874488830569,3.2872388362884517
424,28400.0,-8.85794734954834,-1.8632874488830569,3.2872388362884517
425,28500.0,-8.938153266906738,-1.7603367567062378,3.2842462062835693
426,28600.0,-8.938153266906738,-1.7603367567062378,3.2842462062835693
427,28700.0,-8.902838706970215,-1.7208324670791626,3.3261446952819824
428,28800.0,-8.902838706970215,-1.7208324670791626,3.3261446952819824
429,28900.0,-8.938752174377441,-1.766920804977417,3.3028011322021484
430,29000.0,-8.938752174377441,-1.766920804977417,3.3028011322021484
431,29100.0,-8.910619735717773,-1.7651251554489136,3.2752678394317627
432,29200.0,-8.956110000610352,-1.7621324062347412,3.2998085021972656
433,29300.0,-8.956110000610352,-1.7621324062347412,3.2998085021972656
434,29400.0,-8.904036521911621,-1.7926585674285889,3.2824504375457764
435,29500.0,-8.904036521911621,-1.7926585674285889,3.2824504375457764
436,29600.0,-8.97885513305664,-1.6723499298095703,3.2800562381744385
437,29700.0,-8.97885513305664,-1.6723499298095703,3.2800562381744385
438,29800.0,-8.868123054504395,-1.764526605606079,3.3010056018829346
439,29900.0,-8.868123054504395,-1.764526605606079,3.3010056018829346
440,30000.0,-8.866327285766602,-1.787870168685913,3.3069911003112797
441,30100.0,-8.932766914367676,-1.6729484796524048,3.277063608169556
442,30200.0,-8.932766914367676,-1.6729484796524048,3.277063608169556
443,30300.0,-8.873510360717773,-1.8189947605133057,3.291428804397583
444,30400.0,-8.873510360717773,-1.8189947605133057,3.291428804397583
445,30500.0,-8.933364868164062,-1.7208324670791626,3.2986114025115967
446,30600.0,-8.933364868164062,-1.7208324670791626,3.2986114025115967
447,30700.0,-8.839991569519043,-1.6843209266662598,3.37402868270874
448,30800.0,-8.839991569519043,-1.6843209266662598,3.37402868270874
449,30900.0,-8.919598579406738,-1.8189947605133057,3.3063924312591557
450,29500.0,-8.904036521911621,-1.7926585674285889,3.2824504375457764
451,29600.0,-8.97885513305664,-1.6723499298095703,3.2800562381744385
452,29700.0,-8.97885513305664,-1.6723499298095703,3.2800562381744385
453,29800.0,-8.868123054504395,-1.764526605606079,3.3010056018829346
454,29900.0,-8.868123054504395,-1.764526605606079,3.3010056018829346
455,30000.0,-8.866327285766602,-1.787870168685913,3.3069911003112797
456,30100.0,-8.932766914367676,-1.6729484796524048,3.277063608169556
457,30200.0,-8.932766914367676,-1.6729484796524048,3.277063608169556
458,30300.0,-8.873510360717773,-1.8189947605133057,3.291428804397583
459,30400.0,-8.873510360717773,-1.8189947605133057,3.291428804397583
460,30500.0,-8.933364868164062,-1.7208324670791626,3.2986114025115967
461,30600.0,-8.933364868164062,-1.7208324670791626,3.2986114025115967
462,30700.0,-8.839991569519043,-1.6843209266662598,3.37402868270874
463,30800.0,-8.839991569519043,-1.6843209266662598,3.37402868270874
464,30900.0,-8.919598579406738,-1.8189947605133057,3.3063924312591557
465,31000.0,-8.927379608154297,-1.7046716213226318,3.2411506175994877
466,31100.0,-8.927379608154297,-1.7046716213226318,3.2411506175994877
467,31200.0,-8.886079788208008,-1.711255669593811,3.2902317047119136
468,31300.0,-8.886079788208008,-1.711255669593811,3.2902317047119136
469,31400.0,-8.925583839416504,-1.759738206863403,3.28963303565979
470,31500.0,-8.925583839416504,-1.759738206863403,3.28963303565979
471,31600.0,-8.890868186950684,-1.7345991134643557,3.3016040325164795
472,31700.0,-8.890868186950684,-1.7345991134643557,3.3016040325164795
473,31800.0,-8.898050308227539,-1.7357962131500244,3.31118106842041
474,31900.0,-8.9064302444458,-1.681926727294922,3.2866404056549072
475,32000.0,-8.9064302444458,-1.681926727294922,3.2866404056549072
476,32100.0,-8.932168006896973,-1.7561469078063965,3.3057940006256104
477,32200.0,-8.932168006896973,-1.7561469078063965,3.3057940006256104
478,32300.0,-8.871115684509277,-1.768117904663086,3.3045969009399414
479,32400.0,-8.871115684509277,-1.768117904663086,3.3045969009399414
480,31000.0,-8.927379608154297,-1.7046716213226318,3.2411506175994877
481,31100.0,-8.927379608154297,-1.7046716213226318,3.2411506175994877
482,31200.0,-8.886079788208008,-1.711255669593811,3.2902317047119136
483,31300.0,-8.886079788208008,-1.711255669593811,3.2902317047119136
484,31400.0,-8.925583839416504,-1.759738206863403,3.28963303565979
485,31500.0,-8.925583839416504,-1.759738206863403,3.28963303565979
486,31600.0,-8.890868186950684,-1.7345991134643557,3.3016040325164795
487,31700.0,-8.890868186950684,-1.7345991134643557,3.3016040325164795
488,31800.0,-8.898050308227539,-1.7357962131500244,3.31118106842041
489,31900.0,-8.9064302444458,-1.681926727294922,3.2866404056549072
490,32000.0,-8.9064302444458,-1.681926727294922,3.2866404056549072
491,32100.0,-8.932168006896973,-1.7561469078063965,3.3057940006256104
492,32200.0,-8.932168006896973,-1.7561469078063965,3.3057940006256104
493,32300.0,-8.871115684509277,-1.768117904663086,3.3045969009399414
494,32400.0,-8.871115684509277,-1.768117904663086,3.3045969009399414
495,32500.0,-8.901042938232422,-1.7208324670791626,3.2836475372314453
496,32600.0,-8.901042938232422,-1.7208324670791626,3.2836475372314453
497,32700.0,-8.9064302444458,-1.7220295667648315,3.2992098331451416
498,32800.0,-8.89146614074707,-1.7292121648788452,3.290830135345459
499,32900.0,-8.89146614074707,-1.7292121648788452,3.290830135345459
500,33000.0,-8.868123054504395,-1.7848774194717407,3.3016040325164795
501,33100.0,-8.868123054504395,-1.7848774194717407,3.3016040325164795
502,33200.0,-8.910021781921387,-1.7549498081207275,3.3010056018829346
503,33300.0,-8.910021781921387,-1.7549498081207275,3.3010056018829346
504,33400.0,-8.921992301940918,-1.7328034639358518,3.291428804397583
505,33500.0,-8.921992301940918,-1.7328034639358518,3.291428804397583
506,33600.0,-8.875904083251953,-1.8531121015548704,3.2992098331451416
507,33700.0,-8.91540813446045,-1.759738206863403,3.2902317047119136
508,33800.0,-8.91540813446045,-1.759738206863403,3.2902317047119136
509,33900.0,-8.945934295654297,-1.7232266664505005,3.296217203140259
510,32500.0,-8.901042938232422,-1.7208324670791626,3.2836475372314453
511,32600.0,-8.901042938232422,-1.7208324670791626,3.2836475372314453
512,32700.0,-8.9064302444458,-1.7220295667648315,3.2992098331451416
513,32800.0,-8.89146614074707,-1.7292121648788452,3.290830135345459
514,32900.0,-8.89146614074707,-1.7292121648788452,3.290830135345459
515,33000.0,-8.868123054504395,-1.7848774194717407,3.3016040325164795
516,33100.0,-8.868123054504395,-1.7848774194717407,3.3016040325164795
517,33200.0,-8.910021781921387,-1.7549498081207275,3.3010056018829346
518,33300.0,-8.910021781921387,-1.7549498081207275,3.3010056018829346
519,33400.0,-8.921992301940918,-1.7328034639358518,3.291428804397583
520,33500.0,-8.921992301940918,-1.7328034639358518,3.291428804397583
521,33600.0,-8.875904083251953,-1.8531121015548704,3.2992098331451416
522,33700.0,-8.91540813446045,-1.759738206863403,3.2902317047119136
523,33800.0,-8.91540813446045,-1.759738206863403,3.2902317047119136
524,33900.0,-8.945934295654297,-1.7232266664505005,3.296217203140259
525,34000.0,-8.945934295654297,-1.7232266664505005,3.296217203140259
526,34100.0,-8.905831336975098,-1.7621324062347412,3.3045969009399414
527,34200.0,-8.905831336975098,-1.7621324062347412,3.3045969009399414
528,34300.0,-8.91301441192627,-1.7561469078063965,3.2776620388031006
529,34400.0,-8.91301441192627,-1.7561469078063965,3.2776620388031006
530,34500.0,-8.948328971862793,-1.681926727294922,3.2938230037689213
531,34600.0,-8.902240753173828,-1.7723077535629272,3.29502010345459
532,34700.0,-8.902240753173828,-1.7723077535629272,3.29502010345459
533,34800.0,-8.880094528198242,-1.7603367567062378,3.2752678394317627
534,34900.0,-8.880094528198242,-1.7603367567062378,3.2752678394317627
535,35000.0,-8.8878755569458,-1.7363947629928589,3.2800562381744385
536,35100.0,-8.8878755569458,-1.7363947629928589,3.2800562381744385
537,35200.0,-8.91301441192627,-1.7094600200653076,3.2944214344024663
538,35300.0,-8.91301441192627,-1.7094600200653076,3.2944214344024663
539,35400.0,-8.917802810668945,-1.7292121648788452,3.292625904083252
540,34000.0,-8.945934295654297,-1.7232266664505005,3.296217203140259
541,34100.0,-8.905831336975098,-1.7621324062347412,3.3045969009399414
542,34200.0,-8.905831336975098,-1.7621324062347412,3.3045969009399414
543,34300.0,-8.91301441192627,-1.7561469078063965,3.2776620388031006
544,34400.0,-8.91301441192627,-1.7561469078063965,3.2776620388031006
545,34500.0,-8.948328971862793,-1.681926727294922,3.2938230037689213
546,34600.0,-8.902240753173828,-1.7723077535629272,3.29502010345459
547,34700.0,-8.902240753173828,-1.7723077535629272,3.29502010345459
548,34800.0,-8.880094528198242,-1.7603367567062378,3.2752678394317627
549,34900.0,-8.880094528198242,-1.7603367567062378,3.2752678394317627
550,35000.0,-8.8878755569458,-1.7363947629928589,3.2800562381744385
551,35100.0,-8.8878755569458,-1.7363947629928589,3.2800562381744385
552,35200.0,-8.91301441192627,-1.7094600200653076,3.2944214344024663
553,35300.0,-8.91301441192627,-1.7094600200653076,3.2944214344024663
554,35400.0,-8.917802810668945,-1.7292121648788452,3.292625904083252
555,35500.0,-8.869918823242188,-1.7741034030914309,3.291428804397583
556,35600.0,-8.869918823242188,-1.7741034030914309,3.291428804397583
557,35700.0,-8.924386978149414,-1.7244237661361694,3.309983968734741
558,35800.0,-8.924386978149414,-1.7244237661361694,3.309983968734741
559,35900.0,-8.908226013183594,-1.7776948213577268,3.2848446369171143
560,36000.0,-8.908226013183594,-1.7776948213577268,3.2848446369171143
561,36100.0,-8.929773330688477,-1.6974890232086182,3.3123781681060787
562,36200.0,-8.929773330688477,-1.6974890232086182,3.3123781681060787
563,36300.0,-8.920196533203125,-1.7220295667648315,3.3022027015686035
564,36400.0,-8.853757858276367,-1.7741034030914309,3.2806549072265625
565,36500.0,-8.853757858276367,-1.7741034030914309,3.2806549072265625
566,36600.0,-8.893261909484863,-1.7782933712005615,3.3045969009399414
567,36700.0,-8.893261909484863,-1.7782933712005615,3.3045969009399414
568,36800.0,-8.907029151916504,-1.7387889623641968,3.2740707397460938
569,36900.0,-8.907029151916504,-1.7387889623641968,3.2740707397460938
570,35500.0,-8.869918823242188,-1.7741034030914309,3.291428804397583
571,35600.0,-8.869918823242188,-1.7741034030914309,3.291428804397583
572,35700.0,-8.924386978149414,-1.7244237661361694,3.309983968734741
573,35800.0,-8.924386978149414,-1.7244237661361694,3.309983968734741
574,35900.0,-8.908226013183594,-1.7776948213577268,3.2848446369171143
575,36000.0,-8.908226013183594,-1.7776948213577268,3.2848446369171143
576,36100.0,-8.929773330688477,-1.6974890232086182,3.3123781681060787
577,36200.0,-8.929773330688477,-1.6974890232086182,3.3123781681060787
578,36300.0,-8.920196533203125,-1.7220295667648315,3.3022027015686035
579,36400.0,-8.853757858276367,-1.7741034030914309,3.2806549072265625
580,36500.0,-8.853757858276367,-1.7741034030914309,3.2806549072265625
581,36600.0,-8.893261909484863,-1.7782933712005615,3.3045969009399414
582,36700.0,-8.893261909484863,-1.7782933712005615,3.3045969009399414
583,36800.0,-8.907029151916504,-1.7387889623641968,3.2740707397460938
584,36900.0,-8.907029151916504,-1.7387889623641968,3.2740707397460938
585,37000.0,-8.899248123168945,-1.7579425573349,3.315370798110962
586,37100.0,-8.899248123168945,-1.7579425573349,3.315370798110962
587,37200.0,-8.926182746887207,-1.7160440683364868,3.2818520069122314
588,37300.0,-8.937555313110352,-1.7064672708511353,3.247734546661377
589,37400.0,-8.937555313110352,-1.7064672708511353,3.247734546661377
590,37500.0,-8.895057678222656,-1.753154158592224,3.3530795574188232
591,37600.0,-8.895057678222656,-1.753154158592224,3.3530795574188232
592,37700.0,-8.878896713256836,-1.7615338563919067,3.336320161819458
593,37800.0,-8.878896713256836,-1.7615338563919067,3.336320161819458
594,37900.0,-8.889671325683594,-1.8351556062698364,3.2573113441467285
595,38000.0,-8.889671325683594,-1.8351556062698364,3.2573113441467285
596,38100.0,-8.868123054504395,-1.7753005027770996,3.3291375637054443
597,38200.0,-8.905831336975098,-1.7178397178649902,3.25611424446106
598,38300.0,-8.905831336975098,-1.7178397178649902,3.25611424446106
599,38400.0,-8.876502990722656,-1.7741034030914309,3.318363666534424
600,37000.0,-8.899248123168945,-1.7579425573349,3.315370798110962
601,37100.0,-8.899248123168945,-1.7579425573349,3.315370798110962
602,37200.0,-8.926182746887207,-1.7160440683364868,3.2818520069122314
603,37300.0,-8.937555313110352,-1.7064672708511353,3.247734546661377
604,37400.0,-8.937555313110352,-1.7064672708511353,3.247734546661377
605,37500.0,-8.895057678222656,-1.753154158592224,3.3530795574188232
606,37600.0,-8.895057678222656,-1.753154158592224,3.3530795574188232
607,37700.0,-8.878896713256836,-1.7615338563919067,3.336320161819458
608,37800.0,-8.878896713256836,-1.7615338563919067,3.336320161819458
609,37900.0,-8.889671325683594,-1.8351556062698364,3.2573113441467285
610,38000.0,-8.889671325683594,-1.8351556062698364,3.2573113441467285
611,38100.0,-8.868123054504395,-1.7753005027770996,3.3291375637054443
612,38200.0,-8.905831336975098,-1.7178397178649902,3.25611424446106
613,38300.0,-8.905831336975098,-1.7178397178649902,3.25611424446106
614,38400.0,-8.876502990722656,-1.7741034030914309,3.318363666534424
615,38500.0,-8.876502990722656,-1.7741034030914309,3.318363666534424
616,38600.0,-8.918999671936035,-1.7699135541915894,3.3045969009399414
617,38700.0,-8.918999671936035,-1.7699135541915894,3.3045969009399414
618,38800.0,-8.878896713256836,-1.835754156112671,3.315370798110962
619,38900.0,-8.878896713256836,-1.835754156112671,3.315370798110962
620,39000.0,-8.914810180664062,-1.7232266664505005,3.2746694087982178
621,39100.0,-8.914810180664062,-1.7232266664505005,3.2746694087982178
622,39200.0,-8.908824920654297,-1.7094600200653076,3.287837505340576
623,39300.0,-8.859145164489746,-1.7944542169570925,3.311779499053955
624,39400.0,-8.859145164489746,-1.7944542169570925,3.311779499053955
625,39500.0,-8.900444984436035,-1.7405846118927002,3.28963303565979
626,39600.0,-8.900444984436035,-1.7405846118927002,3.28963303565979
627,39700.0,-8.845377922058105,-1.8064252138137815,3.308188199996948
628,39800.0,-8.845377922058105,-1.8064252138137815,3.308188199996948
629,39900.0,-8.893261909484863,-1.7693150043487549,3.296815633773804
630,38500.0,-8.876502990722656,-1.7741034030914309,3.318363666534424
631,38600.0,-8.918999671936035,-1.7699135541915894,3.3045969009399414
632,38700.0,-8.918999671936035,-1.7699135541915894,3.3045969009399414
633,38800.0,-8.878896713256836,-1.835754156112671,3.315370798110962
634,38900.0,-8.878896713256836,-1.835754156112671,3.315370798110962
635,39000.0,-8.914810180664062,-1.7232266664505005,3.2746694087982178
636,39100.0,-8.914810180664062,-1.7232266664505005,3.2746694087982178
637,39200.0,-8.908824920654297,-1.7094600200653076,3.287837505340576
638,39300.0,-8.859145164489746,-1.7944542169570925,3.311779499053955
639,39400.0,-8.859145164489746,-1.7944542169570925,3.311779499053955
640,39500.0,-8.900444984436035,-1.7405846118927002,3.28963303565979
641,39600.0,-8.900444984436035,-1.7405846118927002,3.28963303565979
642,39700.0,-8.845377922058105,-1.8064252138137815,3.308188199996948
643,39800.0,-8.845377922058105,-1.8064252138137815,3.308188199996948
644,39900.0,-8.893261909484863,-1.7693150043487549,3.296815633773804
645,40000.0,-8.936357498168945,-1.745373010635376,3.2830491065979004
646,40100.0,-8.936357498168945,-1.745373010635376,3.2830491065979004
647,40200.0,-8.899248123168945,-1.7717092037200928,3.266289710998535
648,40300.0,-8.899248123168945,-1.7717092037200928,3.266289710998535
649,40400.0,-8.910619735717773,-1.7471686601638794,3.2842462062835693
650,40500.0,-8.910619735717773,-1.7471686601638794,3.2842462062835693
651,40600.0,-8.861538887023926,-1.8722656965255735,3.296815633773804
652,40700.0,-8.861538887023926,-1.8722656965255735,3.296815633773804
653,40800.0,-8.90762710571289,-1.7717092037200928,3.3016040325164795
654,40900.0,-8.90762710571289,-1.7717092037200928,3.3016040325164795
655,41000.0,-8.916007041931152,-1.745373010635376,3.3039982318878174
656,41100.0,-8.899248123168945,-1.7699135541915894,3.292625904083252
657,41200.0,-8.899248123168945,-1.7699135541915894,3.292625904083252
658,41300.0,-8.9064302444458,-1.753154158592224,3.288435935974121
659,41400.0,-8.9064302444458,-1.753154158592224,3.288435935974121
660,40000.0,-8.936357498168945,-1.745373010635376,3.2830491065979004
661,40100.0,-8.936357498168945,-1.745373010635376,3.2830491065979004
662,40200.0,-8.899248123168945,-1.7717092037200928,3.266289710998535
663,40300.0,-8.899248123168945,-1.7717092037200928,3.266289710998535
664,40400.0,-8.910619735717773,-1.7471686601638794,3.2842462062835693
665,40500.0,-8.910619735717773,-1.7471686601638794,3.2842462062835693
666,40600.0,-8.861538887023926,-1.8722656965255735,3.296815633773804
667,40700.0,-8.861538887023926,-1.8722656965255735,3.296815633773804
668,40800.0,-8.90762710571289,-1.7717092037200928,3.3016040325164795
669,40900.0,-8.90762710571289,-1.7717092037200928,3.3016040325164795
670,41000.0,-8.916007041931152,-1.745373010635376,3.3039982318878174
671,41100.0,-8.899248123168945,-1.7699135541915894,3.292625904083252
672,41200.0,-8.899248123168945,-1.7699135541915894,3.292625904083252
673,41300.0,-8.9064302444458,-1.753154158592224,3.288435935974121
674,41400.0,-8.9064302444458,-1.753154158592224,3.288435935974121
675,41500.0,-8.967482566833496,-1.7399860620498655,3.2854433059692383
676,41600.0,-8.967482566833496,-1.7399860620498655,3.2854433059692383
677,41700.0,-8.877699851989746,-1.8046295642852783,3.296217203140259
678,41800.0,-8.877699851989746,-1.8046295642852783,3.296217203140259
679,41900.0,-8.883685111999512,-1.780089020729065,3.2854433059692383
680,42000.0,-8.944138526916504,-1.7046716213226318,3.2225954532623287
681,42100.0,-8.944138526916504,-1.7046716213226318,3.2225954532623287
682,42200.0,-8.877699851989746,-1.7519570589065552,3.3405098915100098
683,42300.0,-8.877699851989746,-1.7519570589065552,3.3405098915100098
684,42400.0,-8.880692481994629,-1.756745457649231,3.2537200450897217
685,42500.0,-8.880692481994629,-1.756745457649231,3.2537200450897217
686,42600.0,-8.907029151916504,-1.7483657598495483,3.2854433059692383
687,42700.0,-8.907029151916504,-1.7483657598495483,3.2854433059692383
688,42800.0,-8.8878755569458,-1.7836803197860718,3.3051953315734863
689,42900.0,-8.853757858276367,-1.7573440074920654,3.3010056018829346
690,41500.0,-8.967482566833496,-1.7399860620498655,3.2854433059692383
691,41600.0,-8.967482566833496,-1.7399860620498655,3.2854433059692383
692,41700.0,-8.877699851989746,-1.8046295642852783,3.296217203140259
693,41800.0,-8.877699851989746,-1.8046295642852783,3.296217203140259
694,41900.0,-8.883685111999512,-1.780089020729065,3.2854433059692383
695,42000.0,-8.944138526916504,-1.7046716213226318,3.2225954532623287
696,42100.0,-8.944138526916504,-1.7046716213226318,3.2225954532623287
697,42200.0,-8.877699851989746,-1.7519570589065552,3.3405098915100098
698,42300.0,-8.877699851989746,-1.7519570589065552,3.3405098915100098
699,42400.0,-8.880692481994629,-1.756745457649231,3.2537200450897217
700,42500.0,-8.880692481994629,-1.756745457649231,3.2537200450897217
701,42600.0,-8.907029151916504,-1.7483657598495483,3.2854433059692383
702,42700.0,-8.907029151916504,-1.7483657598495483,3.2854433059692383
703,42800.0,-8.8878755569458,-1.7836803197860718,3.3051953315734863
704,42900.0,-8.853757858276367,-1.7573440074920654,3.3010056018829346
705,43000.0,-8.853757858276367,-1.7573440074920654,3.3010056018829346
706,43100.0,-8.892065048217773,-1.7196353673934937,3.3057940006256104
707,43200.0,-8.892065048217773,-1.7196353673934937,3.3057940006256104
708,43300.0,-8.883087158203125,-1.768117904663086,3.288435935974121
709,43400.0,-8.883087158203125,-1.768117904663086,3.288435935974121
710,43500.0,-8.8878755569458,-1.7399860620498655,3.2782607078552246
711,43600.0,-8.8878755569458,-1.7399860620498655,3.2782607078552246
712,43700.0,-8.90762710571289,-1.7495628595352173,3.292027235031128
713,43800.0,-8.933963775634766,-1.7687164545059204,3.2806549072265625
714,43900.0,-8.933963775634766,-1.7687164545059204,3.2806549072265625
715,44000.0,-8.912415504455566,-1.7417817115783691,3.3195607662200928
716,44100.0,-8.912415504455566,-1.7417817115783691,3.3195607662200928
717,44200.0,-8.91421127319336,-1.7555483579635618,3.2620997428894043
718,44300.0,-8.91421127319336,-1.7555483579635618,3.2620997428894043
719,44400.0,-8.929773330688477,-1.756745457649231,3.266289710998535
720,43000.0,-8.853757858276367,-1.7573440074920654,3.3010056018829346
721,43100.0,-8.892065048217773,-1.7196353673934937,3.3057940006256104
722,43200.0,-8.892065048217773,-1.7196353673934937,3.3057940006256104
723,43300.0,-8.883087158203125,-1.768117904663086,3.288435935974121
724,43400.0,-8.883087158203125,-1.768117904663086,3.288435935974121
725,43500.0,-8.8878755569458,-1.7399860620498655,3.2782607078552246
726,43600.0,-8.8878755569458,-1.7399860620498655,3.2782607078552246
727,43700.0,-8.90762710571289,-1.7495628595352173,3.292027235031128
728,43800.0,-8.933963775634766,-1.7687164545059204,3.2806549072265625
729,43900.0,-8.933963775634766,-1.7687164545059204,3.2806549072265625
730,44000.0,-8.912415504455566,-1.7417817115783691,3.3195607662200928
731,44100.0,-8.912415504455566,-1.7417817115783691,3.3195607662200928
732,44200.0,-8.91421127319336,-1.7555483579635618,3.2620997428894043
733,44300.0,-8.91421127319336,-1.7555483579635618,3.2620997428894043
734,44400.0,-8.929773330688477,-1.756745457649231,3.266289710998535
735,44500.0,-8.929773330688477,-1.756745457649231,3.266289710998535
736,44600.0,-8.898649215698242,-1.765723705291748,3.2986114025115967
737,44700.0,-8.938153266906738,-1.7328034639358518,3.2842462062835693
738,44800.0,-8.938153266906738,-1.7328034639358518,3.2842462062835693
739,44900.0,-8.883087158203125,-1.8447324037551882,3.2986114025115967
740,45000.0,-8.883087158203125,-1.8447324037551882,3.2986114025115967
741,45100.0,-8.908226013183594,-1.7687164545059204,3.2848446369171143
742,45200.0,-8.908226013183594,-1.7687164545059204,3.2848446369171143
743,45300.0,-8.959701538085938,-1.7136498689651491,3.277063608169556
744,45400.0,-8.959701538085938,-1.7136498689651491,3.277063608169556
745,45500.0,-8.898649215698242,-1.7824832201004028,3.3028011322021484
746,45600.0,-8.899248123168945,-1.79146146774292,3.2998085021972656
747,45700.0,-8.899248123168945,-1.79146146774292,3.2998085021972656
748,45800.0,-8.942343711853027,-1.7537527084350586,3.293224334716797
749,45900.0,-8.942343711853027,-1.7537527084350586,3.293224334716797
750,44500.0,-8.929773330688477,-1.756745457649231,3.266289710998535
751,44600.0,-8.898649215698242,-1.765723705291748,3.2986114025115967
752,44700.0,-8.938153266906738,-1.7328034639358518,3.2842462062835693
753,44800.0,-8.938153266906738,-1.7328034639358518,3.2842462062835693
754,44900.0,-8.883087158203125,-1.8447324037551882,3.2986114025115967
755,45000.0,-8.883087158203125,-1.8447324037551882,3.2986114025115967
756,45100.0,-8.908226013183594,-1.7687164545059204,3.2848446369171143
757,45200.0,-8.908226013183594,-1.7687164545059204,3.2848446369171143
758,45300.0,-8.959701538085938,-1.7136498689651491,3.277063608169556
759,45400.0,-8.959701538085938,-1.7136498689651491,3.277063608169556
760,45500.0,-8.898649215698242,-1.7824832201004028,3.3028011322021484
761,45600.0,-8.899248123168945,-1.79146146774292,3.2998085021972656
762,45700.0,-8.899248123168945,-1.79146146774292,3.2998085021972656
763,45800.0,-8.942343711853027,-1.7537527084350586,3.293224334716797
764,45900.0,-8.942343711853027,-1.7537527084350586,3.293224334716797
765,46000.0,-8.879495620727539,-1.7926585674285889,3.2620997428894043
766,46100.0,-8.879495620727539,-1.7926585674285889,3.2620997428894043
767,46200.0,-8.914810180664062,-1.7507599592208862,3.3051953315734863
768,46300.0,-8.914810180664062,-1.7507599592208862,3.3051953315734863
769,46400.0,-8.922591209411621,-1.7405846118927002,3.2848446369171143
770,46500.0,-8.872312545776367,-1.7639280557632446,3.2812533378601074
771,46600.0,-8.872312545776367,-1.7639280557632446,3.2812533378601074
772,46700.0,-8.91181755065918,-1.6962919235229492,3.2483332157135014
773,46800.0,-8.91181755065918,-1.6962919235229492,3.2483332157135014
774,46900.0,-8.877699851989746,-1.786673069000244,3.2992098331451416
775,47000.0,-8.877699851989746,-1.786673069000244,3.2992098331451416
776,47100.0,-8.893261909484863,-1.7633295059204102,3.25611424446106
777,47200.0,-8.893261909484863,-1.7633295059204102,3.25611424446106
778,47300.0,-8.880692481994629,-1.7824832201004028,3.290830135345459
779,47400.0,-8.871115684509277,-1.7932571172714231,3.3123781681060787
780,46000.0,-8.879495620727539,-1.7926585674285889,3.2620997428894043
781,46100.0,-8.879495620727539,-1.7926585674285889,3.2620997428894043
782,46200.0,-8.914810180664062,-1.7507599592208862,3.3051953315734863
783,46300.0,-8.914810180664062,-1.7507599592208862,3.3051953315734863
784,46400.0,-8.922591209411621,-1.7405846118927002,3.2848446369171143
785,46500.0,-8.872312545776367,-1.7639280557632446,3.2812533378601074
786,46600.0,-8.872312545776367,-1.7639280557632446,3.2812533378601074
787,46700.0,-8.91181755065918,-1.6962919235229492,3.2483332157135014
788,46800.0,-8.91181755065918,-1.6962919235229492,3.2483332157135014
789,46900.0,-8.877699851989746,-1.786673069000244,3.2992098331451416
790,47000.0,-8.877699851989746,-1.786673069000244,3.2992098331451416
791,47100.0,-8.893261909484863,-1.7633295059204102,3.25611424446106
792,47200.0,-8.893261909484863,-1.7633295059204102,3.25611424446106
793,47300.0,-8.880692481994629,-1.7824832201004028,3.290830135345459
794,47400.0,-8.871115684509277,-1.7932571172714231,3.3123781681060787
795,47500.0,-8.871115684509277,-1.7932571172714231,3.3123781681060787
796,47600.0,-8.930971145629883,-1.6944962739944458,3.2525229454040527
797,47700.0,-8.930971145629883,-1.6944962739944458,3.2525229454040527
798,47800.0,-8.860940933227539,-1.7950527667999268,3.327341794967652
799,47900.0,-8.860940933227539,-1.7950527667999268,3.327341794967652
800,48000.0,-8.89685344696045,-1.7705121040344238,3.2680852413177486
801,48100.0,-8.89685344696045,-1.7705121040344238,3.2680852413177486
802,48200.0,-8.937555313110352,-1.6992846727371216,3.247136116027832
803,48300.0,-8.908226013183594,-1.7280150651931765,3.3010056018829346
804,48400.0,-8.908226013183594,-1.7280150651931765,3.3010056018829346
805,48500.0,-8.917802810668945,-1.720233917236328,3.297414302825928
806,48600.0,-8.917802810668945,-1.720233917236328,3.297414302825928
807,48700.0,-8.858546257019043,-1.807622313499451,3.333327293395996
808,48800.0,-8.858546257019043,-1.807622313499451,3.333327293395996
809,48900.0,-8.941145896911621,-1.746570110321045,3.315370798110962
810,47500.0,-8.871115684509277,-1.7932571172714231,3.3123781681060787
811,47600.0,-8.930971145629883,-1.6944962739944458,3.2525229454040527
812,47700.0,-8.930971145629883,-1.6944962739944458,3.2525229454040527
813,47800.0,-8.860940933227539,-1.7950527667999268,3.327341794967652
814,47900.0,-8.860940933227539,-1.7950527667999268,3.327341794967652
815,48000.0,-8.89685344696045,-1.7705121040344238,3.2680852413177486
816,48100.0,-8.89685344696045,-1.7705121040344238,3.2680852413177486
817,48200.0,-8.937555313110352,-1.6992846727371216,3.247136116027832
818,48300.0,-8.908226013183594,-1.7280150651931765,3.3010056018829346
819,48400.0,-8.908226013183594,-1.7280150651931765,3.3010056018829346
820,48500.0,-8.917802810668945,-1.720233917236328,3.297414302825928
821,48600.0,-8.917802810668945,-1.720233917236328,3.297414302825928
822,48700.0,-8.858546257019043,-1.807622313499451,3.333327293395996
823,48800.0,-8.858546257019043,-1.807622313499451,3.333327293395996
824,48900.0,-8.941145896911621,-1.746570110321045,3.315370798110962
825,49000.0,-8.941145896911621,-1.746570110321045,3.315370798110962
826,49100.0,-8.933963775634766,-1.746570110321045,3.3022027015686035
827,49200.0,-8.888473510742188,-1.8441338539123533,3.3033998012542725
828,49300.0,-8.888473510742188,-1.8441338539123533,3.3033998012542725
829,49400.0,-8.694543838500978,-1.747767210006714,3.336918592453003
830,49500.0,-8.694543838500978,-1.747767210006714,3.336918592453003
831,49600.0,-8.97885513305664,-1.747767210006714,3.26150131225586
832,49700.0,-8.97885513305664,-1.747767210006714,3.26150131225586
833,49800.0,-8.9064302444458,-1.7627309560775757,3.2620997428894043
834,49900.0,-8.9064302444458,-1.7627309560775757,3.2620997428894043
835,50000.0,-8.878896713256836,-1.8064252138137815,3.2866404056549072
836,50100.0,-8.96389102935791,-1.7298107147216797,3.3057940006256104
837,50200.0,-8.96389102935791,-1.7298107147216797,3.3057940006256104
838,50300.0,-8.91301441192627,-1.7729063034057615,3.265691041946411
839,50400.0,-8.91301441192627,-1.7729063034057615,3.265691041946411
840,49000.0,-8.941145896911621,-1.746570110321045,3.315370798110962
841,49100.0,-8.933963775634766,-1.746570110321045,3.3022027015686035
842,49200.0,-8.888473510742188,-1.8441338539123533,3.3033998012542725
843,49300.0,-8.888473510742188,-1.8441338539123533,3.3033998012542725
844,49400.0,-8.694543838500978,-1.747767210006714,3.336918592453003
845,49500.0,-8.694543838500978,-1.747767210006714,3.336918592453003
846,49600.0,-8.97885513305664,-1.747767210006714,3.26150131225586
847,49700.0,-8.97885513305664,-1.747767210006714,3.26150131225586
848,49800.0,-8.9064302444458,-1.7627309560775757,3.2620997428894043
849,49900.0,-8.9064302444458,-1.7627309560775757,3.2620997428894043
850,50000.0,-8.878896713256836,-1.8064252138137815,3.2866404056549072
851,50100.0,-8.96389102935791,-1.7298107147216797,3.3057940006256104
852,50200.0,-8.96389102935791,-1.7298107147216797,3.3057940006256104
853,50300.0,-8.91301441192627,-1.7729063034057615,3.265691041946411
854,50400.0,-8.91301441192627,-1.7729063034057615,3.265691041946411
855,50500.0,-8.917203903198242,-1.7627309560775757,3.273472309112549
856,50600.0,-8.917203903198242,-1.7627309560775757,3.273472309112549
857,50700.0,-8.892663955688477,-1.7292121648788452,3.291428804397583
858,50800.0,-8.892663955688477,-1.7292121648788452,3.291428804397583
859,50900.0,-9.009979248046877,-1.6944962739944458,3.24953031539917
860,51000.0,-8.852560997009277,-1.775899052619934,3.308786630630493
861,51100.0,-8.852560997009277,-1.775899052619934,3.308786630630493
862,51200.0,-8.883685111999512,-1.7609353065490725,3.273472309112549
863,51300.0,-8.883685111999512,-1.7609353065490725,3.273472309112549
864,51400.0,-8.888473510742188,-1.7136498689651491,3.2854433059692383
865,51500.0,-8.888473510742188,-1.7136498689651491,3.2854433059692383
866,51600.0,-8.895057678222656,-1.799242615699768,3.2489316463470463
867,51700.0,-8.895057678222656,-1.799242615699768,3.2489316463470463
868,51800.0,-8.881291389465332,-1.708262920379639,3.313575267791748
869,51900.0,-8.881291389465332,-1.7519570589065552,3.2620997428894043
870,50500.0,-8.917203903198242,-1.7627309560775757,3.273472309112549
871,50600.0,-8.917203903198242,-1.7627309560775757,3.273472309112549
872,50700.0,-8.892663955688477,-1.7292121648788452,3.291428804397583
873,50800.0,-8.892663955688477,-1.7292121648788452,3.291428804397583
874,50900.0,-9.009979248046877,-1.6944962739944458,3.24953031539917
875,51000.0,-8.852560997009277,-1.775899052619934,3.308786630630493
876,51100.0,-8.852560997009277,-1.775899052619934,3.308786630630493
877,51200.0,-8.883685111999512,-1.7609353065490725,3.273472309112549
878,51300.0,-8.883685111999512,-1.7609353065490725,3.273472309112549
879,51400.0,-8.888473510742188,-1.7136498689651491,3.2854433059692383
880,51500.0,-8.888473510742188,-1.7136498689651491,3.2854433059692383
881,51600.0,-8.895057678222656,-1.799242615699768,3.2489316463470463
882,51700.0,-8.895057678222656,-1.799242615699768,3.2489316463470463
883,51800.0,-8.881291389465332,-1.708262920379639,3.313575267791748
884,51900.0,-8.881291389465332,-1.7519570589065552,3.2620997428894043
885,52000.0,-8.881291389465332,-1.7519570589065552,3.2620997428894043
886,52100.0,-8.87291145324707,-1.7794904708862305,3.2680852413177486
887,52200.0,-8.87291145324707,-1.7794904708862305,3.2680852413177486
888,52300.0,-8.918999671936035,-1.7310078144073486,3.2626984119415283
889,52400.0,-8.918999671936035,-1.7310078144073486,3.2626984119415283
890,52500.0,-8.882488250732422,-1.7729063034057615,3.270479440689087
891,52600.0,-8.882488250732422,-1.7729063034057615,3.270479440689087
892,52700.0,-8.905831336975098,-1.720233917236328,3.2752678394317627
893,52800.0,-8.924386978149414,-1.746570110321045,3.2902317047119136
894,52900.0,-8.924386978149414,-1.746570110321045,3.2902317047119136
895,53000.0,-8.904634475708008,-1.7890672683715818,3.272873640060425
896,53100.0,-8.904634475708008,-1.7890672683715818,3.272873640060425
897,53200.0,-8.918999671936035,-1.80881941318512,3.263296842575073
898,53300.0,-8.918999671936035,-1.80881941318512,3.263296842575073
899,53400.0,-8.898649215698242,-1.7106571197509766,3.2752678394317627
900,52000.0,-8.881291389465332,-1.7519570589065552,3.2620997428894043
901,52100.0,-8.87291145324707,-1.7794904708862305,3.2680852413177486
902,52200.0,-8.87291145324707,-1.7794904708862305,3.2680852413177486
903,52300.0,-8.918999671936035,-1.7310078144073486,3.2626984119415283
904,52400.0,-8.918999671936035,-1.7310078144073486,3.2626984119415283
905,52500.0,-8.882488250732422,-1.7729063034057615,3.270479440689087
906,52600.0,-8.882488250732422,-1.7729063034057615,3.270479440689087
907,52700.0,-8.905831336975098,-1.720233917236328,3.2752678394317627
908,52800.0,-8.924386978149414,-1.746570110321045,3.2902317047119136
909,52900.0,-8.924386978149414,-1.746570110321045,3.2902317047119136
910,53000.0,-8.904634475708008,-1.7890672683715818,3.272873640060425
911,53100.0,-8.904634475708008,-1.7890672683715818,3.272873640060425
912,53200.0,-8.918999671936035,-1.80881941318512,3.263296842575073
913,53300.0,-8.918999671936035,-1.80881941318512,3.263296842575073
914,53400.0,-8.898649215698242,-1.7106571197509766,3.2752678394317627
915,53500.0,-8.898649215698242,-1.7106571197509766,3.2752678394317627
916,53600.0,-8.862735748291016,-1.86508309841156,3.265691041946411
917,53700.0,-8.91301441192627,-1.768117904663086,3.3039982318878174
918,53800.0,-8.91301441192627,-1.768117904663086,3.3039982318878174
919,53900.0,-8.954913139343262,-1.7423802614212036,3.2638955116271973
920,54000.0,-8.954913139343262,-1.7423802614212036,3.2638955116271973
921,54100.0,-8.878896713256836,-1.7322049140930176,3.2830491065979004
922,54200.0,-8.878896713256836,-1.7322049140930176,3.2830491065979004
923,54300.0,-8.917802810668945,-1.753154158592224,3.2752678394317627
924,54400.0,-8.917802810668945,-1.753154158592224,3.2752678394317627
925,54500.0,-8.856152534484863,-1.8507179021835327,3.2836475372314453
926,54600.0,-8.893860816955566,-1.765723705291748,3.2794578075408936
927,54700.0,-8.893860816955566,-1.765723705291748,3.2794578075408936
928,54800.0,-8.913613319396973,-1.7130513191223145,3.2806549072265625
929,54900.0,-8.913613319396973,-1.7130513191223145,3.2806549072265625
930,53500.0,-8.898649215698242,-1.7106571197509766,3.2752678394317627
931,53600.0,-8.862735748291016,-1.86508309841156,3.265691041946411
932,53700.0,-8.91301441192627,-1.768117904663086,3.3039982318878174
933,53800.0,-8.91301441192627,-1.768117904663086,3.3039982318878174
934,53900.0,-8.954913139343262,-1.7423802614212036,3.2638955116271973
935,54000.0,-8.954913139343262,-1.7423802614212036,3.2638955116271973
936,54100.0,-8.878896713256836,-1.7322049140930176,3.2830491065979004
937,54200.0,-8.878896713256836,-1.7322049140930176,3.2830491065979004
938,54300.0,-8.917802810668945,-1.753154158592224,3.2752678394317627
939,54400.0,-8.917802810668945,-1.753154158592224,3.2752678394317627
940,54500.0,-8.856152534484863,-1.8507179021835327,3.2836475372314453
941,54600.0,-8.893860816955566,-1.765723705291748,3.2794578075408936
942,54700.0,-8.893860816955566,-1.765723705291748,3.2794578075408936
943,54800.0,-8.913613319396973,-1.7130513191223145,3.2806549072265625
944,54900.0,-8.913613319396973,-1.7130513191223145,3.2806549072265625
945,55000.0,-8.905831336975098,-1.7525556087493896,3.2800562381744385
946,55100.0,-8.905831336975098,-1.7525556087493896,3.2800562381744385
947,55200.0,-8.908824920654297,-1.7693150043487549,3.2740707397460938
948,55300.0,-8.908824920654297,-1.7693150043487549,3.2740707397460938
949,55400.0,-8.9249849319458,-1.7160440683364868,3.258508443832397
950,55500.0,-8.871115684509277,-1.7579425573349,3.2812533378601074
951,55600.0,-8.871115684509277,-1.7579425573349,3.2812533378601074
952,55700.0,-8.937555313110352,-1.7794904708862305,3.25611424446106
953,55800.0,-8.937555313110352,-1.7794904708862305,3.25611424446106
954,55900.0,-8.902838706970215,-1.7627309560775757,3.278859138488769
955,56000.0,-8.902838706970215,-1.7627309560775757,3.278859138488769
956,56100.0,-8.92917537689209,-1.7513585090637207,3.2638955116271973
957,56200.0,-8.92917537689209,-1.7513585090637207,3.2638955116271973
958,56300.0,-8.912415504455566,-1.7070658206939695,3.263296842575073
959,56400.0,-8.926182746887207,-1.7381904125213623,3.265092611312866
960,55000.0,-8.905831336975098,-1.7525556087493896,3.2800562381744385
961,55100.0,-8.905831336975098,-1.7525556087493896,3.2800562381744385
962,55200.0,-8.908824920654297,-1.7693150043487549,3.2740707397460938
963,55300.0,-8.908824920654297,-1.7693150043487549,3.2740707397460938
964,55400.0,-8.9249849319458,-1.7160440683364868,3.258508443832397
965,55500.0,-8.871115684509277,-1.7579425573349,3.2812533378601074
966,55600.0,-8.871115684509277,-1.7579425573349,3.2812533378601074
967,55700.0,-8.937555313110352,-1.7794904708862305,3.25611424446106
968,55800.0,-8.937555313110352,-1.7794904708862305,3.25611424446106
969,55900.0,-8.902838706970215,-1.7627309560775757,3.278859138488769
970,56000.0,-8.902838706970215,-1.7627309560775757,3.278859138488769
971,56100.0,-8.92917537689209,-1.7513585090637207,3.2638955116271973
972,56200.0,-8.92917537689209,-1.7513585090637207,3.2638955116271973
973,56300.0,-8.912415504455566,-1.7070658206939695,3.263296842575073
974,56400.0,-8.926182746887207,-1.7381904125213623,3.265092611312866
975,56500.0,-8.926182746887207,-1.7381904125213623,3.265092611312866
976,56600.0,-8.881889343261719,-1.778891921043396,3.269881010055542
977,56700.0,-8.881889343261719,-1.778891921043396,3.269881010055542
978,56800.0,-8.91421127319336,-1.7519570589065552,3.270479440689087
979,56900.0,-8.91421127319336,-1.7519570589065552,3.270479440689087
980,57000.0,-8.93037223815918,-1.7537527084350586,3.2626984119415283
981,57100.0,-8.93037223815918,-1.7537527084350586,3.2626984119415283
982,57200.0,-8.911218643188477,-1.7172411680221558,3.2620997428894043
983,57300.0,-8.923190116882324,-1.7375918626785278,3.2806549072265625
984,57400.0,-8.923190116882324,-1.7375918626785278,3.2806549072265625
985,57500.0,-8.910021781921387,-1.745373010635376,3.270479440689087
986,57600.0,-8.910021781921387,-1.745373010635376,3.270479440689087
987,57700.0,-8.902240753173828,-1.7729063034057615,3.297414302825928
988,57800.0,-8.902240753173828,-1.7729063034057615,3.297414302825928
989,57900.0,-8.902838706970215,-1.7776948213577268,3.2597055435180664
990,56500.0,-8.926182746887207,-1.7381904125213623,3.265092611312866
991,56600.0,-8.881889343261719,-1.778891921043396,3.269881010055542
992,56700.0,-8.881889343261719,-1.778891921043396,3.269881010055542
993,56800.0,-8.91421127319336,-1.7519570589065552,3.270479440689087
994,56900.0,-8.91421127319336,-1.7519570589065552,3.270479440689087
995,57000.0,-8.93037223815918,-1.7537527084350586,3.2626984119415283
996,57100.0,-8.93037223815918,-1.7537527084350586,3.2626984119415283
997,57200.0,-8.911218643188477,-1.7172411680221558,3.2620997428894043
998,57300.0,-8.923190116882324,-1.7375918626785278,3.2806549072265625
999,57400.0,-8.923190116882324,-1.7375918626785278,3.2806549072265625
1000,57500.0,-8.910021781921387,-1.745373010635376,3.270479440689087
1001,57600.0,-8.910021781921387,-1.745373010635376,3.270479440689087
1002,57700.0,-8.902240753173828,-1.7729063034057615,3.297414302825928
1003,57800.0,-8.902240753173828,-1.7729063034057615,3.297414302825928
1004,57900.0,-8.902838706970215,-1.7776948213577268,3.2597055435180664
1005,58000.0,-8.902838706970215,-1.7776948213577268,3.2597055435180664
1006,58100.0,-8.871115684509277,-1.8363527059555051,3.2776620388031006
1007,58200.0,-8.913613319396973,-1.7776948213577268,3.278859138488769
1008,58300.0,-8.913613319396973,-1.7776948213577268,3.278859138488769
1009,58400.0,-8.913613319396973,-1.7776948213577268,3.278859138488769
1010,58500.0,-8.944737434387207,-1.742978811264038,3.2740707397460938
1011,58600.0,-8.910619735717773,-1.753154158592224,3.272873640060425
1012,58700.0,-8.910619735717773,-1.753154158592224,3.272873640060425
1013,58800.0,-8.909422874450684,-1.7375918626785278,3.2674868106842037
1014,58900.0,-8.909422874450684,-1.7375918626785278,3.2674868106842037
1015,59000.0,-8.886677742004395,-1.8429367542266848,3.259107112884521
1016,59100.0,-8.910619735717773,-1.7908629179000854,3.2776620388031006
1017,59200.0,-8.910619735717773,-1.7908629179000854,3.2776620388031006
1018,59300.0,-8.958504676818848,-1.7232266664505005,3.25611424446106
1019,59400.0,-8.958504676818848,-1.7232266664505005,3.25611424446106
1020,58000.0,-8.902838706970215,-1.7776948213577268,3.2597055435180664
1021,58100.0,-8.871115684509277,-1.8363527059555051,3.2776620388031006
1022,58200.0,-8.913613319396973,-1.7776948213577268,3.278859138488769
1023,58300.0,-8.913613319396973,-1.7776948213577268,3.278859138488769
1024,58400.0,-8.913613319396973,-1.7776948213577268,3.278859138488769
1025,58500.0,-8.944737434387207,-1.742978811264038,3.2740707397460938
1026,58600.0,-8.910619735717773,-1.753154158592224,3.272873640060425
1027,58700.0,-8.910619735717773,-1.753154158592224,3.272873640060425
1028,58800.0,-8.909422874450684,-1.7375918626785278,3.2674868106842037
1029,58900.0,-8.909422874450684,-1.7375918626785278,3.2674868106842037
1030,59000.0,-8.886677742004395,-1.8429367542266848,3.259107112884521
1031,59100.0,-8.910619735717773,-1.7908629179000854,3.2776620388031006
1032,59200.0,-8.910619735717773,-1.7908629179000854,3.2776620388031006
1033,59300.0,-8.958504676818848,-1.7232266664505005,3.25611424446106
1034,59400.0,-8.958504676818848,-1.7232266664505005,3.25611424446106
1035,59500.0,-8.908824920654297,-1.7663222551345823,3.2710781097412114
1036,59600.0,-8.908824920654297,-1.7663222551345823,3.2710781097412114
1037,59700.0,-8.91181755065918,-1.7776948213577268,3.256712913513184
1038,59800.0,-8.91181755065918,-1.7776948213577268,3.256712913513184
1039,59900.0,-8.908824920654297,-1.790264368057251,3.2992098331451416
1040,60000.0,-8.908824920654297,-1.790264368057251,3.2992098331451416
1041,60100.0,-8.865130424499512,-1.8507179021835327,3.268683910369873
1042,60200.0,-8.926780700683594,-1.731606364250183,3.2537200450897217
1043,60300.0,-8.926780700683594,-1.731606364250183,3.2537200450897217
1044,60400.0,-8.922591209411621,-1.7501614093780518,3.25611424446106
1045,60500.0,-8.922591209411621,-1.7501614093780518,3.25611424446106
1046,60600.0,-8.920795440673828,-1.7537527084350586,3.2423477172851562
1047,60700.0,-8.920795440673828,-1.7537527084350586,3.2423477172851562
1048,60800.0,-8.872312545776367,-1.8393454551696775,3.25611424446106
1049,60900.0,-8.872312545776367,-1.8393454551696775,3.25611424446106
1050,59500.0,-8.908824920654297,-1.7663222551345823,3.2710781097412114
1051,59600.0,-8.908824920654297,-1.7663222551345823,3.2710781097412114
1052,59700.0,-8.91181755065918,-1.7776948213577268,3.256712913513184
1053,59800.0,-8.91181755065918,-1.7776948213577268,3.256712913513184
1054,59900.0,-8.908824920654297,-1.790264368057251,3.2992098331451416
1055,60000.0,-8.908824920654297,-1.790264368057251,3.2992098331451416
1056,60100.0,-8.865130424499512,-1.8507179021835327,3.268683910369873
1057,60200.0,-8.926780700683594,-1.731606364250183,3.2537200450897217
1058,60300.0,-8.926780700683594,-1.731606364250183,3.2537200450897217
1059,60400.0,-8.922591209411621,-1.7501614093780518,3.25611424446106
1060,60500.0,-8.922591209411621,-1.7501614093780518,3.25611424446106
1061,60600.0,-8.920795440673828,-1.7537527084350586,3.2423477172851562
1062,60700.0,-8.920795440673828,-1.7537527084350586,3.2423477172851562
1063,60800.0,-8.872312545776367,-1.8393454551696775,3.25611424446106
1064,60900.0,-8.872312545776367,-1.8393454551696775,3.25611424446106
1065,61000.0,-8.909422874450684,-1.7561469078063965,3.2644939422607417
1066,61100.0,-8.959701538085938,-1.7375918626785278,3.2423477172851562
1067,61200.0,-8.959701538085938,-1.7375918626785278,3.2423477172851562
1068,61300.0,-8.926780700683594,-1.778891921043396,3.2872388362884517
1069,61400.0,-8.926780700683594,-1.778891921043396,3.2872388362884517
1070,61500.0,-8.904036521911621,-1.790264368057251,3.290830135345459
1071,61600.0,-8.904036521911621,-1.790264368057251,3.290830135345459
1072,61700.0,-8.893860816955566,-1.7741034030914309,3.296217203140259
1073,61800.0,-8.893860816955566,-1.7741034030914309,3.296217203140259
1074,61900.0,-8.9249849319458,-1.7250223159790041,3.24414324760437
1075,62000.0,-8.881889343261719,-1.8064252138137815,3.297414302825928
1076,62100.0,-8.881889343261719,-1.8064252138137815,3.297414302825928
1077,62200.0,-8.926780700683594,-1.7591396570205688,3.2626984119415283
1078,62300.0,-8.926780700683594,-1.7591396570205688,3.2626984119415283
1079,62400.0,-8.87291145324707,-1.7735048532485962,3.293224334716797
1080,61000.0,-8.909422874450684,-1.7561469078063965,3.2644939422607417
1081,61100.0,-8.959701538085938,-1.7375918626785278,3.2423477172851562
1082,61200.0,-8.959701538085938,-1.7375918626785278,3.2423477172851562
1083,61300.0,-8.926780700683594,-1.778891921043396,3.2872388362884517
1084,61400.0,-8.926780700683594,-1.778891921043396,3.2872388362884517
1085,61500.0,-8.904036521911621,-1.790264368057251,3.290830135345459
1086,61600.0,-8.904036521911621,-1.790264368057251,3.290830135345459
1087,61700.0,-8.893860816955566,-1.7741034030914309,3.296217203140259
1088,61800.0,-8.893860816955566,-1.7741034030914309,3.296217203140259
1089,61900.0,-8.9249849319458,-1.7250223159790041,3.24414324760437
1090,62000.0,-8.881889343261719,-1.8064252138137815,3.297414302825928
1091,62100.0,-8.881889343261719,-1.8064252138137815,3.297414302825928
1092,62200.0,-8.926780700683594,-1.7591396570205688,3.2626984119415283
1093,62300.0,-8.926780700683594,-1.7591396570205688,3.2626984119415283
1094,62400.0,-8.87291145324707,-1.7735048532485962,3.293224334716797
1095,62500.0,-8.87291145324707,-1.7735048532485962,3.293224334716797
1096,62600.0,-8.849568367004395,-1.83695125579834,3.333327293395996
1097,62700.0,-9.045892715454102,-1.7142484188079834,3.205237627029419
1098,62800.0,-9.045892715454102,-1.7142484188079834,3.205237627029419
1099,62900.0,-8.862137794494629,-1.7962498664855957,3.290830135345459
1100,63000.0,-8.862137794494629,-1.7962498664855957,3.290830135345459
1101,63100.0,-8.935160636901855,-1.7579425573349,3.2519245147705083
1102,63200.0,-8.935160636901855,-1.7579425573349,3.2519245147705083
1103,63300.0,-8.91421127319336,-1.7711106538772583,3.2680852413177486
1104,63400.0,-8.91421127319336,-1.7711106538772583,3.2680852413177486
1105,63500.0,-8.871115684509277,-1.7615338563919067,3.259107112884521
1106,63600.0,-8.871115684509277,-1.7615338563919067,3.259107112884521
1107,63700.0,-8.909422874450684,-1.7615338563919067,3.2794578075408936
1108,63800.0,-8.941145896911621,-1.7633295059204102,3.2537200450897217
1109,63900.0,-8.941145896911621,-1.7633295059204102,3.2537200450897217
1110,62500.0,-8.87291145324707,-1.7735048532485962,3.293224334716797
1111,62600.0,-8.849568367004395,-1.83695125579834,3.333327293395996
1112,62700.0,-9.045892715454102,-1.7142484188079834,3.205237627029419
1113,62800.0,-9.045892715454102,-1.7142484188079834,3.205237627029419
1114,62900.0,-8.862137794494629,-1.7962498664855957,3.290830135345459
1115,63000.0,-8.862137794494629,-1.7962498664855957,3.290830135345459
1116,63100.0,-8.935160636901855,-1.7579425573349,3.2519245147705083
1117,63200.0,-8.935160636901855,-1.7579425573349,3.2519245147705083
1118,63300.0,-8.91421127319336,-1.7711106538772583,3.2680852413177486
1119,63400.0,-8.91421127319336,-1.7711106538772583,3.2680852413177486
1120,63500.0,-8.871115684509277,-1.7615338563919067,3.259107112884521
1121,63600.0,-8.871115684509277,-1.7615338563919067,3.259107112884521
1122,63700.0,-8.909422874450684,-1.7615338563919067,3.2794578075408936
1123,63800.0,-8.941145896911621,-1.7633295059204102,3.2537200450897217
1124,63900.0,-8.941145896911621,-1.7633295059204102,3.2537200450897217
1125,64000.0,-8.899248123168945,-1.7687164545059204,3.2638955116271973
1126,64100.0,-8.899248123168945,-1.7687164545059204,3.2638955116271973
1127,64200.0,-8.91421127319336,-1.7717092037200928,3.2345664501190186
1128,64300.0,-8.91421127319336,-1.7717092037200928,3.2345664501190186
1129,64400.0,-8.9249849319458,-1.7920600175857544,3.2603042125701904
1130,64500.0,-8.9249849319458,-1.7920600175857544,3.2603042125701904
1131,64600.0,-8.912415504455566,-1.7675193548202517,3.2644939422607417
1132,64700.0,-8.847772598266602,-1.7040730714797974,3.2148144245147705
1133,64800.0,-8.847772598266602,-1.7040730714797974,3.2148144245147705
1134,64900.0,-8.939949035644531,-1.7483657598495483,3.2405519485473637
1135,65000.0,-8.939949035644531,-1.7483657598495483,3.2405519485473637
1136,65100.0,-8.882488250732422,-1.7699135541915894,3.268683910369873
1137,65200.0,-8.882488250732422,-1.7699135541915894,3.268683910369873
1138,65300.0,-8.933364868164062,-1.7483657598495483,3.2638955116271973
1139,65400.0,-8.933364868164062,-1.7483657598495483,3.2638955116271973
1140,64000.0,-8.899248123168945,-1.7687164545059204,3.2638955116271973
1141,64100.0,-8.899248123168945,-1.7687164545059204,3.2638955116271973
1142,64200.0,-8.91421127319336,-1.7717092037200928,3.2345664501190186
1143,64300.0,-8.91421127319336,-1.7717092037200928,3.2345664501190186
1144,64400.0,-8.9249849319458,-1.7920600175857544,3.2603042125701904
1145,64500.0,-8.9249849319458,-1.7920600175857544,3.2603042125701904
1146,64600.0,-8.912415504455566,-1.7675193548202517,3.2644939422607417
1147,64700.0,-8.847772598266602,-1.7040730714797974,3.2148144245147705
1148,64800.0,-8.847772598266602,-1.7040730714797974,3.2148144245147705
1149,64900.0,-8.939949035644531,-1.7483657598495483,3.2405519485473637
1150,65000.0,-8.939949035644531,-1.7483657598495483,3.2405519485473637
1151,65100.0,-8.882488250732422,-1.7699135541915894,3.268683910369873
1152,65200.0,-8.882488250732422,-1.7699135541915894,3.268683910369873
1153,65300.0,-8.933364868164062,-1.7483657598495483,3.2638955116271973
1154,65400.0,-8.933364868164062,-1.7483657598495483,3.2638955116271973
1155,65500.0,-8.878896713256836,-1.764526605606079,3.2824504375457764
1156,65600.0,-8.944138526916504,-1.8154034614562988,3.26688814163208
1157,65700.0,-8.944138526916504,-1.8154034614562988,3.26688814163208
1158,65800.0,-8.899248123168945,-1.821987509727478,3.24953031539917
1159,65900.0,-8.899248123168945,-1.821987509727478,3.24953031539917
1160,66000.0,-8.909422874450684,-1.7345991134643557,3.2710781097412114
1161,66100.0,-8.909422874450684,-1.7345991134643557,3.2710781097412114
1162,66200.0,-8.911218643188477,-1.7675193548202517,3.256712913513184
1163,66300.0,-8.911218643188477,-1.7675193548202517,3.256712913513184
1164,66400.0,-8.936956405639648,-1.7782933712005615,3.2489316463470463
1165,66500.0,-8.897452354431152,-1.8704700469970703,3.242946147918701
1166,66600.0,-8.897452354431152,-1.8704700469970703,3.242946147918701
1167,66700.0,-8.885480880737305,-1.7986440658569336,3.2746694087982178
1168,66800.0,-8.885480880737305,-1.7986440658569336,3.2746694087982178
1169,66900.0,-8.910021781921387,-1.7699135541915894,3.2794578075408936
1170,65500.0,-8.878896713256836,-1.764526605606079,3.2824504375457764
1171,65600.0,-8.944138526916504,-1.8154034614562988,3.26688814163208
1172,65700.0,-8.944138526916504,-1.8154034614562988,3.26688814163208
1173,65800.0,-8.899248123168945,-1.821987509727478,3.24953031539917
1174,65900.0,-8.899248123168945,-1.821987509727478,3.24953031539917
1175,66000.0,-8.909422874450684,-1.7345991134643557,3.2710781097412114
1176,66100.0,-8.909422874450684,-1.7345991134643557,3.2710781097412114
1177,66200.0,-8.911218643188477,-1.7675193548202517,3.256712913513184
1178,66300.0,-8.911218643188477,-1.7675193548202517,3.256712913513184
1179,66400.0,-8.936956405639648,-1.7782933712005615,3.2489316463470463
1180,66500.0,-8.897452354431152,-1.8704700469970703,3.242946147918701
1181,66600.0,-8.897452354431152,-1.8704700469970703,3.242946147918701
1182,66700.0,-8.885480880737305,-1.7986440658569336,3.2746694087982178
1183,66800.0,-8.885480880737305,-1.7986440658569336,3.2746694087982178
1184,66900.0,-8.910021781921387,-1.7699135541915894,3.2794578075408936
1185,67000.0,-8.910021781921387,-1.7699135541915894,3.2794578075408936
1186,67100.0,-8.917203903198242,-1.799242615699768,3.277063608169556
1187,67200.0,-8.917203903198242,-1.799242615699768,3.277063608169556
1188,67300.0,-8.911218643188477,-1.7423802614212036,3.2411506175994877
1189,67400.0,-8.899248123168945,-1.8279730081558228,3.251325845718384
1190,67500.0,-8.899248123168945,-1.8279730081558228,3.251325845718384
1191,67600.0,-8.905233383178711,-1.807622313499451,3.273472309112549
1192,67700.0,-8.905233383178711,-1.807622313499451,3.273472309112549
1193,67800.0,-8.942941665649414,-1.7322049140930176,3.263296842575073
1194,67900.0,-8.942941665649414,-1.7322049140930176,3.263296842575073
1195,68000.0,-8.905233383178711,-1.7723077535629272,3.259107112884521
1196,68100.0,-8.905233383178711,-1.7723077535629272,3.259107112884521
1197,68200.0,-8.912415504455566,-1.7890672683715818,3.266289710998535
1198,68300.0,-8.892663955688477,-1.8531121015548704,3.2782607078552246
1199,68400.0,-8.892663955688477,-1.8531121015548704,3.2782607078552246
1200,67000.0,-8.910021781921387,-1.7699135541915894,3.2794578075408936
1201,67100.0,-8.917203903198242,-1.799242615699768,3.277063608169556
1202,67200.0,-8.917203903198242,-1.799242615699768,3.277063608169556
1203,67300.0,-8.911218643188477,-1.7423802614212036,3.2411506175994877
1204,67400.0,-8.899248123168945,-1.8279730081558228,3.251325845718384
1205,67500.0,-8.899248123168945,-1.8279730081558228,3.251325845718384
1206,67600.0,-8.905233383178711,-1.807622313499451,3.273472309112549
1207,67700.0,-8.905233383178711,-1.807622313499451,3.273472309112549
1208,67800.0,-8.942941665649414,-1.7322049140930176,3.263296842575073
1209,67900.0,-8.942941665649414,-1.7322049140930176,3.263296842575073
1210,68000.0,-8.905233383178711,-1.7723077535629272,3.259107112884521
1211,68100.0,-8.905233383178711,-1.7723077535629272,3.259107112884521
1212,68200.0,-8.912415504455566,-1.7890672683715818,3.266289710998535
1213,68300.0,-8.892663955688477,-1.8531121015548704,3.2782607078552246
1214,68400.0,-8.892663955688477,-1.8531121015548704,3.2782607078552246
1215,68500.0,-8.916007041931152,-1.7741034030914309,3.2537200450897217
1216,68600.0,-8.916007041931152,-1.7741034030914309,3.2537200450897217
1217,68700.0,-8.940547943115234,-1.7471686601638794,3.2638955116271973
1218,68800.0,-8.940547943115234,-1.7471686601638794,3.2638955116271973
1219,68900.0,-8.923190116882324,-1.778891921043396,3.247734546661377
1220,69000.0,-8.923190116882324,-1.778891921043396,3.247734546661377
1221,69100.0,-8.918401718139648,-1.7651251554489136,3.2489316463470463
1222,69200.0,-8.875306129455566,-1.8477251529693604,3.2626984119415283
1223,69300.0,-8.875306129455566,-1.8477251529693604,3.2626984119415283
1224,69400.0,-8.917203903198242,-1.802833914756775,3.258508443832397
1225,69500.0,-8.917203903198242,-1.802833914756775,3.258508443832397
1226,69600.0,-8.945934295654297,-1.7256208658218384,3.2674868106842037
1227,69700.0,-8.945934295654297,-1.7256208658218384,3.2674868106842037
1228,69800.0,-8.903437614440918,-1.7747019529342651,3.2573113441467285
1229,69900.0,-8.903437614440918,-1.7747019529342651,3.2573113441467285
1230,68500.0,-8.916007041931152,-1.7741034030914309,3.2537200450897217
1231,68600.0,-8.916007041931152,-1.7741034030914309,3.2537200450897217
1232,68700.0,-8.940547943115234,-1.7471686601638794,3.2638955116271973
1233,68800.0,-8.940547943115234,-1.7471686601638794,3.2638955116271973
1234,68900.0,-8.923190116882324,-1.778891921043396,3.247734546661377
1235,69000.0,-8.923190116882324,-1.778891921043396,3.247734546661377
1236,69100.0,-8.918401718139648,-1.7651251554489136,3.2489316463470463
1237,69200.0,-8.875306129455566,-1.8477251529693604,3.2626984119415283
1238,69300.0,-8.875306129455566,-1.8477251529693604,3.2626984119415283
1239,69400.0,-8.917203903198242,-1.802833914756775,3.258508443832397
1240,69500.0,-8.917203903198242,-1.802833914756775,3.258508443832397
1241,69600.0,-8.945934295654297,-1.7256208658218384,3.2674868106842037
1242,69700.0,-8.945934295654297,-1.7256208658218384,3.2674868106842037
1243,69800.0,-8.903437614440918,-1.7747019529342651,3.2573113441467285
1244,69900.0,-8.903437614440918,-1.7747019529342651,3.2573113441467285
1245,70000.0,-8.929773330688477,-1.7687164545059204,3.269282341003418
1246,70100.0,-8.977059364318848,-1.722628116607666,3.2674868106842037
1247,70200.0,-8.977059364318848,-1.722628116607666,3.2674868106842037
1248,70300.0,-8.909422874450684,-1.778891921043396,3.243544816970825
1249,70400.0,-8.909422874450684,-1.778891921043396,3.243544816970825
1250,70500.0,-8.886079788208008,-1.768117904663086,3.2525229454040527
1251,70600.0,-8.886079788208008,-1.768117904663086,3.2525229454040527
1252,70700.0,-8.926182746887207,-1.764526605606079,3.247136116027832
1253,70800.0,-8.926182746887207,-1.764526605606079,3.247136116027832
1254,70900.0,-8.89685344696045,-1.7585411071777344,3.265092611312866
1255,71000.0,-8.902240753173828,-1.7154455184936523,3.247734546661377
1256,71100.0,-8.902240753173828,-1.7154455184936523,3.247734546661377
1257,71200.0,-8.899248123168945,-1.7818846702575684,3.2824504375457764
1258,71300.0,-8.899248123168945,-1.7818846702575684,3.2824504375457764
1259,71400.0,-8.88907241821289,-1.7693150043487549,3.2573113441467285
1260,70000.0,-8.929773330688477,-1.7687164545059204,3.269282341003418
1261,70100.0,-8.977059364318848,-1.722628116607666,3.2674868106842037
1262,70200.0,-8.977059364318848,-1.722628116607666,3.2674868106842037
1263,70300.0,-8.909422874450684,-1.778891921043396,3.243544816970825
1264,70400.0,-8.909422874450684,-1.778891921043396,3.243544816970825
1265,70500.0,-8.886079788208008,-1.768117904663086,3.2525229454040527
1266,70600.0,-8.886079788208008,-1.768117904663086,3.2525229454040527
1267,70700.0,-8.926182746887207,-1.764526605606079,3.247136116027832
1268,70800.0,-8.926182746887207,-1.764526605606079,3.247136116027832
1269,70900.0,-8.89685344696045,-1.7585411071777344,3.265092611312866
1270,71000.0,-8.902240753173828,-1.7154455184936523,3.247734546661377
1271,71100.0,-8.902240753173828,-1.7154455184936523,3.247734546661377
1272,71200.0,-8.899248123168945,-1.7818846702575684,3.2824504375457764
1273,71300.0,-8.899248123168945,-1.7818846702575684,3.2824504375457764
1274,71400.0,-8.88907241821289,-1.7693150043487549,3.2573113441467285
1275,71500.0,-8.88907241821289,-1.7693150043487549,3.2573113441467285
1276,71600.0,-8.886677742004395,-1.7561469078063965,3.2531216144561768
1277,71700.0,-8.886677742004395,-1.7561469078063965,3.2531216144561768
1278,71800.0,-8.910619735717773,-1.7435773611068726,3.2525229454040527
1279,71900.0,-8.9249849319458,-1.745373010635376,3.2740707397460938
1280,72000.0,-8.9249849319458,-1.745373010635376,3.2740707397460938
1281,72100.0,-8.927379608154297,-1.7782933712005615,3.2620997428894043
1282,72200.0,-8.927379608154297,-1.7782933712005615,3.2620997428894043
1283,72300.0,-8.901042938232422,-1.8327614068984983,3.292027235031128
1284,72400.0,-8.901042938232422,-1.8327614068984983,3.292027235031128
1285,72500.0,-8.921394348144531,-1.807622313499451,3.265691041946411
1286,72600.0,-8.921394348144531,-1.807622313499451,3.265691041946411
1287,72700.0,-8.893860816955566,-1.742978811264038,3.2172086238861084
1288,72800.0,-8.912415504455566,-1.7782933712005615,3.2710781097412114
1289,72900.0,-8.912415504455566,-1.7782933712005615,3.2710781097412114
1290,71500.0,-8.88907241821289,-1.7693150043487549,3.2573113441467285
1291,71600.0,-8.886677742004395,-1.7561469078063965,3.2531216144561768
1292,71700.0,-8.886677742004395,-1.7561469078063965,3.2531216144561768
1293,71800.0,-8.910619735717773,-1.7435773611068726,3.2525229454040527
1294,71900.0,-8.9249849319458,-1.745373010635376,3.2740707397460938
1295,72000.0,-8.9249849319458,-1.745373010635376,3.2740707397460938
1296,72100.0,-8.927379608154297,-1.7782933712005615,3.2620997428894043
1297,72200.0,-8.927379608154297,-1.7782933712005615,3.2620997428894043
1298,72300.0,-8.901042938232422,-1.8327614068984983,3.292027235031128
1299,72400.0,-8.901042938232422,-1.8327614068984983,3.292027235031128
1300,72500.0,-8.921394348144531,-1.807622313499451,3.265691041946411
1301,72600.0,-8.921394348144531,-1.807622313499451,3.265691041946411
1302,72700.0,-8.893860816955566,-1.742978811264038,3.2172086238861084
1303,72800.0,-8.912415504455566,-1.7782933712005615,3.2710781097412114
1304,72900.0,-8.912415504455566,-1.7782933712005615,3.2710781097412114
1305,73000.0,-8.908824920654297,-1.7507599592208862,3.224989652633667
1306,73100.0,-8.908824920654297,-1.7507599592208862,3.224989652633667
1307,73200.0,-8.927379608154297,-1.7950527667999268,3.2124202251434326
1308,73300.0,-8.927379608154297,-1.7950527667999268,3.2124202251434326
1309,73400.0,-8.875306129455566,-1.829170107841492,3.2525229454040527
1310,73500.0,-8.875306129455566,-1.829170107841492,3.2525229454040527
1311,73600.0,-8.89146614074707,-1.8052281141281128,3.223194122314453
1312,73700.0,-8.930971145629883,-1.7016788721084597,3.2405519485473637
1313,73800.0,-8.930971145629883,-1.7016788721084597,3.2405519485473637
1314,73900.0,-8.87829875946045,-1.7579425573349,3.2597055435180664
1315,74000.0,-8.87829875946045,-1.7579425573349,3.2597055435180664
1316,74100.0,-8.863334655761719,-1.8339585065841677,3.2094273567199707
1317,74200.0,-8.863334655761719,-1.8339585065841677,3.2094273567199707
1318,74300.0,-8.813654899597168,-1.8794482946395876,3.2207999229431152
1319,74400.0,-8.813654899597168,-1.8794482946395876,3.2207999229431152
1320,73000.0,-8.908824920654297,-1.7507599592208862,3.224989652633667
1321,73100.0,-8.908824920654297,-1.7507599592208862,3.224989652633667
1322,73200.0,-8.927379608154297,-1.7950527667999268,3.2124202251434326
1323,73300.0,-8.927379608154297,-1.7950527667999268,3.2124202251434326
1324,73400.0,-8.875306129455566,-1.829170107841492,3.2525229454040527
1325,73500.0,-8.875306129455566,-1.829170107841492,3.2525229454040527
1326,73600.0,-8.89146614074707,-1.8052281141281128,3.223194122314453
1327,73700.0,-8.930971145629883,-1.7016788721084597,3.2405519485473637
1328,73800.0,-8.930971145629883,-1.7016788721084597,3.2405519485473637
1329,73900.0,-8.87829875946045,-1.7579425573349,3.2597055435180664
1330,74000.0,-8.87829875946045,-1.7579425573349,3.2597055435180664
1331,74100.0,-8.863334655761719,-1.8339585065841677,3.2094273567199707
1332,74200.0,-8.863334655761719,-1.8339585065841677,3.2094273567199707
1333,74300.0,-8.813654899597168,-1.8794482946395876,3.2207999229431152
1334,74400.0,-8.813654899597168,-1.8794482946395876,3.2207999229431152
1335,74500.0,-8.96149730682373,-1.7387889623641968,3.184886693954468
1336,74600.0,-8.795698165893555,-1.8022353649139404,3.2746694087982178
1337,74700.0,-8.795698165893555,-1.8022353649139404,3.2746694087982178
1338,74800.0,-8.953117370605469,-1.7926585674285889,3.250727415084839
1339,74900.0,-8.953117370605469,-1.7926585674285889,3.250727415084839
1340,75000.0,-8.9249849319458,-1.7537527084350586,3.247136116027832
1341,75100.0,-8.9249849319458,-1.7537527084350586,3.247136116027832
1342,75200.0,-8.919598579406738,-1.759738206863403,3.2387564182281494
1343,75300.0,-8.919598579406738,-1.759738206863403,3.2387564182281494
1344,75400.0,-8.898050308227539,-1.7794904708862305,3.24953031539917
1345,75500.0,-8.893860816955566,-1.7986440658569336,3.2423477172851562
1346,75600.0,-8.893860816955566,-1.7986440658569336,3.2423477172851562
1347,75700.0,-8.932766914367676,-1.777096152305603,3.2603042125701904
1348,75800.0,-8.932766914367676,-1.777096152305603,3.2603042125701904
1349,75900.0,-8.955511093139648,-1.753154158592224,3.213018655776977
1350,74500.0,-8.96149730682373,-1.7387889623641968,3.184886693954468
1351,74600.0,-8.795698165893555,-1.8022353649139404,3.2746694087982178
1352,74700.0,-8.795698165893555,-1.8022353649139404,3.2746694087982178
1353,74800.0,-8.953117370605469,-1.7926585674285889,3.250727415084839
1354,74900.0,-8.953117370605469,-1.7926585674285889,3.250727415084839
1355,75000.0,-8.9249849319458,-1.7537527084350586,3.247136116027832
1356,75100.0,-8.9249849319458,-1.7537527084350586,3.247136116027832
1357,75200.0,-8.919598579406738,-1.759738206863403,3.2387564182281494
1358,75300.0,-8.919598579406738,-1.759738206863403,3.2387564182281494
1359,75400.0,-8.898050308227539,-1.7794904708862305,3.24953031539917
1360,75500.0,-8.893860816955566,-1.7986440658569336,3.2423477172851562
1361,75600.0,-8.893860816955566,-1.7986440658569336,3.2423477172851562
1362,75700.0,-8.932766914367676,-1.777096152305603,3.2603042125701904
1363,75800.0,-8.932766914367676,-1.777096152305603,3.2603042125701904
1364,75900.0,-8.955511093139648,-1.753154158592224,3.213018655776977
1365,76000.0,-8.955511093139648,-1.753154158592224,3.213018655776977
1366,76100.0,-8.960898399353027,-1.731606364250183,3.24414324760437
1367,76200.0,-8.960898399353027,-1.731606364250183,3.24414324760437
1368,76300.0,-8.947132110595703,-1.7405846118927002,3.296815633773804
1369,76400.0,-8.910021781921387,-1.8171991109848025,3.247136116027832
1370,76500.0,-8.910021781921387,-1.8171991109848025,3.247136116027832
1371,76600.0,-8.97885513305664,-1.7298107147216797,3.2363622188568115
1372,76700.0,-8.97885513305664,-1.7298107147216797,3.2363622188568115
1373,76800.0,-8.899846076965332,-1.801636815071106,3.24414324760437
1374,76900.0,-8.899846076965332,-1.801636815071106,3.24414324760437
1375,77000.0,-8.888473510742188,-1.7555483579635618,3.2207999229431152
1376,77100.0,-8.888473510742188,-1.7555483579635618,3.2207999229431152
1377,77200.0,-8.936357498168945,-1.7495628595352173,3.2088289260864262
1378,77300.0,-8.913613319396973,-1.7549498081207275,3.2351651191711426
1379,77400.0,-8.913613319396973,-1.7549498081207275,3.2351651191711426
1380,76000.0,-8.955511093139648,-1.753154158592224,3.213018655776977
1381,76100.0,-8.960898399353027,-1.731606364250183,3.24414324760437
1382,76200.0,-8.960898399353027,-1.731606364250183,3.24414324760437
1383,76300.0,-8.947132110595703,-1.7405846118927002,3.296815633773804
1384,76400.0,-8.910021781921387,-1.8171991109848025,3.247136116027832
1385,76500.0,-8.910021781921387,-1.8171991109848025,3.247136116027832
1386,76600.0,-8.97885513305664,-1.7298107147216797,3.2363622188568115
1387,76700.0,-8.97885513305664,-1.7298107147216797,3.2363622188568115
1388,76800.0,-8.899846076965332,-1.801636815071106,3.24414324760437
1389,76900.0,-8.899846076965332,-1.801636815071106,3.24414324760437
1390,77000.0,-8.888473510742188,-1.7555483579635618,3.2207999229431152
1391,77100.0,-8.888473510742188,-1.7555483579635618,3.2207999229431152
1392,77200.0,-8.936357498168945,-1.7495628595352173,3.2088289260864262
1393,77300.0,-8.913613319396973,-1.7549498081207275,3.2351651191711426
1394,77400.0,-8.913613319396973,-1.7549498081207275,3.2351651191711426
1395,77500.0,-8.914810180664062,-1.7375918626785278,3.2453403472900386
1396,77600.0,-8.914810180664062,-1.7375918626785278,3.2453403472900386
1397,77700.0,-8.939949035644531,-1.7585411071777344,3.224989652633667
1398,77800.0,-8.939949035644531,-1.7585411071777344,3.224989652633667
1399,77900.0,-8.938153266906738,-1.7741034030914309,3.2357635498046875
1400,78000.0,-8.938153266906738,-1.7741034030914309,3.2357635498046875
1401,78100.0,-8.927379608154297,-1.753154158592224,3.220201253890991
1402,78200.0,-8.893860816955566,-1.8567034006118772,3.230376720428467
1403,78300.0,-8.893860816955566,-1.8567034006118772,3.230376720428467
1404,78400.0,-8.923190116882324,-1.7896658182144165,3.2537200450897217
1405,78500.0,-8.923190116882324,-1.7896658182144165,3.2537200450897217
1406,78600.0,-8.973467826843262,-1.7555483579635618,3.2207999229431152
1407,78700.0,-8.973467826843262,-1.7555483579635618,3.2207999229431152
1408,78800.0,-8.916007041931152,-1.7932571172714231,3.223792552947998
1409,78900.0,-8.916007041931152,-1.7932571172714231,3.223792552947998
1410,77500.0,-8.914810180664062,-1.7375918626785278,3.2453403472900386
1411,77600.0,-8.914810180664062,-1.7375918626785278,3.2453403472900386
1412,77700.0,-8.939949035644531,-1.7585411071777344,3.224989652633667
1413,77800.0,-8.939949035644531,-1.7585411071777344,3.224989652633667
1414,77900.0,-8.938153266906738,-1.7741034030914309,3.2357635498046875
1415,78000.0,-8.938153266906738,-1.7741034030914309,3.2357635498046875
1416,78100.0,-8.927379608154297,-1.753154158592224,3.220201253890991
1417,78200.0,-8.893860816955566,-1.8567034006118772,3.230376720428467
1418,78300.0,-8.893860816955566,-1.8567034006118772,3.230376720428467
1419,78400.0,-8.923190116882324,-1.7896658182144165,3.2537200450897217
1420,78500.0,-8.923190116882324,-1.7896658182144165,3.2537200450897217
1421,78600.0,-8.973467826843262,-1.7555483579635618,3.2207999229431152
1422,78700.0,-8.973467826843262,-1.7555483579635618,3.2207999229431152
1423,78800.0,-8.916007041931152,-1.7932571172714231,3.223792552947998
1424,78900.0,-8.916007041931152,-1.7932571172714231,3.223792552947998
1425,79000.0,-8.921394348144531,-1.7495628595352173,3.223194122314453
1426,79100.0,-8.939350128173828,-1.734000563621521,3.247734546661377
1427,79200.0,-8.939350128173828,-1.734000563621521,3.247734546661377
1428,79300.0,-8.962095260620117,-1.780089020729065,3.2207999229431152
1429,79400.0,-8.962095260620117,-1.780089020729065,3.2207999229431152
1430,79500.0,-8.926780700683594,-1.7741034030914309,3.2369606494903564
1431,79600.0,-8.926780700683594,-1.7741034030914309,3.2369606494903564
1432,79700.0,-8.935160636901855,-1.7633295059204102,3.195062160491944
1433,79800.0,-8.935160636901855,-1.7633295059204102,3.195062160491944
1434,79900.0,-8.88907241821289,-1.7537527084350586,3.213018655776977
1435,80000.0,-8.897452354431152,-1.7794904708862305,3.2094273567199707
1436,80100.0,-8.897452354431152,-1.7794904708862305,3.2094273567199707
1437,80200.0,-8.918401718139648,-1.7585411071777344,3.230975151062012
1438,80300.0,-8.918401718139648,-1.7585411071777344,3.230975151062012
1439,80400.0,-8.942343711853027,-1.7621324062347412,3.200449228286743
1440,79000.0,-8.921394348144531,-1.7495628595352173,3.223194122314453
1441,79100.0,-8.939350128173828,-1.734000563621521,3.247734546661377
1442,79200.0,-8.939350128173828,-1.734000563621521,3.247734546661377
1443,79300.0,-8.962095260620117,-1.780089020729065,3.2207999229431152
1444,79400.0,-8.962095260620117,-1.780089020729065,3.2207999229431152
1445,79500.0,-8.926780700683594,-1.7741034030914309,3.2369606494903564
1446,79600.0,-8.926780700683594,-1.7741034030914309,3.2369606494903564
1447,79700.0,-8.935160636901855,-1.7633295059204102,3.195062160491944
1448,79800.0,-8.935160636901855,-1.7633295059204102,3.195062160491944
1449,79900.0,-8.88907241821289,-1.7537527084350586,3.213018655776977
1450,80000.0,-8.897452354431152,-1.7794904708862305,3.2094273567199707
1451,80100.0,-8.897452354431152,-1.7794904708862305,3.2094273567199707
1452,80200.0,-8.918401718139648,-1.7585411071777344,3.230975151062012
1453,80300.0,-8.918401718139648,-1.7585411071777344,3.230975151062012
1454,80400.0,-8.942343711853027,-1.7621324062347412,3.200449228286743
1455,80500.0,-8.942343711853027,-1.7621324062347412,3.200449228286743
1456,80600.0,-8.918999671936035,-1.7741034030914309,3.242946147918701
1457,80700.0,-8.918999671936035,-1.7741034030914309,3.242946147918701
1458,80800.0,-8.88907241821289,-1.8501193523406985,3.2118215560913086
1459,80900.0,-8.925583839416504,-1.778891921043396,3.2345664501190186
1460,81000.0,-8.925583839416504,-1.778891921043396,3.2345664501190186
1461,81100.0,-8.96389102935791,-1.756745457649231,3.2261867523193364
1462,81200.0,-8.96389102935791,-1.756745457649231,3.2261867523193364
1463,81300.0,-8.927379608154297,-1.799242615699768,3.227383852005005
1464,81400.0,-8.927379608154297,-1.799242615699768,3.227383852005005
1465,81500.0,-8.92917537689209,-1.7764976024627686,3.2327709197998047
1466,81600.0,-8.92917537689209,-1.7764976024627686,3.2327709197998047
1467,81700.0,-8.920795440673828,-1.775899052619934,3.2219970226287837
1468,81800.0,-8.91301441192627,-1.7214310169219968,3.207631826400757
1469,81900.0,-8.91301441192627,-1.7214310169219968,3.207631826400757
1470,80500.0,-8.942343711853027,-1.7621324062347412,3.200449228286743
1471,80600.0,-8.918999671936035,-1.7741034030914309,3.242946147918701
1472,80700.0,-8.918999671936035,-1.7741034030914309,3.242946147918701
1473,80800.0,-8.88907241821289,-1.8501193523406985,3.2118215560913086
1474,80900.0,-8.925583839416504,-1.778891921043396,3.2345664501190186
1475,81000.0,-8.925583839416504,-1.778891921043396,3.2345664501190186
1476,81100.0,-8.96389102935791,-1.756745457649231,3.2261867523193364
1477,81200.0,-8.96389102935791,-1.756745457649231,3.2261867523193364
1478,81300.0,-8.927379608154297,-1.799242615699768,3.227383852005005
1479,81400.0,-8.927379608154297,-1.799242615699768,3.227383852005005
1480,81500.0,-8.92917537689209,-1.7764976024627686,3.2327709197998047
1481,81600.0,-8.92917537689209,-1.7764976024627686,3.2327709197998047
1482,81700.0,-8.920795440673828,-1.775899052619934,3.2219970226287837
1483,81800.0,-8.91301441192627,-1.7214310169219968,3.207631826400757
1484,81900.0,-8.91301441192627,-1.7214310169219968,3.207631826400757
1485,82000.0,-8.898649215698242,-1.7890672683715818,3.2261867523193364
1486,82100.0,-8.898649215698242,-1.7890672683715818,3.2261867523193364
1487,82200.0,-8.910021781921387,-1.7711106538772583,3.2184057235717773
1488,82300.0,-8.910021781921387,-1.7711106538772583,3.2184057235717773
1489,82400.0,-8.93037223815918,-1.7717092037200928,3.2297780513763428
1490,82500.0,-8.93037223815918,-1.7717092037200928,3.2297780513763428
1491,82600.0,-8.911218643188477,-1.7627309560775757,3.2423477172851562
1492,82700.0,-8.911218643188477,-1.7627309560775757,3.2423477172851562
1493,82800.0,-8.972270965576172,-1.7830817699432373,3.243544816970825
1494,82900.0,-8.881291389465332,-1.7980455160140991,3.2327709197998047
1495,83000.0,-8.881291389465332,-1.7980455160140991,3.2327709197998047
1496,83100.0,-8.920196533203125,-1.7405846118927002,3.2142157554626465
1497,83200.0,-8.920196533203125,-1.7405846118927002,3.2142157554626465
1498,83300.0,-8.926182746887207,-1.7747019529342651,3.227982521057129
1499,83400.0,-8.926182746887207,-1.7747019529342651,3.227982521057129
1500,82000.0,-8.898649215698242,-1.7890672683715818,3.2261867523193364
1501,82100.0,-8.898649215698242,-1.7890672683715818,3.2261867523193364
1502,82200.0,-8.910021781921387,-1.7711106538772583,3.2184057235717773
1503,82300.0,-8.910021781921387,-1.7711106538772583,3.2184057235717773
1504,82400.0,-8.93037223815918,-1.7717092037200928,3.2297780513763428
1505,82500.0,-8.93037223815918,-1.7717092037200928,3.2297780513763428
1506,82600.0,-8.911218643188477,-1.7627309560775757,3.2423477172851562
1507,82700.0,-8.911218643188477,-1.7627309560775757,3.2423477172851562
1508,82800.0,-8.972270965576172,-1.7830817699432373,3.243544816970825
1509,82900.0,-8.881291389465332,-1.7980455160140991,3.2327709197998047
1510,83000.0,-8.881291389465332,-1.7980455160140991,3.2327709197998047
1511,83100.0,-8.920196533203125,-1.7405846118927002,3.2142157554626465
1512,83200.0,-8.920196533203125,-1.7405846118927002,3.2142157554626465
1513,83300.0,-8.926182746887207,-1.7747019529342651,3.227982521057129
1514,83400.0,-8.926182746887207,-1.7747019529342651,3.227982521057129
1515,83500.0,-8.918999671936035,-1.7854759693145752,3.2297780513763428
1516,83600.0,-8.917802810668945,-1.7633295059204102,3.220201253890991
1517,83700.0,-8.917802810668945,-1.7633295059204102,3.220201253890991
1518,83800.0,-8.898050308227539,-1.7334020137786863,3.2094273567199707
1519,83900.0,-8.898050308227539,-1.7334020137786863,3.2094273567199707
1520,84000.0,-8.9064302444458,-1.778891921043396,3.2261867523193364
1521,84100.0,-8.9064302444458,-1.778891921043396,3.2261867523193364
1522,84200.0,-8.917203903198242,-1.786673069000244,3.225588321685791
1523,84300.0,-8.917203903198242,-1.786673069000244,3.225588321685791
1524,84400.0,-8.933364868164062,-1.7609353065490725,3.2184057235717773
1525,84500.0,-8.933364868164062,-1.7609353065490725,3.2184057235717773
1526,84600.0,-8.936956405639648,-1.7621324062347412,3.247136116027832
1527,84700.0,-8.941145896911621,-1.7699135541915894,3.2327709197998047
1528,84800.0,-8.941145896911621,-1.7699135541915894,3.2327709197998047
1529,84900.0,-8.935759544372559,-1.7591396570205688,3.2297780513763428
1530,83500.0,-8.918999671936035,-1.7854759693145752,3.2297780513763428
1531,83600.0,-8.917802810668945,-1.7633295059204102,3.220201253890991
1532,83700.0,-8.917802810668945,-1.7633295059204102,3.220201253890991
1533,83800.0,-8.898050308227539,-1.7334020137786863,3.2094273567199707
1534,83900.0,-8.898050308227539,-1.7334020137786863,3.2094273567199707
1535,84000.0,-8.9064302444458,-1.778891921043396,3.2261867523193364
1536,84100.0,-8.9064302444458,-1.778891921043396,3.2261867523193364
1537,84200.0,-8.917203903198242,-1.786673069000244,3.225588321685791
1538,84300.0,-8.917203903198242,-1.786673069000244,3.225588321685791
1539,84400.0,-8.933364868164062,-1.7609353065490725,3.2184057235717773
1540,84500.0,-8.933364868164062,-1.7609353065490725,3.2184057235717773
1541,84600.0,-8.936956405639648,-1.7621324062347412,3.247136116027832
1542,84700.0,-8.941145896911621,-1.7699135541915894,3.2327709197998047
1543,84800.0,-8.941145896911621,-1.7699135541915894,3.2327709197998047
1544,84900.0,-8.935759544372559,-1.7591396570205688,3.2297780513763428
1545,85000.0,-8.935759544372559,-1.7591396570205688,3.2297780513763428
1546,85100.0,-8.946533203125,-1.7723077535629272,3.2166099548339844
1547,85200.0,-8.946533203125,-1.7723077535629272,3.2166099548339844
1548,85300.0,-8.899846076965332,-1.7753005027770996,3.2297780513763428
1549,85400.0,-8.948927879333496,-1.7603367567062378,3.2225954532623287
1550,85500.0,-8.948927879333496,-1.7603367567062378,3.2225954532623287
1551,85600.0,-8.936357498168945,-1.7651251554489136,3.22678542137146
1552,85700.0,-8.936357498168945,-1.7651251554489136,3.22678542137146
1553,85800.0,-8.912415504455566,-1.840542554855347,3.21062445640564
1554,85900.0,-8.912415504455566,-1.840542554855347,3.21062445640564
1555,86000.0,-8.90762710571289,-1.8124107122421265,3.247136116027832
1556,86100.0,-8.90762710571289,-1.8124107122421265,3.247136116027832
1557,86200.0,-8.936956405639648,-1.7495628595352173,3.201646327972412
1558,86300.0,-8.936956405639648,-1.7495628595352173,3.201646327972412
1559,86400.0,-8.910619735717773,-1.768117904663086,3.246537446975708
1560,85000.0,-8.935759544372559,-1.7591396570205688,3.2297780513763428
1561,85100.0,-8.946533203125,-1.7723077535629272,3.2166099548339844
1562,85200.0,-8.946533203125,-1.7723077535629272,3.2166099548339844
1563,85300.0,-8.899846076965332,-1.7753005027770996,3.2297780513763428
1564,85400.0,-8.948927879333496,-1.7603367567062378,3.2225954532623287
1565,85500.0,-8.948927879333496,-1.7603367567062378,3.2225954532623287
1566,85600.0,-8.936357498168945,-1.7651251554489136,3.22678542137146
1567,85700.0,-8.936357498168945,-1.7651251554489136,3.22678542137146
1568,85800.0,-8.912415504455566,-1.840542554855347,3.21062445640564
1569,85900.0,-8.912415504455566,-1.840542554855347,3.21062445640564
1570,86000.0,-8.90762710571289,-1.8124107122421265,3.247136116027832
1571,86100.0,-8.90762710571289,-1.8124107122421265,3.247136116027832
1572,86200.0,-8.936956405639648,-1.7495628595352173,3.201646327972412
1573,86300.0,-8.936956405639648,-1.7495628595352173,3.201646327972412
1574,86400.0,-8.910619735717773,-1.768117904663086,3.246537446975708
1575,86500.0,-8.866926193237305,-1.88782799243927,3.18249249458313
1576,86600.0,-8.866926193237305,-1.88782799243927,3.18249249458313
1577,86700.0,-8.940547943115234,-1.7154455184936523,3.2321722507476807
1578,86800.0,-8.940547943115234,-1.7154455184936523,3.2321722507476807
1579,86900.0,-8.844779968261719,-1.7292121648788452,3.250727415084839
1580,87000.0,-8.844779968261719,-1.7292121648788452,3.250727415084839
1581,87100.0,-8.932766914367676,-1.8064252138137815,3.2178070545196533
1582,87200.0,-8.932766914367676,-1.8064252138137815,3.2178070545196533
1583,87300.0,-8.880094528198242,-1.7525556087493896,3.2160115242004395
1584,87400.0,-8.918401718139648,-1.7842788696289065,3.223792552947998
1585,87500.0,-8.918401718139648,-1.7842788696289065,3.223792552947998
1586,87600.0,-8.91301441192627,-1.777096152305603,3.2261867523193364
1587,87700.0,-8.91301441192627,-1.777096152305603,3.2261867523193364
1588,87800.0,-8.884882926940918,-1.823184609413147,3.2345664501190186
1589,87900.0,-8.884882926940918,-1.823184609413147,3.2345664501190186
1590,86500.0,-8.866926193237305,-1.88782799243927,3.18249249458313
1591,86600.0,-8.866926193237305,-1.88782799243927,3.18249249458313
1592,86700.0,-8.940547943115234,-1.7154455184936523,3.2321722507476807
1593,86800.0,-8.940547943115234,-1.7154455184936523,3.2321722507476807
1594,86900.0,-8.844779968261719,-1.7292121648788452,3.250727415084839
1595,87000.0,-8.844779968261719,-1.7292121648788452,3.250727415084839
1596,87100.0,-8.932766914367676,-1.8064252138137815,3.2178070545196533
1597,87200.0,-8.932766914367676,-1.8064252138137815,3.2178070545196533
1598,87300.0,-8.880094528198242,-1.7525556087493896,3.2160115242004395
1599,87400.0,-8.918401718139648,-1.7842788696289065,3.223792552947998
1600,87500.0,-8.918401718139648,-1.7842788696289065,3.223792552947998
1601,87600.0,-8.91301441192627,-1.777096152305603,3.2261867523193364
1602,87700.0,-8.91301441192627,-1.777096152305603,3.2261867523193364
1603,87800.0,-8.884882926940918,-1.823184609413147,3.2345664501190186
1604,87900.0,-8.884882926940918,-1.823184609413147,3.2345664501190186
1605,88000.0,-8.910619735717773,-1.8267759084701536,3.2483332157135014
1606,88100.0,-8.910619735717773,-1.8267759084701536,3.2483332157135014
1607,88200.0,-8.886079788208008,-1.7633295059204102,3.2261867523193364
1608,88300.0,-8.925583839416504,-1.7782933712005615,3.225588321685791
1609,88400.0,-8.925583839416504,-1.7782933712005615,3.225588321685791
1610,88500.0,-8.939949035644531,-1.746570110321045,3.2453403472900386
1611,88600.0,-8.939949035644531,-1.746570110321045,3.2453403472900386
1612,88700.0,-8.875904083251953,-1.835754156112671,3.230376720428467
1613,88800.0,-8.875904083251953,-1.835754156112671,3.230376720428467
1614,88900.0,-8.923190116882324,-1.765723705291748,3.2453403472900386
1615,89000.0,-8.923190116882324,-1.765723705291748,3.2453403472900386
1616,89100.0,-8.957905769348145,-1.7585411071777344,3.2393548488616943
1617,89200.0,-8.930971145629883,-1.7776948213577268,3.2393548488616943
1618,89300.0,-8.930971145629883,-1.7776948213577268,3.2393548488616943
1619,89400.0,-8.918401718139648,-1.7693150043487549,3.272873640060425
1620,88000.0,-8.910619735717773,-1.8267759084701536,3.2483332157135014
1621,88100.0,-8.910619735717773,-1.8267759084701536,3.2483332157135014
1622,88200.0,-8.886079788208008,-1.7633295059204102,3.2261867523193364
1623,88300.0,-8.925583839416504,-1.7782933712005615,3.225588321685791
1624,88400.0,-8.925583839416504,-1.7782933712005615,3.225588321685791
1625,88500.0,-8.939949035644531,-1.746570110321045,3.2453403472900386
1626,88600.0,-8.939949035644531,-1.746570110321045,3.2453403472900386
1627,88700.0,-8.875904083251953,-1.835754156112671,3.230376720428467
1628,88800.0,-8.875904083251953,-1.835754156112671,3.230376720428467
1629,88900.0,-8.923190116882324,-1.765723705291748,3.2453403472900386
1630,89000.0,-8.923190116882324,-1.765723705291748,3.2453403472900386
1631,89100.0,-8.957905769348145,-1.7585411071777344,3.2393548488616943
1632,89200.0,-8.930971145629883,-1.7776948213577268,3.2393548488616943
1633,89300.0,-8.930971145629883,-1.7776948213577268,3.2393548488616943
1634,89400.0,-8.918401718139648,-1.7693150043487549,3.272873640060425
1635,89500.0,-8.918401718139648,-1.7693150043487549,3.272873640060425
1636,89600.0,-8.944138526916504,-1.6921020746231081,3.2190041542053223
1637,89700.0,-8.944138526916504,-1.6921020746231081,3.2190041542053223
1638,89800.0,-8.919598579406738,-1.7579425573349,3.250727415084839
1639,89900.0,-8.919598579406738,-1.7579425573349,3.250727415084839
1640,90000.0,-8.868721961975098,-1.8148049116134644,3.2363622188568115
1641,90100.0,-8.89565658569336,-1.7525556087493896,3.2525229454040527
1642,90200.0,-8.89565658569336,-1.7525556087493896,3.2525229454040527
1643,90300.0,-8.91421127319336,-1.759738206863403,3.1980550289154053
1644,90400.0,-8.91421127319336,-1.759738206863403,3.1980550289154053
1645,90500.0,-8.919598579406738,-1.7950527667999268,3.227982521057129
1646,90600.0,-8.919598579406738,-1.7950527667999268,3.227982521057129
1647,90700.0,-8.9680814743042,-1.7585411071777344,3.2207999229431152
1648,90800.0,-8.9680814743042,-1.7585411071777344,3.2207999229431152
1649,90900.0,-8.895057678222656,-1.7974469661712646,3.2321722507476807
1650,89500.0,-8.918401718139648,-1.7693150043487549,3.272873640060425
1651,89600.0,-8.944138526916504,-1.6921020746231081,3.2190041542053223
1652,89700.0,-8.944138526916504,-1.6921020746231081,3.2190041542053223
1653,89800.0,-8.919598579406738,-1.7579425573349,3.250727415084839
1654,89900.0,-8.919598579406738,-1.7579425573349,3.250727415084839
1655,90000.0,-8.868721961975098,-1.8148049116134644,3.2363622188568115
1656,90100.0,-8.89565658569336,-1.7525556087493896,3.2525229454040527
1657,90200.0,-8.89565658569336,-1.7525556087493896,3.2525229454040527
1658,90300.0,-8.91421127319336,-1.759738206863403,3.1980550289154053
1659,90400.0,-8.91421127319336,-1.759738206863403,3.1980550289154053
1660,90500.0,-8.919598579406738,-1.7950527667999268,3.227982521057129
1661,90600.0,-8.919598579406738,-1.7950527667999268,3.227982521057129
1662,90700.0,-8.9680814743042,-1.7585411071777344,3.2207999229431152
1663,90800.0,-8.9680814743042,-1.7585411071777344,3.2207999229431152
1664,90900.0,-8.895057678222656,-1.7974469661712646,3.2321722507476807
1665,91000.0,-8.920196533203125,-1.759738206863403,3.2399535179138184
1666,91100.0,-8.920196533203125,-1.759738206863403,3.2399535179138184
1667,91200.0,-8.92917537689209,-1.7699135541915894,3.2357635498046875
1668,91300.0,-8.92917537689209,-1.7699135541915894,3.2357635498046875
1669,91400.0,-8.93037223815918,-1.775899052619934,3.2369606494903564
1670,91500.0,-8.93037223815918,-1.775899052619934,3.2369606494903564
1671,91600.0,-8.918401718139648,-1.7172411680221558,3.2399535179138184
1672,91700.0,-8.918401718139648,-1.7172411680221558,3.2399535179138184
1673,91800.0,-8.942941665649414,-1.7405846118927002,3.2405519485473637
1674,91900.0,-8.919598579406738,-1.7675193548202517,3.2381577491760254
1675,92000.0,-8.919598579406738,-1.7675193548202517,3.2381577491760254
1676,92100.0,-8.925583839416504,-1.7830817699432373,3.265691041946411
1677,92200.0,-8.925583839416504,-1.7830817699432373,3.265691041946411
1678,92300.0,-8.926182746887207,-1.7423802614212036,3.2088289260864262
1679,92400.0,-8.926182746887207,-1.7423802614212036,3.2088289260864262
1680,91000.0,-8.920196533203125,-1.759738206863403,3.2399535179138184
1681,91100.0,-8.920196533203125,-1.759738206863403,3.2399535179138184
1682,91200.0,-8.92917537689209,-1.7699135541915894,3.2357635498046875
1683,91300.0,-8.92917537689209,-1.7699135541915894,3.2357635498046875
1684,91400.0,-8.93037223815918,-1.775899052619934,3.2369606494903564
1685,91500.0,-8.93037223815918,-1.775899052619934,3.2369606494903564
1686,91600.0,-8.918401718139648,-1.7172411680221558,3.2399535179138184
1687,91700.0,-8.918401718139648,-1.7172411680221558,3.2399535179138184
1688,91800.0,-8.942941665649414,-1.7405846118927002,3.2405519485473637
1689,91900.0,-8.919598579406738,-1.7675193548202517,3.2381577491760254
1690,92000.0,-8.919598579406738,-1.7675193548202517,3.2381577491760254
1691,92100.0,-8.925583839416504,-1.7830817699432373,3.265691041946411
1692,92200.0,-8.925583839416504,-1.7830817699432373,3.265691041946411
1693,92300.0,-8.926182746887207,-1.7423802614212036,3.2088289260864262
1694,92400.0,-8.926182746887207,-1.7423802614212036,3.2088289260864262
1695,92500.0,-8.910619735717773,-1.7639280557632446,3.227383852005005
1696,92600.0,-8.910619735717773,-1.7639280557632446,3.227383852005005
1697,92700.0,-8.977059364318848,-1.73519766330719,3.2381577491760254
1698,92800.0,-8.902240753173828,-1.7776948213577268,3.2489316463470463
1699,92900.0,-8.902240753173828,-1.7776948213577268,3.2489316463470463
1700,93000.0,-8.922591209411621,-1.7435773611068726,3.2261867523193364
1701,93100.0,-8.922591209411621,-1.7435773611068726,3.2261867523193364
1702,93200.0,-8.917802810668945,-1.775899052619934,3.2363622188568115
1703,93300.0,-8.917802810668945,-1.775899052619934,3.2363622188568115
1704,93400.0,-8.938752174377441,-1.7884687185287476,3.2776620388031006
1705,93500.0,-8.938752174377441,-1.7884687185287476,3.2776620388031006
1706,93600.0,-8.941145896911621,-1.8010382652282717,3.2142157554626465
1707,93700.0,-8.882488250732422,-1.7711106538772583,3.2626984119415283
1708,93800.0,-8.882488250732422,-1.7711106538772583,3.2626984119415283
1709,93900.0,-8.913613319396973,-1.7968484163284302,3.2291796207427983
1710,92500.0,-8.910619735717773,-1.7639280557632446,3.227383852005005
1711,92600.0,-8.910619735717773,-1.7639280557632446,3.227383852005005
1712,92700.0,-8.977059364318848,-1.73519766330719,3.2381577491760254
1713,92800.0,-8.902240753173828,-1.7776948213577268,3.2489316463470463
1714,92900.0,-8.902240753173828,-1.7776948213577268,3.2489316463470463
1715,93000.0,-8.922591209411621,-1.7435773611068726,3.2261867523193364
1716,93100.0,-8.922591209411621,-1.7435773611068726,3.2261867523193364
1717,93200.0,-8.917802810668945,-1.775899052619934,3.2363622188568115
1718,93300.0,-8.917802810668945,-1.775899052619934,3.2363622188568115
1719,93400.0,-8.938752174377441,-1.7884687185287476,3.2776620388031006
1720,93500.0,-8.938752174377441,-1.7884687185287476,3.2776620388031006
1721,93600.0,-8.941145896911621,-1.8010382652282717,3.2142157554626465
1722,93700.0,-8.882488250732422,-1.7711106538772583,3.2626984119415283
1723,93800.0,-8.882488250732422,-1.7711106538772583,3.2626984119415283
1724,93900.0,-8.913613319396973,-1.7968484163284302,3.2291796207427983
1725,94000.0,-8.913613319396973,-1.7968484163284302,3.2291796207427983
1726,94100.0,-8.901042938232422,-1.7848774194717407,3.2525229454040527
1727,94200.0,-8.901042938232422,-1.7848774194717407,3.2525229454040527
