,timestamp,ax,ay,az
0,7000.0,-5.364708423614502,0.2273181527853012,-8.070990562438965
1,7100.0,-5.364708423614502,0.2273181527853012,-8.070990562438965
2,7200.0,-5.364708423614502,0.2273181527853012,-8.070990562438965
3,7300.0,-5.364708423614502,0.2273181527853012,-8.070990562438965
4,7400.0,-5.460421085357666,0.20578275620937347,-8.123632431030272
5,7500.0,-5.460421085357666,0.20578275620937347,-8.123632431030272
6,7600.0,-5.460421085357666,0.20578275620937347,-8.123632431030272
7,7700.0,-5.465207099914551,0.2512463629245758,-8.068597793579103
8,7800.0,-5.465207099914551,0.2512463629245758,-8.068597793579103
9,7900.0,-5.460421085357666,0.2751745879650116,-8.080562591552733
10,8000.0,-5.460421085357666,0.2751745879650116,-8.080562591552733
11,8100.0,-5.42692232131958,0.2488535493612289,-8.090132713317871
12,8200.0,-5.42692232131958,0.2488535493612289,-8.090132713317871
13,8300.0,-5.474778175354004,0.28953152894973755,-8.075776100158691
14,8400.0,-5.474778175354004,0.28953152894973755,-8.075776100158691
15,8500.0,-5.469992637634277,0.26081767678260803,-8.001599311828612
16,8600.0,-5.469992637634277,0.26081767678260803,-8.001599311828612
17,8700.0,-5.469992637634277,0.26081767678260803,-8.001599311828612
18,8800.0,-5.446063995361328,0.2440679222345352,-8.13798999786377
19,8900.0,-5.446063995361328,0.2440679222345352,-8.13798999786377
20,9000.0,-5.383851051330566,0.2273181527853012,-8.066205024719237
21,9100.0,-5.383851051330566,0.2273181527853012,-8.066205024719237
22,9200.0,-5.422136306762695,0.2321037948131561,-8.116454124450684
23,9300.0,-5.422136306762695,0.2321037948131561,-8.116454124450684
24,9400.0,-5.422136306762695,0.2321037948131561,-8.116454124450684
25,9500.0,-5.422136306762695,0.1938186287879944,-8.087740898132324
26,9600.0,-5.422136306762695,0.1938186287879944,-8.087740898132324
27,9700.0,-5.465207099914551,0.19142580032348636,-8.159524917602539
28,9800.0,-5.465207099914551,0.19142580032348636,-8.159524917602539
29,9900.0,-5.4077792167663565,0.23688943684101105,-8.068597793579103
30,10000.0,-5.4077792167663565,0.23688943684101105,-8.068597793579103
31,10100.0,-5.436492443084717,0.1986042857170105,-8.056633949279785
32,10200.0,-5.436492443084717,0.1986042857170105,-8.056633949279785
33,10300.0,-5.436492443084717,0.1986042857170105,-8.056633949279785
34,10400.0,-5.4795637130737305,0.2488535493612289,-8.12123966217041
35,10500.0,-5.4795637130737305,0.2488535493612289,-8.12123966217041
36,10600.0,-5.45563554763794,0.2871387302875519,-8.11406135559082
37,10700.0,-5.45563554763794,0.2871387302875519,-8.11406135559082
38,10800.0,-5.4077792167663565,0.20817556977272034,-8.073383331298826
39,10900.0,-5.4077792167663565,0.20817556977272034,-8.073383331298826
40,11000.0,-5.417350769042969,0.28235307335853577,-8.11406135559082
41,11100.0,-5.417350769042969,0.28235307335853577,-8.11406135559082
42,11200.0,-5.417350769042969,0.28235307335853577,-8.11406135559082
43,11300.0,-5.450850009918213,0.20338992774486545,-8.059026718139647
44,11400.0,-5.450850009918213,0.20338992774486545,-8.059026718139647
45,11500.0,-5.42692232131958,0.23688943684101105,-8.099704742431639
46,11600.0,-5.42692232131958,0.23688943684101105,-8.099704742431639
47,11700.0,-5.436492443084717,0.2632104754447937,-8.085347175598145
48,11800.0,-5.436492443084717,0.2632104754447937,-8.085347175598145
49,11900.0,-5.436492443084717,0.2632104754447937,-8.085347175598145
50,12000.0,-5.474778175354004,0.2153540551662445,-8.061419486999513
51,12100.0,-5.474778175354004,0.2153540551662445,-8.061419486999513
52,12200.0,-5.460421085357666,0.21296121180057528,-8.102097511291504
53,12300.0,-5.460421085357666,0.21296121180057528,-8.102097511291504
54,12400.0,-5.465207099914551,0.2751745879650116,-8.066205024719237
55,12500.0,-5.465207099914551,0.2751745879650116,-8.066205024719237
56,12600.0,-5.469992637634277,0.27278175950050354,-8.102097511291504
57,12700.0,-5.469992637634277,0.27278175950050354,-8.102097511291504
58,12800.0,-5.469992637634277,0.27278175950050354,-8.102097511291504
59,12900.0,-5.383851051330566,0.25842484831810003,-8.116454124450684
60,13000.0,-5.383851051330566,0.25842484831810003,-8.116454124450684
61,13100.0,-5.493920803070068,0.2679961323738098,-8.042276382446289
62,13200.0,-5.493920803070068,0.2679961323738098,-8.042276382446289
63,13300.0,-5.493920803070068,0.2679961323738098,-8.042276382446289
64,13400.0,-5.50349235534668,0.3732803165912628,-7.903492927551269
65,13500.0,-5.50349235534668,0.3732803165912628,-7.903492927551269
66,13600.0,-5.517848491668701,0.3182453811168671,-8.147561073303223
67,13700.0,-5.517848491668701,0.3182453811168671,-8.147561073303223
68,13800.0,-5.484349250793457,0.27756744623184204,-7.994420051574707
69,13900.0,-5.484349250793457,0.27756744623184204,-7.994420051574707
70,14000.0,-5.484349250793457,0.27756744623184204,-7.994420051574707
71,14100.0,-5.45563554763794,0.2919243574142456,-8.085347175598145
72,14200.0,-5.45563554763794,0.2919243574142456,-8.085347175598145
73,14300.0,-5.4795637130737305,0.2847459018230438,-8.123632431030272
74,14400.0,-5.4795637130737305,0.2847459018230438,-8.123632431030272
75,14500.0,-5.4795637130737305,0.18185453116893768,-8.197811126708983
76,14600.0,-5.4795637130737305,0.18185453116893768,-8.197811126708983
77,14700.0,-5.4795637130737305,0.18185453116893768,-8.197811126708983
78,14800.0,-5.493920803070068,0.28235307335853577,-7.963313579559326
79,14900.0,-5.493920803070068,0.28235307335853577,-7.963313579559326
80,15000.0,-5.4795637130737305,0.3493521213531494,-8.011170387268066
81,15100.0,-5.4795637130737305,0.3493521213531494,-8.011170387268066
82,15200.0,-5.489135265350342,0.3206382095813751,-8.015955924987793
83,15300.0,-5.489135265350342,0.3206382095813751,-8.015955924987793
84,15400.0,-5.536991596221924,0.2512463629245758,-8.068597793579103
85,15500.0,-5.536991596221924,0.2512463629245758,-8.068597793579103
86,15600.0,-5.489135265350342,0.3038884699344635,-8.075776100158691
87,15700.0,-5.489135265350342,0.3038884699344635,-8.075776100158691
88,15800.0,-5.460421085357666,0.3134597539901733,-8.044669151306152
89,15900.0,-5.460421085357666,0.3134597539901733,-8.044669151306152
90,16000.0,-5.460421085357666,0.3134597539901733,-8.044669151306152
91,16100.0,-5.465207099914551,0.2871387302875519,-8.097311973571777
92,16200.0,-5.465207099914551,0.2871387302875519,-8.097311973571777
93,16300.0,-5.417350769042969,0.2799602448940277,-8.049454689025879
94,16400.0,-5.417350769042969,0.2799602448940277,-8.049454689025879
95,16500.0,-5.493920803070068,0.2847459018230438,-8.078168869018555
96,16600.0,-5.493920803070068,0.2847459018230438,-8.078168869018555
97,16700.0,-5.493920803070068,0.2847459018230438,-8.078168869018555
98,16800.0,-5.422136306762695,0.2273181527853012,-8.087740898132324
99,16900.0,-5.422136306762695,0.2273181527853012,-8.087740898132324
100,17000.0,-5.45563554763794,0.3134597539901733,-8.085347175598145
101,17100.0,-5.45563554763794,0.3134597539901733,-8.085347175598145
102,17200.0,-5.45563554763794,0.3134597539901733,-8.085347175598145
103,17300.0,-5.460421085357666,0.30149564146995544,-8.082954406738281
104,17400.0,-5.460421085357666,0.30149564146995544,-8.082954406738281
105,17500.0,-5.465207099914551,0.34695929288864136,-8.068597793579103
106,17600.0,-5.465207099914551,0.34695929288864136,-8.068597793579103
107,17700.0,-5.469992637634277,0.3062812983989716,-8.126025199890138
108,17800.0,-5.469992637634277,0.3062812983989716,-8.126025199890138
109,17900.0,-5.469992637634277,0.3062812983989716,-8.126025199890138
110,18000.0,-5.484349250793457,0.2871387302875519,-8.133204460144043
111,18100.0,-5.484349250793457,0.2871387302875519,-8.133204460144043
112,18200.0,-5.517848491668701,0.33738797903060913,-8.080562591552733
113,18300.0,-5.517848491668701,0.33738797903060913,-8.080562591552733
114,18400.0,-5.45563554763794,0.3876372575759888,-8.035098075866701
115,18500.0,-5.45563554763794,0.3876372575759888,-8.035098075866701
116,18600.0,-5.45563554763794,0.3876372575759888,-8.035098075866701
117,18700.0,-5.522634029388428,0.3326023519039154,-8.056633949279785
118,18800.0,-5.522634029388428,0.3326023519039154,-8.056633949279785
119,18900.0,-5.50349235534668,0.3134597539901733,-8.085347175598145
120,19000.0,-5.50349235534668,0.3134597539901733,-8.085347175598145
121,19100.0,-5.484349250793457,0.38045880198478704,-8.061419486999513
122,19200.0,-5.484349250793457,0.38045880198478704,-8.061419486999513
123,19300.0,-5.484349250793457,0.38045880198478704,-8.061419486999513
124,19400.0,-5.446063995361328,0.3254238963127136,-8.030312538146973
125,19500.0,-5.446063995361328,0.3254238963127136,-8.030312538146973
126,19600.0,-5.54177713394165,0.3326023519039154,-8.037490844726562
127,19700.0,-5.54177713394165,0.3326023519039154,-8.037490844726562
128,19800.0,-5.54177713394165,0.3326023519039154,-8.037490844726562
129,19900.0,-5.493920803070068,0.3086740970611572,-8.044669151306152
130,20000.0,-5.493920803070068,0.3086740970611572,-8.044669151306152
131,20100.0,-5.469992637634277,0.2297109663486481,-8.075776100158691
132,20200.0,-5.469992637634277,0.2297109663486481,-8.075776100158691
133,20300.0,-5.450850009918213,0.3493521213531494,-8.078168869018555
134,20400.0,-5.450850009918213,0.3493521213531494,-8.078168869018555
135,20500.0,-5.460421085357666,0.26560330390930176,-8.109275817871094
136,20600.0,-5.460421085357666,0.26560330390930176,-8.109275817871094
137,20700.0,-5.474778175354004,0.3493521213531494,-8.078168869018555
138,20800.0,-5.474778175354004,0.3493521213531494,-8.078168869018555
139,20900.0,-5.474778175354004,0.3493521213531494,-8.078168869018555
140,21000.0,-5.412564754486084,0.3254238963127136,-8.063812255859375
141,21100.0,-5.412564754486084,0.3254238963127136,-8.063812255859375
142,21200.0,-5.359922409057617,0.2632104754447937,-8.130810737609862
143,21300.0,-5.359922409057617,0.2632104754447937,-8.130810737609862
144,21400.0,-5.340780735015869,0.2488535493612289,-8.01356315612793
145,21500.0,-5.340780735015869,0.2488535493612289,-8.01356315612793
146,21600.0,-5.436492443084717,0.2919243574142456,-8.039883613586426
147,21700.0,-5.436492443084717,0.2919243574142456,-8.039883613586426
148,21800.0,-5.45563554763794,0.2273181527853012,-8.133204460144043
149,21900.0,-5.45563554763794,0.2273181527853012,-8.133204460144043
150,22000.0,-5.45563554763794,0.2273181527853012,-8.133204460144043
151,22100.0,-5.4795637130737305,0.2871387302875519,-8.11406135559082
152,22200.0,-5.4795637130737305,0.2871387302875519,-8.11406135559082
153,22300.0,-5.584848403930664,0.3278167247772217,-7.977671146392822
154,22400.0,-5.584848403930664,0.3278167247772217,-7.977671146392822
155,22500.0,-5.522634029388428,0.26560330390930176,-7.9585280418396
156,22600.0,-5.522634029388428,0.26560330390930176,-7.9585280418396
157,22700.0,-5.522634029388428,0.3134597539901733,-8.090132713317871
158,22800.0,-5.522634029388428,0.3134597539901733,-8.090132713317871
159,22900.0,-5.522634029388428,0.3134597539901733,-8.090132713317871
160,23000.0,-5.5274200439453125,0.3182453811168671,-7.946564197540282
161,23100.0,-5.5274200439453125,0.3182453811168671,-7.946564197540282
162,23200.0,-5.551348686218262,0.42831525206565857,-8.00638484954834
163,23300.0,-5.551348686218262,0.42831525206565857,-8.00638484954834
164,23400.0,-5.50349235534668,0.4067798554897308,-8.12841796875
165,23500.0,-5.50349235534668,0.4067798554897308,-8.12841796875
166,23600.0,-5.50349235534668,0.4067798554897308,-8.12841796875
167,23700.0,-5.594419479370117,0.4019941985607147,-7.893921852111816
168,23800.0,-5.594419479370117,0.4019941985607147,-7.893921852111816
169,23900.0,-5.560920238494873,0.2751745879650116,-8.066205024719237
170,24000.0,-5.560920238494873,0.2751745879650116,-8.066205024719237
171,24100.0,-5.522634029388428,0.3445664942264557,-8.073383331298826
172,24200.0,-5.522634029388428,0.3445664942264557,-8.073383331298826
173,24300.0,-5.522634029388428,0.3445664942264557,-8.073383331298826
174,24400.0,-5.513063907623291,0.3110669553279877,-7.999206066131593
175,24500.0,-5.513063907623291,0.3110669553279877,-7.999206066131593
176,24600.0,-5.50349235534668,0.2919243574142456,-8.039883613586426
177,24700.0,-5.50349235534668,0.2919243574142456,-8.039883613586426
178,24800.0,-5.50349235534668,0.2919243574142456,-8.039883613586426
179,24900.0,-5.5274200439453125,0.3302095234394073,-8.032705307006836
180,25000.0,-5.5274200439453125,0.3302095234394073,-8.032705307006836
181,25100.0,-5.50349235534668,0.3302095234394073,-8.059026718139647
182,25200.0,-5.50349235534668,0.3302095234394073,-8.059026718139647
183,25300.0,-5.556134223937988,0.3038884699344635,-8.042276382446289
184,25400.0,-5.556134223937988,0.3038884699344635,-8.042276382446289
185,25500.0,-5.50349235534668,0.1746760606765747,-7.987241268157959
186,25600.0,-5.50349235534668,0.1746760606765747,-7.987241268157959
187,25700.0,-5.50349235534668,0.1746760606765747,-7.987241268157959
188,25800.0,-5.45563554763794,0.3349951505661011,-8.078168869018555
189,25900.0,-5.45563554763794,0.3349951505661011,-8.078168869018555
190,26000.0,-5.489135265350342,0.2321037948131561,-8.085347175598145
191,26100.0,-5.489135265350342,0.2321037948131561,-8.085347175598145
192,26200.0,-5.489135265350342,0.2321037948131561,-8.085347175598145
193,26300.0,-5.42692232131958,0.23449662327766416,-8.126025199890138
194,26400.0,-5.42692232131958,0.23449662327766416,-8.126025199890138
195,26500.0,-5.560920238494873,0.20338992774486545,-8.030312538146973
196,26600.0,-5.560920238494873,0.20338992774486545,-8.030312538146973
197,26700.0,-5.50349235534668,0.2679961323738098,-8.104490280151367
198,26800.0,-5.50349235534668,0.2679961323738098,-8.104490280151367
199,26900.0,-5.50349235534668,0.2679961323738098,-8.104490280151367
200,27000.0,-5.498706817626953,0.23449662327766416,-8.044669151306152
201,27100.0,-5.498706817626953,0.23449662327766416,-8.044669151306152
202,27200.0,-5.498706817626953,0.2967100143432617,-8.109275817871094
203,27300.0,-5.498706817626953,0.2967100143432617,-8.109275817871094
204,27400.0,-5.513063907623291,0.2751745879650116,-8.051848411560059
205,27500.0,-5.513063907623291,0.2751745879650116,-8.051848411560059
206,27600.0,-5.513063907623291,0.2751745879650116,-8.051848411560059
207,27700.0,-5.460421085357666,0.26081767678260803,-8.066205024719237
208,27800.0,-5.460421085357666,0.26081767678260803,-8.066205024719237
209,27900.0,-5.436492443084717,0.2799602448940277,-8.171488761901855
210,28000.0,-5.436492443084717,0.2799602448940277,-8.171488761901855
211,28100.0,-5.4795637130737305,0.3086740970611572,-8.030312538146973
212,28200.0,-5.4795637130737305,0.3086740970611572,-8.030312538146973
213,28300.0,-5.54177713394165,0.2225324809551239,-8.054241180419924
214,28400.0,-5.54177713394165,0.2225324809551239,-8.054241180419924
215,28500.0,-5.54177713394165,0.2225324809551239,-8.054241180419924
216,28600.0,-5.517848491668701,0.3086740970611572,-8.070990562438965
217,28700.0,-5.517848491668701,0.3086740970611572,-8.070990562438965
218,28800.0,-5.522634029388428,0.2967100143432617,-8.068597793579103
219,28900.0,-5.522634029388428,0.2967100143432617,-8.068597793579103
220,29000.0,-5.4795637130737305,0.21774686872959134,-8.044669151306152
221,29100.0,-5.4795637130737305,0.21774686872959134,-8.044669151306152
222,29200.0,-5.4795637130737305,0.25842484831810003,-8.056633949279785
223,29300.0,-5.4795637130737305,0.25842484831810003,-8.056633949279785
224,29400.0,-5.4795637130737305,0.25842484831810003,-8.056633949279785
225,29500.0,-5.498706817626953,0.30149564146995544,-8.037490844726562
226,29600.0,-5.498706817626953,0.30149564146995544,-8.037490844726562
227,29700.0,-5.450850009918213,0.3062812983989716,-8.066205024719237
228,29800.0,-5.450850009918213,0.3062812983989716,-8.066205024719237
229,29900.0,-5.450850009918213,0.3062812983989716,-8.066205024719237
230,30000.0,-5.465207099914551,0.2488535493612289,-8.104490280151367
231,30100.0,-5.465207099914551,0.2488535493612289,-8.104490280151367
232,30200.0,-5.484349250793457,0.22492533922195435,-8.097311973571777
233,30300.0,-5.484349250793457,0.22492533922195435,-8.097311973571777
234,30400.0,-5.465207099914551,0.30149564146995544,-8.078168869018555
235,30500.0,-5.465207099914551,0.30149564146995544,-8.078168869018555
236,30600.0,-5.465207099914551,0.30149564146995544,-8.078168869018555
237,30700.0,-5.436492443084717,0.2967100143432617,-8.049454689025879
238,30800.0,-5.436492443084717,0.2967100143432617,-8.049454689025879
239,30900.0,-5.450850009918213,0.26560330390930176,-8.094919204711914
240,31000.0,-5.450850009918213,0.26560330390930176,-8.094919204711914
241,31100.0,-5.450850009918213,0.26560330390930176,-8.094919204711914
242,31200.0,-5.474778175354004,0.2799602448940277,-8.063812255859375
243,31300.0,-5.474778175354004,0.2799602448940277,-8.063812255859375
244,31400.0,-5.42692232131958,0.2679961323738098,-8.085347175598145
245,31500.0,-5.42692232131958,0.2679961323738098,-8.085347175598145
246,31600.0,-5.45563554763794,0.25363919138908386,-8.092526435852049
247,31700.0,-5.45563554763794,0.25363919138908386,-8.092526435852049
248,31800.0,-5.45563554763794,0.25363919138908386,-8.092526435852049
249,31900.0,-5.484349250793457,0.3134597539901733,-8.023134231567383
250,32000.0,-5.484349250793457,0.3134597539901733,-8.023134231567383
251,32100.0,-5.465207099914551,0.2967100143432617,-8.054241180419924
252,32200.0,-5.465207099914551,0.2967100143432617,-8.054241180419924
253,32300.0,-5.465207099914551,0.2967100143432617,-8.054241180419924
254,32400.0,-5.436492443084717,0.2847459018230438,-8.063812255859375
255,32500.0,-5.436492443084717,0.2847459018230438,-8.063812255859375
256,32600.0,-5.465207099914551,0.25842484831810003,-8.087740898132324
257,32700.0,-5.465207099914551,0.25842484831810003,-8.087740898132324
258,32800.0,-5.446063995361328,0.3230310678482056,-8.085347175598145
259,32900.0,-5.446063995361328,0.3230310678482056,-8.085347175598145
260,33000.0,-5.450850009918213,0.2560320198535919,-8.037490844726562
261,33100.0,-5.450850009918213,0.2560320198535919,-8.037490844726562
262,33200.0,-5.450850009918213,0.2560320198535919,-8.037490844726562
263,33300.0,-5.42692232131958,0.3038884699344635,-8.12123966217041
264,33400.0,-5.42692232131958,0.3038884699344635,-8.12123966217041
265,33500.0,-5.417350769042969,0.28235307335853577,-8.104490280151367
266,33600.0,-5.417350769042969,0.28235307335853577,-8.104490280151367
267,33700.0,-5.417350769042969,0.28235307335853577,-8.104490280151367
268,33800.0,-5.4795637130737305,0.2632104754447937,-8.075776100158691
269,33900.0,-5.4795637130737305,0.2632104754447937,-8.075776100158691
270,34000.0,-5.45563554763794,0.2799602448940277,-8.080562591552733
271,34100.0,-5.45563554763794,0.2799602448940277,-8.080562591552733
272,34200.0,-5.45563554763794,0.2799602448940277,-8.094919204711914
273,34300.0,-5.45563554763794,0.2799602448940277,-8.094919204711914
274,34400.0,-5.45563554763794,0.2799602448940277,-8.094919204711914
275,34500.0,-5.474778175354004,0.3684946894645691,-8.025527954101562
276,34600.0,-5.474778175354004,0.3684946894645691,-8.025527954101562
277,34700.0,-5.498706817626953,0.3445664942264557,-8.109275817871094
278,34800.0,-5.498706817626953,0.3445664942264557,-8.109275817871094
279,34900.0,-5.498706817626953,0.3445664942264557,-8.109275817871094
280,35000.0,-5.43170690536499,0.28953152894973755,-8.075776100158691
281,35100.0,-5.43170690536499,0.28953152894973755,-8.075776100158691
282,35200.0,-5.42692232131958,0.2440679222345352,-8.061419486999513
283,35300.0,-5.42692232131958,0.2440679222345352,-8.061419486999513
284,35400.0,-5.460421085357666,0.3206382095813751,-8.111669540405272
285,35500.0,-5.460421085357666,0.3206382095813751,-8.111669540405272
286,35600.0,-5.460421085357666,0.3206382095813751,-8.111669540405272
287,35700.0,-5.45563554763794,0.3206382095813751,-8.080562591552733
288,35800.0,-5.45563554763794,0.3206382095813751,-8.080562591552733
289,35900.0,-5.441278457641602,0.3038884699344635,-8.102097511291504
290,36000.0,-5.441278457641602,0.3038884699344635,-8.102097511291504
291,36100.0,-5.422136306762695,0.2560320198535919,-8.037490844726562
292,36200.0,-5.422136306762695,0.2560320198535919,-8.037490844726562
293,36300.0,-5.465207099914551,0.2392822504043579,-8.087740898132324
294,36400.0,-5.465207099914551,0.2392822504043579,-8.087740898132324
295,36500.0,-5.446063995361328,0.26081767678260803,-8.080562591552733
296,36600.0,-5.446063995361328,0.26081767678260803,-8.080562591552733
297,36700.0,-5.446063995361328,0.26081767678260803,-8.080562591552733
298,36800.0,-5.450850009918213,0.3110669553279877,-8.126025199890138
299,36900.0,-5.450850009918213,0.3110669553279877,-8.126025199890138
300,37000.0,-5.498706817626953,0.2679961323738098,-8.085347175598145
301,37100.0,-5.498706817626953,0.2679961323738098,-8.085347175598145
302,37200.0,-5.50349235534668,0.3684946894645691,-8.02074146270752
303,37300.0,-5.50349235534668,0.3684946894645691,-8.02074146270752
304,37400.0,-5.50349235534668,0.3684946894645691,-8.02074146270752
305,37500.0,-5.484349250793457,0.3062812983989716,-8.032705307006836
306,37600.0,-5.484349250793457,0.3062812983989716,-8.032705307006836
307,37700.0,-5.43170690536499,0.3493521213531494,-8.073383331298826
308,37800.0,-5.43170690536499,0.3493521213531494,-8.073383331298826
309,37900.0,-5.43170690536499,0.3493521213531494,-8.073383331298826
310,38000.0,-5.465207099914551,0.3086740970611572,-8.085347175598145
311,38100.0,-5.465207099914551,0.3086740970611572,-8.085347175598145
312,38200.0,-5.469992637634277,0.3206382095813751,-8.10688304901123
313,38300.0,-5.469992637634277,0.3206382095813751,-8.10688304901123
314,38400.0,-5.446063995361328,0.2991028428077698,-8.104490280151367
315,38500.0,-5.446063995361328,0.2991028428077698,-8.104490280151367
316,38600.0,-5.446063995361328,0.2991028428077698,-8.104490280151367
317,38700.0,-5.465207099914551,0.39481574296951294,-8.061419486999513
318,38800.0,-5.465207099914551,0.39481574296951294,-8.061419486999513
319,38900.0,-5.441278457641602,0.4187439680099487,-8.149953842163086
320,39000.0,-5.441278457641602,0.4187439680099487,-8.149953842163086
321,39100.0,-5.484349250793457,0.36370906233787537,-8.073383331298826
322,39200.0,-5.484349250793457,0.36370906233787537,-8.073383331298826
323,39300.0,-5.484349250793457,0.36370906233787537,-8.073383331298826
324,39400.0,-5.522634029388428,0.3684946894645691,-8.011170387268066
325,39500.0,-5.522634029388428,0.3684946894645691,-8.011170387268066
326,39600.0,-5.599205493927002,0.25363919138908386,-8.059026718139647
327,39700.0,-5.599205493927002,0.25363919138908386,-8.059026718139647
328,39800.0,-5.465207099914551,0.3302095234394073,-8.094919204711914
329,39900.0,-5.465207099914551,0.3302095234394073,-8.094919204711914
330,40000.0,-5.465207099914551,0.3302095234394073,-8.094919204711914
331,40100.0,-5.522634029388428,0.34695929288864136,-8.082954406738281
332,40200.0,-5.522634029388428,0.34695929288864136,-8.082954406738281
333,40300.0,-5.513063907623291,0.3828516006469727,-8.051848411560059
334,40400.0,-5.513063907623291,0.3828516006469727,-8.051848411560059
335,40500.0,-5.508277893066406,0.3780659735202789,-8.073383331298826
336,40600.0,-5.508277893066406,0.3780659735202789,-8.073383331298826
337,40700.0,-5.508277893066406,0.3780659735202789,-8.073383331298826
338,40800.0,-5.50349235534668,0.3661018908023834,-8.066205024719237
339,40900.0,-5.50349235534668,0.3661018908023834,-8.066205024719237
340,41000.0,-5.484349250793457,0.3756731450557709,-8.073383331298826
341,41100.0,-5.484349250793457,0.3756731450557709,-8.073383331298826
342,41200.0,-5.42692232131958,0.3158525824546814,-8.078168869018555
343,41300.0,-5.42692232131958,0.3158525824546814,-8.078168869018555
344,41400.0,-5.465207099914551,0.26081767678260803,-8.066205024719237
345,41500.0,-5.465207099914551,0.26081767678260803,-8.066205024719237
346,41600.0,-5.465207099914551,0.26081767678260803,-8.066205024719237
347,41700.0,-5.508277893066406,0.28235307335853577,-8.068597793579103
348,41800.0,-5.508277893066406,0.28235307335853577,-8.068597793579103
349,41900.0,-5.498706817626953,0.2967100143432617,-8.094919204711914
350,42000.0,-5.498706817626953,0.2967100143432617,-8.094919204711914
351,42100.0,-5.489135265350342,0.3254238963127136,-8.075776100158691
352,42200.0,-5.489135265350342,0.3254238963127136,-8.075776100158691
353,42300.0,-5.489135265350342,0.3493521213531494,-8.042276382446289
354,42400.0,-5.489135265350342,0.3493521213531494,-8.042276382446289
355,42500.0,-5.450850009918213,0.3565305471420288,-8.066205024719237
356,42600.0,-5.450850009918213,0.3565305471420288,-8.066205024719237
357,42700.0,-5.450850009918213,0.3206382095813751,-8.051848411560059
358,42800.0,-5.450850009918213,0.3206382095813751,-8.051848411560059
359,42900.0,-5.450850009918213,0.3206382095813751,-8.051848411560059
360,43000.0,-5.436492443084717,0.27278175950050354,-8.051848411560059
361,43100.0,-5.436492443084717,0.27278175950050354,-8.051848411560059
362,43200.0,-5.43170690536499,0.2967100143432617,-8.094919204711914
363,43300.0,-5.43170690536499,0.2967100143432617,-8.094919204711914
364,43400.0,-5.43170690536499,0.2967100143432617,-8.094919204711914
365,43500.0,-5.465207099914551,0.33738797903060913,-8.130810737609862
366,43600.0,-5.465207099914551,0.33738797903060913,-8.130810737609862
367,43700.0,-5.436492443084717,0.30149564146995544,-8.068597793579103
368,43800.0,-5.436492443084717,0.30149564146995544,-8.068597793579103
369,43900.0,-5.4795637130737305,0.28953152894973755,-8.061419486999513
370,44000.0,-5.4795637130737305,0.28953152894973755,-8.061419486999513
371,44100.0,-5.4795637130737305,0.28953152894973755,-8.061419486999513
372,44200.0,-5.489135265350342,0.28235307335853577,-8.099704742431639
373,44300.0,-5.489135265350342,0.28235307335853577,-8.099704742431639
374,44400.0,-5.465207099914551,0.34695929288864136,-8.023134231567383
375,44500.0,-5.465207099914551,0.34695929288864136,-8.023134231567383
376,44600.0,-5.465207099914551,0.34695929288864136,-8.023134231567383
377,44700.0,-5.498706817626953,0.3565305471420288,-8.035098075866701
378,44800.0,-5.498706817626953,0.3565305471420288,-8.035098075866701
379,44900.0,-5.489135265350342,0.3134597539901733,-8.039883613586426
380,45000.0,-5.489135265350342,0.3134597539901733,-8.039883613586426
381,45100.0,-5.460421085357666,0.3445664942264557,-8.073383331298826
382,45200.0,-5.460421085357666,0.3445664942264557,-8.073383331298826
383,45300.0,-5.484349250793457,0.3445664942264557,-8.118846893310549
384,45400.0,-5.484349250793457,0.3445664942264557,-8.118846893310549
385,45500.0,-5.484349250793457,0.3445664942264557,-8.118846893310549
386,45600.0,-5.42692232131958,0.3732803165912628,-8.099704742431639
387,45700.0,-5.42692232131958,0.3732803165912628,-8.099704742431639
388,45800.0,-5.45563554763794,0.3254238963127136,-8.094919204711914
389,45900.0,-5.45563554763794,0.3254238963127136,-8.094919204711914
390,46000.0,-5.45563554763794,0.3254238963127136,-8.094919204711914
391,46100.0,-5.474778175354004,0.3038884699344635,-8.075776100158691
392,46200.0,-5.474778175354004,0.3038884699344635,-8.075776100158691
393,46300.0,-5.446063995361328,0.3062812983989716,-8.047062873840332
394,46400.0,-5.446063995361328,0.3062812983989716,-8.047062873840332
395,46500.0,-5.383851051330566,0.3756731450557709,-8.063812255859375
396,46600.0,-5.383851051330566,0.3756731450557709,-8.063812255859375
397,46700.0,-5.493920803070068,0.26560330390930176,-8.154739379882812
398,46800.0,-5.493920803070068,0.26560330390930176,-8.154739379882812
399,46900.0,-5.493920803070068,0.26560330390930176,-8.154739379882812
400,47000.0,-5.484349250793457,0.3613162040710449,-8.11406135559082
401,47100.0,-5.484349250793457,0.3613162040710449,-8.11406135559082
402,47200.0,-5.469992637634277,0.3086740970611572,-8.070990562438965
403,47300.0,-5.469992637634277,0.3086740970611572,-8.070990562438965
404,47400.0,-5.522634029388428,0.34695929288864136,-8.068597793579103
405,47500.0,-5.522634029388428,0.34695929288864136,-8.068597793579103
406,47600.0,-5.50349235534668,0.3684946894645691,-8.116454124450684
407,47700.0,-5.50349235534668,0.3684946894645691,-8.116454124450684
408,47800.0,-5.436492443084717,0.35892340540885925,-8.054241180419924
409,47900.0,-5.436492443084717,0.35892340540885925,-8.054241180419924
410,48000.0,-5.436492443084717,0.35892340540885925,-8.054241180419924
411,48100.0,-5.45563554763794,0.3254238963127136,-8.109275817871094
412,48200.0,-5.45563554763794,0.3254238963127136,-8.109275817871094
413,48300.0,-5.469992637634277,0.35413774847984314,-8.10688304901123
414,48400.0,-5.469992637634277,0.35413774847984314,-8.10688304901123
415,48500.0,-5.422136306762695,0.2440679222345352,-8.056633949279785
416,48600.0,-5.422136306762695,0.2440679222345352,-8.056633949279785
417,48700.0,-5.450850009918213,0.3326023519039154,-8.097311973571777
418,48800.0,-5.450850009918213,0.3326023519039154,-8.097311973571777
419,48900.0,-5.450850009918213,0.3326023519039154,-8.097311973571777
420,49000.0,-5.446063995361328,0.23449662327766416,-8.109275817871094
421,49100.0,-5.446063995361328,0.23449662327766416,-8.109275817871094
422,49200.0,-5.402993679046631,0.3517449200153351,-8.111669540405272
423,49300.0,-5.402993679046631,0.3517449200153351,-8.111669540405272
424,49400.0,-5.43170690536499,0.3493521213531494,-8.123632431030272
425,49500.0,-5.43170690536499,0.3493521213531494,-8.123632431030272
426,49600.0,-5.43170690536499,0.3493521213531494,-8.123632431030272
427,49700.0,-5.460421085357666,0.3230310678482056,-8.025527954101562
428,49800.0,-5.460421085357666,0.3230310678482056,-8.025527954101562
429,49900.0,-5.484349250793457,0.2847459018230438,-8.047062873840332
430,50000.0,-5.484349250793457,0.2847459018230438,-8.047062873840332
431,50100.0,-5.484349250793457,0.2847459018230438,-8.047062873840332
432,50200.0,-5.474778175354004,0.3326023519039154,-8.056633949279785
433,50300.0,-5.474778175354004,0.3326023519039154,-8.056633949279785
434,50400.0,-5.513063907623291,0.3158525824546814,-8.049454689025879
435,50500.0,-5.513063907623291,0.3158525824546814,-8.049454689025879
436,50600.0,-5.45563554763794,0.3182453811168671,-8.073383331298826
437,50700.0,-5.45563554763794,0.3182453811168671,-8.073383331298826
438,50800.0,-5.484349250793457,0.33738797903060913,-8.080562591552733
439,50900.0,-5.484349250793457,0.33738797903060913,-8.080562591552733
440,51000.0,-5.484349250793457,0.33738797903060913,-8.080562591552733
441,51100.0,-5.436492443084717,0.3038884699344635,-8.10688304901123
442,51200.0,-5.436492443084717,0.3038884699344635,-8.10688304901123
443,51300.0,-5.441278457641602,0.25842484831810003,-8.116454124450684
444,51400.0,-5.441278457641602,0.25842484831810003,-8.116454124450684
445,51500.0,-5.460421085357666,0.3565305471420288,-8.080562591552733
446,51600.0,-5.460421085357666,0.3565305471420288,-8.080562591552733
447,51700.0,-5.43170690536499,0.34695929288864136,-8.068597793579103
448,51800.0,-5.43170690536499,0.34695929288864136,-8.068597793579103
449,51900.0,-5.43170690536499,0.34695929288864136,-8.068597793579103
450,52000.0,-5.402993679046631,0.3493521213531494,-8.092526435852049
451,52100.0,-5.402993679046631,0.3493521213531494,-8.092526435852049
452,52200.0,-5.412564754486084,0.2943171858787537,-8.090132713317871
453,52300.0,-5.412564754486084,0.2943171858787537,-8.090132713317871
454,52400.0,-5.436492443084717,0.3134597539901733,-8.073383331298826
455,52500.0,-5.436492443084717,0.3134597539901733,-8.073383331298826
456,52600.0,-5.489135265350342,0.3182453811168671,-8.068597793579103
457,52700.0,-5.489135265350342,0.3182453811168671,-8.068597793579103
458,52800.0,-5.45563554763794,0.2943171858787537,-8.104490280151367
459,52900.0,-5.45563554763794,0.2943171858787537,-8.104490280151367
460,53000.0,-5.45563554763794,0.2943171858787537,-8.104490280151367
461,53100.0,-5.436492443084717,0.3613162040710449,-8.078168869018555
462,53200.0,-5.436492443084717,0.3613162040710449,-8.078168869018555
463,53300.0,-5.422136306762695,0.3397807776927948,-8.10688304901123
464,53400.0,-5.422136306762695,0.3397807776927948,-8.10688304901123
465,53500.0,-5.45563554763794,0.2991028428077698,-8.104490280151367
466,53600.0,-5.45563554763794,0.2991028428077698,-8.104490280151367
467,53700.0,-5.460421085357666,0.3756731450557709,-8.059026718139647
468,53800.0,-5.460421085357666,0.3756731450557709,-8.059026718139647
469,53900.0,-5.460421085357666,0.3756731450557709,-8.059026718139647
470,54000.0,-5.417350769042969,0.3493521213531494,-8.078168869018555
471,54100.0,-5.417350769042969,0.3493521213531494,-8.078168869018555
472,54200.0,-5.446063995361328,0.2943171858787537,-8.090132713317871
473,54300.0,-5.446063995361328,0.2943171858787537,-8.090132713317871
474,54400.0,-5.460421085357666,0.36370906233787537,-8.011170387268066
475,54500.0,-5.460421085357666,0.36370906233787537,-8.011170387268066
476,54600.0,-5.460421085357666,0.36370906233787537,-8.011170387268066
477,54700.0,-5.513063907623291,0.3924228847026825,-8.023134231567383
478,54800.0,-5.513063907623291,0.3924228847026825,-8.023134231567383
479,54900.0,-5.498706817626953,0.3684946894645691,-8.130810737609862
480,55000.0,-5.498706817626953,0.3684946894645691,-8.130810737609862
481,55100.0,-5.465207099914551,0.3302095234394073,-8.063812255859375
482,55200.0,-5.465207099914551,0.3302095234394073,-8.063812255859375
483,55300.0,-5.465207099914551,0.3302095234394073,-8.063812255859375
484,55400.0,-5.489135265350342,0.3613162040710449,-8.12841796875
485,55500.0,-5.489135265350342,0.3613162040710449,-8.12841796875
486,55600.0,-5.43170690536499,0.3756731450557709,-8.109275817871094
487,55700.0,-5.43170690536499,0.3756731450557709,-8.109275817871094
488,55800.0,-5.42692232131958,0.2967100143432617,-8.094919204711914
489,55900.0,-5.42692232131958,0.2967100143432617,-8.094919204711914
490,56000.0,-5.42692232131958,0.2967100143432617,-8.094919204711914
491,56100.0,-5.465207099914551,0.3493521213531494,-8.073383331298826
492,56200.0,-5.465207099914551,0.3493521213531494,-8.073383331298826
493,56300.0,-5.43170690536499,0.4402793645858765,-8.087740898132324
494,56400.0,-5.43170690536499,0.4402793645858765,-8.087740898132324
495,56500.0,-5.474778175354004,0.3613162040710449,-8.078168869018555
496,56600.0,-5.474778175354004,0.3613162040710449,-8.078168869018555
497,56700.0,-5.474778175354004,0.3613162040710449,-8.078168869018555
498,56800.0,-5.508277893066406,0.3086740970611572,-7.929814338684082
499,56900.0,-5.508277893066406,0.3086740970611572,-7.929814338684082
500,57000.0,-5.50349235534668,0.25842484831810003,-8.011170387268066
501,57100.0,-5.50349235534668,0.25842484831810003,-8.011170387268066
502,57200.0,-5.5274200439453125,0.3565305471420288,-8.02074146270752
503,57300.0,-5.5274200439453125,0.3565305471420288,-8.02074146270752
504,57400.0,-5.522634029388428,0.4019941985607147,-8.099704742431639
505,57500.0,-5.522634029388428,0.4019941985607147,-8.099704742431639
506,57600.0,-5.522634029388428,0.4019941985607147,-8.099704742431639
507,57700.0,-5.508277893066406,0.3876372575759888,-8.054241180419924
508,57800.0,-5.508277893066406,0.3876372575759888,-8.054241180419924
509,57900.0,-5.513063907623291,0.3708875179290772,-7.999206066131593
510,58000.0,-5.513063907623291,0.3708875179290772,-7.999206066131593
511,58100.0,-5.498706817626953,0.34217363595962524,-8.039883613586426
512,58200.0,-5.498706817626953,0.34217363595962524,-8.039883613586426
513,58300.0,-5.498706817626953,0.34217363595962524,-8.039883613586426
514,58400.0,-5.513063907623291,0.34217363595962524,-8.039883613586426
515,58500.0,-5.513063907623291,0.34217363595962524,-8.039883613586426
516,58600.0,-5.484349250793457,0.3517449200153351,-8.051848411560059
517,58700.0,-5.484349250793457,0.3517449200153351,-8.051848411560059
518,58800.0,-5.489135265350342,0.3828516006469727,-8.147561073303223
519,58900.0,-5.489135265350342,0.3828516006469727,-8.147561073303223
520,59000.0,-5.513063907623291,0.27756744623184204,-8.070990562438965
521,59100.0,-5.513063907623291,0.27756744623184204,-8.070990562438965
522,59200.0,-5.513063907623291,0.27756744623184204,-8.070990562438965
523,59300.0,-5.508277893066406,0.2967100143432617,-8.085347175598145
524,59400.0,-5.508277893066406,0.2967100143432617,-8.085347175598145
525,59500.0,-5.465207099914551,0.33738797903060913,-8.056633949279785
526,59600.0,-5.465207099914551,0.33738797903060913,-8.056633949279785
527,59700.0,-5.489135265350342,0.2919243574142456,-8.051848411560059
528,59800.0,-5.489135265350342,0.2919243574142456,-8.051848411560059
529,59900.0,-5.4795637130737305,0.3086740970611572,-8.10688304901123
530,60000.0,-5.4795637130737305,0.3086740970611572,-8.10688304901123
531,60100.0,-5.465207099914551,0.34217363595962524,-8.085347175598145
532,60200.0,-5.465207099914551,0.34217363595962524,-8.085347175598145
533,60300.0,-5.465207099914551,0.34217363595962524,-8.085347175598145
534,60400.0,-5.489135265350342,0.35413774847984314,-8.025527954101562
535,60500.0,-5.489135265350342,0.35413774847984314,-8.025527954101562
536,60600.0,-5.4077792167663565,0.3326023519039154,-8.087740898132324
537,60700.0,-5.4077792167663565,0.3326023519039154,-8.087740898132324
538,60800.0,-5.493920803070068,0.3134597539901733,-8.068597793579103
539,60900.0,-5.493920803070068,0.3134597539901733,-8.068597793579103
540,61000.0,-5.493920803070068,0.3134597539901733,-8.068597793579103
541,61100.0,-5.508277893066406,0.39960137009620667,-8.025527954101562
542,61200.0,-5.508277893066406,0.39960137009620667,-8.025527954101562
543,61300.0,-5.465207099914551,0.35413774847984314,-8.085347175598145
544,61400.0,-5.465207099914551,0.35413774847984314,-8.085347175598145
545,61500.0,-5.450850009918213,0.35413774847984314,-8.061419486999513
546,61600.0,-5.450850009918213,0.35413774847984314,-8.061419486999513
547,61700.0,-5.450850009918213,0.35413774847984314,-8.061419486999513
548,61800.0,-5.489135265350342,0.3732803165912628,-8.099704742431639
549,61900.0,-5.489135265350342,0.3732803165912628,-8.099704742431639
550,62000.0,-5.4795637130737305,0.2847459018230438,-7.953742504119872
551,62100.0,-5.4795637130737305,0.2847459018230438,-7.953742504119872
552,62200.0,-5.4795637130737305,0.2847459018230438,-7.953742504119872
553,62300.0,-5.517848491668701,0.35413774847984314,-8.025527954101562
554,62400.0,-5.517848491668701,0.35413774847984314,-8.025527954101562
555,62500.0,-5.532205581665039,0.2943171858787537,-7.965706348419189
556,62600.0,-5.532205581665039,0.2943171858787537,-7.965706348419189
557,62700.0,-5.522634029388428,0.2703889608383179,-8.092526435852049
558,62800.0,-5.522634029388428,0.2703889608383179,-8.092526435852049
559,62900.0,-5.522634029388428,0.2703889608383179,-8.092526435852049
560,63000.0,-5.54177713394165,0.3302095234394073,-8.049454689025879
561,63100.0,-5.54177713394165,0.3302095234394073,-8.049454689025879
562,63200.0,-5.45563554763794,0.36370906233787537,-8.087740898132324
563,63300.0,-5.45563554763794,0.36370906233787537,-8.087740898132324
564,63400.0,-5.513063907623291,0.3230310678482056,-8.035098075866701
565,63500.0,-5.513063907623291,0.3230310678482056,-8.035098075866701
566,63600.0,-5.43170690536499,0.2991028428077698,-8.044669151306152
567,63700.0,-5.43170690536499,0.2991028428077698,-8.044669151306152
568,63800.0,-5.522634029388428,0.28953152894973755,-8.092526435852049
569,63900.0,-5.522634029388428,0.28953152894973755,-8.092526435852049
570,64000.0,-5.522634029388428,0.28953152894973755,-8.092526435852049
571,64100.0,-5.489135265350342,0.3613162040710449,-8.082954406738281
572,64200.0,-5.489135265350342,0.3613162040710449,-8.082954406738281
573,64300.0,-5.489135265350342,0.3349951505661011,-8.061419486999513
574,64400.0,-5.489135265350342,0.3349951505661011,-8.061419486999513
575,64500.0,-5.441278457641602,0.3158525824546814,-8.063812255859375
576,64600.0,-5.441278457641602,0.3158525824546814,-8.063812255859375
577,64700.0,-5.460421085357666,0.3780659735202789,-8.054241180419924
578,64800.0,-5.460421085357666,0.3780659735202789,-8.054241180419924
579,64900.0,-5.460421085357666,0.3780659735202789,-8.054241180419924
580,65000.0,-5.31685209274292,0.2679961323738098,-8.085347175598145
581,65100.0,-5.31685209274292,0.2679961323738098,-8.085347175598145
582,65200.0,-5.39342212677002,0.18424734473228452,-8.075776100158691
583,65300.0,-5.39342212677002,0.18424734473228452,-8.075776100158691
584,65400.0,-5.364708423614502,0.3182453811168671,-8.183453559875487
585,65500.0,-5.364708423614502,0.3182453811168671,-8.183453559875487
586,65600.0,-5.297709465026856,0.28235307335853577,-8.145168304443361
587,65700.0,-5.297709465026856,0.28235307335853577,-8.145168304443361
588,65800.0,-5.297709465026856,0.28235307335853577,-8.145168304443361
589,65900.0,-5.412564754486084,0.23688943684101105,-8.11406135559082
590,66000.0,-5.412564754486084,0.23688943684101105,-8.11406135559082
591,66100.0,-5.417350769042969,0.20578275620937347,-8.145168304443361
592,66200.0,-5.417350769042969,0.20578275620937347,-8.145168304443361
593,66300.0,-5.3694939613342285,0.17706887423992154,-8.11406135559082
594,66400.0,-5.3694939613342285,0.17706887423992154,-8.11406135559082
595,66500.0,-5.383851051330566,0.1459621787071228,-8.133204460144043
596,66600.0,-5.383851051330566,0.1459621787071228,-8.133204460144043
597,66700.0,-5.383851051330566,0.1459621787071228,-8.133204460144043
598,66800.0,-5.359922409057617,0.2560320198535919,-8.157133102416992
599,66900.0,-5.359922409057617,0.2560320198535919,-8.157133102416992
600,67000.0,-5.359922409057617,0.20099709928035736,-8.157133102416992
601,67100.0,-5.359922409057617,0.20099709928035736,-8.157133102416992
602,67200.0,-5.312066078186035,0.11246266961097716,-8.149953842163086
603,67300.0,-5.312066078186035,0.11246266961097716,-8.149953842163086
604,67400.0,-5.312066078186035,0.11246266961097716,-8.149953842163086
605,67500.0,-5.302494525909424,0.2153540551662445,-8.157133102416992
606,67600.0,-5.302494525909424,0.2153540551662445,-8.157133102416992
607,67700.0,-5.321637630462647,0.1459621787071228,-8.147561073303223
608,67800.0,-5.321637630462647,0.1459621787071228,-8.147561073303223
609,67900.0,-5.321637630462647,0.1459621787071228,-8.147561073303223
610,68000.0,-5.31685209274292,0.1339980661869049,-8.152346611022951
611,68100.0,-5.31685209274292,0.1339980661869049,-8.152346611022951
612,68200.0,-5.292923927307129,0.2321037948131561,-8.236095428466799
613,68300.0,-5.292923927307129,0.2321037948131561,-8.236095428466799
614,68400.0,-5.493920803070068,0.35892340540885925,-8.185846328735353
615,68500.0,-5.493920803070068,0.35892340540885925,-8.185846328735353
616,68600.0,-5.450850009918213,0.05982056260108948,-8.130810737609862
617,68700.0,-5.450850009918213,0.05982056260108948,-8.130810737609862
618,68800.0,-5.498706817626953,0.3038884699344635,-8.061419486999513
619,68900.0,-5.498706817626953,0.3038884699344635,-8.061419486999513
620,69000.0,-5.498706817626953,0.3038884699344635,-8.061419486999513
621,69100.0,-5.4077792167663565,0.33738797903060913,-8.051848411560059
622,69200.0,-5.4077792167663565,0.33738797903060913,-8.051848411560059
623,69300.0,-5.43170690536499,0.2871387302875519,-8.068597793579103
624,69400.0,-5.43170690536499,0.2871387302875519,-8.068597793579103
625,69500.0,-5.42692232131958,0.3684946894645691,-7.980063438415527
626,69600.0,-5.42692232131958,0.3684946894645691,-7.980063438415527
627,69700.0,-5.42692232131958,0.3684946894645691,-7.980063438415527
628,69800.0,-5.493920803070068,0.2679961323738098,-8.149953842163086
629,69900.0,-5.493920803070068,0.2679961323738098,-8.149953842163086
630,70000.0,-5.474778175354004,0.2392822504043579,-8.109275817871094
631,70100.0,-5.474778175354004,0.2392822504043579,-8.109275817871094
632,70200.0,-5.441278457641602,0.2273181527853012,-8.056633949279785
633,70300.0,-5.441278457641602,0.2273181527853012,-8.056633949279785
634,70400.0,-5.402993679046631,0.20817556977272034,-8.133204460144043
635,70500.0,-5.402993679046631,0.20817556977272034,-8.133204460144043
636,70600.0,-5.402993679046631,0.20817556977272034,-8.133204460144043
637,70700.0,-5.508277893066406,0.19142580032348636,-8.054241180419924
638,70800.0,-5.508277893066406,0.19142580032348636,-8.054241180419924
639,70900.0,-5.446063995361328,0.19621144235134125,-8.082954406738281
640,71000.0,-5.446063995361328,0.19621144235134125,-8.082954406738281
641,71100.0,-5.446063995361328,0.2751745879650116,-8.097311973571777
642,71200.0,-5.446063995361328,0.2751745879650116,-8.097311973571777
643,71300.0,-5.446063995361328,0.2751745879650116,-8.097311973571777
644,71400.0,-5.465207099914551,0.2464607357978821,-8.080562591552733
645,71500.0,-5.465207099914551,0.2464607357978821,-8.080562591552733
646,71600.0,-5.422136306762695,0.2751745879650116,-8.126025199890138
647,71700.0,-5.422136306762695,0.2751745879650116,-8.126025199890138
648,71800.0,-5.417350769042969,0.22492533922195435,-8.142775535583496
649,71900.0,-5.417350769042969,0.22492533922195435,-8.142775535583496
650,72000.0,-5.417350769042969,0.2943171858787537,-8.104490280151367
651,72100.0,-5.417350769042969,0.2943171858787537,-8.104490280151367
652,72200.0,-5.412564754486084,0.2751745879650116,-8.126025199890138
653,72300.0,-5.412564754486084,0.2751745879650116,-8.126025199890138
654,72400.0,-5.441278457641602,0.2321037948131561,-8.035098075866701
655,72500.0,-5.441278457641602,0.2321037948131561,-8.035098075866701
656,72600.0,-5.441278457641602,0.2321037948131561,-8.035098075866701
657,72700.0,-5.39342212677002,0.26081767678260803,-8.097311973571777
658,72800.0,-5.39342212677002,0.26081767678260803,-8.097311973571777
659,72900.0,-5.441278457641602,0.2464607357978821,-8.066205024719237
660,73000.0,-5.441278457641602,0.2464607357978821,-8.066205024719237
661,73100.0,-5.417350769042969,0.17946170270442965,-8.111669540405272
662,73200.0,-5.417350769042969,0.17946170270442965,-8.111669540405272
663,73300.0,-5.417350769042969,0.17946170270442965,-8.111669540405272
664,73400.0,-5.402993679046631,0.2464607357978821,-8.126025199890138
665,73500.0,-5.402993679046631,0.2464607357978821,-8.126025199890138
666,73600.0,-5.37906551361084,0.2392822504043579,-8.109275817871094
667,73700.0,-5.37906551361084,0.2392822504043579,-8.109275817871094
668,73800.0,-5.364708423614502,0.3038884699344635,-8.102097511291504
669,73900.0,-5.364708423614502,0.3038884699344635,-8.102097511291504
670,74000.0,-5.364708423614502,0.20099709928035736,-8.111669540405272
671,74100.0,-5.364708423614502,0.20099709928035736,-8.111669540405272
672,74200.0,-5.364708423614502,0.20099709928035736,-8.111669540405272
673,74300.0,-5.383851051330566,0.27756744623184204,-8.166703224182129
674,74400.0,-5.383851051330566,0.27756744623184204,-8.166703224182129
675,74500.0,-5.417350769042969,0.2703889608383179,-8.063812255859375
676,74600.0,-5.417350769042969,0.2703889608383179,-8.063812255859375
677,74700.0,-5.42692232131958,0.3086740970611572,-8.102097511291504
678,74800.0,-5.42692232131958,0.3086740970611572,-8.102097511291504
679,74900.0,-5.42692232131958,0.3086740970611572,-8.102097511291504
680,75000.0,-5.417350769042969,0.2153540551662445,-8.047062873840332
681,75100.0,-5.417350769042969,0.2153540551662445,-8.047062873840332
682,75200.0,-5.417350769042969,0.26081767678260803,-8.097311973571777
683,75300.0,-5.417350769042969,0.26081767678260803,-8.097311973571777
684,75400.0,-5.484349250793457,0.25842484831810003,-8.087740898132324
685,75500.0,-5.484349250793457,0.25842484831810003,-8.087740898132324
686,75600.0,-5.412564754486084,0.2153540551662445,-8.080562591552733
687,75700.0,-5.412564754486084,0.2153540551662445,-8.080562591552733
688,75800.0,-5.412564754486084,0.2153540551662445,-8.080562591552733
689,75900.0,-5.412564754486084,0.2464607357978821,-8.116454124450684
690,76000.0,-5.412564754486084,0.2464607357978821,-8.116454124450684
691,76100.0,-5.436492443084717,0.2392822504043579,-8.104490280151367
692,76200.0,-5.436492443084717,0.2392822504043579,-8.104490280151367
693,76300.0,-5.4077792167663565,0.2464607357978821,-8.140382766723633
694,76400.0,-5.4077792167663565,0.2464607357978821,-8.140382766723633
695,76500.0,-5.417350769042969,0.27278175950050354,-8.147561073303223
696,76600.0,-5.417350769042969,0.27278175950050354,-8.147561073303223
697,76700.0,-5.417350769042969,0.27278175950050354,-8.147561073303223
698,76800.0,-5.388636112213135,0.2799602448940277,-8.094919204711914
699,76900.0,-5.388636112213135,0.2799602448940277,-8.094919204711914
700,77000.0,-5.402993679046631,0.16749757528305054,-8.116454124450684
701,77100.0,-5.402993679046631,0.16749757528305054,-8.116454124450684
702,77200.0,-5.402993679046631,0.2871387302875519,-8.12841796875
703,77300.0,-5.402993679046631,0.2871387302875519,-8.12841796875
704,77400.0,-5.402993679046631,0.2871387302875519,-8.12841796875
705,77500.0,-5.436492443084717,0.2225324809551239,-8.068597793579103
706,77600.0,-5.436492443084717,0.2225324809551239,-8.068597793579103
707,77700.0,-5.417350769042969,0.3206382095813751,-8.126025199890138
708,77800.0,-5.417350769042969,0.3206382095813751,-8.126025199890138
709,77900.0,-5.436492443084717,0.3326023519039154,-8.097311973571777
710,78000.0,-5.436492443084717,0.3326023519039154,-8.097311973571777
711,78100.0,-5.436492443084717,0.3326023519039154,-8.097311973571777
712,78200.0,-5.508277893066406,0.2799602448940277,-8.075776100158691
713,78300.0,-5.508277893066406,0.2799602448940277,-8.075776100158691
714,78400.0,-5.412564754486084,0.26081767678260803,-8.080562591552733
715,78500.0,-5.412564754486084,0.26081767678260803,-8.080562591552733
716,78600.0,-5.412564754486084,0.26081767678260803,-8.080562591552733
717,78700.0,-5.37906551361084,0.20817556977272034,-8.073383331298826
718,78800.0,-5.37906551361084,0.20817556977272034,-8.073383331298826
719,78900.0,-5.412564754486084,0.3086740970611572,-8.130810737609862
720,79000.0,-5.412564754486084,0.3086740970611572,-8.130810737609862
721,79100.0,-5.422136306762695,0.2416750937700272,-8.116454124450684
722,79200.0,-5.422136306762695,0.2416750937700272,-8.116454124450684
723,79300.0,-5.422136306762695,0.2416750937700272,-8.116454124450684
724,79400.0,-5.43170690536499,0.22013968229293826,-8.123632431030272
725,79500.0,-5.43170690536499,0.22013968229293826,-8.123632431030272
726,79600.0,-5.359922409057617,0.26560330390930176,-8.140382766723633
727,79700.0,-5.359922409057617,0.26560330390930176,-8.140382766723633
728,79800.0,-5.45563554763794,0.2560320198535919,-8.078168869018555
729,79900.0,-5.45563554763794,0.2560320198535919,-8.078168869018555
730,80000.0,-5.45563554763794,0.2560320198535919,-8.078168869018555
731,80100.0,-5.412564754486084,0.2105683833360672,-8.12841796875
732,80200.0,-5.412564754486084,0.2105683833360672,-8.12841796875
733,80300.0,-5.402993679046631,0.2512463629245758,-8.099704742431639
734,80400.0,-5.402993679046631,0.2512463629245758,-8.099704742431639
735,80500.0,-5.422136306762695,0.2799602448940277,-8.126025199890138
736,80600.0,-5.422136306762695,0.2799602448940277,-8.126025199890138
737,80700.0,-5.422136306762695,0.2799602448940277,-8.126025199890138
738,80800.0,-5.388636112213135,0.2751745879650116,-8.092526435852049
739,80900.0,-5.388636112213135,0.2751745879650116,-8.092526435852049
740,81000.0,-5.42692232131958,0.18185453116893768,-8.102097511291504
741,81100.0,-5.42692232131958,0.18185453116893768,-8.102097511291504
742,81200.0,-5.42692232131958,0.18185453116893768,-8.102097511291504
743,81300.0,-5.422136306762695,0.2799602448940277,-8.035098075866701
744,81400.0,-5.422136306762695,0.2799602448940277,-8.035098075866701
745,81500.0,-5.484349250793457,0.2751745879650116,-8.092526435852049
746,81600.0,-5.484349250793457,0.2751745879650116,-8.092526435852049
747,81700.0,-5.45563554763794,0.2967100143432617,-8.054241180419924
748,81800.0,-5.45563554763794,0.2967100143432617,-8.054241180419924
749,81900.0,-5.446063995361328,0.2871387302875519,-8.118846893310549
750,82000.0,-5.446063995361328,0.2871387302875519,-8.118846893310549
751,82100.0,-5.446063995361328,0.2871387302875519,-8.118846893310549
752,82200.0,-5.450850009918213,0.2919243574142456,-8.097311973571777
753,82300.0,-5.450850009918213,0.2919243574142456,-8.097311973571777
754,82400.0,-5.417350769042969,0.28235307335853577,-8.104490280151367
755,82500.0,-5.417350769042969,0.28235307335853577,-8.104490280151367
756,82600.0,-5.441278457641602,0.26560330390930176,-8.11406135559082
757,82700.0,-5.441278457641602,0.26560330390930176,-8.11406135559082
758,82800.0,-5.39342212677002,0.34217363595962524,-8.035098075866701
759,82900.0,-5.39342212677002,0.34217363595962524,-8.035098075866701
760,83000.0,-5.39342212677002,0.34217363595962524,-8.035098075866701
761,83100.0,-5.446063995361328,0.2105683833360672,-8.061419486999513
762,83200.0,-5.446063995361328,0.2105683833360672,-8.061419486999513
763,83300.0,-5.43170690536499,0.3349951505661011,-8.233702659606934
764,83400.0,-5.43170690536499,0.3349951505661011,-8.233702659606934
765,83500.0,-5.493920803070068,0.3445664942264557,-8.073383331298826
766,83600.0,-5.493920803070068,0.3445664942264557,-8.073383331298826
767,83700.0,-5.446063995361328,0.3684946894645691,-8.147561073303223
768,83800.0,-5.446063995361328,0.3684946894645691,-8.147561073303223
769,83900.0,-5.446063995361328,0.3684946894645691,-8.147561073303223
770,84000.0,-5.450850009918213,0.2464607357978821,-8.140382766723633
771,84100.0,-5.450850009918213,0.2464607357978821,-8.140382766723633
772,84200.0,-5.465207099914551,0.3182453811168671,-8.042276382446289
773,84300.0,-5.465207099914551,0.3182453811168671,-8.042276382446289
774,84400.0,-5.465207099914551,0.3182453811168671,-8.042276382446289
775,84500.0,-5.42692232131958,0.2703889608383179,-8.082954406738281
776,84600.0,-5.42692232131958,0.2703889608383179,-8.082954406738281
777,84700.0,-5.417350769042969,0.28235307335853577,-8.133204460144043
778,84800.0,-5.417350769042969,0.28235307335853577,-8.133204460144043
779,84900.0,-5.450850009918213,0.25842484831810003,-8.042276382446289
780,85000.0,-5.450850009918213,0.25842484831810003,-8.042276382446289
781,85100.0,-5.450850009918213,0.25842484831810003,-8.042276382446289
782,85200.0,-5.446063995361328,0.3158525824546814,-8.097311973571777
783,85300.0,-5.446063995361328,0.3158525824546814,-8.097311973571777
784,85400.0,-5.39342212677002,0.3445664942264557,-8.135597229003906
785,85500.0,-5.39342212677002,0.3445664942264557,-8.135597229003906
786,85600.0,-5.446063995361328,0.2919243574142456,-8.176274299621582
787,85700.0,-5.446063995361328,0.2919243574142456,-8.176274299621582
788,85800.0,-5.446063995361328,0.2919243574142456,-8.176274299621582
789,85900.0,-5.513063907623291,0.6101697683334351,-7.82692289352417
790,86000.0,-5.513063907623291,0.6101697683334351,-7.82692289352417
791,86100.0,-5.37906551361084,-0.27756744623184204,-8.075776100158691
792,86200.0,-5.37906551361084,-0.27756744623184204,-8.075776100158691
793,86300.0,-5.388636112213135,0.5623133182525635,-8.188239097595215
794,86400.0,-5.388636112213135,0.5623133182525635,-8.188239097595215
795,86500.0,-5.3551368713378915,0.3278167247772217,-8.164310455322267
796,86600.0,-5.3551368713378915,0.3278167247772217,-8.164310455322267
797,86700.0,-5.3551368713378915,0.3278167247772217,-8.164310455322267
798,86800.0,-5.460421085357666,0.4354937374591827,-8.080562591552733
799,86900.0,-5.460421085357666,0.4354937374591827,-8.080562591552733
800,87000.0,-5.417350769042969,0.3134597539901733,-8.118846893310549
801,87100.0,-5.417350769042969,0.3134597539901733,-8.118846893310549
802,87200.0,-5.345565319061278,0.4067798554897308,-8.063812255859375
803,87300.0,-5.345565319061278,0.4067798554897308,-8.063812255859375
804,87400.0,-5.364708423614502,0.4426721632480621,-8.147561073303223
805,87500.0,-5.364708423614502,0.4426721632480621,-8.147561073303223
806,87600.0,-5.364708423614502,0.4426721632480621,-8.147561073303223
807,87700.0,-5.350350856781006,0.3876372575759888,-8.085347175598145
808,87800.0,-5.350350856781006,0.3876372575759888,-8.085347175598145
809,87900.0,-5.340780735015869,0.3278167247772217,-8.159524917602539
810,88000.0,-5.340780735015869,0.3278167247772217,-8.159524917602539
811,88100.0,-5.3694939613342285,0.44745784997940063,-8.190631866455076
812,88200.0,-5.3694939613342285,0.44745784997940063,-8.190631866455076
813,88300.0,-5.3694939613342285,0.44745784997940063,-8.190631866455076
814,88400.0,-5.364708423614502,0.430708110332489,-8.126025199890138
815,88500.0,-5.364708423614502,0.430708110332489,-8.126025199890138
816,88600.0,-5.350350856781006,0.4594219326972962,-8.10688304901123
817,88700.0,-5.350350856781006,0.4594219326972962,-8.10688304901123
818,88800.0,-5.383851051330566,0.430708110332489,-8.13798999786377
819,88900.0,-5.383851051330566,0.430708110332489,-8.13798999786377
820,89000.0,-5.383851051330566,0.430708110332489,-8.13798999786377
821,89100.0,-5.383851051330566,0.4737788736820221,-8.102097511291504
822,89200.0,-5.383851051330566,0.4737788736820221,-8.102097511291504
823,89300.0,-5.321637630462647,0.5000999569892883,-8.123632431030272
824,89400.0,-5.321637630462647,0.5000999569892883,-8.123632431030272
825,89500.0,-5.3694939613342285,0.4067798554897308,-8.159524917602539
826,89600.0,-5.3694939613342285,0.4067798554897308,-8.159524917602539
827,89700.0,-5.3694939613342285,0.4067798554897308,-8.159524917602539
828,89800.0,-5.374279499053955,0.4570291042327881,-8.123632431030272
829,89900.0,-5.374279499053955,0.4570291042327881,-8.123632431030272
830,90000.0,-5.402993679046631,0.4019941985607147,-8.126025199890138
831,90100.0,-5.402993679046631,0.4019941985607147,-8.126025199890138
832,90200.0,-5.422136306762695,0.4689932465553284,-8.11406135559082
833,90300.0,-5.422136306762695,0.4689932465553284,-8.11406135559082
834,90400.0,-5.422136306762695,0.4689932465553284,-8.11406135559082
835,90500.0,-5.359922409057617,0.48574298620224,-8.133204460144043
836,90600.0,-5.359922409057617,0.48574298620224,-8.133204460144043
837,90700.0,-5.331209182739258,0.5144568681716919,-8.135597229003906
838,90800.0,-5.331209182739258,0.5144568681716919,-8.135597229003906
839,90900.0,-5.364708423614502,0.4642075896263122,-8.130810737609862
840,91000.0,-5.364708423614502,0.4642075896263122,-8.130810737609862
841,91100.0,-5.364708423614502,0.4642075896263122,-8.130810737609862
842,91200.0,-5.345565319061278,0.3684946894645691,-8.152346611022951
843,91300.0,-5.345565319061278,0.3684946894645691,-8.152346611022951
844,91400.0,-5.39342212677002,0.3756731450557709,-8.173882484436035
845,91500.0,-5.39342212677002,0.3756731450557709,-8.173882484436035
846,91600.0,-5.350350856781006,0.5335994362831116,-8.204988479614258
847,91700.0,-5.350350856781006,0.5335994362831116,-8.204988479614258
848,91800.0,-5.383851051330566,0.5072783827781677,-8.188239097595215
849,91900.0,-5.383851051330566,0.5072783827781677,-8.188239097595215
850,92000.0,-5.383851051330566,0.5072783827781677,-8.188239097595215
851,92100.0,-5.3694939613342285,0.5168496966362001,-8.123632431030272
852,92200.0,-5.3694939613342285,0.5168496966362001,-8.123632431030272
853,92300.0,-5.469992637634277,0.4378865361213684,-8.082954406738281
854,92400.0,-5.469992637634277,0.4378865361213684,-8.082954406738281
855,92500.0,-5.412564754486084,0.552742063999176,-8.097311973571777
856,92600.0,-5.412564754486084,0.552742063999176,-8.097311973571777
857,92700.0,-5.412564754486084,0.552742063999176,-8.097311973571777
858,92800.0,-5.383851051330566,0.4187439680099487,-8.130810737609862
859,92900.0,-5.383851051330566,0.4187439680099487,-8.130810737609862
860,93000.0,-5.340780735015869,0.430708110332489,-8.152346611022951
861,93100.0,-5.340780735015869,0.430708110332489,-8.152346611022951
862,93200.0,-5.340780735015869,0.430708110332489,-8.152346611022951
863,93300.0,-5.3694939613342285,0.4522434771060944,-8.094919204711914
864,93400.0,-5.3694939613342285,0.4522434771060944,-8.094919204711914
865,93500.0,-5.364708423614502,0.4642075896263122,-8.161917686462402
866,93600.0,-5.364708423614502,0.4642075896263122,-8.161917686462402
867,93700.0,-5.374279499053955,0.48574298620224,-8.092526435852049
868,93800.0,-5.374279499053955,0.48574298620224,-8.092526435852049
869,93900.0,-5.374279499053955,0.48574298620224,-8.092526435852049
870,94000.0,-5.364708423614502,0.4594219326972962,-8.133204460144043
871,94100.0,-5.364708423614502,0.4594219326972962,-8.133204460144043
872,94200.0,-5.398207664489746,0.4498506784439087,-8.12123966217041
873,94300.0,-5.398207664489746,0.4498506784439087,-8.12123966217041
874,94400.0,-5.39342212677002,0.3326023519039154,-8.118846893310549
875,94500.0,-5.39342212677002,0.3326023519039154,-8.118846893310549
876,94600.0,-5.39342212677002,0.3326023519039154,-8.118846893310549
877,94700.0,-5.39342212677002,0.5024927258491516,-8.142775535583496
878,94800.0,-5.39342212677002,0.5024927258491516,-8.142775535583496
879,94900.0,-5.345565319061278,0.4785645008087158,-8.145168304443361
880,95000.0,-5.345565319061278,0.4785645008087158,-8.145168304443361
881,95100.0,-5.364708423614502,0.4067798554897308,-8.11406135559082
882,95200.0,-5.364708423614502,0.4067798554897308,-8.11406135559082
883,95300.0,-5.364708423614502,0.4067798554897308,-8.11406135559082
884,95400.0,-5.345565319061278,0.4522434771060944,-8.094919204711914
885,95500.0,-5.345565319061278,0.4522434771060944,-8.094919204711914
886,95600.0,-5.388636112213135,0.4235295951366425,-8.11406135559082
887,95700.0,-5.388636112213135,0.4235295951366425,-8.11406135559082
888,95800.0,-5.383851051330566,0.4618147313594818,-8.111669540405272
889,95900.0,-5.383851051330566,0.4618147313594818,-8.111669540405272
890,96000.0,-5.383851051330566,0.5192425251007079,-8.051848411560059
891,96100.0,-5.383851051330566,0.5192425251007079,-8.051848411560059
892,96200.0,-5.383851051330566,0.5192425251007079,-8.051848411560059
893,96300.0,-5.37906551361084,0.5312066078186035,-8.154739379882812
894,96400.0,-5.37906551361084,0.5312066078186035,-8.154739379882812
895,96500.0,-5.422136306762695,0.4809573292732239,-8.090132713317871
896,96600.0,-5.422136306762695,0.4809573292732239,-8.090132713317871
897,96700.0,-5.374279499053955,0.44745784997940063,-8.066205024719237
898,96800.0,-5.374279499053955,0.44745784997940063,-8.066205024719237
899,96900.0,-5.374279499053955,0.44745784997940063,-8.066205024719237
900,97000.0,-5.326423168182373,0.4905286431312561,-8.10688304901123
901,97100.0,-5.326423168182373,0.4905286431312561,-8.10688304901123
902,97200.0,-5.340780735015869,0.39960137009620667,-8.181060791015625
903,97300.0,-5.340780735015869,0.39960137009620667,-8.181060791015625
904,97400.0,-5.340780735015869,0.39960137009620667,-8.181060791015625
905,97500.0,-5.3694939613342285,0.4713860750198364,-8.13798999786377
906,97600.0,-5.3694939613342285,0.4713860750198364,-8.13798999786377
907,97700.0,-5.359922409057617,0.4378865361213684,-8.159524917602539
908,97800.0,-5.359922409057617,0.4378865361213684,-8.159524917602539
909,97900.0,-5.3551368713378915,0.4570291042327881,-8.123632431030272
910,98000.0,-5.3551368713378915,0.4570291042327881,-8.123632431030272
911,98100.0,-5.3551368713378915,0.4570291042327881,-8.123632431030272
912,98200.0,-5.312066078186035,0.4905286431312561,-8.166703224182129
913,98300.0,-5.312066078186035,0.4905286431312561,-8.166703224182129
914,98400.0,-5.340780735015869,0.4689932465553284,-8.11406135559082
915,98500.0,-5.340780735015869,0.4689932465553284,-8.11406135559082
916,98600.0,-5.364708423614502,0.5216353535652161,-8.188239097595215
917,98700.0,-5.364708423614502,0.5216353535652161,-8.188239097595215
918,98800.0,-5.364708423614502,0.5216353535652161,-8.188239097595215
919,98900.0,-5.364708423614502,0.4331009089946747,-8.099704742431639
920,99000.0,-5.364708423614502,0.4331009089946747,-8.099704742431639
921,99100.0,-5.402993679046631,0.5024927258491516,-8.109275817871094
922,99200.0,-5.402993679046631,0.5024927258491516,-8.109275817871094
923,99300.0,-5.3551368713378915,0.48574298620224,-8.104490280151367
924,99400.0,-5.3551368713378915,0.48574298620224,-8.104490280151367
925,99500.0,-5.374279499053955,0.4809573292732239,-8.109275817871094
926,99600.0,-5.374279499053955,0.4809573292732239,-8.109275817871094
927,99700.0,-5.374279499053955,0.4809573292732239,-8.109275817871094
928,99800.0,-5.3694939613342285,0.48574298620224,-8.118846893310549
929,99900.0,-5.3694939613342285,0.48574298620224,-8.118846893310549
930,100000.0,-5.374279499053955,0.5144568681716919,-8.118846893310549
931,100100.0,-5.374279499053955,0.5144568681716919,-8.118846893310549
932,100200.0,-5.398207664489746,0.4713860750198364,-8.142775535583496
933,100300.0,-5.398207664489746,0.4713860750198364,-8.142775535583496
934,100400.0,-5.398207664489746,0.44745784997940063,-8.085347175598145
935,100500.0,-5.398207664489746,0.44745784997940063,-8.085347175598145
936,100600.0,-5.398207664489746,0.44745784997940063,-8.085347175598145
937,100700.0,-5.402993679046631,0.5264209508895874,-8.090132713317871
938,100800.0,-5.402993679046631,0.5264209508895874,-8.090132713317871
939,100900.0,-5.374279499053955,0.5072783827781677,-8.142775535583496
940,101000.0,-5.374279499053955,0.5072783827781677,-8.142775535583496
941,101100.0,-5.3694939613342285,0.4929214715957642,-8.080562591552733
942,101200.0,-5.3694939613342285,0.4929214715957642,-8.080562591552733
943,101300.0,-5.3694939613342285,0.4929214715957642,-8.080562591552733
944,101400.0,-5.37906551361084,0.4570291042327881,-8.123632431030272
945,101500.0,-5.37906551361084,0.4570291042327881,-8.123632431030272
946,101600.0,-5.312066078186035,0.42831525206565857,-8.193024635314941
947,101700.0,-5.312066078186035,0.42831525206565857,-8.193024635314941
948,101800.0,-5.312066078186035,0.42831525206565857,-8.193024635314941
949,101900.0,-5.374279499053955,0.4761717021465302,-8.111669540405272
950,102000.0,-5.374279499053955,0.4761717021465302,-8.111669540405272
951,102100.0,-5.3359947204589835,0.4498506784439087,-8.135597229003906
952,102200.0,-5.3359947204589835,0.4498506784439087,-8.135597229003906
953,102300.0,-5.364708423614502,0.4187439680099487,-8.135597229003906
954,102400.0,-5.364708423614502,0.4187439680099487,-8.135597229003906
955,102500.0,-5.364708423614502,0.4187439680099487,-8.135597229003906
956,102600.0,-5.388636112213135,0.4522434771060944,-8.109275817871094
957,102700.0,-5.388636112213135,0.4522434771060944,-8.109275817871094
958,102800.0,-5.37906551361084,0.4642075896263122,-8.166703224182129
959,102900.0,-5.37906551361084,0.4642075896263122,-8.166703224182129
960,103000.0,-5.388636112213135,0.4761717021465302,-8.152346611022951
961,103100.0,-5.388636112213135,0.4761717021465302,-8.152346611022951
962,103200.0,-5.388636112213135,0.4761717021465302,-8.152346611022951
963,103300.0,-5.3694939613342285,0.5096712112426758,-8.135597229003906
964,103400.0,-5.3694939613342285,0.5096712112426758,-8.135597229003906
965,103500.0,-5.402993679046631,0.5120640397071838,-8.140382766723633
966,103600.0,-5.402993679046631,0.5120640397071838,-8.140382766723633
967,103700.0,-5.402993679046631,0.5048855543136597,-8.152346611022951
968,103800.0,-5.402993679046631,0.5048855543136597,-8.152346611022951
969,103900.0,-5.402993679046631,0.5048855543136597,-8.152346611022951
970,104000.0,-5.345565319061278,0.4833501875400543,-8.130810737609862
971,104100.0,-5.345565319061278,0.4833501875400543,-8.130810737609862
972,104200.0,-5.37906551361084,0.42831525206565857,-8.111669540405272
973,104300.0,-5.37906551361084,0.42831525206565857,-8.111669540405272
974,104400.0,-5.37906551361084,0.4594219326972962,-8.102097511291504
975,104500.0,-5.37906551361084,0.4594219326972962,-8.102097511291504
976,104600.0,-5.37906551361084,0.4594219326972962,-8.102097511291504
977,104700.0,-5.4077792167663565,0.5551348924636841,-8.090132713317871
978,104800.0,-5.4077792167663565,0.5551348924636841,-8.090132713317871
979,104900.0,-5.402993679046631,0.4043869972229004,-8.209774017333983
980,105000.0,-5.402993679046631,0.4043869972229004,-8.209774017333983
981,105100.0,-5.43170690536499,0.5216353535652161,-8.080562591552733
982,105200.0,-5.43170690536499,0.5216353535652161,-8.080562591552733
983,105300.0,-5.43170690536499,0.5216353535652161,-8.080562591552733
984,105400.0,-5.42692232131958,0.4977070987224579,-8.094919204711914
985,105500.0,-5.42692232131958,0.4977070987224579,-8.094919204711914
986,105600.0,-5.345565319061278,0.4642075896263122,-8.145168304443361
987,105700.0,-5.345565319061278,0.4642075896263122,-8.145168304443361
988,105800.0,-5.388636112213135,0.4689932465553284,-8.042276382446289
989,105900.0,-5.388636112213135,0.4689932465553284,-8.042276382446289
990,106000.0,-5.388636112213135,0.4689932465553284,-8.042276382446289
991,106100.0,-5.388636112213135,0.5503491759300232,-8.087740898132324
992,106200.0,-5.388636112213135,0.5503491759300232,-8.087740898132324
993,106300.0,-5.422136306762695,0.5216353535652161,-8.152346611022951
994,106400.0,-5.422136306762695,0.5216353535652161,-8.152346611022951
995,106500.0,-5.388636112213135,0.5264209508895874,-8.080562591552733
996,106600.0,-5.388636112213135,0.5264209508895874,-8.080562591552733
997,106700.0,-5.388636112213135,0.5264209508895874,-8.080562591552733
998,106800.0,-5.321637630462647,0.5814558863639832,-8.123632431030272
999,106900.0,-5.321637630462647,0.5814558863639832,-8.123632431030272
1000,107000.0,-5.359922409057617,0.4785645008087158,-8.130810737609862
1001,107100.0,-5.359922409057617,0.4785645008087158,-8.130810737609862
1002,107200.0,-5.3694939613342285,0.4929214715957642,-8.142775535583496
1003,107300.0,-5.3694939613342285,0.4929214715957642,-8.142775535583496
1004,107400.0,-5.3694939613342285,0.4929214715957642,-8.142775535583496
1005,107500.0,-5.350350856781006,0.5048855543136597,-8.152346611022951
1006,107600.0,-5.350350856781006,0.5048855543136597,-8.152346611022951
1007,107700.0,-5.340780735015869,0.4809573292732239,-8.135597229003906
1008,107800.0,-5.340780735015869,0.4809573292732239,-8.135597229003906
1009,107900.0,-5.312066078186035,0.5455635190010071,-8.209774017333983
1010,108000.0,-5.312066078186035,0.5455635190010071,-8.209774017333983
1011,108100.0,-5.292923927307129,0.5383850932121277,-8.080562591552733
1012,108200.0,-5.292923927307129,0.5383850932121277,-8.080562591552733
1013,108300.0,-5.292923927307129,0.5383850932121277,-8.080562591552733
1014,108400.0,-5.326423168182373,0.4618147313594818,-8.142775535583496
1015,108500.0,-5.326423168182373,0.4618147313594818,-8.142775535583496
1016,108600.0,-5.3694939613342285,0.4809573292732239,-8.171488761901855
1017,108700.0,-5.3694939613342285,0.4809573292732239,-8.171488761901855
1018,108800.0,-5.3359947204589835,0.5000999569892883,-8.123632431030272
1019,108900.0,-5.3359947204589835,0.5000999569892883,-8.123632431030272
1020,109000.0,-5.345565319061278,0.5168496966362001,-8.159524917602539
1021,109100.0,-5.345565319061278,0.5168496966362001,-8.159524917602539
1022,109200.0,-5.345565319061278,0.5168496966362001,-8.159524917602539
1023,109300.0,-5.331209182739258,0.4570291042327881,-8.123632431030272
1024,109400.0,-5.331209182739258,0.4570291042327881,-8.123632431030272
1025,109500.0,-5.345565319061278,0.4713860750198364,-8.078168869018555
1026,109600.0,-5.345565319061278,0.4713860750198364,-8.078168869018555
1027,109700.0,-5.340780735015869,0.48574298620224,-8.183453559875487
1028,109800.0,-5.340780735015869,0.48574298620224,-8.183453559875487
1029,109900.0,-5.340780735015869,0.48574298620224,-8.183453559875487
1030,110000.0,-5.3551368713378915,0.48574298620224,-8.109275817871094
1031,110100.0,-5.3551368713378915,0.48574298620224,-8.109275817871094
1032,110200.0,-5.350350856781006,0.5383850932121277,-8.126025199890138
1033,110300.0,-5.350350856781006,0.5383850932121277,-8.126025199890138
1034,110400.0,-5.3359947204589835,0.4929214715957642,-8.130810737609862
1035,110500.0,-5.3359947204589835,0.4929214715957642,-8.130810737609862
1036,110600.0,-5.3359947204589835,0.4929214715957642,-8.130810737609862
1037,110700.0,-5.359922409057617,0.4642075896263122,-8.104490280151367
1038,110800.0,-5.359922409057617,0.4642075896263122,-8.104490280151367
1039,110900.0,-5.37906551361084,0.5192425251007079,-8.102097511291504
1040,111000.0,-5.37906551361084,0.5192425251007079,-8.102097511291504
1041,111100.0,-5.331209182739258,0.4833501875400543,-8.195417404174805
1042,111200.0,-5.331209182739258,0.4833501875400543,-8.195417404174805
1043,111300.0,-5.331209182739258,0.4833501875400543,-8.195417404174805
1044,111400.0,-5.3359947204589835,0.5000999569892883,-8.133204460144043
1045,111500.0,-5.3359947204589835,0.5000999569892883,-8.133204460144043
1046,111600.0,-5.364708423614502,0.5264209508895874,-8.109275817871094
1047,111700.0,-5.364708423614502,0.5264209508895874,-8.109275817871094
1048,111800.0,-5.3694939613342285,0.4977070987224579,-8.109275817871094
1049,111900.0,-5.3694939613342285,0.4977070987224579,-8.109275817871094
1050,112000.0,-5.3694939613342285,0.4977070987224579,-8.109275817871094
1051,112100.0,-5.398207664489746,0.5168496966362001,-8.123632431030272
1052,112200.0,-5.398207664489746,0.5168496966362001,-8.123632431030272
1053,112300.0,-5.345565319061278,0.5264209508895874,-8.135597229003906
1054,112400.0,-5.345565319061278,0.5264209508895874,-8.135597229003906
1055,112500.0,-5.350350856781006,0.4929214715957642,-8.147561073303223
1056,112600.0,-5.350350856781006,0.4929214715957642,-8.147561073303223
1057,112700.0,-5.350350856781006,0.4929214715957642,-8.147561073303223
1058,112800.0,-5.340780735015869,0.5240281224250793,-8.147561073303223
1059,112900.0,-5.340780735015869,0.5240281224250793,-8.147561073303223
1060,113000.0,-5.288137912750244,0.4929214715957642,-8.130810737609862
1061,113100.0,-5.288137912750244,0.4929214715957642,-8.130810737609862
1062,113200.0,-5.288137912750244,0.4929214715957642,-8.130810737609862
1063,113300.0,-5.37906551361084,0.4761717021465302,-8.12123966217041
1064,113400.0,-5.37906551361084,0.4761717021465302,-8.12123966217041
1065,113500.0,-5.326423168182373,0.5838487148284912,-8.161917686462402
1066,113600.0,-5.326423168182373,0.5838487148284912,-8.161917686462402
1067,113700.0,-5.331209182739258,0.5096712112426758,-8.10688304901123
1068,113800.0,-5.331209182739258,0.5096712112426758,-8.10688304901123
1069,113900.0,-5.331209182739258,0.5096712112426758,-8.10688304901123
1070,114000.0,-5.3694939613342285,0.4977070987224579,-8.154739379882812
1071,114100.0,-5.3694939613342285,0.4977070987224579,-8.154739379882812
1072,114200.0,-5.383851051330566,0.5000999569892883,-8.149953842163086
1073,114300.0,-5.383851051330566,0.5000999569892883,-8.149953842163086
1074,114400.0,-5.331209182739258,0.5599204897880554,-8.118846893310549
1075,114500.0,-5.331209182739258,0.5599204897880554,-8.118846893310549
1076,114600.0,-5.331209182739258,0.5599204897880554,-8.118846893310549
1077,114700.0,-5.417350769042969,0.5096712112426758,-8.166703224182129
1078,114800.0,-5.417350769042969,0.5096712112426758,-8.166703224182129
1079,114900.0,-5.278566360473633,0.3780659735202789,-8.133204460144043
1080,115000.0,-5.278566360473633,0.3780659735202789,-8.133204460144043
1081,115100.0,-5.321637630462647,0.5407779216766357,-8.262415885925293
1082,115200.0,-5.321637630462647,0.5407779216766357,-8.262415885925293
1083,115300.0,-5.149354457855225,0.6580261588096619,-8.13798999786377
1084,115400.0,-5.149354457855225,0.6580261588096619,-8.13798999786377
1085,115500.0,-5.149354457855225,0.6580261588096619,-8.13798999786377
1086,115600.0,-5.383851051330566,0.3278167247772217,-8.135597229003906
1087,115700.0,-5.383851051330566,0.3278167247772217,-8.135597229003906
1088,115800.0,-5.359922409057617,0.4331009089946747,-8.176274299621582
1089,115900.0,-5.359922409057617,0.4331009089946747,-8.176274299621582
1090,116000.0,-5.26899528503418,0.3493521213531494,-8.147561073303223
1091,116100.0,-5.26899528503418,0.3493521213531494,-8.147561073303223
1092,116200.0,-5.3694939613342285,0.3110669553279877,-8.200202941894531
1093,116300.0,-5.3694939613342285,0.3110669553279877,-8.200202941894531
1094,116400.0,-5.3694939613342285,0.3110669553279877,-8.200202941894531
1095,116500.0,-5.359922409057617,0.4378865361213684,-8.12841796875
1096,116600.0,-5.359922409057617,0.4378865361213684,-8.12841796875
1097,116700.0,-5.331209182739258,0.5694918036460876,-8.130810737609862
1098,116800.0,-5.331209182739258,0.5694918036460876,-8.130810737609862
1099,116900.0,-5.331209182739258,0.5694918036460876,-8.130810737609862
1100,117000.0,-5.3359947204589835,0.4881358444690704,-8.097311973571777
1101,117100.0,-5.3359947204589835,0.4881358444690704,-8.097311973571777
1102,117200.0,-5.326423168182373,0.4809573292732239,-8.135597229003906
1103,117300.0,-5.326423168182373,0.4809573292732239,-8.135597229003906
1104,117400.0,-5.345565319061278,0.5670989155769348,-8.13798999786377
1105,117500.0,-5.345565319061278,0.5670989155769348,-8.13798999786377
1106,117600.0,-5.345565319061278,0.552742063999176,-8.157133102416992
1107,117700.0,-5.345565319061278,0.552742063999176,-8.157133102416992
1108,117800.0,-5.345565319061278,0.552742063999176,-8.157133102416992
1109,117900.0,-5.345565319061278,0.5168496966362001,-8.123632431030272
1110,118000.0,-5.345565319061278,0.5168496966362001,-8.123632431030272
1111,118100.0,-5.31685209274292,0.4642075896263122,-8.166703224182129
1112,118200.0,-5.31685209274292,0.4642075896263122,-8.166703224182129
1113,118300.0,-5.3359947204589835,0.5072783827781677,-8.188239097595215
1114,118400.0,-5.3359947204589835,0.5072783827781677,-8.188239097595215
1115,118500.0,-5.288137912750244,0.5264209508895874,-8.171488761901855
1116,118600.0,-5.288137912750244,0.5264209508895874,-8.171488761901855
1117,118700.0,-5.340780735015869,0.5000999569892883,-8.178668022155763
1118,118800.0,-5.340780735015869,0.5000999569892883,-8.178668022155763
1119,118900.0,-5.340780735015869,0.5000999569892883,-8.178668022155763
1120,119000.0,-5.326423168182373,0.5000999569892883,-8.169095993041992
1121,119100.0,-5.326423168182373,0.5000999569892883,-8.169095993041992
1122,119200.0,-5.31685209274292,0.5048855543136597,-8.166703224182129
1123,119300.0,-5.31685209274292,0.5048855543136597,-8.166703224182129
1124,119400.0,-5.326423168182373,0.5096712112426758,-8.161917686462402
1125,119500.0,-5.326423168182373,0.5096712112426758,-8.161917686462402
1126,119600.0,-5.326423168182373,0.5096712112426758,-8.161917686462402
1127,119700.0,-5.331209182739258,0.5048855543136597,-8.166703224182129
1128,119800.0,-5.331209182739258,0.5048855543136597,-8.166703224182129
1129,119900.0,-5.3359947204589835,0.4977070987224579,-8.159524917602539
1130,120000.0,-5.3359947204589835,0.4977070987224579,-8.159524917602539
1131,120100.0,-5.37906551361084,0.5240281224250793,-8.130810737609862
1132,120200.0,-5.37906551361084,0.5240281224250793,-8.130810737609862
1133,120300.0,-5.37906551361084,0.5240281224250793,-8.130810737609862
1134,120400.0,-5.326423168182373,0.4689932465553284,-8.11406135559082
1135,120500.0,-5.326423168182373,0.4689932465553284,-8.11406135559082
1136,120600.0,-5.331209182739258,0.4833501875400543,-8.164310455322267
1137,120700.0,-5.331209182739258,0.4833501875400543,-8.164310455322267
1138,120800.0,-5.345565319061278,0.5264209508895874,-8.171488761901855
1139,120900.0,-5.345565319061278,0.5264209508895874,-8.171488761901855
1140,121000.0,-5.345565319061278,0.5264209508895874,-8.171488761901855
1141,121100.0,-5.340780735015869,0.5479563474655151,-8.109275817871094
1142,121200.0,-5.340780735015869,0.5479563474655151,-8.109275817871094
1143,121300.0,-5.326423168182373,0.5000999569892883,-8.149953842163086
1144,121400.0,-5.326423168182373,0.5000999569892883,-8.149953842163086
1145,121500.0,-5.350350856781006,0.5096712112426758,-8.149953842163086
1146,121600.0,-5.350350856781006,0.5096712112426758,-8.149953842163086
1147,121700.0,-5.321637630462647,0.5335994362831116,-8.188239097595215
1148,121800.0,-5.321637630462647,0.5335994362831116,-8.188239097595215
1149,121900.0,-5.350350856781006,0.5455635190010071,-8.123632431030272
1150,122000.0,-5.350350856781006,0.5455635190010071,-8.123632431030272
1151,122100.0,-5.350350856781006,0.5455635190010071,-8.123632431030272
1152,122200.0,-5.31685209274292,0.5335994362831116,-8.178668022155763
1153,122300.0,-5.31685209274292,0.5335994362831116,-8.178668022155763
1154,122400.0,-5.331209182739258,0.4594219326972962,-8.166703224182129
1155,122500.0,-5.331209182739258,0.4594219326972962,-8.166703224182129
1156,122600.0,-5.331209182739258,0.4594219326972962,-8.166703224182129
1157,122700.0,-5.321637630462647,0.5359922647476196,-8.13798999786377
1158,122800.0,-5.321637630462647,0.5359922647476196,-8.13798999786377
1159,122900.0,-5.37906551361084,0.4881358444690704,-8.133204460144043
1160,123000.0,-5.37906551361084,0.4881358444690704,-8.133204460144043
1161,123100.0,-5.297709465026856,0.5048855543136597,-8.178668022155763
1162,123200.0,-5.297709465026856,0.5048855543136597,-8.178668022155763
1163,123300.0,-5.321637630462647,0.4905286431312561,-8.166703224182129
1164,123400.0,-5.321637630462647,0.4905286431312561,-8.166703224182129
1165,123500.0,-5.321637630462647,0.5000999569892883,-8.149953842163086
1166,123600.0,-5.321637630462647,0.5000999569892883,-8.149953842163086
1167,123700.0,-5.321637630462647,0.5000999569892883,-8.149953842163086
1168,123800.0,-5.297709465026856,0.4666004180908203,-8.185846328735353
1169,123900.0,-5.297709465026856,0.4666004180908203,-8.185846328735353
1170,124000.0,-5.340780735015869,0.5335994362831116,-8.102097511291504
1171,124100.0,-5.340780735015869,0.5335994362831116,-8.102097511291504
1172,124200.0,-5.302494525909424,0.552742063999176,-8.157133102416992
1173,124300.0,-5.302494525909424,0.552742063999176,-8.157133102416992
1174,124400.0,-5.302494525909424,0.552742063999176,-8.157133102416992
1175,124500.0,-5.31685209274292,0.5072783827781677,-8.188239097595215
1176,124600.0,-5.31685209274292,0.5072783827781677,-8.188239097595215
1177,124700.0,-5.4077792167663565,0.4666004180908203,-8.109275817871094
1178,124800.0,-5.4077792167663565,0.4666004180908203,-8.109275817871094
1179,124900.0,-5.3551368713378915,0.5455635190010071,-8.140382766723633
1180,125000.0,-5.3551368713378915,0.5455635190010071,-8.140382766723633
1181,125100.0,-5.42692232131958,0.5647061467170715,-8.068597793579103
1182,125200.0,-5.42692232131958,0.5647061467170715,-8.068597793579103
1183,125300.0,-5.441278457641602,0.5407779216766357,-8.039883613586426
1184,125400.0,-5.441278457641602,0.5407779216766357,-8.039883613586426
1185,125500.0,-5.441278457641602,0.5407779216766357,-8.039883613586426
1186,125600.0,-5.50349235534668,0.605384111404419,-8.039883613586426
1187,125700.0,-5.50349235534668,0.605384111404419,-8.039883613586426
1188,125800.0,-5.513063907623291,0.6029912829399109,-7.984848976135254
1189,125900.0,-5.513063907623291,0.6029912829399109,-7.984848976135254
1190,126000.0,-5.513063907623291,0.6029912829399109,-7.984848976135254
1191,126100.0,-5.565705299377441,0.5910272002220154,-7.994420051574707
1192,126200.0,-5.565705299377441,0.5910272002220154,-7.994420051574707
1193,126300.0,-5.532205581665039,0.6364907622337341,-7.999206066131593
1194,126400.0,-5.532205581665039,0.6364907622337341,-7.999206066131593
1195,126500.0,-5.508277893066406,0.6149553656578064,-8.011170387268066
1196,126600.0,-5.508277893066406,0.6149553656578064,-8.011170387268066
1197,126700.0,-5.508277893066406,0.6149553656578064,-8.011170387268066
1198,126800.0,-5.45563554763794,0.5718846321105957,-8.075776100158691
1199,126900.0,-5.45563554763794,0.5718846321105957,-8.075776100158691
1200,127000.0,-5.42692232131958,0.5120640397071838,-8.126025199890138
1201,127100.0,-5.42692232131958,0.5120640397071838,-8.126025199890138
1202,127200.0,-5.42692232131958,0.5120640397071838,-8.126025199890138
1203,127300.0,-5.39342212677002,0.5599204897880554,-8.099704742431639
1204,127400.0,-5.39342212677002,0.5599204897880554,-8.099704742431639
1205,127500.0,-5.3694939613342285,0.5479563474655151,-8.142775535583496
1206,127600.0,-5.3694939613342285,0.5479563474655151,-8.142775535583496
1207,127700.0,-5.39342212677002,0.5503491759300232,-8.133204460144043
1208,127800.0,-5.39342212677002,0.5503491759300232,-8.133204460144043
1209,127900.0,-5.39342212677002,0.5503491759300232,-8.133204460144043
1210,128000.0,-5.388636112213135,0.5910272002220154,-8.135597229003906
1211,128100.0,-5.388636112213135,0.5910272002220154,-8.135597229003906
1212,128200.0,-5.374279499053955,0.5431707501411438,-8.11406135559082
1213,128300.0,-5.374279499053955,0.5431707501411438,-8.11406135559082
1214,128400.0,-5.3551368713378915,0.5264209508895874,-8.10688304901123
1215,128500.0,-5.3551368713378915,0.5264209508895874,-8.10688304901123
1216,128600.0,-5.3551368713378915,0.5264209508895874,-8.10688304901123
1217,128700.0,-5.4077792167663565,0.6245267391204834,-8.149953842163086
1218,128800.0,-5.4077792167663565,0.6245267391204834,-8.149953842163086
1219,128900.0,-5.259423732757568,0.5647061467170715,-8.243274688720701
1220,129000.0,-5.259423732757568,0.5647061467170715,-8.243274688720701
1221,129100.0,-5.42692232131958,0.5934200286865234,-8.204988479614258
1222,129200.0,-5.42692232131958,0.5934200286865234,-8.204988479614258
1223,129300.0,-5.50349235534668,0.6652047038078308,-7.960920810699463
1224,129400.0,-5.50349235534668,0.6652047038078308,-7.960920810699463
1225,129500.0,-5.42692232131958,0.6245267391204834,-8.068597793579103
1226,129600.0,-5.42692232131958,0.6245267391204834,-8.068597793579103
1227,129700.0,-5.42692232131958,0.6245267391204834,-8.068597793579103
1228,129800.0,-5.484349250793457,0.6556334495544434,-7.982456684112549
1229,129900.0,-5.484349250793457,0.6556334495544434,-7.982456684112549
1230,130000.0,-5.412564754486084,0.5479563474655151,-8.063812255859375
1231,130100.0,-5.412564754486084,0.5479563474655151,-8.063812255859375
1232,130200.0,-5.441278457641602,0.6221339106559753,-8.018348693847656
1233,130300.0,-5.441278457641602,0.6221339106559753,-8.018348693847656
1234,130400.0,-5.359922409057617,0.6747759580612183,-8.097311973571777
1235,130500.0,-5.359922409057617,0.6747759580612183,-8.097311973571777
1236,130600.0,-5.359922409057617,0.6747759580612183,-8.097311973571777
1237,130700.0,-5.4795637130737305,0.6149553656578064,-8.087740898132324
1238,130800.0,-5.4795637130737305,0.6149553656578064,-8.087740898132324
1239,130900.0,-5.3694939613342285,0.7274181246757507,-8.10688304901123
1240,131000.0,-5.3694939613342285,0.7274181246757507,-8.10688304901123
1241,131100.0,-5.42692232131958,0.6340980529785156,-8.070990562438965
1242,131200.0,-5.42692232131958,0.6340980529785156,-8.070990562438965
1243,131300.0,-5.42692232131958,0.6340980529785156,-8.070990562438965
1244,131400.0,-5.43170690536499,0.5934200286865234,-8.068597793579103
1245,131500.0,-5.43170690536499,0.5934200286865234,-8.068597793579103
1246,131600.0,-5.446063995361328,0.5886343717575073,-8.094919204711914
1247,131700.0,-5.446063995361328,0.5886343717575073,-8.094919204711914
1248,131800.0,-5.412564754486084,0.6843472719192505,-8.11406135559082
1249,131900.0,-5.412564754486084,0.6843472719192505,-8.11406135559082
1250,132000.0,-5.412564754486084,0.6843472719192505,-8.11406135559082
1251,132100.0,-5.39342212677002,0.605384111404419,-8.070990562438965
1252,132200.0,-5.39342212677002,0.605384111404419,-8.070990562438965
1253,132300.0,-5.4077792167663565,0.605384111404419,-8.116454124450684
1254,132400.0,-5.4077792167663565,0.605384111404419,-8.116454124450684
1255,132500.0,-5.302494525909424,0.6293123364448547,-8.142775535583496
1256,132600.0,-5.302494525909424,0.6293123364448547,-8.142775535583496
1257,132700.0,-5.383851051330566,0.6317051649093628,-8.001599311828612
1258,132800.0,-5.383851051330566,0.6317051649093628,-8.001599311828612
1259,132900.0,-5.383851051330566,0.6317051649093628,-8.001599311828612
1260,133000.0,-5.388636112213135,0.6652047038078308,-8.104490280151367
1261,133100.0,-5.388636112213135,0.6652047038078308,-8.104490280151367
1262,133200.0,-5.450850009918213,0.6364907622337341,-8.104490280151367
1263,133300.0,-5.450850009918213,0.6364907622337341,-8.104490280151367
1264,133400.0,-5.359922409057617,0.6460621356964111,-8.116454124450684
1265,133500.0,-5.359922409057617,0.6460621356964111,-8.116454124450684
1266,133600.0,-5.412564754486084,0.6245267391204834,-8.104490280151367
1267,133700.0,-5.412564754486084,0.6245267391204834,-8.104490280151367
1268,133800.0,-5.412564754486084,0.6245267391204834,-8.104490280151367
1269,133900.0,-5.37906551361084,0.6460621356964111,-8.152346611022951
1270,134000.0,-5.37906551361084,0.6460621356964111,-8.152346611022951
1271,134100.0,-5.417350769042969,0.605384111404419,-8.059026718139647
1272,134200.0,-5.417350769042969,0.605384111404419,-8.059026718139647
1273,134300.0,-5.417350769042969,0.605384111404419,-8.059026718139647
1274,134400.0,-5.359922409057617,0.6173481941223145,-8.066205024719237
1275,134500.0,-5.359922409057617,0.6173481941223145,-8.066205024719237
1276,134600.0,-5.340780735015869,0.5575276613235474,-8.176274299621582
1277,134700.0,-5.340780735015869,0.5575276613235474,-8.176274299621582
1278,134800.0,-5.388636112213135,0.5838487148284912,-8.070990562438965
1279,134900.0,-5.388636112213135,0.5838487148284912,-8.070990562438965
1280,135000.0,-5.388636112213135,0.5838487148284912,-8.070990562438965
1281,135100.0,-5.388636112213135,0.607776939868927,-8.154739379882812
1282,135200.0,-5.388636112213135,0.607776939868927,-8.154739379882812
1283,135300.0,-5.321637630462647,0.5742774605751038,-8.135597229003906
1284,135400.0,-5.321637630462647,0.5742774605751038,-8.135597229003906
1285,135500.0,-5.321637630462647,0.5742774605751038,-8.135597229003906
1286,135600.0,-5.374279499053955,0.6484549045562744,-8.161917686462402
1287,135700.0,-5.374279499053955,0.6484549045562744,-8.161917686462402
1288,135800.0,-5.374279499053955,0.6364907622337341,-8.135597229003906
1289,135900.0,-5.374279499053955,0.6364907622337341,-8.135597229003906
1290,136000.0,-5.37906551361084,0.6508477926254272,-8.116454124450684
1291,136100.0,-5.37906551361084,0.6508477926254272,-8.116454124450684
1292,136200.0,-5.37906551361084,0.6508477926254272,-8.116454124450684
1293,136300.0,-5.331209182739258,0.6005984544754028,-8.133204460144043
1294,136400.0,-5.331209182739258,0.6005984544754028,-8.133204460144043
1295,136500.0,-5.39342212677002,0.6747759580612183,-8.102097511291504
1296,136600.0,-5.39342212677002,0.6747759580612183,-8.102097511291504
1297,136700.0,-5.39342212677002,0.6747759580612183,-8.102097511291504
1298,136800.0,-5.3359947204589835,0.6340980529785156,-8.126025199890138
1299,136900.0,-5.3359947204589835,0.6340980529785156,-8.126025199890138
1300,137000.0,-5.273780822753906,0.6173481941223145,-8.12123966217041
1301,137100.0,-5.273780822753906,0.6173481941223145,-8.12123966217041
1302,137200.0,-5.388636112213135,0.6245267391204834,-8.104490280151367
1303,137300.0,-5.388636112213135,0.6245267391204834,-8.104490280151367
1304,137400.0,-5.3359947204589835,0.5503491759300232,-8.073383331298826
1305,137500.0,-5.3359947204589835,0.5503491759300232,-8.073383331298826
1306,137600.0,-5.37906551361084,0.6436693072319031,-8.12841796875
1307,137700.0,-5.37906551361084,0.6436693072319031,-8.12841796875
1308,137800.0,-5.37906551361084,0.6436693072319031,-8.12841796875
1309,137900.0,-5.3359947204589835,0.6245267391204834,-8.054241180419924
1310,138000.0,-5.3359947204589835,0.6245267391204834,-8.054241180419924
1311,138100.0,-5.383851051330566,0.5742774605751038,-8.149953842163086
1312,138200.0,-5.383851051330566,0.5742774605751038,-8.149953842163086
1313,138300.0,-5.383851051330566,0.5742774605751038,-8.149953842163086
1314,138400.0,-5.3551368713378915,0.6388836503028871,-8.11406135559082
1315,138500.0,-5.3551368713378915,0.6388836503028871,-8.11406135559082
1316,138600.0,-5.383851051330566,0.6867401003837585,-8.078168869018555
1317,138700.0,-5.383851051330566,0.6867401003837585,-8.078168869018555
1318,138800.0,-5.39342212677002,0.6867401003837585,-8.027919769287111
1319,138900.0,-5.39342212677002,0.6867401003837585,-8.027919769287111
1320,139000.0,-5.37906551361084,0.705882728099823,-8.056633949279785
1321,139100.0,-5.37906551361084,0.705882728099823,-8.056633949279785
1322,139200.0,-5.37906551361084,0.6652047038078308,-8.099704742431639
1323,139300.0,-5.37906551361084,0.6652047038078308,-8.099704742431639
1324,139400.0,-5.37906551361084,0.6652047038078308,-8.099704742431639
1325,139500.0,-5.398207664489746,0.662811815738678,-8.061419486999513
1326,139600.0,-5.398207664489746,0.662811815738678,-8.061419486999513
1327,139700.0,-5.388636112213135,0.672383189201355,-8.059026718139647
1328,139800.0,-5.388636112213135,0.672383189201355,-8.059026718139647
1329,139900.0,-5.388636112213135,0.672383189201355,-8.059026718139647
1330,140000.0,-5.37906551361084,0.6221339106559753,-8.104490280151367
1331,140100.0,-5.37906551361084,0.6221339106559753,-8.104490280151367
1332,140200.0,-5.398207664489746,0.672383189201355,-8.13798999786377
1333,140300.0,-5.398207664489746,0.672383189201355,-8.13798999786377
1334,140400.0,-5.326423168182373,0.6771688461303711,-8.152346611022951
1335,140500.0,-5.326423168182373,0.6771688461303711,-8.152346611022951
1336,140600.0,-5.326423168182373,0.6771688461303711,-8.152346611022951
1337,140700.0,-5.326423168182373,0.6675975918769836,-8.063812255859375
1338,140800.0,-5.326423168182373,0.6675975918769836,-8.063812255859375
1339,140900.0,-5.3359947204589835,0.6460621356964111,-8.116454124450684
1340,141000.0,-5.3359947204589835,0.6460621356964111,-8.116454124450684
1341,141100.0,-5.364708423614502,0.6412764191627502,-8.073383331298826
1342,141200.0,-5.364708423614502,0.6412764191627502,-8.073383331298826
1343,141300.0,-5.364708423614502,0.6412764191627502,-8.073383331298826
1344,141400.0,-5.345565319061278,0.6388836503028871,-8.145168304443361
1345,141500.0,-5.345565319061278,0.6388836503028871,-8.145168304443361
1346,141600.0,-5.383851051330566,0.6245267391204834,-8.12841796875
1347,141700.0,-5.383851051330566,0.6245267391204834,-8.12841796875
1348,141800.0,-5.402993679046631,0.6029912829399109,-8.111669540405272
1349,141900.0,-5.402993679046631,0.6029912829399109,-8.111669540405272
1350,142000.0,-5.350350856781006,0.7393822073936462,-8.216952323913574
1351,142100.0,-5.350350856781006,0.7393822073936462,-8.216952323913574
1352,142200.0,-5.307280540466309,0.6819544434547424,-8.135597229003906
1353,142300.0,-5.307280540466309,0.6819544434547424,-8.135597229003906
1354,142400.0,-5.307280540466309,0.6819544434547424,-8.135597229003906
1355,142500.0,-5.307280540466309,0.6580261588096619,-8.154739379882812
1356,142600.0,-5.307280540466309,0.6580261588096619,-8.154739379882812
1357,142700.0,-5.340780735015869,0.6340980529785156,-8.099704742431639
1358,142800.0,-5.340780735015869,0.6340980529785156,-8.099704742431639
1359,142900.0,-5.4077792167663565,0.6388836503028871,-8.12841796875
1360,143000.0,-5.4077792167663565,0.6388836503028871,-8.12841796875
1361,143100.0,-5.3551368713378915,0.672383189201355,-8.109275817871094
1362,143200.0,-5.3551368713378915,0.672383189201355,-8.109275817871094
1363,143300.0,-5.3551368713378915,0.672383189201355,-8.109275817871094
1364,143400.0,-5.364708423614502,0.6532405614852905,-8.12841796875
1365,143500.0,-5.364708423614502,0.6532405614852905,-8.12841796875
1366,143600.0,-5.388636112213135,0.7704889178276062,-7.975277900695801
1367,143700.0,-5.388636112213135,0.7704889178276062,-7.975277900695801
1368,143800.0,-5.388636112213135,0.7704889178276062,-7.975277900695801
1369,143900.0,-5.4077792167663565,0.6843472719192505,-8.039883613586426
1370,144000.0,-5.4077792167663565,0.6843472719192505,-8.039883613586426
1371,144100.0,-5.3694939613342285,0.7154539823532104,-8.068597793579103
1372,144200.0,-5.3694939613342285,0.7154539823532104,-8.068597793579103
1373,144300.0,-5.345565319061278,0.6867401003837585,-8.154739379882812
1374,144400.0,-5.345565319061278,0.6867401003837585,-8.154739379882812
1375,144500.0,-5.383851051330566,0.6915256977081299,-8.027919769287111
1376,144600.0,-5.383851051330566,0.6915256977081299,-8.027919769287111
1377,144700.0,-5.402993679046631,0.662811815738678,-8.111669540405272
1378,144800.0,-5.402993679046631,0.662811815738678,-8.111669540405272
1379,144900.0,-5.402993679046631,0.662811815738678,-8.111669540405272
1380,145000.0,-5.37906551361084,0.6412764191627502,-8.118846893310549
1381,145100.0,-5.37906551361084,0.6412764191627502,-8.118846893310549
1382,145200.0,-5.374279499053955,0.6245267391204834,-8.11406135559082
1383,145300.0,-5.374279499053955,0.6245267391204834,-8.11406135559082
1384,145400.0,-5.374279499053955,0.6245267391204834,-8.11406135559082
1385,145500.0,-5.350350856781006,0.6532405614852905,-8.171488761901855
1386,145600.0,-5.350350856781006,0.6532405614852905,-8.171488761901855
1387,145700.0,-5.326423168182373,0.696311354637146,-8.104490280151367
1388,145800.0,-5.326423168182373,0.696311354637146,-8.104490280151367
1389,145900.0,-5.345565319061278,0.7322037816047668,-8.118846893310549
1390,146000.0,-5.345565319061278,0.7322037816047668,-8.118846893310549
1391,146100.0,-5.345565319061278,0.7322037816047668,-8.118846893310549
1392,146200.0,-5.345565319061278,0.7513462901115417,-8.087740898132324
1393,146300.0,-5.345565319061278,0.7513462901115417,-8.087740898132324
1394,146400.0,-5.273780822753906,0.6125625967979431,-8.169095993041992
1395,146500.0,-5.273780822753906,0.6125625967979431,-8.169095993041992
1396,146600.0,-5.273780822753906,0.6125625967979431,-8.169095993041992
1397,146700.0,-5.326423168182373,0.6532405614852905,-8.109275817871094
1398,146800.0,-5.326423168182373,0.6532405614852905,-8.109275817871094
1399,146900.0,-5.364708423614502,0.6532405614852905,-8.11406135559082
1400,147000.0,-5.364708423614502,0.6532405614852905,-8.11406135559082
1401,147100.0,-5.307280540466309,0.7274181246757507,-8.126025199890138
1402,147200.0,-5.307280540466309,0.7274181246757507,-8.126025199890138
1403,147300.0,-5.326423168182373,0.6843472719192505,-8.159524917602539
1404,147400.0,-5.326423168182373,0.6843472719192505,-8.159524917602539
1405,147500.0,-5.326423168182373,0.6843472719192505,-8.159524917602539
1406,147600.0,-5.297709465026856,0.6699903011322021,-8.11406135559082
1407,147700.0,-5.297709465026856,0.6699903011322021,-8.11406135559082
1408,147800.0,-5.345565319061278,0.6460621356964111,-8.087740898132324
1409,147900.0,-5.345565319061278,0.6460621356964111,-8.087740898132324
1410,148000.0,-5.3359947204589835,0.6125625967979431,-8.12841796875
1411,148100.0,-5.3359947204589835,0.6125625967979431,-8.12841796875
1412,148200.0,-5.350350856781006,0.6675975918769836,-8.200202941894531
1413,148300.0,-5.350350856781006,0.6675975918769836,-8.200202941894531
1414,148400.0,-5.3694939613342285,0.7250252366065979,-8.147561073303223
1415,148500.0,-5.3694939613342285,0.7250252366065979,-8.147561073303223
1416,148600.0,-5.37906551361084,0.7274181246757507,-8.152346611022951
1417,148700.0,-5.37906551361084,0.7274181246757507,-8.152346611022951
1418,148800.0,-5.37906551361084,0.7274181246757507,-8.152346611022951
1419,148900.0,-5.402993679046631,0.729810893535614,-8.02074146270752
1420,149000.0,-5.402993679046631,0.729810893535614,-8.02074146270752
1421,149100.0,-5.37906551361084,0.729810893535614,-8.085347175598145
1422,149200.0,-5.37906551361084,0.729810893535614,-8.085347175598145
1423,149300.0,-5.37906551361084,0.729810893535614,-8.085347175598145
1424,149400.0,-5.364708423614502,0.672383189201355,-8.13798999786377
1425,149500.0,-5.364708423614502,0.672383189201355,-8.13798999786377
1426,149600.0,-5.4077792167663565,0.7250252366065979,-8.116454124450684
1427,149700.0,-5.4077792167663565,0.7250252366065979,-8.116454124450684
1428,149800.0,-5.3551368713378915,0.6604190468788147,-8.102097511291504
1429,149900.0,-5.3551368713378915,0.6604190468788147,-8.102097511291504
1430,150000.0,-5.3551368713378915,0.6604190468788147,-8.102097511291504
1431,150100.0,-5.37906551361084,0.6460621356964111,-8.12123966217041
1432,150200.0,-5.37906551361084,0.6460621356964111,-8.12123966217041
1433,150300.0,-5.350350856781006,0.6747759580612183,-8.116454124450684
1434,150400.0,-5.350350856781006,0.6747759580612183,-8.116454124450684
1435,150500.0,-5.4077792167663565,0.6508477926254272,-8.116454124450684
1436,150600.0,-5.4077792167663565,0.6508477926254272,-8.116454124450684
1437,150700.0,-5.383851051330566,0.6508477926254272,-8.104490280151367
1438,150800.0,-5.383851051330566,0.6508477926254272,-8.104490280151367
1439,150900.0,-5.3694939613342285,0.6699903011322021,-8.145168304443361
1440,151000.0,-5.3694939613342285,0.6699903011322021,-8.145168304443361
1441,151100.0,-5.3694939613342285,0.6699903011322021,-8.145168304443361
1442,151200.0,-5.402993679046631,0.7393822073936462,-8.116454124450684
1443,151300.0,-5.402993679046631,0.7393822073936462,-8.116454124450684
1444,151400.0,-5.3551368713378915,0.672383189201355,-8.078168869018555
1445,151500.0,-5.3551368713378915,0.672383189201355,-8.078168869018555
1446,151600.0,-5.402993679046631,0.6915256977081299,-8.13798999786377
1447,151700.0,-5.402993679046631,0.6915256977081299,-8.13798999786377
1448,151800.0,-5.345565319061278,0.763310432434082,-8.140382766723633
1449,151900.0,-5.345565319061278,0.763310432434082,-8.140382766723633
1450,152000.0,-5.345565319061278,0.763310432434082,-8.140382766723633
1451,152100.0,-5.302494525909424,0.6843472719192505,-8.080562591552733
1452,152200.0,-5.302494525909424,0.6843472719192505,-8.080562591552733
1453,152300.0,-5.31685209274292,0.6771688461303711,-8.142775535583496
1454,152400.0,-5.31685209274292,0.6771688461303711,-8.142775535583496
1455,152500.0,-5.31685209274292,0.6771688461303711,-8.142775535583496
1456,152600.0,-5.374279499053955,0.6987042427062988,-8.094919204711914
1457,152700.0,-5.374279499053955,0.6987042427062988,-8.094919204711914
1458,152800.0,-5.321637630462647,0.6556334495544434,-8.118846893310549
1459,152900.0,-5.321637630462647,0.6556334495544434,-8.118846893310549
1460,153000.0,-5.3694939613342285,0.6508477926254272,-8.166703224182129
1461,153100.0,-5.3694939613342285,0.6508477926254272,-8.166703224182129
1462,153200.0,-5.3694939613342285,0.6508477926254272,-8.166703224182129
1463,153300.0,-5.359922409057617,0.6819544434547424,-8.126025199890138
1464,153400.0,-5.359922409057617,0.6819544434547424,-8.126025199890138
1465,153500.0,-5.312066078186035,0.7082754969596863,-8.061419486999513
1466,153600.0,-5.312066078186035,0.7082754969596863,-8.061419486999513
1467,153700.0,-5.312066078186035,0.7082754969596863,-8.061419486999513
1468,153800.0,-5.388636112213135,0.6819544434547424,-7.984848976135254
1469,153900.0,-5.388636112213135,0.6819544434547424,-7.984848976135254
1470,154000.0,-5.4077792167663565,0.7704889178276062,-8.056633949279785
1471,154100.0,-5.4077792167663565,0.7704889178276062,-8.056633949279785
1472,154200.0,-5.465207099914551,0.7250252366065979,-8.066205024719237
1473,154300.0,-5.465207099914551,0.7250252366065979,-8.066205024719237
1474,154400.0,-5.4077792167663565,0.7489535212516785,-8.094919204711914
1475,154500.0,-5.4077792167663565,0.7489535212516785,-8.094919204711914
1476,154600.0,-5.4077792167663565,0.7489535212516785,-8.094919204711914
1477,154700.0,-5.364708423614502,0.784845769405365,-8.051848411560059
1478,154800.0,-5.364708423614502,0.784845769405365,-8.051848411560059
1479,154900.0,-5.388636112213135,0.6556334495544434,-8.104490280151367
1480,155000.0,-5.388636112213135,0.6556334495544434,-8.104490280151367
1481,155100.0,-5.383851051330566,0.729810893535614,-8.035098075866701
1482,155200.0,-5.383851051330566,0.729810893535614,-8.035098075866701
1483,155300.0,-5.359922409057617,0.7561319470405579,-8.161917686462402
1484,155400.0,-5.359922409057617,0.7561319470405579,-8.161917686462402
1485,155500.0,-5.359922409057617,0.7561319470405579,-8.161917686462402
1486,155600.0,-5.39342212677002,0.6484549045562744,-8.126025199890138
1487,155700.0,-5.39342212677002,0.6484549045562744,-8.126025199890138
1488,155800.0,-5.3551368713378915,0.7034898400306702,-8.063812255859375
1489,155900.0,-5.3551368713378915,0.7034898400306702,-8.063812255859375
1490,156000.0,-5.388636112213135,0.7322037816047668,-8.149953842163086
1491,156100.0,-5.388636112213135,0.7322037816047668,-8.149953842163086
1492,156200.0,-5.345565319061278,0.6412764191627502,-8.118846893310549
1493,156300.0,-5.345565319061278,0.6412764191627502,-8.118846893310549
1494,156400.0,-5.345565319061278,0.6412764191627502,-8.118846893310549
1495,156500.0,-5.345565319061278,0.696311354637146,-8.102097511291504
1496,156600.0,-5.345565319061278,0.696311354637146,-8.102097511291504
1497,156700.0,-5.364708423614502,0.6867401003837585,-8.133204460144043
1498,156800.0,-5.364708423614502,0.6867401003837585,-8.133204460144043
1499,156900.0,-5.3694939613342285,0.7609176039695741,-8.118846893310549
1500,157000.0,-5.3694939613342285,0.7609176039695741,-8.118846893310549
1501,157100.0,-5.3694939613342285,0.7609176039695741,-8.118846893310549
1502,157200.0,-5.374279499053955,0.6867401003837585,-8.087740898132324
1503,157300.0,-5.374279499053955,0.6867401003837585,-8.087740898132324
1504,157400.0,-5.340780735015869,0.7178468108177185,-8.123632431030272
1505,157500.0,-5.340780735015869,0.7178468108177185,-8.123632431030272
1506,157600.0,-5.3359947204589835,0.7226324081420898,-8.13798999786377
1507,157700.0,-5.3359947204589835,0.7226324081420898,-8.13798999786377
1508,157800.0,-5.3694939613342285,0.7106683850288391,-8.10688304901123
1509,157900.0,-5.3694939613342285,0.7106683850288391,-8.10688304901123
1510,158000.0,-5.3694939613342285,0.7106683850288391,-8.10688304901123
1511,158100.0,-5.402993679046631,0.7345964908599854,-8.032705307006836
1512,158200.0,-5.402993679046631,0.7345964908599854,-8.032705307006836
1513,158300.0,-5.321637630462647,0.7250252366065979,-8.130810737609862
1514,158400.0,-5.321637630462647,0.7250252366065979,-8.130810737609862
1515,158500.0,-5.321637630462647,0.7250252366065979,-8.130810737609862
1516,158600.0,-5.307280540466309,0.6843472719192505,-8.176274299621582
1517,158700.0,-5.307280540466309,0.6843472719192505,-8.176274299621582
1518,158800.0,-5.331209182739258,0.7417750358581543,-8.10688304901123
1519,158900.0,-5.331209182739258,0.7417750358581543,-8.10688304901123
1520,159000.0,-5.307280540466309,0.6221339106559753,-8.24566650390625
1521,159100.0,-5.307280540466309,0.6221339106559753,-8.24566650390625
1522,159200.0,-5.307280540466309,0.6221339106559753,-8.24566650390625
1523,159300.0,-5.402993679046631,0.7034898400306702,-8.051848411560059
1524,159400.0,-5.402993679046631,0.7034898400306702,-8.051848411560059
1525,159500.0,-5.398207664489746,0.7226324081420898,-8.157133102416992
1526,159600.0,-5.398207664489746,0.7226324081420898,-8.157133102416992
1527,159700.0,-5.37906551361084,0.7513462901115417,-8.178668022155763
1528,159800.0,-5.37906551361084,0.7513462901115417,-8.178668022155763
1529,159900.0,-5.340780735015869,0.6675975918769836,-8.090132713317871
1530,160000.0,-5.340780735015869,0.6675975918769836,-8.090132713317871
1531,160100.0,-5.340780735015869,0.6675975918769836,-8.090132713317871
1532,160200.0,-5.259423732757568,0.7728817462921143,-8.152346611022951
1533,160300.0,-5.259423732757568,0.7728817462921143,-8.152346611022951
1534,160400.0,-5.331209182739258,0.6460621356964111,-8.147561073303223
1535,160500.0,-5.331209182739258,0.6460621356964111,-8.147561073303223
1536,160600.0,-5.402993679046631,0.6460621356964111,-8.061419486999513
1537,160700.0,-5.402993679046631,0.6460621356964111,-8.061419486999513
1538,160800.0,-5.402993679046631,0.6460621356964111,-8.061419486999513
1539,160900.0,-5.326423168182373,0.7561319470405579,-8.10688304901123
1540,161000.0,-5.326423168182373,0.7561319470405579,-8.10688304901123
1541,161100.0,-5.31685209274292,0.7393822073936462,-8.142775535583496
1542,161200.0,-5.31685209274292,0.7393822073936462,-8.142775535583496
1543,161300.0,-5.3694939613342285,0.7920243144035339,-8.185846328735353
1544,161400.0,-5.3694939613342285,0.7920243144035339,-8.185846328735353
1545,161500.0,-5.3694939613342285,0.7920243144035339,-8.185846328735353
1546,161600.0,-5.326423168182373,0.7082754969596863,-8.188239097595215
1547,161700.0,-5.326423168182373,0.7082754969596863,-8.188239097595215
1548,161800.0,-5.436492443084717,0.8374879360198975,-7.968099594116211
1549,161900.0,-5.436492443084717,0.8374879360198975,-7.968099594116211
1550,162000.0,-5.3551368713378915,0.8039883971214294,-8.030312538146973
1551,162100.0,-5.3551368713378915,0.8039883971214294,-8.030312538146973
1552,162200.0,-5.3551368713378915,0.8039883971214294,-8.030312538146973
1553,162300.0,-5.398207664489746,0.7034898400306702,-8.11406135559082
1554,162400.0,-5.398207664489746,0.7034898400306702,-8.11406135559082
1555,162500.0,-5.350350856781006,0.7154539823532104,-8.135597229003906
1556,162600.0,-5.350350856781006,0.7154539823532104,-8.135597229003906
1557,162700.0,-5.345565319061278,0.6915256977081299,-8.13798999786377
1558,162800.0,-5.345565319061278,0.6915256977081299,-8.13798999786377
1559,162900.0,-5.345565319061278,0.6915256977081299,-8.13798999786377
1560,163000.0,-5.340780735015869,0.705882728099823,-8.133204460144043
1561,163100.0,-5.340780735015869,0.705882728099823,-8.133204460144043
1562,163200.0,-5.307280540466309,0.7968099117279053,-8.133204460144043
1563,163300.0,-5.307280540466309,0.7968099117279053,-8.133204460144043
1564,163400.0,-5.350350856781006,0.7537391781806946,-8.126025199890138
1565,163500.0,-5.350350856781006,0.7537391781806946,-8.126025199890138
1566,163600.0,-5.350350856781006,0.7537391781806946,-8.126025199890138
1567,163700.0,-5.312066078186035,0.7609176039695741,-8.145168304443361
1568,163800.0,-5.312066078186035,0.7609176039695741,-8.145168304443361
1569,163900.0,-5.307280540466309,0.7154539823532104,-8.149953842163086
1570,164000.0,-5.307280540466309,0.7154539823532104,-8.149953842163086
1571,164100.0,-5.331209182739258,0.7130610942840576,-8.221738815307617
1572,164200.0,-5.331209182739258,0.7130610942840576,-8.221738815307617
1573,164300.0,-5.31685209274292,0.8015955686569214,-8.090132713317871
1574,164400.0,-5.31685209274292,0.8015955686569214,-8.090132713317871
1575,164500.0,-5.31685209274292,0.8015955686569214,-8.090132713317871
1576,164600.0,-5.278566360473633,0.7585247755050659,-8.126025199890138
1577,164700.0,-5.278566360473633,0.7585247755050659,-8.126025199890138
1578,164800.0,-5.321637630462647,0.7106683850288391,-8.181060791015625
1579,164900.0,-5.321637630462647,0.7106683850288391,-8.181060791015625
1580,165000.0,-5.350350856781006,0.7776673436164856,-8.169095993041992
1581,165100.0,-5.350350856781006,0.7776673436164856,-8.169095993041992
1582,165200.0,-5.350350856781006,0.7776673436164856,-8.169095993041992
1583,165300.0,-5.3359947204589835,0.705882728099823,-8.13798999786377
1584,165400.0,-5.3359947204589835,0.705882728099823,-8.13798999786377
1585,165500.0,-5.3694939613342285,0.7010970115661621,-8.118846893310549
1586,165600.0,-5.3694939613342285,0.7010970115661621,-8.118846893310549
1587,165700.0,-5.312066078186035,0.7585247755050659,-8.176274299621582
1588,165800.0,-5.312066078186035,0.7585247755050659,-8.176274299621582
1589,165900.0,-5.292923927307129,0.7202396392822266,-8.118846893310549
1590,166000.0,-5.292923927307129,0.7202396392822266,-8.118846893310549
1591,166100.0,-5.307280540466309,0.7106683850288391,-8.085347175598145
1592,166200.0,-5.307280540466309,0.7106683850288391,-8.085347175598145
1593,166300.0,-5.307280540466309,0.7106683850288391,-8.085347175598145
1594,166400.0,-5.350350856781006,0.7010970115661621,-8.24566650390625
1595,166500.0,-5.350350856781006,0.7010970115661621,-8.24566650390625
1596,166600.0,-5.388636112213135,0.7130610942840576,-8.080562591552733
1597,166700.0,-5.388636112213135,0.7130610942840576,-8.080562591552733
1598,166800.0,-5.388636112213135,0.7130610942840576,-8.080562591552733
1599,166900.0,-5.331209182739258,0.7465606331825256,-8.118846893310549
1600,167000.0,-5.331209182739258,0.7465606331825256,-8.118846893310549
1601,167100.0,-5.345565319061278,0.7465606331825256,-8.118846893310549
1602,167200.0,-5.345565319061278,0.7465606331825256,-8.118846893310549
1603,167300.0,-5.345565319061278,0.8015955686569214,-8.10688304901123
1604,167400.0,-5.345565319061278,0.8015955686569214,-8.10688304901123
1605,167500.0,-5.3359947204589835,0.7082754969596863,-8.10688304901123
1606,167600.0,-5.3359947204589835,0.7082754969596863,-8.10688304901123
1607,167700.0,-5.388636112213135,0.7130610942840576,-8.090132713317871
1608,167800.0,-5.388636112213135,0.7130610942840576,-8.090132713317871
1609,167900.0,-5.273780822753906,0.7585247755050659,-8.190631866455076
1610,168000.0,-5.273780822753906,0.7585247755050659,-8.190631866455076
1611,168100.0,-5.273780822753906,0.7585247755050659,-8.190631866455076
1612,168200.0,-5.278566360473633,0.7489535212516785,-8.12841796875
1613,168300.0,-5.278566360473633,0.7489535212516785,-8.12841796875
1614,168400.0,-5.37906551361084,0.7824530005455017,-8.047062873840332
1615,168500.0,-5.37906551361084,0.7824530005455017,-8.047062873840332
1616,168600.0,-5.3694939613342285,0.8327022790908813,-8.13798999786377
1617,168700.0,-5.3694939613342285,0.8327022790908813,-8.13798999786377
1618,168800.0,-5.3694939613342285,0.8327022790908813,-8.13798999786377
1619,168900.0,-5.3694939613342285,0.8135597109794617,-8.061419486999513
1620,169000.0,-5.3694939613342285,0.8135597109794617,-8.061419486999513
1621,169100.0,-5.450850009918213,0.7561319470405579,-8.135597229003906
1622,169200.0,-5.450850009918213,0.7561319470405579,-8.135597229003906
1623,169300.0,-5.374279499053955,0.8063812851905823,-8.104490280151367
1624,169400.0,-5.374279499053955,0.8063812851905823,-8.104490280151367
1625,169500.0,-5.374279499053955,0.8063812851905823,-8.104490280151367
1626,169600.0,-5.398207664489746,0.8135597109794617,-8.12841796875
1627,169700.0,-5.398207664489746,0.8135597109794617,-8.12841796875
1628,169800.0,-5.388636112213135,0.8709874749183655,-8.145168304443361
1629,169900.0,-5.388636112213135,0.8709874749183655,-8.145168304443361
1630,170000.0,-5.350350856781006,0.7968099117279053,-8.042276382446289
1631,170100.0,-5.350350856781006,0.7968099117279053,-8.042276382446289
1632,170200.0,-5.26899528503418,0.8422735333442688,-8.149953842163086
1633,170300.0,-5.26899528503418,0.8422735333442688,-8.149953842163086
1634,170400.0,-5.26899528503418,0.8422735333442688,-8.149953842163086
1635,170500.0,-5.446063995361328,0.7585247755050659,-8.061419486999513
1636,170600.0,-5.446063995361328,0.7585247755050659,-8.061419486999513
1637,170700.0,-5.37906551361084,0.8709874749183655,-8.099704742431639
1638,170800.0,-5.37906551361084,0.8709874749183655,-8.099704742431639
1639,170900.0,-5.37906551361084,0.8709874749183655,-8.099704742431639
1640,171000.0,-5.345565319061278,0.7896314859390259,-8.02074146270752
1641,171100.0,-5.345565319061278,0.7896314859390259,-8.02074146270752
1642,171200.0,-5.326423168182373,0.818345308303833,-8.111669540405272
1643,171300.0,-5.326423168182373,0.818345308303833,-8.111669540405272
1644,171400.0,-5.3694939613342285,0.7728817462921143,-8.090132713317871
1645,171500.0,-5.3694939613342285,0.7728817462921143,-8.090132713317871
1646,171600.0,-5.312066078186035,0.8111668825149536,-8.195417404174805
1647,171700.0,-5.312066078186035,0.8111668825149536,-8.195417404174805
1648,171800.0,-5.312066078186035,0.8111668825149536,-8.195417404174805
1649,171900.0,-5.4077792167663565,0.7393822073936462,-8.066205024719237
1650,172000.0,-5.4077792167663565,0.7393822073936462,-8.066205024719237
1651,172100.0,-5.31685209274292,0.7274181246757507,-8.135597229003906
1652,172200.0,-5.31685209274292,0.7274181246757507,-8.135597229003906
1653,172300.0,-5.31685209274292,0.7274181246757507,-8.135597229003906
1654,172400.0,-5.26899528503418,0.5264209508895874,-8.200202941894531
1655,172500.0,-5.26899528503418,0.5264209508895874,-8.200202941894531
1656,172600.0,-5.493920803070068,-0.5024927258491516,-8.200202941894531
1657,172700.0,-5.493920803070068,-0.5024927258491516,-8.200202941894531
1658,172800.0,-5.225924491882324,0.8255237936973572,-7.992027282714844
1659,172900.0,-5.225924491882324,0.8255237936973572,-7.992027282714844
1660,173000.0,-5.168497085571289,0.7609176039695741,-8.181060791015625
1661,173100.0,-5.168497085571289,0.7609176039695741,-8.181060791015625
1662,173200.0,-5.168497085571289,0.7609176039695741,-8.181060791015625
1663,173300.0,-5.374279499053955,0.7704889178276062,-8.085347175598145
1664,173400.0,-5.374279499053955,0.7704889178276062,-8.085347175598145
1665,173500.0,-5.398207664489746,0.7800601720809937,-8.082954406738281
1666,173600.0,-5.398207664489746,0.7800601720809937,-8.082954406738281
1667,173700.0,-5.235496044158936,0.7034898400306702,-8.233702659606934
1668,173800.0,-5.235496044158936,0.7034898400306702,-8.233702659606934
1669,173900.0,-5.3694939613342285,0.9212367534637452,-8.193024635314941
1670,174000.0,-5.3694939613342285,0.9212367534637452,-8.193024635314941
1671,174100.0,-5.3694939613342285,0.9212367534637452,-8.193024635314941
1672,174200.0,-5.331209182739258,0.763310432434082,-8.123632431030272
1673,174300.0,-5.331209182739258,0.763310432434082,-8.123632431030272
1674,174400.0,-5.288137912750244,0.7896314859390259,-8.157133102416992
1675,174500.0,-5.288137912750244,0.7896314859390259,-8.157133102416992
1676,174600.0,-5.340780735015869,0.8231310248374939,-8.149953842163086
1677,174700.0,-5.340780735015869,0.8231310248374939,-8.149953842163086
1678,174800.0,-5.326423168182373,0.8638089299201965,-8.157133102416992
1679,174900.0,-5.326423168182373,0.8638089299201965,-8.157133102416992
1680,175000.0,-5.326423168182373,0.7513462901115417,-8.123632431030272
1681,175100.0,-5.326423168182373,0.7513462901115417,-8.123632431030272
1682,175200.0,-5.326423168182373,0.7513462901115417,-8.123632431030272
1683,175300.0,-5.31685209274292,0.7752745151519775,-8.164310455322267
1684,175400.0,-5.31685209274292,0.7752745151519775,-8.164310455322267
1685,175500.0,-5.297709465026856,0.8255237936973572,-8.12841796875
1686,175600.0,-5.297709465026856,0.8255237936973572,-8.12841796875
1687,175700.0,-5.297709465026856,0.8255237936973572,-8.12841796875
1688,175800.0,-5.321637630462647,0.8087739944458008,-8.145168304443361
1689,175900.0,-5.321637630462647,0.8087739944458008,-8.145168304443361
1690,176000.0,-5.297709465026856,0.8255237936973572,-8.149953842163086
1691,176100.0,-5.297709465026856,0.8255237936973572,-8.149953842163086
1692,176200.0,-5.31685209274292,0.784845769405365,-8.176274299621582
1693,176300.0,-5.31685209274292,0.784845769405365,-8.176274299621582
1694,176400.0,-5.2833523750305185,0.8207381367683411,-8.166703224182129
1695,176500.0,-5.2833523750305185,0.8207381367683411,-8.166703224182129
1696,176600.0,-5.2833523750305185,0.8207381367683411,-8.166703224182129
1697,176700.0,-5.326423168182373,0.7776673436164856,-8.140382766723633
1698,176800.0,-5.326423168182373,0.7776673436164856,-8.140382766723633
1699,176900.0,-5.297709465026856,0.7345964908599854,-8.193024635314941
1700,177000.0,-5.297709465026856,0.7345964908599854,-8.193024635314941
1701,177100.0,-5.259423732757568,0.8422735333442688,-8.195417404174805
1702,177200.0,-5.259423732757568,0.8422735333442688,-8.195417404174805
1703,177300.0,-5.259423732757568,0.8422735333442688,-8.195417404174805
1704,177400.0,-5.350350856781006,0.8662018179893494,-8.130810737609862
1705,177500.0,-5.350350856781006,0.8662018179893494,-8.130810737609862
1706,177600.0,-5.3359947204589835,0.8422735333442688,-8.13798999786377
1707,177700.0,-5.3359947204589835,0.8422735333442688,-8.13798999786377
1708,177800.0,-5.359922409057617,0.9427721500396729,-8.130810737609862
1709,177900.0,-5.359922409057617,0.9427721500396729,-8.130810737609862
1710,178000.0,-5.364708423614502,0.9044869542121888,-8.097311973571777
1711,178100.0,-5.364708423614502,0.9044869542121888,-8.097311973571777
1712,178200.0,-5.364708423614502,0.9044869542121888,-8.097311973571777
1713,178300.0,-5.3359947204589835,0.8901299238204956,-8.097311973571777
1714,178400.0,-5.3359947204589835,0.8901299238204956,-8.097311973571777
1715,178500.0,-5.31685209274292,0.8949156999588013,-8.142775535583496
1716,178600.0,-5.31685209274292,0.8949156999588013,-8.142775535583496
1717,178700.0,-5.288137912750244,0.8709874749183655,-8.11406135559082
1718,178800.0,-5.288137912750244,0.8709874749183655,-8.11406135559082
1719,178900.0,-5.288137912750244,0.8709874749183655,-8.11406135559082
1720,179000.0,-5.302494525909424,0.8518448472023009,-8.130810737609862
