,timestamp,ax,ay,az
0,0.0,0.5216353535652161,12.504892349243164,-4.0869412422180185
1,200.0,0.5216353535652161,12.504892349243164,-4.0869412422180185
2,400.0,-5.996413230895996,10.482955932617188,17.211572647094727
3,600.0,-1.7515461444854736,5.670989990234375,8.38444995880127
4,800.0,-5.178067684173584,7.927421569824219,-2.297109842300415
5,1000.0,-8.891729354858398,5.4006004333496085,1.3710873126983645
6,1200.0,-4.053441524505615,-2.431107759475708,-1.4333008527755735
7,1400.0,-5.1637115478515625,-8.35573673248291,-0.5623133182525635
8,1600.0,-5.345565319061278,-5.350350856781006,-5.687739372253418
9,1800.0,-5.345565319061278,-5.350350856781006,-5.687739372253418
10,2000.0,-6.106483459472656,-4.216153621673584,-5.134997367858887
11,2200.0,-2.603391170501709,-5.424529075622559,-8.793622970581055
12,2400.0,-0.9427721500396729,-4.929214477539063,-8.999405860900879
13,2600.0,-1.3399806022644043,-4.333401679992677,-8.628519058227539
14,2800.0,1.5170495510101318,-3.4073793888092037,-9.360722541809082
15,3000.0,-3.603590488433838,0.13878372311592102,-10.11924648284912
16,3200.0,-14.912071228027346,-4.249652862548828,-3.5198421478271484
17,3400.0,-4.9914283752441415,3.7304105758666988,-5.010570526123047
18,3600.0,-4.9914283752441415,3.7304105758666988,-5.010570526123047
19,3800.0,-6.752545356750487,2.445464611053467,-6.63051176071167
20,4000.0,-6.254837989807129,3.0556347370147705,-6.417550563812256
21,4200.0,-6.920042991638184,2.778067111968994,-6.175874710083008
22,4400.0,-6.728617191314697,3.6299118995666495,-5.2905311584472665
23,4600.0,-6.5084776878356925,3.122633695602417,-6.757331371307372
24,4800.0,-6.943971633911133,2.629711866378784,-6.515655517578125
25,5000.0,-6.642475128173827,2.945564746856689,-6.307480335235597
26,5200.0,-6.733402729034424,2.3306093215942383,-6.503692150115968
27,5400.0,-6.733402729034424,2.3306093215942383,-6.503692150115968
28,5600.0,-6.943971633911133,2.383251428604126,-6.556333541870117
29,5800.0,-6.910471439361572,2.392822742462158,-6.608975887298584
30,6000.0,-6.881758213043213,2.627319574356079,-6.4462642669677725
31,6200.0,-6.963113307952881,2.629711866378784,-6.300302028656006
32,6400.0,-7.5661048889160165,0.3565305471420288,-6.546762466430664
33,6600.0,-7.867600917816162,4.7952165603637695,-3.919443368911743
34,6800.0,-7.867600917816162,4.7952165603637695,-3.919443368911743
35,7000.0,-7.3124656677246085,3.553341627120972,-5.280959606170653
36,7200.0,-7.0540409088134775,3.366701364517212,-6.0394840240478525
37,7400.0,-7.465606689453125,3.1274189949035645,-5.580062389373778
38,7600.0,-7.441678524017334,2.9838497638702397,-5.465207099914551
39,7800.0,-7.570890426635742,2.6249265670776367,-5.54177713394165
40,8000.0,-7.436892509460449,2.720639228820801,-5.711667537689209
41,8200.0,-7.403393745422362,2.622533798217773,-5.702096462249756
42,8400.0,-7.379465103149414,2.617748022079468,-5.871986389160156
43,8600.0,-7.379465103149414,2.617748022079468,-5.871986389160156
44,8800.0,-7.29810905456543,2.65842604637146,-5.962913990020753
45,9000.0,-7.264609336853027,2.6057839393615723,-6.065804958343506
46,9200.0,-7.432106971740723,2.581855773925781,-5.7930235862731925
47,9400.0,-7.345965385437013,2.636890411376953,-6.070591449737549
48,9600.0,-7.379465103149414,2.6560330390930176,-5.742774486541747
49,9800.0,-7.365108013153076,2.8043880462646484,-5.749952793121338
50,10000.0,-7.36032247543335,2.6536402702331543,-5.783452033996582
51,10200.0,-7.422535419464111,2.706282377243042,-5.802595138549805
52,10400.0,-7.422535419464111,2.706282377243042,-5.802595138549805
53,10600.0,-7.39860725402832,2.5986053943634038,-5.871986389160156
54,10800.0,-7.374679565429687,2.493321180343628,-5.982056617736816
55,11000.0,-7.259823799133301,2.6321046352386475,-6.008377552032472
56,11200.0,-7.4703922271728525,2.438286304473877,-5.8480587005615225
57,11400.0,-7.36032247543335,2.483749866485596,-6.034698486328125
58,11600.0,-6.900900363922119,3.0963122844696045,-6.0466628074646
59,11800.0,-6.900900363922119,3.0963122844696045,-6.0466628074646
60,12000.0,-7.317252159118652,2.304288148880005,-5.7403812408447275
61,12200.0,-8.542377471923826,1.423729419708252,-6.443871021270753
62,12400.0,-6.412764549255371,2.991028308868408,-5.704488754272461
63,12600.0,-6.910471439361572,-1.954936146736145,-7.152146816253662
64,12800.0,-8.394021987915039,1.325623631477356,-4.639683246612549
65,13000.0,-7.9106712341308585,0.906879723072052,-5.551348686218262
66,13200.0,-7.9106712341308585,0.906879723072052,-5.551348686218262
67,13400.0,-7.858029365539551,0.8327022790908813,-5.9533424377441415
68,13600.0,-8.063812255859375,-0.0933200791478157,-5.927021503448486
69,13800.0,-8.111669540405272,0.12681959569454193,-5.297709465026856
70,14000.0,-8.126025199890138,0.3565305471420288,-5.525027275085449
71,14200.0,-8.130810737609862,0.39481574296951294,-5.491527557373047
72,14400.0,-8.02074146270752,0.26081767678260803,-5.465207099914551
73,14600.0,-8.073383331298826,0.2512463629245758,-5.663811206817628
74,14800.0,-8.073383331298826,0.2512463629245758,-5.663811206817628
75,15000.0,-7.953742504119872,0.2703889608383179,-5.955735206604004
76,15200.0,-8.015955924987793,-0.413958340883255,-5.594419479370117
77,15400.0,-8.159524917602539,-1.8831514120101929,-5.627918720245361
78,15600.0,-8.322237014770508,4.034298896789552,-4.675575256347656
79,15800.0,-7.8245296478271475,1.1150553226470947,-5.44845724105835
80,16000.0,-7.508677005767822,2.2923240661621094,-6.3290162086486825
81,16200.0,-7.508677005767822,2.2923240661621094,-6.3290162086486825
82,16400.0,-7.695317268371582,3.3978083133697514,-5.048855781555176
83,16600.0,-7.676175117492676,2.3090739250183105,-5.864808082580566
84,16800.0,-7.637890338897705,2.3258235454559326,-5.637490272521973
85,17000.0,-7.5469627380371085,2.227717876434326,-5.711667537689209
86,17200.0,-7.647461414337157,2.148754596710205,-5.821736812591553
87,17400.0,-7.561319828033447,2.0769701004028316,-5.836094379425049
88,17600.0,-7.561319828033447,2.1511476039886475,-5.785844802856445
89,17800.0,-7.5804619789123535,2.0673987865448002,-5.879165172576903
90,18000.0,-7.5804619789123535,2.0673987865448002,-5.879165172576903
91,18200.0,-7.676175117492676,2.0865414142608643,-5.7403812408447275
92,18400.0,-7.762316703796388,1.9716858863830569,-5.572883605957031
93,18600.0,-7.8245296478271475,2.0745770931243896,-5.438885688781738
94,18800.0,-7.767102241516112,2.148754596710205,-5.560920238494873
95,19000.0,-7.647461414337157,2.0147566795349117,-5.704488754272461
96,19200.0,-7.657032012939452,1.9453648328781128,-5.737988471984862
97,19400.0,-7.647461414337157,2.0889341831207275,-5.8265228271484375
98,19600.0,-7.647461414337157,2.0889341831207275,-5.8265228271484375
99,19800.0,-7.738388061523437,2.029113531112671,-5.69013261795044
100,20000.0,-7.786244869232178,1.8448662757873533,-5.5824551582336435
101,20200.0,-7.781459331512451,2.060220241546631,-5.522634029388428
102,20400.0,-7.752745151519775,2.084148406982422,-5.637490272521973
103,20600.0,-7.738388061523437,1.7730815410614014,-5.737988471984862
104,20800.0,-7.738388061523437,1.7730815410614014,-5.737988471984862
105,21000.0,-7.609175682067871,1.8161523342132568,-5.855237007141112
106,21200.0,-7.623533248901367,1.94297194480896,-5.843273162841798
107,21400.0,-7.685746192932129,2.069791555404663,-5.766702175140381
108,21600.0,-7.671389579772949,1.9238293170928955,-5.814558982849121
109,21800.0,-7.7048888206481925,1.931007981300354,-5.711667537689209
110,22000.0,-7.853243827819824,1.7922240495681765,-5.620740413665772
111,22200.0,-7.853243827819824,1.7922240495681765,-5.620740413665772
112,22400.0,-7.862814903259277,1.9573287963867188,-5.496313571929932
113,22600.0,-7.858029365539551,1.7156537771224976,-5.620740413665772
114,22800.0,-7.781459331512451,1.813759446144104,-5.704488754272461
115,23000.0,-7.733603000640869,1.6917256116867063,-5.6997032165527335
116,23200.0,-7.700103282928468,1.7252250909805298,-5.824130058288574
117,23400.0,-7.709674835205077,1.6845470666885376,-5.831308364868164
118,23600.0,-7.709674835205077,1.6845470666885376,-5.831308364868164
119,23800.0,-7.700103282928468,1.8927226066589355,-5.745166778564452
120,24000.0,-7.7048888206481925,1.6606187820434568,-5.603990077972412
121,24200.0,-7.513463020324707,1.215553879737854,-6.185446262359619
122,24400.0,-7.867600917816162,1.0671988725662231,-5.8265228271484375
123,24600.0,-7.724031925201416,1.1868400573730469,-5.962913990020753
124,24800.0,-7.743173599243164,1.3136597871780396,-5.881557941436768
125,25000.0,-7.752745151519775,1.442872166633606,-5.790630340576173
126,25200.0,-7.838886737823486,1.1341978311538696,-5.800201892852782
127,25400.0,-7.6522464752197275,1.1988041400909424,-6.0299134254455575
128,25600.0,-7.6522464752197275,1.1988041400909424,-6.0299134254455575
129,25800.0,-7.767102241516112,1.3351951837539673,-5.860023021697997
130,26000.0,-7.724031925201416,1.2059825658798218,-5.8959150314331055
131,26200.0,-7.719245910644531,1.4787644147872925,-5.819344997406006
132,26400.0,-7.747959613800049,1.3184452056884766,-5.749952793121338
133,26600.0,-7.77188777923584,1.3710873126983645,-5.843273162841798
134,26800.0,-8.015955924987793,1.146162033081055,-5.55852746963501
135,27000.0,-7.848458290100098,1.1700903177261353,-5.647061824798584
136,27200.0,-7.719245910644531,1.1748759746551514,-5.9533424377441415
137,27400.0,-7.719245910644531,1.1748759746551514,-5.9533424377441415
138,27600.0,-7.5326056480407715,0.8470591902732849,-6.118447780609131
139,27800.0,-7.575676441192628,1.057627558708191,-6.135197162628174
140,28000.0,-7.575676441192628,1.1030912399291992,-6.0610198974609375
141,28200.0,-7.5326056480407715,0.9930213689804076,-6.137589931488037
142,28400.0,-7.47517728805542,0.8207381367683411,-6.178267955780028
143,28600.0,-7.599604606628418,0.97148597240448,-5.994020462036133
144,28800.0,-7.599604606628418,0.97148597240448,-5.994020462036133
145,29000.0,-7.590033531188965,0.9762716889381408,-6.1471614837646475
146,29200.0,-7.465606689453125,0.8303093910217285,-6.226124286651611
147,29400.0,-7.618747234344482,1.0289137363433838,-6.044269561767577
148,29600.0,-7.575676441192628,1.0959126949310305,-6.082554817199707
149,29800.0,-7.63310432434082,1.0169496536254885,-5.994020462036133
150,30000.0,-7.676175117492676,1.0384850502014158,-6.001199245452881
151,30200.0,-7.666603565216064,1.06480610370636,-5.927021503448486
152,30400.0,-7.666603565216064,1.06480610370636,-5.927021503448486
153,30600.0,-7.599604606628418,0.8374879360198975,-6.128018856048584
154,30800.0,-7.5661048889160165,1.0145567655563354,-6.175874710083008
155,31000.0,-7.5661048889160165,0.9379864931106568,-6.10887622833252
156,31200.0,-7.5804619789123535,1.0121639966964722,-6.10169792175293
157,31400.0,-7.508677005767822,0.935593605041504,-6.175874710083008
158,31600.0,-7.613961696624756,1.2586246728897097,-5.965306758880615
159,31800.0,-7.613961696624756,1.2586246728897097,-5.965306758880615
160,32000.0,-7.661818027496338,1.191625714302063,-5.986842632293701
161,32200.0,-7.724031925201416,1.057627558708191,-5.828916072845459
162,32400.0,-7.791030406951903,1.0360921621322632,-5.745166778564452
163,32600.0,-7.747959613800049,1.093519926071167,-5.828916072845459
164,32800.0,-7.7048888206481925,0.9212367534637452,-5.929414749145508
165,33000.0,-7.714460372924805,0.9954141974449158,-5.960521221160889
166,33200.0,-7.676175117492676,1.0289137363433838,-6.020341873168945
167,33400.0,-7.676175117492676,1.0289137363433838,-6.020341873168945
168,33600.0,-7.63310432434082,0.8662018179893494,-6.022734642028809
169,33800.0,-7.609175682067871,0.8638089299201965,-6.1399827003479
170,34000.0,-7.58524751663208,0.9140582084655762,-6.096912384033202
171,34200.0,-7.623533248901367,0.8925228118896484,-6.089733123779298
172,34400.0,-7.599604606628418,1.093519926071167,-6.013163089752197
173,34600.0,-7.700103282928468,1.026520848274231,-5.965306758880615
174,34800.0,-7.700103282928468,1.117448091506958,-5.886343479156494
175,35000.0,-7.733603000640869,0.8877372145652771,-5.910271644592285
176,35200.0,-7.733603000640869,0.8877372145652771,-5.910271644592285
177,35400.0,-7.728816509246826,1.1030912399291992,-5.855237007141112
178,35600.0,-7.685746192932129,0.9786643981933594,-5.955735206604004
179,35800.0,-7.661818027496338,1.0001999139785769,-6.068198204040527
180,36000.0,-7.623533248901367,1.0456634759902954,-6.0394840240478525
181,36200.0,-7.599604606628418,0.8997013568878174,-6.096912384033202
182,36400.0,-7.599604606628418,0.9643075466156006,-6.051448345184326
183,36600.0,-7.599604606628418,0.9643075466156006,-6.051448345184326
184,36800.0,-7.590033531188965,0.9451649785041808,-6.178267955780028
185,37000.0,-7.628318786621094,1.0911270380020142,-6.020341873168945
186,37200.0,-7.752745151519775,1.1341978311538696,-5.860023021697997
187,37400.0,-7.781459331512451,1.1006983518600464,-5.836094379425049
188,37600.0,-7.776673316955566,1.1222338676452637,-5.7619171142578125
189,37800.0,-7.724031925201416,1.2011969089508057,-5.893522262573242
190,38000.0,-7.752745151519775,0.9547362923622132,-5.879165172576903
191,38200.0,-7.752745151519775,0.9547362923622132,-5.879165172576903
192,38400.0,-7.637890338897705,0.935593605041504,-6.0394840240478525
193,38600.0,-7.613961696624756,0.9571290016174316,-6.058626651763916
194,38800.0,-7.609175682067871,1.1940184831619265,-6.056234359741211
195,39000.0,-7.676175117492676,0.031106693670153618,-5.950949668884277
196,39200.0,-7.762316703796388,0.6245267391204834,-5.883951187133789
197,39400.0,-7.786244869232178,1.1485549211502075,-5.8097734451293945
198,39600.0,-7.786244869232178,1.1485549211502075,-5.8097734451293945
199,39800.0,-7.867600917816162,0.8159525394439697,-5.625525951385498
200,40000.0,-7.762316703796388,0.7106683850288391,-5.9030938148498535
201,40200.0,-7.724031925201416,0.662811815738678,-5.927021503448486
202,40400.0,-7.733603000640869,0.5958128571510315,-5.9988059997558585
203,40600.0,-7.657032012939452,0.7345964908599854,-6.056234359741211
204,40800.0,-7.63310432434082,0.7226324081420898,-6.099304676055907
205,41000.0,-7.628318786621094,0.7657032012939453,-6.08494758605957
206,41200.0,-7.628318786621094,0.7657032012939453,-6.08494758605957
207,41400.0,-7.700103282928468,0.763310432434082,-5.989234924316406
208,41600.0,-7.724031925201416,0.7968099117279053,-5.938986301422119
209,41800.0,-7.762316703796388,0.9762716889381408,-5.821736812591553
210,42000.0,-7.680960178375244,0.8638089299201965,-5.943771839141847
211,42200.0,-7.752745151519775,0.794417142868042,-5.929414749145508
212,42400.0,-7.690531730651855,0.7752745151519775,-5.931807041168213
213,42600.0,-7.690531730651855,0.7752745151519775,-5.931807041168213
214,42800.0,-7.637890338897705,0.8518448472023009,-6.027520179748535
215,43000.0,-7.671389579772949,0.6915256977081299,-6.044269561767577
216,43200.0,-7.714460372924805,0.8207381367683411,-5.965306758880615
217,43400.0,-7.728816509246826,0.9858429431915284,-5.948556900024414
218,43600.0,-7.791030406951903,0.794417142868042,-5.8337016105651855
219,43800.0,-7.752745151519775,0.882951557636261,-5.941378593444824
220,44000.0,-7.752745151519775,0.882951557636261,-5.941378593444824
221,44200.0,-7.700103282928468,0.7968099117279053,-5.9342002868652335
222,44400.0,-7.728816509246826,0.861416220664978,-6.044269561767577
223,44600.0,-7.695317268371582,0.9236294627189636,-6.013163089752197
224,44800.0,-7.618747234344482,0.7872385978698729,-6.063412666320801
225,45000.0,-7.700103282928468,0.8327022790908813,-5.982056617736816
226,45200.0,-7.738388061523437,0.784845769405365,-5.97727108001709
227,45400.0,-7.896315097808838,0.8949156999588013,-5.9126644134521475
228,45600.0,-7.896315097808838,0.8949156999588013,-5.9126644134521475
229,45800.0,-7.805387496948242,0.9092726111412048,-5.8480587005615225
230,46000.0,-7.733603000640869,0.9236294627189636,-5.788238048553468
231,46200.0,-7.776673316955566,0.7513462901115417,-5.948556900024414
232,46400.0,-7.695317268371582,0.763310432434082,-5.955735206604004
233,46600.0,-7.719245910644531,0.7776673436164856,-6.015556335449219
234,46800.0,-7.676175117492676,0.7920243144035339,-6.027520179748535
235,47000.0,-7.676175117492676,0.7920243144035339,-6.027520179748535
236,47200.0,-7.690531730651855,0.7920243144035339,-6.027520179748535
237,47400.0,-7.709674835205077,0.8662018179893494,-5.982056617736816
238,47600.0,-7.738388061523437,0.8398807048797607,-5.8959150314331055
239,47800.0,-7.810173511505128,0.9810572862625122,-5.8097734451293945
240,48000.0,-7.8006019592285165,0.8542376756668091,-5.850451469421388
241,48200.0,-7.724031925201416,0.7752745151519775,-5.936593055725098
242,48400.0,-7.724031925201416,0.7752745151519775,-5.936593055725098
243,48600.0,-7.743173599243164,0.9212367534637452,-5.9198431968688965
244,48800.0,-7.728816509246826,0.8159525394439697,-5.967699527740479
245,49000.0,-7.77188777923584,0.9427721500396729,-5.891129493713379
246,49200.0,-7.714460372924805,0.7345964908599854,-5.960521221160889
247,49400.0,-7.714460372924805,0.8255237936973572,-5.8887367248535165
248,49600.0,-7.657032012939452,0.8757730722427368,-6.058626651763916
249,49800.0,-7.657032012939452,0.8757730722427368,-6.058626651763916
250,50000.0,-7.685746192932129,0.8231310248374939,-6.020341873168945
251,50200.0,-7.623533248901367,0.7345964908599854,-6.0394840240478525
252,50400.0,-7.623533248901367,0.7489535212516785,-6.034698486328125
253,50600.0,-7.680960178375244,0.9523434042930604,-5.965306758880615
254,50800.0,-7.709674835205077,0.861416220664978,-5.9988059997558585
255,51000.0,-7.867600917816162,0.7872385978698729,-5.876771926879883
256,51200.0,-7.867600917816162,0.7872385978698729,-5.876771926879883
257,51400.0,-7.862814903259277,0.9451649785041808,-5.714060306549072
258,51600.0,-7.838886737823486,0.8781659603118896,-5.757131576538086
259,51800.0,-7.795816421508789,0.8518448472023009,-5.8097734451293945
260,52000.0,-7.724031925201416,0.8709874749183655,-5.900700569152832
261,52200.0,-7.657032012939452,0.7082754969596863,-5.898308277130128
262,52400.0,-7.685746192932129,0.6221339106559753,-6.065804958343506
263,52600.0,-7.685746192932129,0.6221339106559753,-6.065804958343506
264,52800.0,-7.628318786621094,0.8111668825149536,-6.02512788772583
265,53000.0,-7.6522464752197275,0.7369893789291382,-6.017949104309082
266,53200.0,-7.728816509246826,0.8853443264961243,-5.996413230895996
267,53400.0,-7.8006019592285165,0.8039883971214294,-5.850451469421388
268,53600.0,-7.762316703796388,0.8255237936973572,-5.9198431968688965
269,53800.0,-7.838886737823486,0.8255237936973572,-5.778666496276856
270,54000.0,-7.838886737823486,0.8255237936973572,-5.778666496276856
271,54200.0,-7.767102241516112,0.8015955686569214,-5.862415313720702
272,54400.0,-7.752745151519775,0.8231310248374939,-5.905486583709718
273,54600.0,-7.714460372924805,0.7202396392822266,-5.994020462036133
274,54800.0,-7.661818027496338,0.7704889178276062,-5.9988059997558585
275,55000.0,-7.63310432434082,0.7585247755050659,-6.017949104309082
276,55200.0,-7.642674922943115,0.8470591902732849,-6.058626651763916
277,55400.0,-7.642674922943115,0.8470591902732849,-6.058626651763916
278,55600.0,-7.671389579772949,0.7585247755050659,-6.082554817199707
279,55800.0,-7.657032012939452,0.7561319470405579,-6.077769756317139
280,56000.0,-7.747959613800049,0.935593605041504,-5.883951187133789
281,56200.0,-7.767102241516112,0.8135597109794617,-5.9748783111572275
282,56400.0,-7.810173511505128,0.8374879360198975,-5.831308364868164
283,56600.0,-7.75753116607666,0.8566305041313171,-5.9198431968688965
284,56800.0,-7.795816421508789,0.9332008361816406,-5.874379634857178
285,57000.0,-7.795816421508789,0.9332008361816406,-5.874379634857178
286,57200.0,-7.728816509246826,0.784845769405365,-5.943771839141847
287,57400.0,-7.719245910644531,0.8111668825149536,-6.010770320892334
288,57600.0,-7.676175117492676,0.6891329884529114,-6.0538411140441895
289,57800.0,-7.63310432434082,0.7010970115661621,-6.075376510620117
290,58000.0,-7.695317268371582,0.7609176039695741,-6.027520179748535
291,58200.0,-7.7048888206481925,0.7800601720809937,-6.005984783172607
292,58400.0,-7.81974458694458,0.7561319470405579,-5.876771926879883
293,58600.0,-7.791030406951903,0.861416220664978,-5.9533424377441415
294,58800.0,-7.791030406951903,0.861416220664978,-5.9533424377441415
295,59000.0,-8.00638484954834,0.6891329884529114,-5.682953834533691
296,59200.0,-7.8819580078125,0.6891329884529114,-5.819344997406006
297,59400.0,-7.781459331512451,0.6843472719192505,-5.869593620300293
298,59600.0,-7.7048888206481925,0.6460621356964111,-5.967699527740479
299,59800.0,-7.7048888206481925,0.5168496966362001,-6.034698486328125
300,60000.0,-7.661818027496338,0.5503491759300232,-6.058626651763916
301,60200.0,-7.637890338897705,0.5240281224250793,-6.087340831756593
302,60400.0,-7.623533248901367,0.6269195079803467,-6.065804958343506
303,60600.0,-7.623533248901367,0.6269195079803467,-6.065804958343506
304,60800.0,-7.58524751663208,0.5766702890396118,-6.111269474029541
305,61000.0,-7.671389579772949,0.6580261588096619,-6.070591449737549
306,61200.0,-7.657032012939452,0.7034898400306702,-6.0394840240478525
307,61400.0,-7.762316703796388,0.6699903011322021,-5.91505765914917
308,61600.0,-7.814958095550537,0.7226324081420898,-5.989234924316406
309,61800.0,-7.858029365539551,0.7250252366065979,-5.685347080230713
310,62000.0,-7.8245296478271475,0.696311354637146,-5.845665454864503
311,62200.0,-7.8245296478271475,0.696311354637146,-5.845665454864503
312,62400.0,-7.728816509246826,0.5958128571510315,-5.9533424377441415
313,62600.0,-7.695317268371582,0.7178468108177185,-6.005984783172607
314,62800.0,-7.594818592071532,0.7130610942840576,-6.096912384033202
315,63000.0,-7.613961696624756,0.6245267391204834,-6.130411148071289
316,63200.0,-7.657032012939452,0.6317051649093628,-6.128018856048584
317,63400.0,-7.685746192932129,0.7345964908599854,-5.960521221160889
318,63600.0,-7.724031925201416,0.763310432434082,-6.020341873168945
319,63800.0,-7.724031925201416,0.763310432434082,-6.020341873168945
320,64000.0,-7.805387496948242,0.7202396392822266,-5.797809600830077
321,64200.0,-7.762316703796388,0.7154539823532104,-5.900700569152832
322,64400.0,-7.747959613800049,0.7322037816047668,-5.984449863433838
323,64600.0,-7.695317268371582,0.705882728099823,-6.044269561767577
324,64800.0,-7.657032012939452,0.6149553656578064,-6.008377552032472
325,65000.0,-7.609175682067871,0.6221339106559753,-6.082554817199707
326,65200.0,-7.661818027496338,0.6364907622337341,-6.0610198974609375
327,65400.0,-7.661818027496338,0.6364907622337341,-6.0610198974609375
328,65600.0,-7.767102241516112,0.696311354637146,-6.001199245452881
329,65800.0,-7.83410120010376,0.5623133182525635,-5.898308277130128
330,66000.0,-7.838886737823486,0.7417750358581543,-5.735595226287843
331,66200.0,-7.901099681854247,0.6867401003837585,-5.733203411102295
332,66400.0,-7.853243827819824,0.7178468108177185,-5.924628734588622
333,66600.0,-7.738388061523437,0.6652047038078308,-5.996413230895996
334,66800.0,-7.738388061523437,0.6652047038078308,-5.996413230895996
335,67000.0,-7.695317268371582,0.6436693072319031,-6.0538411140441895
336,67200.0,-7.695317268371582,0.6317051649093628,-5.982056617736816
337,67400.0,-7.666603565216064,0.6245267391204834,-6.070591449737549
338,67600.0,-7.657032012939452,0.6580261588096619,-6.049055576324463
339,67800.0,-7.63310432434082,0.5407779216766357,-6.142375946044923
340,68000.0,-7.690531730651855,0.7752745151519775,-5.97727108001709
341,68200.0,-7.690531730651855,0.7752745151519775,-5.97727108001709
342,68400.0,-7.666603565216064,0.8015955686569214,-5.948556900024414
343,68600.0,-7.791030406951903,0.7034898400306702,-5.8337016105651855
344,68800.0,-7.556533336639403,0.902094066143036,-6.120840072631836
345,69000.0,-7.853243827819824,0.6867401003837585,-5.828916072845459
346,69200.0,-7.690531730651855,0.7322037816047668,-6.0610198974609375
347,69400.0,-7.743173599243164,0.906879723072052,-5.783452033996582
348,69600.0,-7.747959613800049,0.705882728099823,-5.948556900024414
349,69800.0,-7.709674835205077,0.7537391781806946,-5.994020462036133
350,70000.0,-7.709674835205077,0.7537391781806946,-5.994020462036133
351,70200.0,-7.647461414337157,0.41156551241874695,-6.130411148071289
352,70400.0,-7.7048888206481925,0.44745784997940063,-6.128018856048584
353,70600.0,-7.719245910644531,0.7250252366065979,-5.962913990020753
354,70800.0,-7.862814903259277,0.4881358444690704,-5.72841739654541
355,71000.0,-7.8006019592285165,0.5072783827781677,-5.958127975463867
356,71200.0,-7.719245910644531,0.6508477926254272,-5.936593055725098
357,71400.0,-7.719245910644531,0.6508477926254272,-5.936593055725098
358,71600.0,-7.690531730651855,0.5479563474655151,-5.994020462036133
359,71800.0,-7.628318786621094,0.5623133182525635,-6.1256256103515625
360,72000.0,-7.628318786621094,0.4618147313594818,-6.178267955780028
361,72200.0,-7.719245910644531,0.5814558863639832,-6.034698486328125
362,72400.0,-7.733603000640869,0.662811815738678,-5.927021503448486
363,72600.0,-7.75753116607666,0.6747759580612183,-5.917449951171875
364,72800.0,-7.75753116607666,0.6747759580612183,-5.917449951171875
365,73000.0,-7.77188777923584,0.6173481941223145,-5.86720085144043
366,73200.0,-7.728816509246826,0.5790630578994751,-5.994020462036133
367,73400.0,-7.63310432434082,0.6508477926254272,-5.986842632293701
368,73600.0,-7.661818027496338,0.6460621356964111,-6.058626651763916
369,73800.0,-7.618747234344482,0.6173481941223145,-6.0538411140441895
370,74000.0,-7.623533248901367,0.5575276613235474,-6.142375946044923
371,74200.0,-7.623533248901367,0.5575276613235474,-6.142375946044923
372,74400.0,-7.671389579772949,0.705882728099823,-5.938986301422119
373,74600.0,-7.642674922943115,0.5431707501411438,-6.037091255187987
374,74800.0,-7.81974458694458,0.729810893535614,-5.869593620300293
375,75000.0,-7.767102241516112,0.672383189201355,-6.003591537475586
376,75200.0,-7.690531730651855,0.6173481941223145,-6.022734642028809
377,75400.0,-7.657032012939452,0.6460621356964111,-6.044269561767577
378,75600.0,-7.657032012939452,0.6460621356964111,-6.044269561767577
379,75800.0,-7.671389579772949,0.5623133182525635,-6.051448345184326
380,76000.0,-7.6522464752197275,0.6173481941223145,-6.017949104309082
381,76200.0,-7.680960178375244,0.4929214715957642,-6.087340831756593
382,76400.0,-7.661818027496338,0.5742774605751038,-6.0921263694763175
383,76600.0,-7.676175117492676,0.6125625967979431,-6.068198204040527
384,76800.0,-7.666603565216064,0.44745784997940063,-6.099304676055907
385,77000.0,-7.666603565216064,0.44745784997940063,-6.099304676055907
386,77200.0,-7.666603565216064,0.5024927258491516,-6.070591449737549
387,77400.0,-7.623533248901367,0.6604190468788147,-6.104090690612793
388,77600.0,-7.6522464752197275,0.5192425251007079,-6.070591449737549
389,77800.0,-7.618747234344482,0.48574298620224,-6.1256256103515625
390,78000.0,-7.680960178375244,0.7034898400306702,-5.924628734588622
391,78200.0,-7.77188777923584,0.6340980529785156,-5.962913990020753
392,78400.0,-7.714460372924805,0.7322037816047668,-5.984449863433838
393,78600.0,-7.714460372924805,0.7322037816047668,-5.984449863433838
394,78800.0,-7.733603000640869,0.6556334495544434,-5.965306758880615
395,79000.0,-7.647461414337157,0.4785645008087158,-6.027520179748535
396,79200.0,-7.628318786621094,0.5192425251007079,-6.0394840240478525
397,79400.0,-7.5804619789123535,0.4785645008087158,-6.183053970336914
398,79600.0,-7.642674922943115,0.5072783827781677,-6.113661766052246
399,79800.0,-7.604390144348144,0.48574298620224,-6.1399827003479
400,80000.0,-7.628318786621094,0.6173481941223145,-6.159125804901122
401,80200.0,-7.661818027496338,0.6364907622337341,-5.967699527740479
402,80400.0,-7.661818027496338,0.6364907622337341,-5.967699527740479
403,80600.0,-7.733603000640869,0.5647061467170715,-5.9988059997558585
404,80800.0,-7.709674835205077,0.6101697683334351,-5.9198431968688965
405,81000.0,-7.680960178375244,0.6293123364448547,-5.979663372039795
406,81200.0,-7.680960178375244,0.6197410225868225,-5.97727108001709
407,81400.0,-7.63310432434082,0.5288137793540955,-6.041877269744872
408,81600.0,-7.63310432434082,0.7345964908599854,-6.070591449737549
409,81800.0,-7.623533248901367,0.5670989155769348,-6.063412666320801
410,82000.0,-7.623533248901367,0.5670989155769348,-6.063412666320801
411,82200.0,-7.628318786621094,0.4833501875400543,-6.120840072631836
412,82400.0,-7.6522464752197275,0.5910272002220154,-6.096912384033202
413,82600.0,-7.642674922943115,0.5312066078186035,-6.096912384033202
414,82800.0,-7.743173599243164,0.6532405614852905,-6.082554817199707
415,83000.0,-7.724031925201416,0.6221339106559753,-5.9700927734375
416,83200.0,-7.752745151519775,0.6293123364448547,-5.838487148284912
417,83400.0,-7.719245910644531,0.5096712112426758,-6.03230619430542
418,83600.0,-7.719245910644531,0.5096712112426758,-6.03230619430542
419,83800.0,-7.680960178375244,0.5718846321105957,-6.0921263694763175
420,84000.0,-7.671389579772949,0.5479563474655151,-6.0394840240478525
421,84200.0,-7.613961696624756,0.6771688461303711,-6.063412666320801
422,84400.0,-7.628318786621094,0.5048855543136597,-6.08016300201416
423,84600.0,-7.637890338897705,0.5862415432929993,-6.063412666320801
424,84800.0,-7.671389579772949,0.4689932465553284,-6.010770320892334
425,85000.0,-7.671389579772949,0.4689932465553284,-6.010770320892334
426,85200.0,-7.738388061523437,0.4618147313594818,-5.962913990020753
427,85400.0,-7.747959613800049,0.607776939868927,-5.946164608001709
428,85600.0,-7.747959613800049,0.6747759580612183,-5.979663372039795
429,85800.0,-7.666603565216064,0.5575276613235474,-6.082554817199707
430,86000.0,-7.661818027496338,0.5072783827781677,-6.082554817199707
431,86200.0,-7.590033531188965,0.4713860750198364,-6.144768238067628
432,86400.0,-7.561319828033447,0.5168496966362001,-6.190232276916504
433,86600.0,-7.657032012939452,0.5862415432929993,-6.013163089752197
434,86800.0,-7.657032012939452,0.5862415432929993,-6.013163089752197
435,87000.0,-7.724031925201416,0.5455635190010071,-5.982056617736816
436,87200.0,-7.75753116607666,0.5766702890396118,-5.864808082580566
437,87400.0,-7.671389579772949,0.6412764191627502,-5.9700927734375
438,87600.0,-7.728816509246826,0.5431707501411438,-5.960521221160889
439,87800.0,-7.680960178375244,0.6197410225868225,-6.056234359741211
440,88000.0,-7.680960178375244,0.5934200286865234,-6.070591449737549
441,88200.0,-7.6522464752197275,0.413958340883255,-6.149554252624513
442,88400.0,-7.618747234344482,0.552742063999176,-6.099304676055907
443,88600.0,-7.618747234344482,0.552742063999176,-6.099304676055907
444,88800.0,-7.599604606628418,0.4426721632480621,-6.135197162628174
445,89000.0,-7.680960178375244,0.4737788736820221,-6.044269561767577
446,89200.0,-7.714460372924805,0.6293123364448547,-6.0538411140441895
447,89400.0,-7.695317268371582,0.5694918036460876,-6.013163089752197
448,89600.0,-7.776673316955566,0.7369893789291382,-5.907878875732423
449,89800.0,-7.714460372924805,0.5407779216766357,-5.891129493713379
450,90000.0,-7.7048888206481925,0.5814558863639832,-5.9988059997558585
451,90200.0,-7.274180889129639,0.7680960297584534,-6.372087001800537
452,90400.0,-7.274180889129639,0.7680960297584534,-6.372087001800537
453,90600.0,-8.95394229888916,2.4909284114837646,-3.0077781677246094
454,90800.0,-8.733802795410156,0.6484549045562744,-4.101297855377196
455,91000.0,-8.202595710754395,1.0289137363433838,-5.460421085357666
456,91200.0,-8.145168304443361,0.11724831163883208,-5.565705299377441
457,91400.0,-8.097311973571777,0.35892340540885925,-5.458028793334961
458,91600.0,-8.202595710754395,0.10289137810468674,-5.4006004333496085
459,91800.0,-8.202595710754395,0.10289137810468674,-5.4006004333496085
460,92000.0,-8.221738815307617,0.27756744623184204,-5.347958564758301
461,92200.0,-8.164310455322267,0.3206382095813751,-5.419743537902832
462,92400.0,-8.102097511291504,0.3158525824546814,-5.491527557373047
463,92600.0,-8.102097511291504,0.3780659735202789,-5.42692232131958
464,92800.0,-8.111669540405272,0.2632104754447937,-5.438885688781738
465,93000.0,-8.092526435852049,0.2751745879650116,-5.434100151062012
466,93200.0,-8.092526435852049,0.2751745879650116,-5.434100151062012
467,93400.0,-8.116454124450684,0.2943171858787537,-5.493920803070068
468,93600.0,-8.12123966217041,0.3302095234394073,-5.462814331054688
469,93800.0,-8.169095993041992,0.3565305471420288,-5.417350769042969
470,94000.0,-8.145168304443361,0.2392822504043579,-5.441278457641602
471,94200.0,-8.12123966217041,0.21296121180057528,-5.489135265350342
472,94400.0,-8.130810737609862,0.2512463629245758,-5.477170467376709
473,94600.0,-8.12123966217041,0.2871387302875519,-5.48674201965332
474,94800.0,-8.111669540405272,0.38045880198478704,-5.520241737365723
475,95000.0,-8.111669540405272,0.38045880198478704,-5.520241737365723
476,95200.0,-8.111669540405272,0.2512463629245758,-5.453242778778076
477,95400.0,-8.12123966217041,0.2464607357978821,-5.465207099914551
478,95600.0,-8.130810737609862,0.20099709928035736,-5.422136306762695
479,95800.0,-8.111669540405272,0.19621144235134125,-5.419743537902832
480,96000.0,-8.149953842163086,0.2297109663486481,-5.3694939613342285
481,96200.0,-8.145168304443361,0.2967100143432617,-5.436492443084717
482,96400.0,-8.145168304443361,0.2967100143432617,-5.436492443084717
483,96600.0,-8.111669540405272,0.19621144235134125,-5.434100151062012
484,96800.0,-8.145168304443361,0.2153540551662445,-5.4795637130737305
485,97000.0,-8.092526435852049,0.2105683833360672,-5.54177713394165
486,97200.0,-8.073383331298826,0.2464607357978821,-5.575276851654053
487,97400.0,-8.135597229003906,0.2703889608383179,-5.460421085357666
488,97600.0,-8.10688304901123,0.2392822504043579,-5.505885124206543
489,97800.0,-8.087740898132324,0.26560330390930176,-5.386244297027588
490,98000.0,-8.087740898132324,0.26560330390930176,-5.386244297027588
491,98200.0,-8.126025199890138,0.2440679222345352,-5.443671703338623
492,98400.0,-8.111669540405272,0.2512463629245758,-5.498706817626953
493,98600.0,-8.116454124450684,0.28953152894973755,-5.539384365081787
494,98800.0,-8.092526435852049,0.2321037948131561,-5.517848491668701
495,99000.0,-8.10688304901123,0.25363919138908386,-5.522634029388428
496,99200.0,-8.130810737609862,0.2799602448940277,-5.474778175354004
497,99400.0,-8.10688304901123,0.2321037948131561,-5.453242778778076
498,99600.0,-8.149953842163086,0.3110669553279877,-5.477170467376709
499,99800.0,-8.149953842163086,0.3110669553279877,-5.477170467376709
500,100000.0,-8.044669151306152,0.2751745879650116,-5.66620397567749
501,100200.0,-8.10688304901123,0.17228324711322784,-5.48674201965332
502,100400.0,-8.102097511291504,0.2488535493612289,-5.489135265350342
503,100600.0,-8.10688304901123,0.17228324711322784,-5.443671703338623
504,100800.0,-8.039883613586426,0.20578275620937347,-5.572883605957031
505,101000.0,-8.10688304901123,0.16510476171970367,-5.496313571929932
506,101200.0,-8.049454689025879,0.17706887423992154,-5.577669143676758
507,101400.0,-8.049454689025879,0.17706887423992154,-5.577669143676758
508,101600.0,-8.078168869018555,0.23449662327766416,-5.522634029388428
509,101800.0,-8.102097511291504,0.23449662327766416,-5.522634029388428
510,102000.0,-8.082954406738281,0.2392822504043579,-5.491527557373047
511,102200.0,-8.111669540405272,0.1339980661869049,-5.474778175354004
512,102400.0,-8.116454124450684,0.20817556977272034,-5.491527557373047
513,102600.0,-8.068597793579103,0.14356936514377594,-5.508277893066406
514,102800.0,-8.068597793579103,0.14356936514377594,-5.508277893066406
515,103000.0,-8.10688304901123,0.2416750937700272,-5.575276851654053
516,103200.0,-8.059026718139647,0.21296121180057528,-5.5345988273620605
517,103400.0,-8.063812255859375,0.2297109663486481,-5.584848403930664
518,103600.0,-8.063812255859375,0.15314064919948578,-5.553741931915283
519,103800.0,-8.054241180419924,0.2440679222345352,-5.539384365081787
520,104000.0,-8.073383331298826,0.2632104754447937,-5.50349235534668
521,104200.0,-8.073383331298826,0.2632104754447937,-5.50349235534668
522,104400.0,-8.159524917602539,0.18185453116893768,-5.37906551361084
523,104600.0,-8.025527954101562,0.1938186287879944,-5.587240695953369
524,104800.0,-8.102097511291504,0.2871387302875519,-5.496313571929932
525,105000.0,-8.092526435852049,0.2679961323738098,-5.517848491668701
526,105200.0,-8.12123966217041,0.20817556977272034,-5.42692232131958
527,105400.0,-7.977671146392822,0.1986042857170105,-5.816952228546143
528,105600.0,-8.078168869018555,-0.2871387302875519,-5.48674201965332
529,105800.0,-7.968099594116211,-0.03828516229987145,-5.819344997406006
530,106000.0,-7.968099594116211,-0.03828516229987145,-5.819344997406006
531,106200.0,-8.087740898132324,-0.09571290016174316,-5.5968122482299805
532,106400.0,-8.097311973571777,-0.0406779870390892,-5.441278457641602
533,106600.0,-8.063812255859375,0.055034920573234565,-5.556134223937988
534,106800.0,-8.068597793579103,-0.011964112520217896,-5.544170379638672
535,107000.0,-8.035098075866701,0.06460621207952501,-5.539384365081787
536,107200.0,-8.030312538146973,0.014356935396790503,-5.584848403930664
537,107400.0,-8.030312538146973,0.014356935396790503,-5.584848403930664
538,107600.0,-8.059026718139647,0.06699903309345245,-5.568098068237305
539,107800.0,-8.078168869018555,0.016749758273363113,-5.613561630249023
540,108000.0,-8.039883613586426,0.03589234128594398,-5.56331205368042
541,108200.0,-8.059026718139647,0.0263210479170084,-5.551348686218262
542,108400.0,-7.987241268157959,0.11724831163883208,-5.642275810241699
543,108600.0,-8.049454689025879,0.11724831163883208,-5.546562671661377
544,108800.0,-8.049454689025879,0.11724831163883208,-5.546562671661377
545,109000.0,-8.063812255859375,0.1220339611172676,-5.498706817626953
546,109200.0,-8.015955924987793,0.0933200791478157,-5.613561630249023
547,109400.0,-8.092526435852049,0.1220339611172676,-5.520241737365723
548,109600.0,-8.059026718139647,0.1339980661869049,-5.601597785949707
549,109800.0,-8.054241180419924,0.057427741587162025,-5.615954875946045
550,110000.0,-8.039883613586426,0.11246266961097716,-5.5968122482299805
551,110200.0,-8.025527954101562,0.02392822504043579,-5.637490272521973
552,110400.0,-8.011170387268066,0.12442677468061447,-5.61834716796875
553,110600.0,-8.001599311828612,-0.016749758273363113,-5.61116886138916
554,110800.0,-8.001599311828612,-0.016749758273363113,-5.61116886138916
555,111000.0,-7.977671146392822,0.0263210479170084,-5.625525951385498
556,111200.0,-7.992027282714844,0.04307081177830696,-5.601597785949707
557,111400.0,-8.00638484954834,0.18185453116893768,-5.639883518218994
558,111600.0,-8.001599311828612,0.12921242415905002,-5.61834716796875
559,111800.0,-8.035098075866701,0.0526420958340168,-5.67338228225708
560,112000.0,-8.011170387268066,0.04546363279223442,-5.5896339416503915
561,112200.0,-8.011170387268066,0.04546363279223442,-5.5896339416503915
562,112400.0,-8.025527954101562,0.0813559740781784,-5.592026710510254
563,112600.0,-8.035098075866701,0.06699903309345245,-5.5824551582336435
564,112800.0,-8.054241180419924,0.07896314561367035,-5.5896339416503915
565,113000.0,-8.059026718139647,0.06699903309345245,-5.536991596221924
566,113200.0,-8.035098075866701,0.0263210479170084,-5.606383323669434
567,113400.0,-8.025527954101562,0.20099709928035736,-5.639883518218994
568,113600.0,-8.025527954101562,0.20099709928035736,-5.639883518218994
569,113800.0,-8.059026718139647,0.09092726558446884,-5.565705299377441
570,114000.0,-8.025527954101562,0.055034920573234565,-5.556134223937988
571,114200.0,-8.030312538146973,0.04785645008087158,-5.584848403930664
572,114400.0,-8.054241180419924,0.07896314561367035,-5.568098068237305
573,114600.0,-8.015955924987793,0.12921242415905002,-5.632704257965088
574,114800.0,-8.015955924987793,0.0813559740781784,-5.627918720245361
575,115000.0,-8.015955924987793,0.0813559740781784,-5.627918720245361
576,115200.0,-8.030312538146973,0.02392822504043579,-5.615954875946045
577,115400.0,-8.02074146270752,0.07657032459974289,-5.639883518218994
578,115600.0,-7.987241268157959,0.031106693670153618,-5.625525951385498
579,115800.0,-8.02074146270752,0.09092726558446884,-5.606383323669434
580,116000.0,-8.025527954101562,0.21296121180057528,-5.630311965942383
581,116200.0,-8.001599311828612,0.05024927482008934,-5.623133182525635
582,116400.0,-8.001599311828612,0.05024927482008934,-5.623133182525635
583,116600.0,-8.00638484954834,0.07178468257188797,-5.656632423400879
584,116800.0,-8.001599311828612,-0.031106693670153618,-5.670989990234375
585,117000.0,-7.992027282714844,0.0813559740781784,-5.6685967445373535
586,117200.0,-8.015955924987793,0.07896314561367035,-5.603990077972412
587,117400.0,-8.011170387268066,0.04785645008087158,-5.649453639984131
588,117600.0,-8.00638484954834,0.09810572117567062,-5.678168296813965
589,117800.0,-8.015955924987793,0.10049854964017868,-5.560920238494873
590,118000.0,-8.030312538146973,0.12681959569454193,-5.594419479370117
591,118200.0,-8.030312538146973,0.12681959569454193,-5.594419479370117
592,118400.0,-8.044669151306152,0.10767702758312224,-5.580062389373778
593,118600.0,-7.982456684112549,0.057427741587162025,-5.687739372253418
594,118800.0,-8.02074146270752,0.0526420958340168,-5.61834716796875
595,119000.0,-8.030312538146973,0.1220339611172676,-5.565705299377441
596,119200.0,-8.025527954101562,0.1339980661869049,-5.520241737365723
597,119400.0,-7.99681282043457,0.06460621207952501,-5.61834716796875
598,119600.0,-8.00638484954834,0.09092726558446884,-5.639883518218994
599,119800.0,-8.00638484954834,0.09092726558446884,-5.639883518218994
600,120000.0,-7.977671146392822,0.011964112520217896,-5.644669055938722
601,120200.0,-8.015955924987793,0.17706887423992154,-5.627918720245361
602,120400.0,-7.992027282714844,0.1052841916680336,-5.570490837097168
603,120600.0,-8.015955924987793,0.1866401582956314,-5.6685967445373535
604,120800.0,-7.987241268157959,0.1339980661869049,-5.647061824798584
605,121000.0,-7.9728851318359375,0.062213387340307236,-5.69013261795044
606,121200.0,-7.9728851318359375,0.062213387340307236,-5.69013261795044
607,121400.0,-8.001599311828612,-0.05024927482008934,-5.601597785949707
608,121600.0,-8.015955924987793,0.1459621787071228,-5.606383323669434
609,121800.0,-8.025527954101562,0.06699903309345245,-5.577669143676758
610,122000.0,-8.001599311828612,0.08614162355661392,-5.560920238494873
611,122200.0,-8.030312538146973,-0.007178467698395251,-5.620740413665772
612,122400.0,-8.035098075866701,0.15314064919948578,-5.594419479370117
613,122600.0,-8.035098075866701,0.15314064919948578,-5.594419479370117
614,122800.0,-8.00638484954834,0.05982056260108948,-5.670989990234375
615,123000.0,-7.9585280418396,0.02153540588915348,-5.702096462249756
616,123200.0,-7.977671146392822,0.09810572117567062,-5.627918720245361
617,123400.0,-7.99681282043457,0.0406779870390892,-5.637490272521973
618,123600.0,-7.963313579559326,0.0263210479170084,-5.702096462249756
619,123800.0,-8.015955924987793,0.11485548317432405,-5.637490272521973
620,124000.0,-8.015955924987793,0.11485548317432405,-5.637490272521973
621,124200.0,-8.054241180419924,0.07178468257188797,-5.520241737365723
622,124400.0,-8.025527954101562,0.12442677468061447,-5.568098068237305
623,124600.0,-8.049454689025879,0.01914258114993572,-5.587240695953369
624,124800.0,-8.035098075866701,0.031106693670153618,-5.580062389373778
625,125000.0,-8.054241180419924,0.11006984114646913,-5.544170379638672
626,125200.0,-7.987241268157959,0.1220339611172676,-5.594419479370117
627,125400.0,-7.987241268157959,0.08614162355661392,-5.5968122482299805
628,125600.0,-8.02074146270752,0.1459621787071228,-5.577669143676758
629,125800.0,-7.992027282714844,0.08614162355661392,-5.651846885681152
630,126000.0,-7.992027282714844,0.08614162355661392,-5.651846885681152
631,126200.0,-7.905886173248291,0.07417750358581543,-5.802595138549805
632,126400.0,-8.030312538146973,0.11006984114646913,-5.639883518218994
633,126600.0,-8.039883613586426,0.15314064919948578,-5.639883518218994
634,126800.0,-7.99681282043457,0.0406779870390892,-5.61116886138916
635,127000.0,-8.02074146270752,0.0813559740781784,-5.608776092529297
636,127200.0,-8.00638484954834,0.08374878764152527,-5.632704257965088
637,127400.0,-8.00638484954834,0.08374878764152527,-5.632704257965088
638,127600.0,-8.001599311828612,-0.0263210479170084,-5.67338228225708
639,127800.0,-7.9728851318359375,0.03589234128594398,-5.637490272521973
640,128000.0,-7.987241268157959,-0.0047856452874839315,-5.706881999969482
641,128200.0,-7.992027282714844,0.0526420958340168,-5.642275810241699
642,128400.0,-7.9585280418396,0.02153540588915348,-5.568098068237305
643,128600.0,-7.953742504119872,-0.007178467698395251,-5.72841739654541
644,128800.0,-7.953742504119872,-0.007178467698395251,-5.72841739654541
645,129000.0,-7.977671146392822,-0.04307081177830696,-5.6997032165527335
646,129200.0,-7.987241268157959,0.02153540588915348,-5.687739372253418
647,129400.0,-8.00638484954834,0.028713870793581012,-5.66620397567749
648,129600.0,-8.054241180419924,0.0933200791478157,-5.548955917358398
649,129800.0,-7.968099594116211,0.03828516229987145,-5.757131576538086
650,130000.0,-7.982456684112549,0.028713870793581012,-5.649453639984131
651,130200.0,-7.982456684112549,0.028713870793581012,-5.649453639984131
652,130400.0,-7.9728851318359375,0.04307081177830696,-5.69013261795044
653,130600.0,-7.987241268157959,0.1459621787071228,-5.742774486541747
654,130800.0,-7.925028324127197,0.14835500717163086,-5.766702175140381
655,131000.0,-7.944170951843263,0.09571290016174316,-5.6542396545410165
656,131200.0,-7.9585280418396,0.07417750358581543,-5.694917678833008
657,131400.0,-7.99681282043457,0.033499516546726234,-5.632704257965088
658,131600.0,-7.99681282043457,0.033499516546726234,-5.632704257965088
659,131800.0,-8.039883613586426,0.2105683833360672,-5.592026710510254
660,132000.0,-8.293522834777832,-0.3756731450557709,-6.116055011749268
661,132200.0,-7.365108013153076,-0.6843472719192505,-5.907878875732423
662,132400.0,-8.044669151306152,-0.6317051649093628,-5.685347080230713
663,132600.0,-7.901099681854247,-0.2847459018230438,-5.759523868560791
664,132800.0,-7.872386455535889,-0.2967100143432617,-5.802595138549805
665,133000.0,-7.872386455535889,-0.2967100143432617,-5.802595138549805
666,133200.0,-7.8867435455322275,-0.3613162040710449,-5.737988471984862
667,133400.0,-7.901099681854247,-0.2967100143432617,-5.788238048553468
668,133600.0,-7.8819580078125,-0.4091726541519165,-5.783452033996582
669,133800.0,-7.987241268157959,-0.39960137009620667,-5.6997032165527335
670,134000.0,-7.987241268157959,-0.3493521213531494,-5.659025192260742
671,134200.0,-7.968099594116211,-0.4187439680099487,-5.670989990234375
672,134400.0,-7.9728851318359375,-0.4163511395454407,-5.649453639984131
673,134600.0,-7.939385414123535,-0.39960137009620667,-5.718846321105957
674,134800.0,-7.939385414123535,-0.39960137009620667,-5.718846321105957
675,135000.0,-7.939385414123535,-0.33738797903060913,-5.704488754272461
676,135200.0,-7.905886173248291,-0.4331009089946747,-5.7403812408447275
677,135400.0,-7.9106712341308585,-0.35892340540885925,-5.733203411102295
678,135600.0,-7.915457248687744,-0.4043869972229004,-5.7930235862731925
679,135800.0,-7.891529560089111,-0.3924228847026825,-5.788238048553468
680,136000.0,-7.891529560089111,-0.4570291042327881,-5.989234924316406
681,136200.0,-7.891529560089111,-0.4570291042327881,-5.989234924316406
682,136400.0,-7.862814903259277,-0.4187439680099487,-5.8265228271484375
683,136600.0,-7.948956489562987,-0.4187439680099487,-5.630311965942383
684,136800.0,-7.891529560089111,-0.4019941985607147,-5.802595138549805
685,137000.0,-7.948956489562987,-0.4331009089946747,-5.6757755279541025
686,137200.0,-7.891529560089111,-0.3517449200153351,-5.790630340576173
687,137400.0,-7.929814338684082,-0.3828516006469727,-5.764309883117676
688,137600.0,-7.929814338684082,-0.3828516006469727,-5.764309883117676
689,137800.0,-7.867600917816162,-0.4235295951366425,-5.752345561981201
690,138000.0,-7.925028324127197,-0.4666004180908203,-5.742774486541747
691,138200.0,-7.896315097808838,-0.4809573292732239,-5.776273727416992
692,138400.0,-7.862814903259277,-0.4546363055706024,-5.7930235862731925
693,138600.0,-7.9106712341308585,-0.4426721632480621,-5.804987907409668
694,138800.0,-7.867600917816162,-0.38045880198478704,-5.6997032165527335
695,139000.0,-7.867600917816162,-0.38045880198478704,-5.6997032165527335
696,139200.0,-7.901099681854247,-0.4331009089946747,-5.785844802856445
697,139400.0,-7.877171993255615,-0.4713860750198364,-5.7930235862731925
698,139600.0,-6.479763507843018,-0.5024927258491516,-6.20219612121582
699,139800.0,-7.81974458694458,-0.6005984544754028,-5.840879917144775
700,140000.0,-7.968099594116211,-0.7393822073936462,-5.659025192260742
701,140200.0,-7.8867435455322275,-0.5072783827781677,-5.790630340576173
702,140400.0,-7.858029365539551,-0.4043869972229004,-5.766702175140381
703,140600.0,-7.872386455535889,-0.4929214715957642,-5.735595226287843
704,140800.0,-7.872386455535889,-0.4929214715957642,-5.735595226287843
705,141000.0,-7.853243827819824,-0.4953142702579498,-5.781059265136719
706,141200.0,-7.838886737823486,-0.5072783827781677,-5.836094379425049
707,141400.0,-7.858029365539551,-0.4187439680099487,-5.8265228271484375
708,141600.0,-7.83410120010376,-0.430708110332489,-5.840879917144775
709,141800.0,-7.858029365539551,-0.4450649619102478,-5.776273727416992
710,142000.0,-7.896315097808838,-0.4259224236011505,-5.8097734451293945
711,142200.0,-7.896315097808838,-0.4259224236011505,-5.8097734451293945
712,142400.0,-7.872386455535889,-0.5264209508895874,-5.716453552246094
713,142600.0,-7.891529560089111,-0.4570291042327881,-5.783452033996582
714,142800.0,-7.8819580078125,-0.5024927258491516,-5.773881435394287
715,143000.0,-7.838886737823486,-0.3900300860404968,-5.776273727416992
716,143200.0,-7.853243827819824,-0.4067798554897308,-5.771488666534424
717,143400.0,-7.862814903259277,-0.3828516006469727,-5.814558982849121
718,143600.0,-7.862814903259277,-0.3828516006469727,-5.814558982849121
719,143800.0,-7.848458290100098,-0.34217363595962524,-5.781059265136719
720,144000.0,-7.858029365539551,-0.39960137009620667,-5.790630340576173
721,144200.0,-7.83410120010376,-0.4642075896263122,-5.8265228271484375
722,144400.0,-7.8867435455322275,-0.4211367666721344,-5.816952228546143
723,144600.0,-7.867600917816162,-0.35892340540885925,-5.807380676269531
724,144800.0,-7.8867435455322275,-0.41156551241874695,-5.769095420837402
725,145000.0,-7.8819580078125,-0.413958340883255,-5.781059265136719
726,145200.0,-7.872386455535889,-0.3876372575759888,-5.797809600830077
727,145400.0,-7.872386455535889,-0.3876372575759888,-5.797809600830077
728,145600.0,-7.925028324127197,-0.4163511395454407,-5.757131576538086
729,145800.0,-7.891529560089111,-0.4666004180908203,-5.816952228546143
730,146000.0,-7.838886737823486,-0.5192425251007079,-5.783452033996582
731,146200.0,-7.843672752380371,-0.4905286431312561,-5.840879917144775
732,146400.0,-7.83410120010376,-0.4259224236011505,-5.838487148284912
733,146600.0,-7.872386455535889,-0.4043869972229004,-5.797809600830077
734,146800.0,-7.877171993255615,-0.3828516006469727,-5.7954163551330575
735,147000.0,-7.867600917816162,-0.3613162040710449,-5.72841739654541
736,147200.0,-7.944170951843263,-0.39481574296951294,-5.702096462249756
737,147400.0,-7.944170951843263,-0.39481574296951294,-5.702096462249756
738,147600.0,-7.8819580078125,-0.4402793645858765,-5.773881435394287
739,147800.0,-7.8819580078125,-0.4546363055706024,-5.8097734451293945
740,148000.0,-7.8819580078125,-0.4666004180908203,-5.821736812591553
741,148200.0,-7.843672752380371,-0.4043869972229004,-5.781059265136719
742,148400.0,-7.853243827819824,-0.4378865361213684,-5.788238048553468
743,148600.0,-7.810173511505128,-0.4761717021465302,-5.881557941436768
744,148800.0,-7.810173511505128,-0.4761717021465302,-5.881557941436768
745,149000.0,-7.838886737823486,-0.4378865361213684,-5.797809600830077
746,149200.0,-7.867600917816162,-0.3876372575759888,-5.797809600830077
747,149400.0,-7.8867435455322275,-0.3206382095813751,-5.773881435394287
748,149600.0,-7.8867435455322275,-0.4402793645858765,-5.778666496276856
749,149800.0,-7.8867435455322275,-0.4977070987224579,-5.752345561981201
750,150000.0,-7.848458290100098,-0.3756731450557709,-5.807380676269531
751,150200.0,-7.925028324127197,-0.3780659735202789,-5.769095420837402
752,150400.0,-7.925028324127197,-0.3780659735202789,-5.769095420837402
753,150600.0,-7.862814903259277,-0.4402793645858765,-5.8097734451293945
754,150800.0,-7.83410120010376,-0.4737788736820221,-5.800201892852782
755,151000.0,-7.838886737823486,-0.4522434771060944,-5.893522262573242
756,151200.0,-7.838886737823486,-0.430708110332489,-5.8097734451293945
757,151400.0,-7.848458290100098,-0.4043869972229004,-5.781059265136719
758,151600.0,-7.814958095550537,-0.5790630578994751,-5.860023021697997
759,151800.0,-7.814958095550537,-0.5790630578994751,-5.860023021697997
760,152000.0,-7.83410120010376,-0.42831525206565857,-5.860023021697997
761,152200.0,-7.843672752380371,-0.4331009089946747,-5.771488666534424
762,152400.0,-7.877171993255615,-0.35892340540885925,-5.781059265136719
763,152600.0,-7.8819580078125,-0.4618147313594818,-5.836094379425049
764,152800.0,-7.838886737823486,-0.4689932465553284,-5.879165172576903
765,153000.0,-7.8245296478271475,-0.5024927258491516,-5.788238048553468
766,153200.0,-7.8245296478271475,-0.5024927258491516,-5.788238048553468
767,153400.0,-7.858029365539551,-0.4402793645858765,-5.8097734451293945
768,153600.0,-7.8819580078125,-0.4043869972229004,-5.702096462249756
769,153800.0,-7.8819580078125,-0.4618147313594818,-5.759523868560791
770,154000.0,-7.915457248687744,-0.4450649619102478,-5.764309883117676
771,154200.0,-7.862814903259277,-0.4546363055706024,-5.733203411102295
772,154400.0,-7.8867435455322275,-0.4570291042327881,-5.783452033996582
773,154600.0,-7.853243827819824,-0.3876372575759888,-5.752345561981201
774,154800.0,-7.853243827819824,-0.3876372575759888,-5.752345561981201
775,155000.0,-7.896315097808838,-0.4402793645858765,-5.838487148284912
776,155200.0,-7.814958095550537,-0.4570291042327881,-5.864808082580566
777,155400.0,-7.853243827819824,-0.4881358444690704,-5.828916072845459
778,155600.0,-7.8006019592285165,-0.4378865361213684,-5.893522262573242
779,155800.0,-7.81974458694458,-0.4666004180908203,-5.898308277130128
780,156000.0,-7.848458290100098,-0.3876372575759888,-5.8480587005615225
781,156200.0,-7.81974458694458,-0.413958340883255,-5.7954163551330575
782,156400.0,-7.8245296478271475,-0.4331009089946747,-5.8265228271484375
783,156600.0,-7.8245296478271475,-0.4331009089946747,-5.8265228271484375
784,156800.0,-7.8867435455322275,-0.4666004180908203,-5.788238048553468
785,157000.0,-7.8819580078125,-0.4689932465553284,-5.766702175140381
786,157200.0,-7.925028324127197,-0.3517449200153351,-5.7403812408447275
787,157400.0,-7.8867435455322275,-0.4737788736820221,-5.737988471984862
788,157600.0,-7.896315097808838,-0.4881358444690704,-5.783452033996582
789,157800.0,-7.829315185546875,-0.3756731450557709,-5.773881435394287
790,158000.0,-7.829315185546875,-0.3756731450557709,-5.773881435394287
791,158200.0,-7.81974458694458,-0.4091726541519165,-5.8887367248535165
792,158400.0,-7.738388061523437,-0.4522434771060944,-5.958127975463867
793,158600.0,-7.867600917816162,-0.4761717021465302,-5.864808082580566
794,158800.0,-7.829315185546875,-0.430708110332489,-5.86720085144043
795,159000.0,-7.848458290100098,-0.4666004180908203,-5.802595138549805
796,159200.0,-7.867600917816162,-0.4594219326972962,-5.840879917144775
797,159400.0,-7.848458290100098,-0.3038884699344635,-5.886343479156494
798,159600.0,-7.848458290100098,-0.3038884699344635,-5.886343479156494
799,159800.0,-7.853243827819824,-0.4498506784439087,-5.821736812591553
800,160000.0,-7.786244869232178,-0.39960137009620667,-5.900700569152832
801,160200.0,-7.776673316955566,-0.3732803165912628,-5.907878875732423
802,160400.0,-7.776673316955566,-0.4642075896263122,-5.886343479156494
803,160600.0,-7.786244869232178,-0.5216353535652161,-5.900700569152832
804,160800.0,-7.767102241516112,-0.3900300860404968,-5.948556900024414
805,161000.0,-7.767102241516112,-0.3900300860404968,-5.948556900024414
806,161200.0,-7.77188777923584,-0.3517449200153351,-5.910271644592285
807,161400.0,-7.724031925201416,-0.4402793645858765,-5.9198431968688965
808,161600.0,-7.719245910644531,-0.4785645008087158,-5.9988059997558585
809,161800.0,-7.747959613800049,-0.4737788736820221,-5.965306758880615
810,162000.0,-7.786244869232178,-0.3756731450557709,-5.9126644134521475
811,162200.0,-7.786244869232178,-0.3397807776927948,-5.898308277130128
812,162400.0,-7.81974458694458,-0.4642075896263122,-5.886343479156494
813,162600.0,-7.776673316955566,-0.4737788736820221,-5.938986301422119
814,162800.0,-7.776673316955566,-0.4737788736820221,-5.938986301422119
815,163000.0,-7.77188777923584,-0.39481574296951294,-5.9748783111572275
816,163200.0,-7.709674835205077,-0.413958340883255,-5.936593055725098
817,163400.0,-7.733603000640869,-0.4402793645858765,-5.9198431968688965
818,163600.0,-7.77188777923584,-0.5072783827781677,-5.946164608001709
819,163800.0,-7.719245910644531,-0.4019941985607147,-6.068198204040527
820,164000.0,-7.791030406951903,-0.3828516006469727,-5.910271644592285
821,164200.0,-7.762316703796388,-0.25363919138908386,-5.857630252838135
822,164400.0,-7.762316703796388,-0.25363919138908386,-5.857630252838135
823,164600.0,-7.791030406951903,-0.4761717021465302,-5.91505765914917
824,164800.0,-7.781459331512451,-0.4666004180908203,-5.86720085144043
825,165000.0,-7.762316703796388,-0.41156551241874695,-5.91505765914917
826,165200.0,-7.795816421508789,-0.3876372575759888,-5.92223596572876
827,165400.0,-7.8006019592285165,-0.4929214715957642,-5.862415313720702
828,165600.0,-7.733603000640869,-0.48574298620224,-5.8887367248535165
829,165800.0,-7.733603000640869,-0.48574298620224,-5.8887367248535165
830,166000.0,-7.77188777923584,-0.413958340883255,-5.891129493713379
831,166200.0,-7.714460372924805,-0.4522434771060944,-5.9533424377441415
832,166400.0,-7.728816509246826,-0.5024927258491516,-6.001199245452881
833,166600.0,-7.738388061523437,-0.4929214715957642,-5.941378593444824
834,166800.0,-7.714460372924805,-0.430708110332489,-5.917449951171875
835,167000.0,-7.733603000640869,-0.4666004180908203,-5.958127975463867
836,167200.0,-7.738388061523437,-0.5647061467170715,-5.950949668884277
837,167400.0,-7.738388061523437,-0.5647061467170715,-5.950949668884277
838,167600.0,-7.767102241516112,-0.4331009089946747,-5.936593055725098
839,167800.0,-7.786244869232178,-0.3397807776927948,-5.898308277130128
840,168000.0,-7.762316703796388,-0.3924228847026825,-5.958127975463867
841,168200.0,-7.77188777923584,-0.4689932465553284,-5.924628734588622
842,168400.0,-7.743173599243164,-0.3900300860404968,-5.979663372039795
843,168600.0,-7.795816421508789,-0.3661018908023834,-5.900700569152832
844,168800.0,-7.795816421508789,-0.3661018908023834,-5.900700569152832
845,169000.0,-7.752745151519775,-0.4881358444690704,-5.955735206604004
846,169200.0,-7.724031925201416,-0.4570291042327881,-6.005984783172607
847,169400.0,-7.767102241516112,-0.5288137793540955,-6.003591537475586
848,169600.0,-7.752745151519775,-0.4378865361213684,-6.049055576324463
849,169800.0,-7.728816509246826,-0.39960137009620667,-5.962913990020753
850,170000.0,-7.709674835205077,-0.3828516006469727,-5.941378593444824
851,170200.0,-7.795816421508789,-0.4737788736820221,-5.860023021697997
852,170400.0,-7.795816421508789,-0.4737788736820221,-5.860023021697997
853,170600.0,-7.767102241516112,-0.4259224236011505,-5.929414749145508
854,170800.0,-7.781459331512451,-0.4067798554897308,-5.879165172576903
855,171000.0,-7.791030406951903,-0.3661018908023834,-5.946164608001709
856,171200.0,-7.747959613800049,-0.4881358444690704,-5.910271644592285
857,171400.0,-7.776673316955566,-0.3876372575759888,-5.876771926879883
858,171600.0,-7.791030406951903,-0.4953142702579498,-5.948556900024414
859,171800.0,-7.795816421508789,-0.4019941985607147,-5.891129493713379
860,172000.0,-7.795816421508789,-0.4019941985607147,-5.891129493713379
861,172200.0,-7.743173599243164,-0.4043869972229004,-5.9533424377441415
862,172400.0,-7.747959613800049,-0.5407779216766357,-5.962913990020753
863,172600.0,-7.743173599243164,-0.4378865361213684,-6.003591537475586
864,172800.0,-7.762316703796388,-0.4235295951366425,-5.924628734588622
865,173000.0,-7.747959613800049,-0.552742063999176,-6.005984783172607
866,173200.0,-7.724031925201416,-0.4354937374591827,-5.943771839141847
867,173400.0,-7.724031925201416,-0.4354937374591827,-5.943771839141847
868,173600.0,-7.733603000640869,-0.4713860750198364,-5.9748783111572275
869,173800.0,-7.743173599243164,-0.5096712112426758,-6.013163089752197
870,174000.0,-7.747959613800049,-0.4570291042327881,-5.943771839141847
871,174200.0,-7.747959613800049,-0.41156551241874695,-5.960521221160889
872,174400.0,-7.752745151519775,-0.3780659735202789,-5.893522262573242
873,174600.0,-7.747959613800049,-0.5575276613235474,-5.898308277130128
874,174800.0,-7.776673316955566,-0.4450649619102478,-5.905486583709718
875,175000.0,-7.776673316955566,-0.4450649619102478,-5.905486583709718
876,175200.0,-7.781459331512451,-0.39481574296951294,-5.874379634857178
877,175400.0,-7.724031925201416,-0.5168496966362001,-6.034698486328125
878,175600.0,-7.747959613800049,-0.4498506784439087,-5.962913990020753
879,175800.0,-7.738388061523437,-0.36370906233787537,-5.9342002868652335
880,176000.0,-7.728816509246826,-0.430708110332489,-5.946164608001709
881,176200.0,-7.728816509246826,-0.430708110332489,-5.946164608001709
882,176400.0,-7.719245910644531,-0.4881358444690704,-6.015556335449219
883,176600.0,-7.733603000640869,-0.4642075896263122,-6.013163089752197
884,176800.0,-7.781459331512451,-0.5096712112426758,-5.931807041168213
885,177000.0,-7.805387496948242,-0.4977070987224579,-5.816952228546143
886,177200.0,-7.728816509246826,-0.3924228847026825,-5.9748783111572275
887,177400.0,-7.709674835205077,-0.4426721632480621,-6.03230619430542
888,177600.0,-7.709674835205077,-0.4426721632480621,-6.03230619430542
889,177800.0,-7.700103282928468,-0.48574298620224,-5.994020462036133
890,178000.0,-7.7048888206481925,-0.4594219326972962,-6.075376510620117
891,178200.0,-7.709674835205077,-0.4713860750198364,-5.9748783111572275
892,178400.0,-7.77188777923584,-0.5096712112426758,-5.950949668884277
893,178600.0,-7.719245910644531,-0.4737788736820221,-6.0299134254455575
894,178800.0,-7.743173599243164,-0.3302095234394073,-5.948556900024414
895,179000.0,-7.738388061523437,-0.430708110332489,-5.917449951171875
896,179200.0,-7.738388061523437,-0.430708110332489,-5.917449951171875
897,179400.0,-7.733603000640869,-0.4881358444690704,-6.020341873168945
898,179600.0,-7.752745151519775,-0.34695929288864136,-5.958127975463867
899,179800.0,-7.695317268371582,-0.2847459018230438,-6.02512788772583
900,180000.0,-7.671389579772949,-0.4331009089946747,-6.077769756317139
901,180200.0,-7.623533248901367,-0.5192425251007079,-6.228517532348633
902,180400.0,-7.733603000640869,-0.7250252366065979,-5.967699527740479
903,180600.0,-7.733603000640869,-0.5120640397071838,-5.994020462036133
904,180800.0,-7.781459331512451,-0.42831525206565857,-5.874379634857178
905,181000.0,-7.781459331512451,-0.42831525206565857,-5.874379634857178
906,181200.0,-7.657032012939452,-0.5623133182525635,-6.0394840240478525
907,181400.0,-7.709674835205077,-0.5383850932121277,-6.0466628074646
908,181600.0,-7.6522464752197275,-0.6388836503028871,-5.802595138549805
909,181800.0,-7.590033531188965,-0.25842484831810003,-6.106483459472656
910,182000.0,-7.537391662597656,0.15074782073497772,-6.159125804901122
911,182200.0,-7.23589563369751,-0.7609176039695741,-6.431907176971436
912,182400.0,-7.23589563369751,-0.7609176039695741,-6.431907176971436
913,182600.0,-7.28375244140625,-0.5958128571510315,-6.5180487632751465
914,182800.0,-7.216752529144287,-0.6484549045562744,-6.470191955566406
915,183000.0,-7.197610855102539,-0.7824530005455017,-6.5180487632751465
916,183200.0,-7.240681171417236,-0.7489535212516785,-6.503692150115968
917,183400.0,-7.1641106605529785,-0.7609176039695741,-6.527620315551758
918,183600.0,-7.178467750549316,-0.7728817462921143,-6.611368656158447
919,183800.0,-7.1641106605529785,-0.8709874749183655,-6.6831536293029785
920,184000.0,-7.207180976867676,-0.6436693072319031,-6.530013084411621
921,184200.0,-7.207180976867676,-0.6436693072319031,-6.530013084411621
922,184400.0,-7.144968032836914,-0.5814558863639832,-6.553941249847412
923,184600.0,-7.183253765106201,-0.7513462901115417,-6.503692150115968
924,184800.0,-7.255037784576416,-0.8159525394439697,-6.539584159851074
925,185000.0,-7.2885379791259775,-0.7513462901115417,-6.489335060119629
926,185200.0,-7.264609336853027,-0.7322037816047668,-6.472585201263428
927,185400.0,-7.183253765106201,-0.8997013568878174,-6.597012042999268
928,185600.0,-7.149754047393799,-0.8111668825149536,-6.539584159851074
929,185800.0,-7.149754047393799,-0.8111668825149536,-6.539584159851074
930,186000.0,-7.168896198272705,-0.8638089299201965,-6.580262184143066
931,186200.0,-7.188039302825928,-0.8446664214134216,-6.544370174407959
932,186400.0,-7.192824840545653,-0.7824530005455017,-6.522834300994872
933,186600.0,-7.183253765106201,-0.7896314859390259,-6.515655517578125
934,186800.0,-7.183253765106201,-0.8853443264961243,-6.63769006729126
935,187000.0,-7.1641106605529785,-0.8398807048797607,-6.592226982116699
936,187200.0,-7.1641106605529785,-0.8398807048797607,-6.592226982116699
937,187400.0,-7.15932559967041,-0.8494520783424377,-6.640083312988281
938,187600.0,-7.192824840545653,-0.8063812851905823,-6.527620315551758
939,187800.0,-7.135397434234619,-0.8446664214134216,-6.604190349578857
940,188000.0,-7.23589563369751,-0.8685945868492126,-6.5324058532714835
941,188200.0,-7.322037220001222,-0.42831525206565857,-6.7453670501708975
942,188400.0,-7.058826446533202,-1.3663017749786377,-6.130411148071289
943,188600.0,-7.637890338897705,2.155933380126953,-6.015556335449219
944,188800.0,-7.896315097808838,1.4069796800613403,-5.649453639984131
945,189000.0,-8.059026718139647,1.8927226066589355,-5.331209182739258
946,189200.0,-8.049454689025879,1.0145567655563354,-5.340780735015869
947,189400.0,-8.049454689025879,1.0145567655563354,-5.340780735015869
948,189600.0,-7.963313579559326,2.1702899932861333,-5.235496044158936
949,189800.0,-7.728816509246826,3.005385160446167,-5.331209182739258
950,190000.0,-7.719245910644531,2.376072883605957,-5.436492443084717
