,timestamp,ax,ay,az
0,7000.0,9.293723106384276,3.579662799835205,-0.9834501147270204
1,7100.0,9.293723106384276,3.579662799835205,-0.9834501147270204
2,7200.0,9.293723106384276,3.579662799835205,-0.9834501147270204
3,7300.0,9.293723106384276,3.579662799835205,-0.9834501147270204
4,7400.0,9.293723106384276,3.579662799835205,-0.9834501147270204
5,7500.0,10.155139923095703,3.5820553302764893,-3.665804386138916
6,7600.0,10.155139923095703,3.5820553302764893,-3.665804386138916
7,7700.0,9.274580955505373,1.3902300596237185,-3.845265865325928
8,7800.0,9.274580955505373,1.3902300596237185,-3.845265865325928
9,7900.0,9.159724235534668,2.187039852142334,-1.361515998840332
10,8000.0,9.159724235534668,2.187039852142334,-1.361515998840332
11,8100.0,9.159724235534668,2.187039852142334,-1.361515998840332
12,8200.0,9.121439933776855,2.2013967037200928,-0.8015955686569214
13,8300.0,9.121439933776855,2.2013967037200928,-0.8015955686569214
14,8400.0,9.51386260986328,2.1750757694244385,-2.3856441974639893
15,8500.0,9.51386260986328,2.1750757694244385,-2.3856441974639893
16,8600.0,11.021341323852539,2.0721843242645264,-1.9477576017379759
17,8700.0,11.021341323852539,2.0721843242645264,-1.9477576017379759
18,8800.0,8.642874717712402,0.9906285405158995,-1.921436548233032
19,8900.0,8.642874717712402,0.9906285405158995,-1.921436548233032
20,9000.0,8.642874717712402,0.9906285405158995,-1.921436548233032
21,9100.0,12.155539512634276,2.1224336624145512,-1.9812570810317995
22,9200.0,12.155539512634276,2.1224336624145512,-1.9812570810317995
23,9300.0,8.800802230834961,1.9142580032348635,-1.5409778356552124
24,9400.0,8.800802230834961,1.9142580032348635,-1.5409778356552124
25,9500.0,8.781659126281737,1.7347965240478516,-2.227717876434326
26,9600.0,8.781659126281737,1.7347965240478516,-2.227717876434326
27,9700.0,8.781659126281737,1.7347965240478516,-2.227717876434326
28,9800.0,10.365707397460938,1.8209381103515625,-2.9383859634399414
29,9900.0,10.365707397460938,1.8209381103515625,-2.9383859634399414
30,10000.0,10.73420238494873,2.7661027908325195,-0.8303093910217285
31,10100.0,10.73420238494873,2.7661027908325195,-0.8303093910217285
32,10200.0,10.73420238494873,2.7661027908325195,-0.8303093910217285
33,10300.0,8.10688304901123,1.6031911373138428,-1.0815558433532717
34,10400.0,8.10688304901123,1.6031911373138428,-1.0815558433532717
35,10500.0,6.982256412506104,1.835294842720032,-1.5768700838088991
36,10600.0,6.982256412506104,1.835294842720032,-1.5768700838088991
37,10700.0,12.16032600402832,2.0362920761108403,-3.0005996227264404
38,10800.0,12.16032600402832,2.0362920761108403,-3.0005996227264404
39,10900.0,8.877371788024902,2.6967110633850098,-2.524427890777588
40,11000.0,8.877371788024902,2.6967110633850098,-2.524427890777588
41,11100.0,8.461020469665527,1.6295121908187866,-2.069791555404663
42,11200.0,8.461020469665527,1.6295121908187866,-2.069791555404663
43,11300.0,8.461020469665527,1.6295121908187866,-2.069791555404663
44,11400.0,8.585447311401367,1.2538390159606934,-2.5746772289276123
45,11500.0,8.585447311401367,1.2538390159606934,-2.5746772289276123
46,11600.0,9.805787086486816,1.2681961059570312,-2.263610363006592
47,11700.0,9.805787086486816,1.2681961059570312,-2.263610363006592
48,11800.0,11.016555786132812,1.916650891304016,-3.1585259437561035
49,11900.0,11.016555786132812,1.916650891304016,-3.1585259437561035
50,12000.0,7.685746192932129,2.617748022079468,-2.1104695796966557
51,12100.0,7.685746192932129,2.617748022079468,-2.1104695796966557
52,12200.0,7.685746192932129,2.617748022079468,-2.1104695796966557
53,12300.0,10.456634521484377,1.325623631477356,-0.9523434042930604
54,12400.0,10.456634521484377,1.325623631477356,-0.9523434042930604
55,12500.0,6.51326322555542,2.407179594039917,-1.5050854682922363
56,12600.0,6.51326322555542,2.407179594039917,-1.5050854682922363
57,12700.0,9.877571105957033,4.122833251953125,-2.3712873458862305
58,12800.0,9.877571105957033,4.122833251953125,-2.3712873458862305
59,12900.0,16.692331314086914,2.89052963256836,-0.9858429431915284
60,13000.0,16.692331314086914,2.89052963256836,-0.9858429431915284
61,13100.0,16.692331314086914,2.89052963256836,-0.9858429431915284
62,13200.0,7.001399040222168,2.5746772289276123,-2.411965131759644
63,13300.0,7.001399040222168,2.5746772289276123,-2.411965131759644
64,13400.0,9.834501266479492,1.5050854682922363,-2.7900311946868896
65,13500.0,9.834501266479492,1.5050854682922363,-2.7900311946868896
66,13600.0,9.834501266479492,1.5050854682922363,-2.7900311946868896
67,13700.0,9.80100154876709,2.739781856536865,-1.6486548185348509
68,13800.0,9.80100154876709,2.739781856536865,-1.6486548185348509
69,13900.0,6.996613025665282,1.4524433612823486,-0.7537391781806946
70,14000.0,6.996613025665282,1.4524433612823486,-0.7537391781806946
71,14100.0,8.327022552490233,2.912065029144287,-2.68953275680542
72,14200.0,8.327022552490233,2.912065029144287,-2.68953275680542
73,14300.0,13.36152172088623,2.8666017055511475,-2.4095723628997803
74,14400.0,13.36152172088623,2.8666017055511475,-2.4095723628997803
75,14500.0,13.36152172088623,2.8666017055511475,-2.4095723628997803
76,14600.0,8.542377471923826,2.069791555404663,-1.8975083827972408
77,14700.0,8.542377471923826,2.069791555404663,-1.8975083827972408
78,14800.0,8.169095993041992,2.636890411376953,-2.230110645294189
79,14900.0,8.169095993041992,2.636890411376953,-2.230110645294189
80,15000.0,10.901700019836426,2.244467735290528,-3.45045018196106
81,15100.0,10.901700019836426,2.244467735290528,-3.45045018196106
82,15200.0,11.581260681152346,2.132004976272583,-2.864208698272705
83,15300.0,11.581260681152346,2.132004976272583,-2.864208698272705
84,15400.0,11.581260681152346,2.132004976272583,-2.864208698272705
85,15500.0,5.828916072845459,1.0408778190612793,-2.0554347038269043
86,15600.0,5.828916072845459,1.0408778190612793,-2.0554347038269043
87,15700.0,6.776473522186278,2.988635540008545,-2.0410776138305664
88,15800.0,6.776473522186278,2.988635540008545,-2.0410776138305664
89,15900.0,11.648260116577148,2.833101987838745,-2.4287149906158447
90,16000.0,11.648260116577148,2.833101987838745,-2.4287149906158447
91,16100.0,10.80120086669922,2.6321046352386475,-0.7776673436164856
92,16200.0,10.80120086669922,2.6321046352386475,-0.7776673436164856
93,16300.0,9.533005714416504,2.756531953811645,-3.2781667709350586
94,16400.0,9.533005714416504,2.756531953811645,-3.2781667709350586
95,16500.0,9.379864692687988,2.483749866485596,-3.1250264644622803
96,16600.0,9.379864692687988,2.483749866485596,-3.1250264644622803
97,16700.0,10.71027374267578,0.7034898400306702,-2.6321046352386475
98,16800.0,10.71027374267578,0.7034898400306702,-2.6321046352386475
99,16900.0,10.71027374267578,0.7034898400306702,-2.6321046352386475
100,17000.0,6.436692714691162,1.0384850502014158,-2.53399920463562
101,17100.0,6.436692714691162,1.0384850502014158,-2.53399920463562
102,17200.0,14.59621810913086,1.0049854516983032,-1.4524433612823486
103,17300.0,14.59621810913086,1.0049854516983032,-1.4524433612823486
104,17400.0,9.126225471496582,2.0650060176849365,-0.902094066143036
105,17500.0,9.126225471496582,2.0650060176849365,-0.902094066143036
106,17600.0,10.423135757446287,2.5746772289276123,-3.1106693744659424
107,17700.0,10.423135757446287,2.5746772289276123,-3.1106693744659424
108,17800.0,10.423135757446287,2.5746772289276123,-3.1106693744659424
109,17900.0,10.327423095703123,-0.2488535493612289,-2.7732813358306885
110,18000.0,10.327423095703123,-0.2488535493612289,-2.7732813358306885
111,18100.0,11.624333381652832,0.7992027401924133,-1.6869399547576904
112,18200.0,11.624333381652832,0.7992027401924133,-1.6869399547576904
113,18300.0,11.624333381652832,0.7992027401924133,-1.6869399547576904
114,18400.0,6.317051887512207,2.2755744457244877,-1.1653046607971191
115,18500.0,6.317051887512207,2.2755744457244877,-1.1653046607971191
116,18600.0,11.849257469177244,2.974278450012207,-2.2779672145843506
117,18700.0,11.849257469177244,2.974278450012207,-2.2779672145843506
118,18800.0,9.767501831054688,1.5936198234558103,-1.4691929817199707
119,18900.0,9.767501831054688,1.5936198234558103,-1.4691929817199707
120,19000.0,8.312665939331055,0.39960137009620667,-1.6151552200317385
121,19100.0,8.312665939331055,0.39960137009620667,-1.6151552200317385
122,19200.0,9.571290969848633,0.0933200791478157,-2.242074966430664
123,19300.0,9.571290969848633,0.0933200791478157,-2.242074966430664
124,19400.0,9.571290969848633,0.0933200791478157,-2.242074966430664
125,19500.0,13.5242338180542,0.8566305041313171,-2.589033842086792
126,19600.0,13.5242338180542,0.8566305041313171,-2.589033842086792
127,19700.0,10.198209762573242,1.9453648328781128,-1.0815558433532717
128,19800.0,10.198209762573242,1.9453648328781128,-1.0815558433532717
129,19900.0,7.302894115447997,1.22033953666687,-1.0001999139785769
130,20000.0,7.302894115447997,1.22033953666687,-1.0001999139785769
131,20100.0,7.302894115447997,1.22033953666687,-1.0001999139785769
132,20200.0,7.872386455535889,2.3186452388763428,-2.861815929412842
133,20300.0,7.872386455535889,2.3186452388763428,-2.861815929412842
134,20400.0,11.552547454833984,3.050848960876465,-3.87876558303833
135,20500.0,11.552547454833984,3.050848960876465,-3.87876558303833
136,20600.0,7.264609336853027,1.5912269353866575,-3.1800613403320312
137,20700.0,7.264609336853027,1.5912269353866575,-3.1800613403320312
138,20800.0,8.154739379882812,0.9260223507881165,-3.8596229553222656
139,20900.0,8.154739379882812,0.9260223507881165,-3.8596229553222656
140,21000.0,9.710074424743652,1.0743772983551023,-3.242274522781372
141,21100.0,9.710074424743652,1.0743772983551023,-3.242274522781372
142,21200.0,9.710074424743652,1.0743772983551023,-3.242274522781372
143,21300.0,10.786844253540039,1.368694543838501,-2.476571559906006
144,21400.0,10.786844253540039,1.368694543838501,-2.476571559906006
145,21500.0,6.058626651763916,1.519442439079285,-1.3351951837539673
146,21600.0,6.058626651763916,1.519442439079285,-1.3351951837539673
147,21700.0,6.058626651763916,1.519442439079285,-1.3351951837539673
148,21800.0,14.825928688049315,1.5744771957397459,-2.96949315071106
149,21900.0,14.825928688049315,1.5744771957397459,-2.96949315071106
150,22000.0,8.82951545715332,1.246660590171814,-3.2614171504974365
151,22100.0,8.82951545715332,1.246660590171814,-3.2614171504974365
152,22200.0,8.365307807922362,2.069791555404663,-2.263610363006592
153,22300.0,8.365307807922362,2.069791555404663,-2.263610363006592
154,22400.0,11.71526050567627,0.3349951505661011,-3.383451223373413
155,22500.0,11.71526050567627,0.3349951505661011,-3.383451223373413
156,22600.0,11.71526050567627,0.3349951505661011,-3.383451223373413
157,22700.0,9.734003067016602,1.9286150932312007,-1.1030912399291992
158,22800.0,9.734003067016602,1.9286150932312007,-1.1030912399291992
159,22900.0,7.436892509460449,1.832902193069458,-0.5192425251007079
160,23000.0,7.436892509460449,1.832902193069458,-0.5192425251007079
161,23100.0,9.06879711151123,1.3591231107711792,-1.921436548233032
162,23200.0,9.06879711151123,1.3591231107711792,-1.921436548233032
163,23300.0,9.06879711151123,1.3591231107711792,-1.921436548233032
164,23400.0,11.318050384521484,2.00518536567688,-2.1942183971405034
165,23500.0,11.318050384521484,2.00518536567688,-2.1942183971405034
166,23600.0,6.87697172164917,1.4404792785644531,-2.263610363006592
167,23700.0,6.87697172164917,1.4404792785644531,-2.263610363006592
168,23800.0,8.997013092041016,1.057627558708191,-3.072384119033813
169,23900.0,8.997013092041016,1.057627558708191,-3.072384119033813
170,24000.0,10.686346054077148,1.1629117727279663,-2.761317014694214
171,24100.0,10.686346054077148,1.1629117727279663,-2.761317014694214
172,24200.0,10.686346054077148,1.1629117727279663,-2.761317014694214
173,24300.0,7.905886173248291,1.3304094076156616,-1.3878371715545654
174,24400.0,7.905886173248291,1.3304094076156616,-1.3878371715545654
175,24500.0,8.676375389099121,0.6580261588096619,-1.797009825706482
176,24600.0,8.676375389099121,0.6580261588096619,-1.797009825706482
177,24700.0,8.676375389099121,0.6580261588096619,-1.797009825706482
178,24800.0,8.145168304443361,0.9140582084655762,-2.4287149906158447
179,24900.0,8.145168304443361,0.9140582084655762,-2.4287149906158447
180,25000.0,9.279366493225098,1.5936198234558103,-2.5555346012115483
181,25100.0,9.279366493225098,1.5936198234558103,-2.5555346012115483
182,25200.0,8.456235885620117,1.9453648328781128,-1.9621145725250244
183,25300.0,8.456235885620117,1.9453648328781128,-1.9621145725250244
184,25400.0,10.313065528869627,2.392822742462158,-2.9838497638702397
185,25500.0,10.313065528869627,2.392822742462158,-2.9838497638702397
186,25600.0,9.446864128112793,2.792424201965332,-2.723031997680664
187,25700.0,9.446864128112793,2.792424201965332,-2.723031997680664
188,25800.0,9.446864128112793,2.792424201965332,-2.723031997680664
189,25900.0,8.86780071258545,1.0695916414260864,-2.3976082801818848
190,26000.0,8.86780071258545,1.0695916414260864,-2.3976082801818848
191,26100.0,9.753145217895508,0.7513462901115417,-1.94297194480896
192,26200.0,9.753145217895508,0.7513462901115417,-1.94297194480896
193,26300.0,10.52363395690918,1.3998013734817505,-1.179661512374878
194,26400.0,10.52363395690918,1.3998013734817505,-1.179661512374878
195,26500.0,10.52363395690918,1.3998013734817505,-1.179661512374878
196,26600.0,9.87278652191162,2.108076810836792,-2.8043880462646484
197,26700.0,9.87278652191162,2.108076810836792,-2.8043880462646484
198,26800.0,11.696117401123047,1.9238293170928955,-3.615554809570313
199,26900.0,11.696117401123047,1.9238293170928955,-3.615554809570313
200,27000.0,11.576476097106935,0.729810893535614,-2.1224336624145512
201,27100.0,11.576476097106935,0.729810893535614,-2.1224336624145512
202,27200.0,11.576476097106935,0.729810893535614,-2.1224336624145512
203,27300.0,6.379265785217285,0.12442677468061447,-2.2779672145843506
204,27400.0,6.379265785217285,0.12442677468061447,-2.2779672145843506
205,27500.0,9.53779125213623,1.94297194480896,-2.462214469909668
206,27600.0,9.53779125213623,1.94297194480896,-2.462214469909668
207,27700.0,9.53779125213623,1.94297194480896,-2.462214469909668
208,27800.0,8.413164138793945,1.5385849475860596,-2.462214469909668
209,27900.0,8.413164138793945,1.5385849475860596,-2.462214469909668
210,28000.0,9.619147300720217,0.3158525824546814,-3.608376264572144
211,28100.0,9.619147300720217,0.3158525824546814,-3.608376264572144
212,28200.0,10.906485557556152,1.1102697849273682,-2.6416761875152592
213,28300.0,10.906485557556152,1.1102697849273682,-2.6416761875152592
214,28400.0,8.264809608459473,0.7082754969596863,-1.3639088869094849
215,28500.0,8.264809608459473,0.7082754969596863,-1.3639088869094849
216,28600.0,8.264809608459473,0.7082754969596863,-1.3639088869094849
217,28700.0,7.944170951843263,1.4739787578582764,-1.0552347898483276
218,28800.0,7.944170951843263,1.4739787578582764,-1.0552347898483276
219,28900.0,15.160923957824707,1.0456634759902954,-2.65842604637146
220,29000.0,15.160923957824707,1.0456634759902954,-2.65842604637146
221,29100.0,7.140182495117188,0.1627119481563568,-1.4500504732131958
222,29200.0,7.140182495117188,0.1627119481563568,-1.4500504732131958
223,29300.0,7.140182495117188,0.1627119481563568,-1.4500504732131958
224,29400.0,8.839086532592773,-0.4713860750198364,-2.493321180343628
225,29500.0,8.839086532592773,-0.4713860750198364,-2.493321180343628
226,29600.0,9.958927154541016,0.6652047038078308,-2.0961124897003174
227,29700.0,9.958927154541016,0.6652047038078308,-2.0961124897003174
228,29800.0,7.599604606628418,0.35413774847984314,-2.0362920761108403
229,29900.0,7.599604606628418,0.35413774847984314,-2.0362920761108403
230,30000.0,9.470791816711426,1.6677974462509155,-1.3375877141952517
231,30100.0,9.470791816711426,1.6677974462509155,-1.3375877141952517
232,30200.0,9.470791816711426,1.6677974462509155,-1.3375877141952517
233,30300.0,8.934800148010254,1.2873386144638062,-1.284945726394653
234,30400.0,8.934800148010254,1.2873386144638062,-1.284945726394653
235,30500.0,14.208581924438475,0.3397807776927948,-1.2921242713928225
236,30600.0,14.208581924438475,0.3397807776927948,-1.2921242713928225
237,30700.0,8.599804878234862,0.9284151792526244,-2.242074966430664
238,30800.0,8.599804878234862,0.9284151792526244,-2.242074966430664
239,30900.0,8.599804878234862,0.9284151792526244,-2.242074966430664
240,31000.0,8.60459041595459,0.902094066143036,-2.297109842300415
241,31100.0,8.60459041595459,0.902094066143036,-2.297109842300415
242,31200.0,10.045069694519043,1.1748759746551514,-2.933600425720215
243,31300.0,10.045069694519043,1.1748759746551514,-2.933600425720215
244,31400.0,11.337193489074707,2.63449764251709,-0.6005984544754028
245,31500.0,11.337193489074707,2.63449764251709,-0.6005984544754028
246,31600.0,11.337193489074707,2.63449764251709,-0.6005984544754028
247,31700.0,6.900900363922119,1.423729419708252,-0.3852444589138031
248,31800.0,6.900900363922119,1.423729419708252,-0.3852444589138031
249,31900.0,10.84427261352539,1.5864413976669312,-1.741974949836731
250,32000.0,10.84427261352539,1.5864413976669312,-1.741974949836731
251,32100.0,9.848857879638672,1.9621145725250244,-2.108076810836792
252,32200.0,9.848857879638672,1.9621145725250244,-2.108076810836792
253,32300.0,8.212166786193848,0.8662018179893494,-1.428515076637268
254,32400.0,8.212166786193848,0.8662018179893494,-1.428515076637268
255,32500.0,9.796216011047363,1.1102697849273682,-2.8283162117004395
256,32600.0,9.796216011047363,1.1102697849273682,-2.8283162117004395
257,32700.0,13.012170791625975,1.37587308883667,-3.6634113788604736
258,32800.0,13.012170791625975,1.37587308883667,-3.6634113788604736
259,32900.0,13.012170791625975,1.37587308883667,-3.6634113788604736
260,33000.0,9.121439933776855,1.3375877141952517,-2.411965131759644
261,33100.0,9.121439933776855,1.3375877141952517,-2.411965131759644
262,33200.0,7.905886173248291,1.0528419017791748,-1.3519448041915894
263,33300.0,7.905886173248291,1.0528419017791748,-1.3519448041915894
264,33400.0,7.905886173248291,1.0528419017791748,-1.3519448041915894
265,33500.0,11.739187240600586,1.3112668991088867,-2.610569477081299
266,33600.0,11.739187240600586,1.3112668991088867,-2.610569477081299
267,33700.0,9.81057357788086,1.0456634759902954,-2.7828526496887207
268,33800.0,9.81057357788086,1.0456634759902954,-2.7828526496887207
269,33900.0,8.293522834777832,0.4594219326972962,-1.8975083827972408
270,34000.0,8.293522834777832,0.4594219326972962,-1.8975083827972408
271,34100.0,7.5326056480407715,0.6101697683334351,-2.868994235992432
272,34200.0,7.5326056480407715,0.6101697683334351,-2.868994235992432
273,34300.0,7.5326056480407715,0.6101697683334351,-2.868994235992432
274,34400.0,16.338191986083984,1.5984054803848269,-2.9216365814208984
275,34500.0,16.338191986083984,1.5984054803848269,-2.9216365814208984
276,34600.0,11.514263153076172,1.7706886529922483,-1.9046868085861208
277,34700.0,11.514263153076172,1.7706886529922483,-1.9046868085861208
278,34800.0,9.06879711151123,0.8853443264961243,-2.3234307765960693
279,34900.0,9.06879711151123,0.8853443264961243,-2.3234307765960693
280,35000.0,11.82054328918457,0.705882728099823,-1.1222338676452637
281,35100.0,11.82054328918457,0.705882728099823,-1.1222338676452637
282,35200.0,11.82054328918457,0.705882728099823,-1.1222338676452637
283,35300.0,10.85862922668457,1.4189438819885254,-0.607776939868927
284,35400.0,10.85862922668457,1.4189438819885254,-0.607776939868927
285,35500.0,10.250852584838867,1.739582061767578,-3.232703685760498
286,35600.0,10.250852584838867,1.739582061767578,-3.232703685760498
287,35700.0,10.480563163757324,1.0671988725662231,-3.610769510269165
288,35800.0,10.480563163757324,1.0671988725662231,-3.610769510269165
289,35900.0,10.480563163757324,1.0671988725662231,-3.610769510269165
290,36000.0,10.293922424316406,0.10289137810468674,-2.517249345779419
291,36100.0,10.293922424316406,0.10289137810468674,-2.517249345779419
292,36200.0,6.704688549041747,-0.30149564146995544,-2.502892255783081
293,36300.0,6.704688549041747,-0.30149564146995544,-2.502892255783081
294,36400.0,13.672589302062988,2.069791555404663,-1.6797614097595217
295,36500.0,13.672589302062988,2.069791555404663,-1.6797614097595217
296,36600.0,8.336593627929688,1.6175479888916016,-2.179861307144165
297,36700.0,8.336593627929688,1.6175479888916016,-2.179861307144165
298,36800.0,8.336593627929688,1.6175479888916016,-2.179861307144165
299,36900.0,9.978070259094238,0.794417142868042,-3.99362063407898
300,37000.0,9.978070259094238,0.794417142868042,-3.99362063407898
301,37100.0,10.695917129516602,1.4093725681304932,-1.9094725847244265
302,37200.0,10.695917129516602,1.4093725681304932,-1.9094725847244265
303,37300.0,8.681159973144531,1.0552347898483276,-0.7537391781806946
304,37400.0,8.681159973144531,1.0552347898483276,-0.7537391781806946
305,37500.0,7.006184577941895,0.4354937374591827,-1.56251323223114
306,37600.0,7.006184577941895,0.4354937374591827,-1.56251323223114
307,37700.0,16.132410049438473,1.3351951837539673,-0.9332008361816406
308,37800.0,16.132410049438473,1.3351951837539673,-0.9332008361816406
309,37900.0,16.132410049438473,1.3351951837539673,-0.9332008361816406
310,38000.0,7.671389579772949,0.4594219326972962,-2.4957141876220703
311,38100.0,7.671389579772949,0.4594219326972962,-2.4957141876220703
312,38200.0,9.126225471496582,0.5670989155769348,-2.878565788269043
313,38300.0,9.126225471496582,0.5670989155769348,-2.878565788269043
314,38400.0,11.782258987426758,0.8997013568878174,-2.0554347038269043
315,38500.0,11.782258987426758,0.8997013568878174,-2.0554347038269043
316,38600.0,9.671788215637207,1.641476273536682,-1.241874933242798
317,38700.0,9.671788215637207,1.641476273536682,-1.241874933242798
318,38800.0,9.671788215637207,1.641476273536682,-1.241874933242798
319,38900.0,7.905886173248291,1.4787644147872925,-0.8973084688186646
320,39000.0,7.905886173248291,1.4787644147872925,-0.8973084688186646
321,39100.0,12.75853157043457,0.4953142702579498,-2.1272192001342773
322,39200.0,12.75853157043457,0.4953142702579498,-2.1272192001342773
323,39300.0,12.75853157043457,0.4953142702579498,-2.1272192001342773
324,39400.0,8.523234367370605,0.5910272002220154,-1.804188132286072
325,39500.0,8.523234367370605,0.5910272002220154,-1.804188132286072
326,39600.0,7.891529560089111,0.8111668825149536,-2.390429735183716
327,39700.0,7.891529560089111,0.8111668825149536,-2.390429735183716
328,39800.0,11.097911834716797,0.13878372311592102,-3.2135608196258545
329,39900.0,11.097911834716797,0.13878372311592102,-3.2135608196258545
330,40000.0,9.408578872680664,1.5601203441619873,-1.191625714302063
331,40100.0,9.408578872680664,1.5601203441619873,-1.191625714302063
332,40200.0,9.408578872680664,1.5601203441619873,-1.191625714302063
333,40300.0,7.599604606628418,1.4021940231323242,-0.906879723072052
334,40400.0,7.599604606628418,1.4021940231323242,-0.906879723072052
335,40500.0,10.475777626037598,1.146162033081055,-1.5936198234558103
336,40600.0,10.475777626037598,1.146162033081055,-1.5936198234558103
337,40700.0,10.475777626037598,1.146162033081055,-1.5936198234558103
338,40800.0,9.63828945159912,-0.07417750358581543,-1.56251323223114
339,40900.0,9.63828945159912,-0.07417750358581543,-1.56251323223114
340,41000.0,8.532805442810059,0.7010970115661621,-1.215553879737854
341,41100.0,8.532805442810059,0.7010970115661621,-1.215553879737854
342,41200.0,10.518847465515137,-0.6604190468788147,-2.5292134284973145
343,41300.0,10.518847465515137,-0.6604190468788147,-2.5292134284973145
344,41400.0,7.814958095550537,0.3565305471420288,-2.524427890777588
345,41500.0,7.814958095550537,0.3565305471420288,-2.524427890777588
346,41600.0,8.346165657043457,1.5409778356552124,-0.4235295951366425
347,41700.0,8.346165657043457,1.5409778356552124,-0.4235295951366425
348,41800.0,8.346165657043457,1.5409778356552124,-0.4235295951366425
349,41900.0,10.15992546081543,0.16031910479068756,-2.1056838035583496
350,42000.0,10.15992546081543,0.16031910479068756,-2.1056838035583496
351,42100.0,9.250652313232422,1.184447169303894,-2.687139749526977
352,42200.0,9.250652313232422,1.184447169303894,-2.687139749526977
353,42300.0,7.503891944885254,0.9930213689804076,-2.115255117416382
354,42400.0,7.503891944885254,0.9930213689804076,-2.115255117416382
355,42500.0,8.762516975402832,0.7082754969596863,-2.581855773925781
356,42600.0,8.762516975402832,0.7082754969596863,-2.581855773925781
357,42700.0,8.762516975402832,0.7082754969596863,-2.581855773925781
358,42800.0,12.830314636230467,1.9286150932312007,-2.7589242458343506
359,42900.0,12.830314636230467,1.9286150932312007,-2.7589242458343506
360,43000.0,9.485149383544922,1.2011969089508057,-1.5002998113632202
361,43100.0,9.485149383544922,1.2011969089508057,-1.5002998113632202
362,43200.0,8.073383331298826,1.117448091506958,-1.2251251935958862
363,43300.0,8.073383331298826,1.117448091506958,-1.2251251935958862
364,43400.0,8.60459041595459,2.3976082801818848,-2.7661027908325195
365,43500.0,8.60459041595459,2.3976082801818848,-2.7661027908325195
366,43600.0,8.60459041595459,2.3976082801818848,-2.7661027908325195
367,43700.0,11.059626579284668,2.359323024749756,-1.3160523176193235
368,43800.0,11.059626579284668,2.359323024749756,-1.3160523176193235
369,43900.0,9.67657470703125,1.5050854682922363,-1.4883356094360352
370,44000.0,9.67657470703125,1.5050854682922363,-1.4883356094360352
371,44100.0,9.494720458984377,1.56251323223114,-3.304487943649292
372,44200.0,9.494720458984377,1.56251323223114,-3.304487943649292
373,44300.0,11.140981674194336,1.9238293170928955,-3.2279179096221924
374,44400.0,11.140981674194336,1.9238293170928955,-3.2279179096221924
375,44500.0,11.140981674194336,1.9238293170928955,-3.2279179096221924
376,44600.0,11.748759269714355,0.7322037816047668,-2.825923442840576
377,44700.0,11.748759269714355,0.7322037816047668,-2.825923442840576
378,44800.0,6.546762466430664,0.5048855543136597,-2.531606435775757
379,44900.0,6.546762466430664,0.5048855543136597,-2.531606435775757
380,45000.0,12.739388465881348,1.4524433612823486,-1.7898313999176023
381,45100.0,12.739388465881348,1.4524433612823486,-1.7898313999176023
382,45200.0,8.695517539978027,2.392822742462158,-1.6821542978286743
383,45300.0,8.695517539978027,2.392822742462158,-1.6821542978286743
384,45400.0,8.695517539978027,2.392822742462158,-1.6821542978286743
385,45500.0,9.944571495056152,1.093519926071167,-3.493520975112915
386,45600.0,9.944571495056152,1.093519926071167,-3.493520975112915
387,45700.0,8.82951545715332,1.6007983684539795,-2.864208698272705
388,45800.0,8.82951545715332,1.6007983684539795,-2.864208698272705
389,45900.0,8.82951545715332,1.6007983684539795,-2.864208698272705
390,46000.0,9.030512809753418,0.8063812851905823,-1.241874933242798
391,46100.0,9.030512809753418,0.8063812851905823,-1.241874933242798
392,46200.0,9.485149383544922,0.9188438653945924,-1.9142580032348635
393,46300.0,9.485149383544922,0.9188438653945924,-1.9142580032348635
394,46400.0,7.872386455535889,1.9956141710281368,-1.2370892763137815
395,46500.0,7.872386455535889,1.9956141710281368,-1.2370892763137815
396,46600.0,7.872386455535889,1.9956141710281368,-1.2370892763137815
397,46700.0,6.900900363922119,0.2679961323738098,-1.3399806022644043
398,46800.0,6.900900363922119,0.2679961323738098,-1.3399806022644043
399,46900.0,10.729416847229004,-0.3780659735202789,-2.483749866485596
400,47000.0,10.729416847229004,-0.3780659735202789,-2.483749866485596
401,47100.0,10.729416847229004,-0.3780659735202789,-2.483749866485596
402,47200.0,8.379664421081543,-0.6149553656578064,-1.6342979669570925
403,47300.0,8.379664421081543,-0.6149553656578064,-1.6342979669570925
404,47400.0,9.55214786529541,0.9738788008689879,-0.8494520783424377
405,47500.0,9.55214786529541,0.9738788008689879,-0.8494520783424377
406,47600.0,8.819944381713867,1.37587308883667,-0.935593605041504
407,47700.0,8.819944381713867,1.37587308883667,-0.935593605041504
408,47800.0,8.819944381713867,1.37587308883667,-0.935593605041504
409,47900.0,14.55793285369873,1.0504491329193115,-1.5481561422348022
410,48000.0,14.55793285369873,1.0504491329193115,-1.5481561422348022
411,48100.0,7.590033531188965,0.34695929288864136,-2.0889341831207275
412,48200.0,7.590033531188965,0.34695929288864136,-2.0889341831207275
413,48300.0,8.264809608459473,0.6436693072319031,-3.38823676109314
414,48400.0,8.264809608459473,0.6436693072319031,-3.38823676109314
415,48500.0,10.849058151245117,0.9954141974449158,-2.8761727809906006
416,48600.0,10.849058151245117,0.9954141974449158,-2.8761727809906006
417,48700.0,10.849058151245117,0.9954141974449158,-2.8761727809906006
418,48800.0,9.394222259521484,1.0456634759902954,-1.5768700838088991
419,48900.0,9.394222259521484,1.0456634759902954,-1.5768700838088991
420,49000.0,7.302894115447997,1.550549030303955,-1.0384850502014158
421,49100.0,7.302894115447997,1.550549030303955,-1.0384850502014158
422,49200.0,7.302894115447997,1.550549030303955,-1.0384850502014158
423,49300.0,14.165509223937988,0.2991028428077698,-2.038684844970703
424,49400.0,14.165509223937988,0.2991028428077698,-2.038684844970703
425,49500.0,10.011569023132324,0.0526420958340168,-2.256431579589844
426,49600.0,10.011569023132324,0.0526420958340168,-2.256431579589844
427,49700.0,7.953742504119872,0.4067798554897308,-0.6364907622337341
428,49800.0,7.953742504119872,0.4067798554897308,-0.6364907622337341
429,49900.0,11.99761199951172,0.5312066078186035,-1.9334007501602173
430,50000.0,11.99761199951172,0.5312066078186035,-1.9334007501602173
431,50100.0,8.341379165649414,-0.3254238963127136,-1.7467604875564575
432,50200.0,8.341379165649414,-0.3254238963127136,-1.7467604875564575
433,50300.0,8.341379165649414,-0.3254238963127136,-1.7467604875564575
434,50400.0,9.633503913879396,1.66301167011261,-0.0263210479170084
435,50500.0,9.633503913879396,1.66301167011261,-0.0263210479170084
436,50600.0,12.256037712097168,-0.35413774847984314,-3.3643085956573486
437,50700.0,12.256037712097168,-0.35413774847984314,-3.3643085956573486
438,50800.0,12.256037712097168,-0.35413774847984314,-3.3643085956573486
439,50900.0,7.867600917816162,-0.3110669553279877,-2.2133607864379883
440,51000.0,7.867600917816162,-0.3110669553279877,-2.2133607864379883
441,51100.0,8.193024635314941,1.0049854516983032,-1.7898313999176023
442,51200.0,8.193024635314941,1.0049854516983032,-1.7898313999176023
443,51300.0,12.76810073852539,0.27756744623184204,-2.8666017055511475
444,51400.0,12.76810073852539,0.27756744623184204,-2.8666017055511475
445,51500.0,11.24626636505127,1.4715858697891235,-1.8544375896453855
446,51600.0,11.24626636505127,1.4715858697891235,-1.8544375896453855
447,51700.0,9.518648147583008,0.3158525824546814,-1.179661512374878
448,51800.0,9.518648147583008,0.3158525824546814,-1.179661512374878
449,51900.0,9.518648147583008,0.3158525824546814,-1.179661512374878
450,52000.0,6.580262184143066,0.6245267391204834,-1.7084753513336182
451,52100.0,6.580262184143066,0.6245267391204834,-1.7084753513336182
452,52200.0,14.428720474243164,0.2799602448940277,-2.5938196182250977
453,52300.0,14.428720474243164,0.2799602448940277,-2.5938196182250977
454,52400.0,14.428720474243164,0.2799602448940277,-2.5938196182250977
455,52500.0,10.533205032348633,1.8759729862213133,-1.8735800981521609
456,52600.0,10.533205032348633,1.8759729862213133,-1.8735800981521609
457,52700.0,8.370094299316406,1.1820544004440308,-2.8139593601226807
458,52800.0,8.370094299316406,1.1820544004440308,-2.8139593601226807
459,52900.0,12.43310546875,1.1485549211502075,-2.9623143672943115
460,53000.0,12.43310546875,1.1485549211502075,-2.9623143672943115
461,53100.0,11.107483863830566,0.935593605041504,-1.8424735069274905
462,53200.0,11.107483863830566,0.935593605041504,-1.8424735069274905
463,53300.0,11.107483863830566,0.935593605041504,-1.8424735069274905
464,53400.0,8.446663856506348,0.5886343717575073,-1.7347965240478516
465,53500.0,8.446663856506348,0.5886343717575073,-1.7347965240478516
466,53600.0,9.207581520080566,0.4881358444690704,-2.71346116065979
467,53700.0,9.207581520080566,0.4881358444690704,-2.71346116065979
468,53800.0,10.69113063812256,1.6941183805465698,-0.2919243574142456
469,53900.0,10.69113063812256,1.6941183805465698,-0.2919243574142456
470,54000.0,10.69113063812256,1.6941183805465698,-0.2919243574142456
471,54100.0,8.379664421081543,1.674975872039795,-2.4574286937713623
472,54200.0,8.379664421081543,1.674975872039795,-2.4574286937713623
473,54300.0,9.710074424743652,1.0480562448501587,-3.2709887027740483
474,54400.0,9.710074424743652,1.0480562448501587,-3.2709887027740483
475,54500.0,9.518648147583008,1.1365907192230225,-2.526820659637451
476,54600.0,9.518648147583008,1.1365907192230225,-2.526820659637451
477,54700.0,8.537590980529785,0.3708875179290772,-1.6989041566848757
478,54800.0,8.537590980529785,0.3708875179290772,-1.6989041566848757
479,54900.0,8.537590980529785,0.3708875179290772,-1.6989041566848757
480,55000.0,7.920242786407472,0.8087739944458008,-2.366501569747925
481,55100.0,7.920242786407472,0.8087739944458008,-2.366501569747925
482,55200.0,7.8245296478271475,0.7274181246757507,-1.6199408769607544
483,55300.0,7.8245296478271475,0.7274181246757507,-1.6199408769607544
484,55400.0,7.537391662597656,0.36370906233787537,-1.4500504732131958
485,55500.0,7.537391662597656,0.36370906233787537,-1.4500504732131958
486,55600.0,7.537391662597656,0.36370906233787537,-1.4500504732131958
487,55700.0,9.997212409973145,0.6987042427062988,-2.383251428604126
488,55800.0,9.997212409973145,0.6987042427062988,-2.383251428604126
489,55900.0,10.652846336364746,0.6340980529785156,-3.2542388439178467
490,56000.0,10.652846336364746,0.6340980529785156,-3.2542388439178467
491,56100.0,9.556933403015137,0.4378865361213684,-1.6869399547576904
492,56200.0,9.556933403015137,0.4378865361213684,-1.6869399547576904
493,56300.0,9.556933403015137,0.4378865361213684,-1.6869399547576904
494,56400.0,7.791030406951903,1.131805181503296,-0.35892340540885925
495,56500.0,7.791030406951903,1.131805181503296,-0.35892340540885925
496,56600.0,7.389035701751709,0.8398807048797607,-1.5672988891601562
497,56700.0,7.389035701751709,0.8398807048797607,-1.5672988891601562
498,56800.0,15.28534984588623,1.411765456199646,-2.438286304473877
499,56900.0,15.28534984588623,1.411765456199646,-2.438286304473877
500,57000.0,8.116454124450684,-0.5838487148284912,-2.4981069564819336
501,57100.0,8.116454124450684,-0.5838487148284912,-2.4981069564819336
502,57200.0,8.116454124450684,-0.5838487148284912,-2.4981069564819336
503,57300.0,8.580661773681639,1.043270707130432,-2.885744333267212
504,57400.0,8.580661773681639,1.043270707130432,-2.885744333267212
505,57500.0,10.64806079864502,0.4953142702579498,-2.888136863708496
506,57600.0,10.64806079864502,0.4953142702579498,-2.888136863708496
507,57700.0,10.71027374267578,0.3182453811168671,-1.7515461444854736
508,57800.0,10.71027374267578,0.3182453811168671,-1.7515461444854736
509,57900.0,6.977471351623535,1.062413215637207,-1.6007983684539795
510,58000.0,6.977471351623535,1.062413215637207,-1.6007983684539795
511,58100.0,10.174281120300293,1.0839486122131348,-1.4931212663650513
512,58200.0,10.174281120300293,1.0839486122131348,-1.4931212663650513
513,58300.0,10.174281120300293,1.0839486122131348,-1.4931212663650513
514,58400.0,8.350951194763184,1.7682960033416748,-1.1700903177261353
515,58500.0,8.350951194763184,1.7682960033416748,-1.1700903177261353
516,58600.0,6.527620315551758,1.3328022956848145,-1.6247265338897705
517,58700.0,6.527620315551758,1.3328022956848145,-1.6247265338897705
518,58800.0,9.858428955078123,0.7345964908599854,-3.206382274627685
519,58900.0,9.858428955078123,0.7345964908599854,-3.206382274627685
520,59000.0,9.858428955078123,0.7345964908599854,-3.206382274627685
521,59100.0,14.117652893066404,1.2562319040298462,-2.861815929412842
522,59200.0,14.117652893066404,1.2562319040298462,-2.861815929412842
523,59300.0,9.087940216064453,0.3732803165912628,-1.7994027137756348
524,59400.0,9.087940216064453,0.3732803165912628,-1.7994027137756348
525,59500.0,8.48016357421875,0.8422735333442688,-1.7730815410614014
526,59600.0,8.48016357421875,0.8422735333442688,-1.7730815410614014
527,59700.0,14.921642303466795,0.7010970115661621,-2.1415762901306152
528,59800.0,14.921642303466795,0.7010970115661621,-2.1415762901306152
529,59900.0,14.921642303466795,0.7010970115661621,-2.1415762901306152
530,60000.0,7.685746192932129,0.729810893535614,-1.8951154947280884
531,60100.0,7.685746192932129,0.729810893535614,-1.8951154947280884
532,60200.0,8.547162055969237,0.6317051649093628,-1.931007981300354
533,60300.0,8.547162055969237,0.6317051649093628,-1.931007981300354
534,60400.0,13.438091278076172,0.94037926197052,-2.7421746253967285
535,60500.0,13.438091278076172,0.94037926197052,-2.7421746253967285
536,60600.0,9.997212409973145,1.131805181503296,-1.1509476900100708
537,60700.0,9.997212409973145,1.131805181503296,-1.1509476900100708
538,60800.0,7.891529560089111,1.2251251935958862,-0.6867401003837585
539,60900.0,7.891529560089111,1.2251251935958862,-0.6867401003837585
540,61000.0,7.891529560089111,1.2251251935958862,-0.6867401003837585
541,61100.0,12.844672203063965,0.3661018908023834,-2.7732813358306885
542,61200.0,12.844672203063965,0.3661018908023834,-2.7732813358306885
543,61300.0,9.327221870422363,0.8733802437782288,-1.9286150932312007
544,61400.0,9.327221870422363,0.8733802437782288,-1.9286150932312007
545,61500.0,7.781459331512451,1.1868400573730469,-1.9334007501602173
546,61600.0,7.781459331512451,1.1868400573730469,-1.9334007501602173
547,61700.0,7.781459331512451,1.1868400573730469,-1.9334007501602173
548,61800.0,9.135796546936037,0.8733802437782288,-2.809173583984375
549,61900.0,9.135796546936037,0.8733802437782288,-2.809173583984375
550,62000.0,11.806187629699707,2.057827472686768,-3.0077781677246094
551,62100.0,11.806187629699707,2.057827472686768,-3.0077781677246094
552,62200.0,11.806187629699707,2.057827472686768,-3.0077781677246094
553,62300.0,12.725030899047852,0.12442677468061447,-2.3976082801818848
554,62400.0,12.725030899047852,0.12442677468061447,-2.3976082801818848
555,62500.0,6.953542709350586,0.34695929288864136,-2.567498683929444
556,62600.0,6.953542709350586,0.34695929288864136,-2.567498683929444
557,62700.0,14.696717262268065,0.7896314859390259,-1.6247265338897705
558,62800.0,14.696717262268065,0.7896314859390259,-1.6247265338897705
559,62900.0,11.093125343322754,1.4811571836471558,-1.3878371715545654
560,63000.0,11.093125343322754,1.4811571836471558,-1.3878371715545654
561,63100.0,11.093125343322754,1.4811571836471558,-1.3878371715545654
562,63200.0,9.322437286376953,1.4787644147872925,-3.2374887466430664
563,63300.0,9.322437286376953,1.4787644147872925,-3.2374887466430664
564,63400.0,12.227323532104492,1.5672988891601562,-2.995814085006714
565,63500.0,12.227323532104492,1.5672988891601562,-2.995814085006714
566,63600.0,11.633904457092285,0.7034898400306702,-1.5768700838088991
567,63700.0,11.633904457092285,0.7034898400306702,-1.5768700838088991
568,63800.0,11.633904457092285,0.7034898400306702,-1.5768700838088991
569,63900.0,6.8099732398986825,0.2488535493612289,-2.4430718421936035
570,64000.0,6.8099732398986825,0.2488535493612289,-2.4430718421936035
571,64100.0,14.3330078125,1.9070796966552732,-2.0099709033966064
572,64200.0,14.3330078125,1.9070796966552732,-2.0099709033966064
573,64300.0,7.795816421508789,0.9571290016174316,-2.09850549697876
574,64400.0,7.795816421508789,0.9571290016174316,-2.09850549697876
575,64500.0,8.690732002258299,1.2729815244674685,-2.931207656860352
576,64600.0,8.690732002258299,1.2729815244674685,-2.931207656860352
577,64700.0,8.690732002258299,1.2729815244674685,-2.931207656860352
578,64800.0,10.341779708862305,0.7968099117279053,-2.8594231605529785
579,64900.0,10.341779708862305,0.7968099117279053,-2.8594231605529785
580,65000.0,9.327221870422363,1.0169496536254885,-0.7609176039695741
581,65100.0,9.327221870422363,1.0169496536254885,-0.7609176039695741
582,65200.0,5.97727108001709,1.026520848274231,-0.7561319470405579
583,65300.0,5.97727108001709,1.026520848274231,-0.7561319470405579
584,65400.0,5.97727108001709,1.026520848274231,-0.7561319470405579
585,65500.0,18.84108543395996,1.5720844268798828,-1.2490534782409668
586,65600.0,18.84108543395996,1.5720844268798828,-1.2490534782409668
587,65700.0,6.675975322723389,-0.36370906233787537,-1.8640089035034182
588,65800.0,6.675975322723389,-0.36370906233787537,-1.8640089035034182
589,65900.0,6.675975322723389,-0.36370906233787537,-1.8640089035034182
590,66000.0,9.121439933776855,-0.2943171858787537,-0.916451096534729
591,66100.0,9.121439933776855,-0.2943171858787537,-0.916451096534729
592,66200.0,13.983654975891113,-0.3302095234394073,-2.878565788269043
593,66300.0,13.983654975891113,-0.3302095234394073,-2.878565788269043
594,66400.0,8.61894702911377,1.2753744125366209,-1.7778673171997068
595,66500.0,8.61894702911377,1.2753744125366209,-1.7778673171997068
596,66600.0,8.61894702911377,1.2753744125366209,-1.7778673171997068
597,66700.0,9.643074989318848,1.2729815244674685,-1.1748759746551514
598,66800.0,9.643074989318848,1.2729815244674685,-1.1748759746551514
599,66900.0,10.782057762145996,0.0263210479170084,-2.4358932971954346
600,67000.0,10.782057762145996,0.0263210479170084,-2.4358932971954346
601,67100.0,6.900900363922119,0.7872385978698729,-1.8209381103515625
602,67200.0,6.900900363922119,0.7872385978698729,-1.8209381103515625
603,67300.0,6.900900363922119,0.7872385978698729,-1.8209381103515625
604,67400.0,9.72921657562256,0.8925228118896484,-2.25403904914856
605,67500.0,9.72921657562256,0.8925228118896484,-2.25403904914856
606,67600.0,13.284950256347654,1.2059825658798218,-2.9527432918548584
607,67700.0,13.284950256347654,1.2059825658798218,-2.9527432918548584
608,67800.0,9.42772102355957,0.9044869542121888,-1.239482045173645
609,67900.0,9.42772102355957,0.9044869542121888,-1.239482045173645
610,68000.0,8.202595710754395,1.1772687435150146,-0.3756731450557709
611,68100.0,8.202595710754395,1.1772687435150146,-0.3756731450557709
612,68200.0,8.202595710754395,1.1772687435150146,-0.3756731450557709
613,68300.0,10.322636604309082,-0.09571290016174316,-1.9286150932312007
614,68400.0,10.322636604309082,-0.09571290016174316,-1.9286150932312007
615,68500.0,6.675975322723389,1.093519926071167,-1.6462620496749878
616,68600.0,6.675975322723389,1.093519926071167,-1.6462620496749878
617,68700.0,9.509077072143556,1.306481122970581,-2.115255117416382
618,68800.0,9.509077072143556,1.306481122970581,-2.115255117416382
619,68900.0,12.547962188720705,1.423729419708252,-3.235095977783203
620,69000.0,12.547962188720705,1.423729419708252,-3.235095977783203
621,69100.0,12.547962188720705,1.423729419708252,-3.235095977783203
622,69200.0,7.355536937713622,0.7776673436164856,-1.155733346939087
623,69300.0,7.355536937713622,0.7776673436164856,-1.155733346939087
624,69400.0,9.901500701904297,1.124626636505127,-1.5098710060119631
625,69500.0,9.901500701904297,1.124626636505127,-1.5098710060119631
626,69600.0,10.346564292907717,0.2273181527853012,-2.12961220741272
627,69700.0,10.346564292907717,0.2273181527853012,-2.12961220741272
628,69800.0,10.346564292907717,0.2273181527853012,-2.12961220741272
629,69900.0,6.360122680664063,0.6532405614852905,-1.8400806188583372
630,70000.0,6.360122680664063,0.6532405614852905,-1.8400806188583372
631,70100.0,8.642874717712402,1.1748759746551514,-2.5507488250732417
632,70200.0,8.642874717712402,1.1748759746551514,-2.5507488250732417
633,70300.0,13.586446762084961,1.4715858697891235,-2.720639228820801
634,70400.0,13.586446762084961,1.4715858697891235,-2.720639228820801
635,70500.0,13.586446762084961,1.4715858697891235,-2.720639228820801
636,70600.0,10.006784439086914,0.6652047038078308,-1.940579175949097
637,70700.0,10.006784439086914,0.6652047038078308,-1.940579175949097
638,70800.0,8.341379165649414,0.9571290016174316,-1.706082463264465
639,70900.0,8.341379165649414,0.9571290016174316,-1.706082463264465
640,71000.0,9.695716857910156,1.3519448041915894,-2.1966111660003658
641,71100.0,9.695716857910156,1.3519448041915894,-2.1966111660003658
642,71200.0,9.695716857910156,1.3519448041915894,-2.1966111660003658
643,71300.0,7.269395351409912,2.8666017055511475,-1.5768700838088991
644,71400.0,7.269395351409912,2.8666017055511475,-1.5768700838088991
645,71500.0,7.877171993255615,1.2993026971817017,-2.3736801147460938
646,71600.0,7.877171993255615,1.2993026971817017,-2.3736801147460938
647,71700.0,8.930014610290527,1.00259268283844,-3.084348201751709
648,71800.0,8.930014610290527,1.00259268283844,-3.084348201751709
649,71900.0,10.978270530700684,1.3830513954162598,-2.3712873458862305
650,72000.0,10.978270530700684,1.3830513954162598,-2.3712873458862305
651,72100.0,10.834701538085938,1.0073783397674558,-2.0362920761108403
652,72200.0,10.834701538085938,1.0073783397674558,-2.0362920761108403
653,72300.0,8.518448829650879,0.7082754969596863,-2.273181438446045
654,72400.0,8.518448829650879,0.7082754969596863,-2.273181438446045
655,72500.0,8.518448829650879,0.7082754969596863,-2.273181438446045
656,72600.0,11.624333381652832,1.706082463264465,-1.8903299570083616
657,72700.0,11.624333381652832,1.706082463264465,-1.8903299570083616
658,72800.0,5.824130058288574,2.0362920761108403,-2.244467735290528
659,72900.0,5.824130058288574,2.0362920761108403,-2.244467735290528
660,73000.0,7.503891944885254,-0.13160523772239685,-2.622533798217773
661,73100.0,7.503891944885254,-0.13160523772239685,-2.622533798217773
662,73200.0,7.503891944885254,-0.13160523772239685,-2.622533798217773
663,73300.0,9.207581520080566,0.26081767678260803,-3.2853453159332275
664,73400.0,9.207581520080566,0.26081767678260803,-3.2853453159332275
665,73500.0,10.174281120300293,0.6795615553855896,-2.682354211807251
666,73600.0,10.174281120300293,0.6795615553855896,-2.682354211807251
667,73700.0,9.116654396057127,0.82791668176651,-2.8737800121307373
668,73800.0,9.116654396057127,0.82791668176651,-2.8737800121307373
669,73900.0,9.77707290649414,0.7968099117279053,-1.4452648162841797
670,74000.0,9.77707290649414,0.7968099117279053,-1.4452648162841797
671,74100.0,6.886543273925781,1.2586246728897097,-1.184447169303894
672,74200.0,6.886543273925781,1.2586246728897097,-1.184447169303894
673,74300.0,6.886543273925781,1.2586246728897097,-1.184447169303894
674,74400.0,13.23709487915039,1.459621787071228,-2.483749866485596
675,74500.0,13.23709487915039,1.459621787071228,-2.483749866485596
676,74600.0,10.418350219726562,0.08374878764152527,-2.3066811561584477
677,74700.0,10.418350219726562,0.08374878764152527,-2.3066811561584477
678,74800.0,7.81974458694458,0.12681959569454193,-1.5864413976669312
679,74900.0,7.81974458694458,0.12681959569454193,-1.5864413976669312
680,75000.0,8.767301559448242,-0.3086740970611572,-1.921436548233032
681,75100.0,8.767301559448242,-0.3086740970611572,-1.921436548233032
682,75200.0,8.767301559448242,-0.3086740970611572,-1.921436548233032
683,75300.0,10.413564682006836,0.3517449200153351,-2.756531953811645
684,75400.0,10.413564682006836,0.3517449200153351,-2.756531953811645
685,75500.0,9.743573188781738,1.2514461278915403,-1.8065810203552248
686,75600.0,9.743573188781738,1.2514461278915403,-1.8065810203552248
687,75700.0,8.135597229003906,1.0480562448501587,-0.6388836503028871
688,75800.0,8.135597229003906,1.0480562448501587,-0.6388836503028871
689,75900.0,8.135597229003906,1.0480562448501587,-0.6388836503028871
690,76000.0,7.700103282928468,1.1365907192230225,-1.9525433778762815
691,76100.0,7.700103282928468,1.1365907192230225,-1.9525433778762815
692,76200.0,12.734601974487305,1.7802598476409912,-2.0721843242645264
693,76300.0,12.734601974487305,1.7802598476409912,-2.0721843242645264
694,76400.0,8.475377082824707,-0.02153540588915348,-2.486142873764038
695,76500.0,8.475377082824707,-0.02153540588915348,-2.486142873764038
696,76600.0,8.475377082824707,-0.02153540588915348,-2.486142873764038
697,76700.0,7.939385414123535,1.3328022956848145,-2.1511476039886475
698,76800.0,7.939385414123535,1.3328022956848145,-2.1511476039886475
699,76900.0,9.877571105957033,0.6652047038078308,-2.857030153274536
700,77000.0,9.877571105957033,0.6652047038078308,-2.857030153274536
701,77100.0,14.376078605651855,2.376072883605957,-2.991028308868408
702,77200.0,14.376078605651855,2.376072883605957,-2.991028308868408
703,77300.0,10.250852584838867,1.210768222808838,-2.256431579589844
704,77400.0,10.250852584838867,1.210768222808838,-2.256431579589844
705,77500.0,10.250852584838867,1.210768222808838,-2.256431579589844
706,77600.0,5.982056617736816,2.4670000076293945,-1.3854442834854126
707,77700.0,5.982056617736816,2.4670000076293945,-1.3854442834854126
708,77800.0,10.954340934753418,2.5004994869232178,-2.6632115840911865
709,77900.0,10.954340934753418,2.5004994869232178,-2.6632115840911865
710,78000.0,10.954340934753418,2.5004994869232178,-2.6632115840911865
711,78100.0,9.93978500366211,1.6031911373138428,-2.2396819591522217
712,78200.0,9.93978500366211,1.6031911373138428,-2.2396819591522217
713,78300.0,5.891129493713379,1.871187210083008,-1.5481561422348022
714,78400.0,5.891129493713379,1.871187210083008,-1.5481561422348022
715,78500.0,9.269794464111328,-0.3517449200153351,-2.0410776138305664
716,78600.0,9.269794464111328,-0.3517449200153351,-2.0410776138305664
717,78700.0,13.892727851867676,2.0434706211090092,-2.328216552734375
718,78800.0,13.892727851867676,2.0434706211090092,-2.328216552734375
719,78900.0,13.892727851867676,2.0434706211090092,-2.328216552734375
720,79000.0,9.28893756866455,3.627518892288208,0.4737788736820221
721,79100.0,9.28893756866455,3.627518892288208,0.4737788736820221
722,79200.0,7.671389579772949,2.2205395698547363,-0.3182453811168671
723,79300.0,7.671389579772949,2.2205395698547363,-0.3182453811168671
724,79400.0,7.671389579772949,2.2205395698547363,-0.3182453811168671
725,79500.0,13.270594596862793,2.3401806354522705,-1.4620146751403809
726,79600.0,13.270594596862793,2.3401806354522705,-1.4620146751403809
727,79700.0,7.446464061737059,1.765903115272522,-2.337787628173828
728,79800.0,7.446464061737059,1.765903115272522,-2.337787628173828
729,79900.0,9.011369705200195,1.3280165195465088,-2.541177749633789
730,80000.0,9.011369705200195,1.3280165195465088,-2.541177749633789
731,80100.0,9.011369705200195,1.3280165195465088,-2.541177749633789
732,80200.0,8.446663856506348,1.9070796966552732,-2.6799612045288086
733,80300.0,8.446663856506348,1.9070796966552732,-2.6799612045288086
734,80400.0,11.140981674194336,2.3258235454559326,-3.0269205570220947
735,80500.0,11.140981674194336,2.3258235454559326,-3.0269205570220947
736,80600.0,11.140981674194336,2.3258235454559326,-3.0269205570220947
737,80700.0,7.992027282714844,1.423729419708252,-1.6582260131835938
738,80800.0,7.992027282714844,1.423729419708252,-1.6582260131835938
739,80900.0,8.264809608459473,1.8759729862213133,-1.37587308883667
740,81000.0,8.264809608459473,1.8759729862213133,-1.37587308883667
741,81100.0,10.829915046691896,2.0362920761108403,-2.057827472686768
742,81200.0,10.829915046691896,2.0362920761108403,-2.057827472686768
743,81300.0,10.829915046691896,2.0362920761108403,-2.057827472686768
744,81400.0,4.8095736503601065,1.557727575302124,-1.294516921043396
745,81500.0,4.8095736503601065,1.557727575302124,-1.294516921043396
746,81600.0,7.9585280418396,1.4620146751403809,-2.426322221755981
747,81700.0,7.9585280418396,1.4620146751403809,-2.426322221755981
748,81800.0,9.671788215637207,1.057627558708191,-3.811766624450684
749,81900.0,9.671788215637207,1.057627558708191,-3.811766624450684
750,82000.0,8.566305160522461,1.871187210083008,-1.8759729862213133
751,82100.0,8.566305160522461,1.871187210083008,-1.8759729862213133
752,82200.0,8.327022552490233,0.662811815738678,-2.304288148880005
753,82300.0,8.327022552490233,0.662811815738678,-2.304288148880005
754,82400.0,8.327022552490233,0.662811815738678,-2.304288148880005
755,82500.0,8.38444995880127,0.763310432434082,-1.8592231273651123
756,82600.0,8.38444995880127,0.763310432434082,-1.8592231273651123
757,82700.0,9.044869422912598,1.3878371715545654,-3.0939197540283203
758,82800.0,9.044869422912598,1.3878371715545654,-3.0939197540283203
759,82900.0,6.613761901855469,3.062812805175781,-0.7585247755050659
760,83000.0,6.613761901855469,3.062812805175781,-0.7585247755050659
761,83100.0,9.006584167480469,0.26560330390930176,-3.6969110965728764
762,83200.0,9.006584167480469,0.26560330390930176,-3.6969110965728764
763,83300.0,9.006584167480469,0.26560330390930176,-3.6969110965728764
764,83400.0,7.446464061737059,1.4811571836471558,-2.900100946426392
765,83500.0,7.446464061737059,1.4811571836471558,-2.900100946426392
766,83600.0,9.131011009216307,-0.4067798554897308,-1.954936146736145
767,83700.0,9.131011009216307,-0.4067798554897308,-1.954936146736145
768,83800.0,7.465606689453125,0.33738797903060913,-2.1990041732788086
769,83900.0,7.465606689453125,0.33738797903060913,-2.1990041732788086
770,84000.0,12.447463035583494,1.3208380937576294,-0.9834501147270204
771,84100.0,12.447463035583494,1.3208380937576294,-0.9834501147270204
772,84200.0,12.447463035583494,1.3208380937576294,-0.9834501147270204
773,84300.0,10.17906665802002,1.8783657550811768,-2.100898265838623
774,84400.0,10.17906665802002,1.8783657550811768,-2.100898265838623
775,84500.0,12.658032417297365,0.14117653667926788,-3.8572301864624015
776,84600.0,12.658032417297365,0.14117653667926788,-3.8572301864624015
777,84700.0,10.85384464263916,1.6941183805465698,-0.861416220664978
778,84800.0,10.85384464263916,1.6941183805465698,-0.861416220664978
779,84900.0,10.85384464263916,1.6941183805465698,-0.861416220664978
780,85000.0,7.326822757720947,1.0911270380020142,-0.4043869972229004
781,85100.0,7.326822757720947,1.0911270380020142,-0.4043869972229004
782,85200.0,15.457633018493652,-0.3134597539901733,-2.048256158828736
783,85300.0,15.457633018493652,-0.3134597539901733,-2.048256158828736
784,85400.0,15.457633018493652,-0.3134597539901733,-2.048256158828736
785,85500.0,7.168896198272705,-0.16510476171970367,-2.462214469909668
786,85600.0,7.168896198272705,-0.16510476171970367,-2.462214469909668
787,85700.0,8.772088050842285,0.5718846321105957,-2.6608188152313232
788,85800.0,8.772088050842285,0.5718846321105957,-2.6608188152313232
789,85900.0,8.772088050842285,0.5718846321105957,-2.6608188152313232
790,86000.0,11.11705493927002,0.5862415432929993,-2.5052852630615234
791,86100.0,11.11705493927002,0.5862415432929993,-2.5052852630615234
792,86200.0,7.432106971740723,1.8544375896453855,-2.3186452388763428
793,86300.0,7.432106971740723,1.8544375896453855,-2.3186452388763428
794,86400.0,9.322437286376953,0.9930213689804076,-1.3830513954162598
795,86500.0,9.322437286376953,0.9930213689804076,-1.3830513954162598
796,86600.0,7.030113220214844,1.124626636505127,-1.7563319206237793
797,86700.0,7.030113220214844,1.124626636505127,-1.7563319206237793
798,86800.0,15.299707412719727,-0.2679961323738098,-2.1104695796966557
799,86900.0,15.299707412719727,-0.2679961323738098,-2.1104695796966557
800,87000.0,15.299707412719727,-0.2679961323738098,-2.1104695796966557
801,87100.0,7.326822757720947,-0.5120640397071838,-1.392622709274292
802,87200.0,7.326822757720947,-0.5120640397071838,-1.392622709274292
803,87300.0,8.149953842163086,0.25363919138908386,-1.8376877307891848
804,87400.0,8.149953842163086,0.25363919138908386,-1.8376877307891848
805,87500.0,13.404592514038086,-0.1938186287879944,-2.909672498703003
806,87600.0,13.404592514038086,-0.1938186287879944,-2.909672498703003
807,87700.0,9.877571105957033,0.8327022790908813,-1.1222338676452637
808,87800.0,9.877571105957033,0.8327022790908813,-1.1222338676452637
809,87900.0,9.877571105957033,0.8327022790908813,-1.1222338676452637
810,88000.0,7.858029365539551,1.5098710060119631,-0.27756744623184204
811,88100.0,7.858029365539551,1.5098710060119631,-0.27756744623184204
812,88200.0,13.533804893493652,0.5024927258491516,-2.2612173557281494
813,88300.0,13.533804893493652,0.5024927258491516,-2.2612173557281494
814,88400.0,9.083154678344727,1.2490534782409668,-2.902493953704834
815,88500.0,9.083154678344727,1.2490534782409668,-2.902493953704834
816,88600.0,9.083154678344727,1.2490534782409668,-2.902493953704834
817,88700.0,8.910871505737305,1.1150553226470947,-1.9621145725250244
818,88800.0,8.910871505737305,1.1150553226470947,-1.9621145725250244
819,88900.0,7.240681171417236,-1.6917256116867063,-4.761716842651367
820,89000.0,7.240681171417236,-1.6917256116867063,-4.761716842651367
821,89100.0,9.207581520080566,-0.7800601720809937,-2.2707886695861816
822,89200.0,9.207581520080566,-0.7800601720809937,-2.2707886695861816
823,89300.0,8.561518669128418,0.7561319470405579,-1.7563319206237793
824,89400.0,8.561518669128418,0.7561319470405579,-1.7563319206237793
825,89500.0,8.561518669128418,0.7561319470405579,-1.7563319206237793
826,89600.0,7.355536937713622,-0.07657032459974289,-1.7850456237792969
827,89700.0,7.355536937713622,-0.07657032459974289,-1.7850456237792969
828,89800.0,17.151752471923828,0.8422735333442688,-1.7132610082626345
829,89900.0,17.151752471923828,0.8422735333442688,-1.7132610082626345
830,90000.0,6.580262184143066,2.7254250049591064,-2.146361827850342
831,90100.0,6.580262184143066,2.7254250049591064,-2.146361827850342
832,90200.0,9.260223388671877,0.04785645008087158,-2.715853452682495
833,90300.0,9.260223388671877,0.04785645008087158,-2.715853452682495
834,90400.0,9.260223388671877,0.04785645008087158,-2.715853452682495
835,90500.0,7.030113220214844,-0.1579262912273407,-2.9790639877319336
836,90600.0,7.030113220214844,-0.1579262912273407,-2.9790639877319336
837,90700.0,8.38444995880127,1.832902193069458,-2.945564746856689
838,90800.0,8.38444995880127,1.832902193069458,-2.945564746856689
839,90900.0,8.681159973144531,-0.0406779870390892,-3.062812805175781
840,91000.0,8.681159973144531,-0.0406779870390892,-3.062812805175781
841,91100.0,10.068997383117676,-0.3684946894645691,-3.103491306304932
842,91200.0,10.068997383117676,-0.3684946894645691,-3.103491306304932
843,91300.0,10.068997383117676,-0.3684946894645691,-3.103491306304932
844,91400.0,9.499505043029783,-0.2416750937700272,-0.9738788008689879
845,91500.0,9.499505043029783,-0.2416750937700272,-0.9738788008689879
846,91600.0,10.188638687133787,1.8472589254379272,-1.8185452222824097
847,91700.0,10.188638687133787,1.8472589254379272,-1.8185452222824097
848,91800.0,10.188638687133787,1.8472589254379272,-1.8185452222824097
849,91900.0,9.949356079101562,1.3782659769058228,-3.919443368911743
850,92000.0,9.949356079101562,1.3782659769058228,-3.919443368911743
851,92100.0,11.00698471069336,-1.196411371231079,-3.079562902450561
852,92200.0,11.00698471069336,-1.196411371231079,-3.079562902450561
853,92300.0,6.704688549041747,-0.1698903888463974,-2.289931058883667
854,92400.0,6.704688549041747,-0.1698903888463974,-2.289931058883667
855,92500.0,9.494720458984377,1.1653046607971191,-2.940778970718384
856,92600.0,9.494720458984377,1.1653046607971191,-2.940778970718384
857,92700.0,9.494720458984377,1.1653046607971191,-2.940778970718384
858,92800.0,8.700303077697754,1.938186287879944,-1.306481122970581
859,92900.0,8.700303077697754,1.938186287879944,-1.306481122970581
860,93000.0,10.016355514526367,1.3208380937576294,-4.441079139709473
861,93100.0,10.016355514526367,1.3208380937576294,-4.441079139709473
862,93200.0,10.356135368347168,1.9740787744522093,-1.6965112686157229
863,93300.0,10.356135368347168,1.9740787744522093,-1.6965112686157229
864,93400.0,9.193224906921387,0.5862415432929993,-1.2011969089508057
865,93500.0,9.193224906921387,0.5862415432929993,-1.2011969089508057
866,93600.0,11.437692642211914,0.6005984544754028,-2.390429735183716
867,93700.0,11.437692642211914,0.6005984544754028,-2.390429735183716
868,93800.0,11.437692642211914,0.6005984544754028,-2.390429735183716
869,93900.0,10.73420238494873,1.2969098091125488,-1.6845470666885376
870,94000.0,10.73420238494873,1.2969098091125488,-1.6845470666885376
871,94100.0,7.183253765106201,1.3878371715545654,-1.146162033081055
872,94200.0,7.183253765106201,1.3878371715545654,-1.146162033081055
873,94300.0,10.25563907623291,0.34217363595962524,-2.328216552734375
874,94400.0,10.25563907623291,0.34217363595962524,-2.328216552734375
875,94500.0,10.25563907623291,0.34217363595962524,-2.328216552734375
876,94600.0,9.561718940734863,1.3495519161224363,-0.9834501147270204
877,94700.0,9.561718940734863,1.3495519161224363,-0.9834501147270204
878,94800.0,7.269395351409912,1.3639088869094849,-0.3110669553279877
879,94900.0,7.269395351409912,1.3639088869094849,-0.3110669553279877
880,95000.0,7.269395351409912,1.3639088869094849,-0.3110669553279877
881,95100.0,12.346964836120605,1.00259268283844,-1.6462620496749878
882,95200.0,12.346964836120605,1.00259268283844,-1.6462620496749878
883,95300.0,8.504091262817383,1.7730815410614014,-2.622533798217773
884,95400.0,8.504091262817383,1.7730815410614014,-2.622533798217773
885,95500.0,8.039883613586426,0.8255237936973572,-1.832902193069458
886,95600.0,8.039883613586426,0.8255237936973572,-1.832902193069458
887,95700.0,8.039883613586426,0.8255237936973572,-1.832902193069458
888,95800.0,8.671588897705076,0.007178467698395251,-2.885744333267212
889,95900.0,8.671588897705076,0.007178467698395251,-2.885744333267212
890,96000.0,13.916656494140625,0.4761717021465302,-4.3932223320007315
891,96100.0,13.916656494140625,0.4761717021465302,-4.3932223320007315
892,96200.0,7.661818027496338,1.6271194219589231,-1.526620864868164
893,96300.0,7.661818027496338,1.6271194219589231,-1.526620864868164
894,96400.0,10.112068176269533,1.4811571836471558,-0.8709874749183655
895,96500.0,10.112068176269533,1.4811571836471558,-0.8709874749183655
896,96600.0,14.385649681091307,0.6532405614852905,-1.6845470666885376
897,96700.0,14.385649681091307,0.6532405614852905,-1.6845470666885376
898,96800.0,14.385649681091307,0.6532405614852905,-1.6845470666885376
899,96900.0,7.843672752380371,1.2825528383255005,-1.871187210083008
900,97000.0,7.843672752380371,1.2825528383255005,-1.871187210083008
901,97100.0,8.346165657043457,0.8566305041313171,-2.4670000076293945
902,97200.0,8.346165657043457,0.8566305041313171,-2.4670000076293945
903,97300.0,11.370694160461426,-0.3780659735202789,-2.6847469806671143
904,97400.0,11.370694160461426,-0.3780659735202789,-2.6847469806671143
905,97500.0,10.652846336364746,0.7226324081420898,-1.7922240495681765
906,97600.0,10.652846336364746,0.7226324081420898,-1.7922240495681765
907,97700.0,10.652846336364746,0.7226324081420898,-1.7922240495681765
908,97800.0,5.905486583709718,1.2681961059570312,-1.584048628807068
909,97900.0,5.905486583709718,1.2681961059570312,-1.584048628807068
910,98000.0,11.777473449707033,0.6891329884529114,-2.0147566795349117
911,98100.0,11.777473449707033,0.6891329884529114,-2.0147566795349117
912,98200.0,8.796016693115233,0.09092726558446884,-1.3375877141952517
913,98300.0,8.796016693115233,0.09092726558446884,-1.3375877141952517
914,98400.0,6.671189785003662,0.7872385978698729,-2.514856576919556
915,98500.0,6.671189785003662,0.7872385978698729,-2.514856576919556
916,98600.0,9.4660062789917,0.8063812851905823,-2.4693927764892583
917,98700.0,9.4660062789917,0.8063812851905823,-2.4693927764892583
918,98800.0,12.457035064697266,0.6987042427062988,-4.335794448852538
919,98900.0,12.457035064697266,0.6987042427062988,-4.335794448852538
920,99000.0,12.457035064697266,0.6987042427062988,-4.335794448852538
921,99100.0,8.360522270202638,1.227518081665039,-1.9046868085861208
922,99200.0,8.360522270202638,1.227518081665039,-1.9046868085861208
923,99300.0,10.939985275268556,0.7968099117279053,-1.5720844268798828
924,99400.0,10.939985275268556,0.7968099117279053,-1.5720844268798828
925,99500.0,10.939985275268556,0.7968099117279053,-1.5720844268798828
926,99600.0,8.872586250305176,0.7178468108177185,-2.8953151702880864
927,99700.0,8.872586250305176,0.7178468108177185,-2.8953151702880864
928,99800.0,6.431907176971436,0.7489535212516785,-1.9334007501602173
929,99900.0,6.431907176971436,0.7489535212516785,-1.9334007501602173
930,100000.0,8.805586814880371,-0.14356936514377594,-3.4528429508209233
931,100100.0,8.805586814880371,-0.14356936514377594,-3.4528429508209233
932,100200.0,8.805586814880371,-0.14356936514377594,-3.4528429508209233
933,100300.0,9.643074989318848,0.014356935396790503,-3.747160196304321
934,100400.0,9.643074989318848,0.014356935396790503,-3.747160196304321
935,100500.0,9.686145782470703,1.0791629552841189,-2.1128623485565186
936,100600.0,9.686145782470703,1.0791629552841189,-2.1128623485565186
937,100700.0,8.221738815307617,0.1339980661869049,-2.5363922119140625
938,100800.0,8.221738815307617,0.1339980661869049,-2.5363922119140625
939,100900.0,8.221738815307617,0.1339980661869049,-2.5363922119140625
940,101000.0,9.461220741271973,0.6652047038078308,-3.084348201751709
941,101100.0,9.461220741271973,0.6652047038078308,-3.084348201751709
942,101200.0,10.753345489501953,0.4402793645858765,-2.768495798110962
943,101300.0,10.753345489501953,0.4402793645858765,-2.768495798110962
944,101400.0,10.753345489501953,0.4402793645858765,-2.768495798110962
945,101500.0,8.863015174865723,0.26081767678260803,-3.7734813690185542
946,101600.0,8.863015174865723,0.26081767678260803,-3.7734813690185542
947,101700.0,9.7005033493042,0.3565305471420288,-3.1728827953338623
948,101800.0,9.7005033493042,0.3565305471420288,-3.1728827953338623
949,101900.0,8.523234367370605,0.18903298676013947,-2.553141593933105
950,102000.0,8.523234367370605,0.18903298676013947,-2.553141593933105
951,102100.0,8.537590980529785,-0.2321037948131561,-3.259024381637573
952,102200.0,8.537590980529785,-0.2321037948131561,-3.259024381637573
953,102300.0,8.537590980529785,-0.2321037948131561,-3.259024381637573
954,102400.0,8.59501838684082,1.0839486122131348,-3.541377305984497
955,102500.0,8.59501838684082,1.0839486122131348,-3.541377305984497
956,102600.0,9.81057357788086,-0.11964112520217896,-3.359522819519043
957,102700.0,9.81057357788086,-0.11964112520217896,-3.359522819519043
958,102800.0,8.298308372497559,0.04785645008087158,-3.87876558303833
959,102900.0,8.298308372497559,0.04785645008087158,-3.87876558303833
960,103000.0,12.624531745910645,0.9332008361816406,-3.2470602989196777
961,103100.0,12.624531745910645,0.9332008361816406,-3.2470602989196777
962,103200.0,12.624531745910645,0.9332008361816406,-3.2470602989196777
963,103300.0,9.499505043029783,0.17706887423992154,-2.093719720840454
964,103400.0,9.499505043029783,0.17706887423992154,-2.093719720840454
965,103500.0,7.925028324127197,0.9954141974449158,-1.8592231273651123
966,103600.0,7.925028324127197,0.9954141974449158,-1.8592231273651123
967,103700.0,10.667202949523926,2.3497519493103027,-2.4813570976257324
968,103800.0,10.667202949523926,2.3497519493103027,-2.4813570976257324
969,103900.0,9.351150512695312,1.1509476900100708,-2.648854732513428
970,104000.0,9.351150512695312,1.1509476900100708,-2.648854732513428
971,104100.0,9.351150512695312,1.1509476900100708,-2.648854732513428
972,104200.0,7.211967468261719,-0.1698903888463974,-2.801995038986206
973,104300.0,7.211967468261719,-0.1698903888463974,-2.801995038986206
974,104400.0,8.437092781066895,-0.2392822504043579,-2.7900311946868896
975,104500.0,8.437092781066895,-0.2392822504043579,-2.7900311946868896
976,104600.0,12.87817096710205,0.6819544434547424,-3.4360933303833012
977,104700.0,12.87817096710205,0.6819544434547424,-3.4360933303833012
978,104800.0,8.992227554321289,0.7274181246757507,-1.84965181350708
979,104900.0,8.992227554321289,0.7274181246757507,-1.84965181350708
980,105000.0,7.513463020324707,0.8494520783424377,-1.0360921621322632
981,105100.0,7.513463020324707,0.8494520783424377,-1.0360921621322632
982,105200.0,7.513463020324707,0.8494520783424377,-1.0360921621322632
983,105300.0,9.375079154968262,0.7178468108177185,-1.9046868085861208
984,105400.0,9.375079154968262,0.7178468108177185,-1.9046868085861208
985,105500.0,14.926427841186525,-0.41156551241874695,-2.5076780319213867
986,105600.0,14.926427841186525,-0.41156551241874695,-2.5076780319213867
987,105700.0,7.22153902053833,0.07896314561367035,-2.524427890777588
988,105800.0,7.22153902053833,0.07896314561367035,-2.524427890777588
989,105900.0,7.22153902053833,0.07896314561367035,-2.524427890777588
990,106000.0,7.690531730651855,-0.20099709928035736,-2.627319574356079
991,106100.0,7.690531730651855,-0.20099709928035736,-2.627319574356079
992,106200.0,10.461421012878418,-0.6245267391204834,-4.022334575653076
993,106300.0,10.461421012878418,-0.6245267391204834,-4.022334575653076
994,106400.0,9.198010444641113,1.3639088869094849,-3.0987055301666264
995,106500.0,9.198010444641113,1.3639088869094849,-3.0987055301666264
996,106600.0,6.403193473815918,1.3782659769058228,-1.6247265338897705
997,106700.0,6.403193473815918,1.3782659769058228,-1.6247265338897705
998,106800.0,10.284351348876953,1.0145567655563354,-1.761117458343506
999,106900.0,10.284351348876953,1.0145567655563354,-1.761117458343506
1000,107000.0,10.284351348876953,1.0145567655563354,-1.761117458343506
1001,107100.0,10.825129508972168,0.0263210479170084,-2.8737800121307373
1002,107200.0,10.825129508972168,0.0263210479170084,-2.8737800121307373
1003,107300.0,6.671189785003662,0.21296121180057528,-2.4693927764892583
1004,107400.0,6.671189785003662,0.21296121180057528,-2.4693927764892583
1005,107500.0,6.671189785003662,0.21296121180057528,-2.4693927764892583
1006,107600.0,8.638089179992676,-0.0813559740781784,-2.823530912399292
1007,107700.0,8.638089179992676,-0.0813559740781784,-2.823530912399292
1008,107800.0,10.183852195739746,-0.4618147313594818,-3.7878382205963135
1009,107900.0,10.183852195739746,-0.4618147313594818,-3.7878382205963135
1010,108000.0,10.016355514526367,1.2993026971817017,-1.706082463264465
1011,108100.0,10.016355514526367,1.2993026971817017,-1.706082463264465
1012,108200.0,7.274180889129639,0.935593605041504,-0.8518448472023009
1013,108300.0,7.274180889129639,0.935593605041504,-0.8518448472023009
1014,108400.0,7.274180889129639,0.935593605041504,-0.8518448472023009
1015,108500.0,10.86341381072998,0.22013968229293826,-2.3018953800201416
1016,108600.0,10.86341381072998,0.22013968229293826,-2.3018953800201416
1017,108700.0,8.748159408569336,1.4883356094360352,-3.99362063407898
1018,108800.0,8.748159408569336,1.4883356094360352,-3.99362063407898
1019,108900.0,9.164510726928713,0.8039883971214294,-2.75174617767334
1020,109000.0,9.164510726928713,0.8039883971214294,-2.75174617767334
1021,109100.0,5.469992637634277,0.662811815738678,-2.426322221755981
1022,109200.0,5.469992637634277,0.662811815738678,-2.426322221755981
1023,109300.0,5.469992637634277,0.662811815738678,-2.426322221755981
1024,109400.0,10.011569023132324,2.115255117416382,-2.914458036422729
1025,109500.0,10.011569023132324,2.115255117416382,-2.914458036422729
1026,109600.0,8.173882484436035,2.9479575157165527,-2.1846470832824707
1027,109700.0,8.173882484436035,2.9479575157165527,-2.1846470832824707
1028,109800.0,9.078369140625,2.744567632675171,-1.3208380937576294
1029,109900.0,9.078369140625,2.744567632675171,-1.3208380937576294
1030,110000.0,9.078369140625,2.744567632675171,-1.3208380937576294
1031,110100.0,10.547561645507812,1.361515998840332,-2.09850549697876
1032,110200.0,10.547561645507812,1.361515998840332,-2.09850549697876
1033,110300.0,7.116254806518555,0.6101697683334351,-2.9048867225646973
1034,110400.0,7.116254806518555,0.6101697683334351,-2.9048867225646973
1035,110500.0,8.638089179992676,1.3974084854125977,-1.361515998840332
1036,110600.0,8.638089179992676,1.3974084854125977,-1.361515998840332
1037,110700.0,9.796216011047363,1.7730815410614014,-1.0169496536254885
1038,110800.0,9.796216011047363,1.7730815410614014,-1.0169496536254885
1039,110900.0,9.796216011047363,1.7730815410614014,-1.0169496536254885
1040,111000.0,10.695917129516602,2.1224336624145512,-2.5986053943634038
1041,111100.0,10.695917129516602,2.1224336624145512,-2.5986053943634038
1042,111200.0,9.365508079528807,2.857030153274536,-2.486142873764038
1043,111300.0,9.365508079528807,2.857030153274536,-2.486142873764038
1044,111400.0,11.313264846801758,0.5838487148284912,-2.062613010406494
1045,111500.0,11.313264846801758,0.5838487148284912,-2.062613010406494
1046,111600.0,6.283552646636963,0.3302095234394073,-2.612962245941162
1047,111700.0,6.283552646636963,0.3302095234394073,-2.612962245941162
1048,111800.0,6.283552646636963,0.3302095234394073,-2.612962245941162
1049,111900.0,8.843873023986816,1.3543376922607422,-2.589033842086792
1050,112000.0,8.843873023986816,1.3543376922607422,-2.589033842086792
1051,112100.0,8.508876800537111,1.94297194480896,-1.117448091506958
1052,112200.0,8.508876800537111,1.94297194480896,-1.117448091506958
1053,112300.0,8.508876800537111,1.94297194480896,-1.117448091506958
1054,112400.0,9.533005714416504,1.459621787071228,-3.720839262008667
1055,112500.0,9.533005714416504,1.459621787071228,-3.720839262008667
1056,112600.0,10.925628662109377,0.9116654396057128,-4.170689582824707
1057,112700.0,10.925628662109377,0.9116654396057128,-4.170689582824707
1058,112800.0,11.547762870788574,-0.1627119481563568,-2.1415762901306152
1059,112900.0,11.547762870788574,-0.1627119481563568,-2.1415762901306152
1060,113000.0,11.547762870788574,-0.1627119481563568,-2.1415762901306152
1061,113100.0,5.536991596221924,0.6532405614852905,-4.072584152221681
1062,113200.0,5.536991596221924,0.6532405614852905,-4.072584152221681
1063,113300.0,11.978469848632812,1.6079767942428589,-2.565105676651001
1064,113400.0,11.978469848632812,1.6079767942428589,-2.565105676651001
1065,113500.0,7.2263240814208975,-0.011964112520217896,-0.25363919138908386
1066,113600.0,7.2263240814208975,-0.011964112520217896,-0.25363919138908386
1067,113700.0,7.2263240814208975,-0.011964112520217896,-0.25363919138908386
1068,113800.0,9.38943576812744,1.1413763761520386,-1.0863415002822876
1069,113900.0,9.38943576812744,1.1413763761520386,-1.0863415002822876
1070,114000.0,11.38026523590088,-1.5984054803848269,-2.723031997680664
1071,114100.0,11.38026523590088,-1.5984054803848269,-2.723031997680664
1072,114200.0,11.978469848632812,1.8065810203552248,-2.048256158828736
1073,114300.0,11.978469848632812,1.8065810203552248,-2.048256158828736
1074,114400.0,11.978469848632812,1.8065810203552248,-2.048256158828736
1075,114500.0,9.671788215637207,2.062613010406494,0.7393822073936462
1076,114600.0,9.671788215637207,2.062613010406494,0.7393822073936462
1077,114700.0,7.7048888206481925,1.3782659769058228,-1.674975872039795
1078,114800.0,7.7048888206481925,1.3782659769058228,-1.674975872039795
1079,114900.0,10.53799057006836,-0.22492533922195435,-3.359522819519043
1080,115000.0,10.53799057006836,-0.22492533922195435,-3.359522819519043
1081,115100.0,10.53799057006836,-0.22492533922195435,-3.359522819519043
1082,115200.0,8.116454124450684,0.5216353535652161,-2.057827472686768
1083,115300.0,8.116454124450684,0.5216353535652161,-2.057827472686768
1084,115400.0,9.93978500366211,0.8638089299201965,-3.2159535884857178
1085,115500.0,9.93978500366211,0.8638089299201965,-3.2159535884857178
1086,115600.0,11.337193489074707,2.411965131759644,-3.1345977783203125
1087,115700.0,11.337193489074707,2.411965131759644,-3.1345977783203125
1088,115800.0,11.16012477874756,1.031306505203247,-1.1629117727279663
1089,115900.0,11.16012477874756,1.031306505203247,-1.1629117727279663
1090,116000.0,11.16012477874756,1.031306505203247,-1.1629117727279663
1091,116100.0,5.66620397567749,1.3782659769058228,-1.129412293434143
1092,116200.0,5.66620397567749,1.3782659769058228,-1.129412293434143
1093,116300.0,15.869199752807615,2.380858421325684,-2.390429735183716
1094,116400.0,15.869199752807615,2.380858421325684,-2.390429735183716
1095,116500.0,7.8245296478271475,1.37587308883667,-1.5744771957397459
1096,116600.0,7.8245296478271475,1.37587308883667,-1.5744771957397459
1097,116700.0,8.207381248474121,1.361515998840332,-2.4287149906158447
1098,116800.0,8.207381248474121,1.361515998840332,-2.4287149906158447
1099,116900.0,8.207381248474121,1.361515998840332,-2.4287149906158447
1100,117000.0,9.51386260986328,-0.4331009089946747,-3.1250264644622803
1101,117100.0,9.51386260986328,-0.4331009089946747,-3.1250264644622803
1102,117200.0,12.241680145263672,1.7682960033416748,-1.6031911373138428
1103,117300.0,12.241680145263672,1.7682960033416748,-1.6031911373138428
1104,117400.0,7.767102241516112,1.1772687435150146,-0.818345308303833
1105,117500.0,7.767102241516112,1.1772687435150146,-0.818345308303833
1106,117600.0,7.767102241516112,1.1772687435150146,-0.818345308303833
1107,117700.0,7.556533336639403,2.2683956623077397,-1.6510475873947144
1108,117800.0,7.556533336639403,2.2683956623077397,-1.6510475873947144
1109,117900.0,11.657832145690918,2.3425734043121342,-2.68953275680542
1110,118000.0,11.657832145690918,2.3425734043121342,-2.68953275680542
1111,118100.0,7.121039390563965,0.7896314859390259,-1.6893328428268433
1112,118200.0,7.121039390563965,0.7896314859390259,-1.6893328428268433
1113,118300.0,8.920442581176758,-0.19142580032348636,-0.5335994362831116
1114,118400.0,8.920442581176758,-0.19142580032348636,-0.5335994362831116
1115,118500.0,8.920442581176758,-0.19142580032348636,-0.5335994362831116
1116,118600.0,13.15573787689209,0.9619146585464478,-3.893122434616089
1117,118700.0,13.15573787689209,0.9619146585464478,-3.893122434616089
1118,118800.0,11.13619613647461,1.1940184831619265,-0.6412764191627502
1119,118900.0,11.13619613647461,1.1940184831619265,-0.6412764191627502
1120,119000.0,8.015955924987793,1.940579175949097,-0.8327022790908813
1121,119100.0,8.015955924987793,1.940579175949097,-0.8327022790908813
1122,119200.0,8.015955924987793,1.940579175949097,-0.8327022790908813
1123,119300.0,13.471590995788574,2.227717876434326,-3.6059837341308594
1124,119400.0,13.471590995788574,2.227717876434326,-3.6059837341308594
1125,119500.0,8.796016693115233,1.0049854516983032,-1.7347965240478516
1126,119600.0,8.796016693115233,1.0049854516983032,-1.7347965240478516
1127,119700.0,8.154739379882812,0.6604190468788147,-1.4644075632095337
1128,119800.0,8.154739379882812,0.6604190468788147,-1.4644075632095337
1129,119900.0,8.154739379882812,0.6604190468788147,-1.4644075632095337
1130,120000.0,10.04985523223877,0.902094066143036,-3.3379876613616943
1131,120100.0,10.04985523223877,0.902094066143036,-3.3379876613616943
1132,120200.0,12.05025577545166,1.8209381103515625,-3.562912940979004
1133,120300.0,12.05025577545166,1.8209381103515625,-3.562912940979004
1134,120400.0,13.189238548278807,1.246660590171814,-1.6821542978286743
1135,120500.0,13.189238548278807,1.246660590171814,-1.6821542978286743
1136,120600.0,7.034898281097412,-0.2679961323738098,-3.3212375640869136
1137,120700.0,7.034898281097412,-0.2679961323738098,-3.3212375640869136
1138,120800.0,7.034898281097412,-0.2679961323738098,-3.3212375640869136
1139,120900.0,15.9170560836792,0.15314064919948578,-0.5168496966362001
1140,121000.0,15.9170560836792,0.15314064919948578,-0.5168496966362001
1141,121100.0,11.155338287353516,2.8929224014282227,1.3423734903335571
1142,121200.0,11.155338287353516,2.8929224014282227,1.3423734903335571
1143,121300.0,11.155338287353516,2.8929224014282227,1.3423734903335571
1144,121400.0,9.107083320617676,1.160519003868103,-4.220939159393311
1145,121500.0,9.107083320617676,1.160519003868103,-4.220939159393311
1146,121600.0,11.207980155944824,2.1822540760040283,-3.462414264678955
1147,121700.0,11.207980155944824,2.1822540760040283,-3.462414264678955
1148,121800.0,11.609975814819336,1.3663017749786377,-2.0099709033966064
1149,121900.0,11.609975814819336,1.3663017749786377,-2.0099709033966064
1150,122000.0,8.456235885620117,1.3184452056884766,-2.328216552734375
1151,122100.0,8.456235885620117,1.3184452056884766,-2.328216552734375
1152,122200.0,8.456235885620117,1.3184452056884766,-2.328216552734375
1153,122300.0,9.078369140625,0.8853443264961243,-2.739781856536865
1154,122400.0,9.078369140625,0.8853443264961243,-2.739781856536865
1155,122500.0,9.585646629333496,0.82791668176651,-1.5002998113632202
1156,122600.0,9.585646629333496,0.82791668176651,-1.5002998113632202
1157,122700.0,9.585646629333496,0.82791668176651,-1.5002998113632202
1158,122800.0,9.470791816711426,1.1270195245742798,-3.562912940979004
1159,122900.0,9.470791816711426,1.1270195245742798,-3.562912940979004
1160,123000.0,9.734003067016602,1.1988041400909424,-3.1369905471801762
1161,123100.0,9.734003067016602,1.1988041400909424,-3.1369905471801762
1162,123200.0,9.987641334533693,0.818345308303833,-1.4021940231323242
1163,123300.0,9.987641334533693,0.818345308303833,-1.4021940231323242
1164,123400.0,9.987641334533693,0.818345308303833,-1.4021940231323242
1165,123500.0,8.724230766296388,1.7443678379058838,-1.0959126949310305
1166,123600.0,8.724230766296388,1.7443678379058838,-1.0959126949310305
1167,123700.0,8.437092781066895,1.6271194219589231,-2.0961124897003174
1168,123800.0,8.437092781066895,1.6271194219589231,-2.0961124897003174
1169,123900.0,16.338191986083984,1.4093725681304932,-1.5074783563613892
1170,124000.0,16.338191986083984,1.4093725681304932,-1.5074783563613892
1171,124100.0,6.790830135345459,-0.2632104754447937,-0.794417142868042
1172,124200.0,6.790830135345459,-0.2632104754447937,-0.794417142868042
1173,124300.0,6.790830135345459,-0.2632104754447937,-0.794417142868042
1174,124400.0,9.207581520080566,-0.4809573292732239,-1.871187210083008
1175,124500.0,9.207581520080566,-0.4809573292732239,-1.871187210083008
1176,124600.0,14.165509223937988,-1.9501504898071291,-2.5459630489349365
1177,124700.0,14.165509223937988,-1.9501504898071291,-2.5459630489349365
1178,124800.0,12.547962188720705,0.26560330390930176,-0.7417750358581543
1179,124900.0,12.547962188720705,0.26560330390930176,-0.7417750358581543
1180,125000.0,7.685746192932129,1.1748759746551514,-0.4426721632480621
1181,125100.0,7.685746192932129,1.1748759746551514,-0.4426721632480621
1182,125200.0,7.685746192932129,1.1748759746551514,-0.4426721632480621
1183,125300.0,13.495519638061525,1.4835500717163086,-3.0987055301666264
1184,125400.0,13.495519638061525,1.4835500717163086,-3.0987055301666264
1185,125500.0,10.097711563110352,1.423729419708252,-1.674975872039795
1186,125600.0,10.097711563110352,1.423729419708252,-1.674975872039795
1187,125700.0,10.097711563110352,1.423729419708252,-1.674975872039795
1188,125800.0,9.164510726928713,-0.04546363279223442,-2.007578134536743
1189,125900.0,9.164510726928713,-0.04546363279223442,-2.007578134536743
1190,126000.0,10.140782356262207,-0.5934200286865234,-3.366701364517212
1191,126100.0,10.140782356262207,-0.5934200286865234,-3.366701364517212
1192,126200.0,9.734003067016602,0.7106683850288391,-1.368694543838501
1193,126300.0,9.734003067016602,0.7106683850288391,-1.368694543838501
1194,126400.0,7.9728851318359375,0.5216353535652161,-0.3828516006469727
1195,126500.0,7.9728851318359375,0.5216353535652161,-0.3828516006469727
1196,126600.0,7.9728851318359375,0.5216353535652161,-0.3828516006469727
1197,126700.0,10.212566375732422,0.5838487148284912,-2.400001049041748
1198,126800.0,10.212566375732422,0.5838487148284912,-2.400001049041748
1199,126900.0,10.308279991149902,0.552742063999176,-2.304288148880005
1200,127000.0,10.308279991149902,0.552742063999176,-2.304288148880005
1201,127100.0,10.308279991149902,0.552742063999176,-2.304288148880005
1202,127200.0,8.078168869018555,1.1485549211502075,-1.184447169303894
1203,127300.0,8.078168869018555,1.1485549211502075,-1.184447169303894
1204,127400.0,9.992427825927734,-0.4689932465553284,-3.211168050765991
1205,127500.0,9.992427825927734,-0.4689932465553284,-3.211168050765991
1206,127600.0,7.097111701965332,-0.13160523772239685,-2.2396819591522217
1207,127700.0,7.097111701965332,-0.13160523772239685,-2.2396819591522217
1208,127800.0,9.71485996246338,0.9044869542121888,-0.882951557636261
1209,127900.0,9.71485996246338,0.9044869542121888,-0.882951557636261
1210,128000.0,7.934599876403809,0.8566305041313171,-1.4165509939193726
1211,128100.0,7.934599876403809,0.8566305041313171,-1.4165509939193726
1212,128200.0,7.934599876403809,0.8566305041313171,-1.4165509939193726
1213,128300.0,12.643674850463867,0.6412764191627502,-2.8546373844146733
1214,128400.0,12.643674850463867,0.6412764191627502,-2.8546373844146733
1215,128500.0,8.236095428466799,-0.13639087975025174,-0.4402793645858765
1216,128600.0,8.236095428466799,-0.13639087975025174,-0.4402793645858765
1217,128700.0,9.7005033493042,0.07417750358581543,-1.5601203441619873
1218,128800.0,9.7005033493042,0.07417750358581543,-1.5601203441619873
1219,128900.0,9.7005033493042,0.07417750358581543,-1.5601203441619873
1220,129000.0,11.198410987854004,-1.7180466651916504,-1.9716858863830569
1221,129100.0,11.198410987854004,-1.7180466651916504,-1.9716858863830569
1222,129200.0,11.030912399291992,-0.12442677468061447,-0.8853443264961243
1223,129300.0,11.030912399291992,-0.12442677468061447,-0.8853443264961243
1224,129400.0,7.465606689453125,1.057627558708191,-1.4907284975051882
1225,129500.0,7.465606689453125,1.057627558708191,-1.4907284975051882
1226,129600.0,7.465606689453125,1.057627558708191,-1.4907284975051882
1227,129700.0,7.269395351409912,0.5790630578994751,-3.3164520263671875
1228,129800.0,7.269395351409912,0.5790630578994751,-3.3164520263671875
1229,129900.0,11.437692642211914,1.0911270380020142,-1.8376877307891848
1230,130000.0,11.437692642211914,1.0911270380020142,-1.8376877307891848
1231,130100.0,10.269994735717773,1.1581261157989502,-1.2610174417495728
1232,130200.0,10.269994735717773,1.1581261157989502,-1.2610174417495728
1233,130300.0,10.269994735717773,1.1581261157989502,-1.2610174417495728
1234,130400.0,8.992227554321289,0.705882728099823,-2.7326035499572754
1235,130500.0,8.992227554321289,0.705882728099823,-2.7326035499572754
1236,130600.0,10.643275260925293,0.2488535493612289,-2.7804601192474365
1237,130700.0,10.643275260925293,0.2488535493612289,-2.7804601192474365
1238,130800.0,11.504691123962402,1.710868239402771,-1.782652735710144
1239,130900.0,11.504691123962402,1.710868239402771,-1.782652735710144
1240,131000.0,7.767102241516112,0.15553347766399386,-2.493321180343628
1241,131100.0,7.767102241516112,0.15553347766399386,-2.493321180343628
1242,131200.0,7.767102241516112,0.15553347766399386,-2.493321180343628
1243,131300.0,10.164710998535156,0.9667003750801086,-1.5960125923156738
1244,131400.0,10.164710998535156,0.9667003750801086,-1.5960125923156738
1245,131500.0,8.958727836608887,1.5098710060119631,-1.5361920595169067
1246,131600.0,8.958727836608887,1.5098710060119631,-1.5361920595169067
1247,131700.0,9.3128662109375,0.27756744623184204,-3.3643085956573486
1248,131800.0,9.3128662109375,0.27756744623184204,-3.3643085956573486
1249,131900.0,12.059826850891113,1.2323036193847656,-3.35713005065918
1250,132000.0,12.059826850891113,1.2323036193847656,-3.35713005065918
1251,132100.0,12.059826850891113,1.2323036193847656,-3.35713005065918
1252,132200.0,11.073983192443848,-0.12442677468061447,-2.8929224014282227
1253,132300.0,11.073983192443848,-0.12442677468061447,-2.8929224014282227
1254,132400.0,8.24566650390625,0.05982056260108948,-2.706282377243042
1255,132500.0,8.24566650390625,0.05982056260108948,-2.706282377243042
1256,132600.0,11.44247817993164,1.4404792785644531,-1.7252250909805298
1257,132700.0,11.44247817993164,1.4404792785644531,-1.7252250909805298
1258,132800.0,10.15035343170166,2.280359983444214,-1.210768222808838
1259,132900.0,10.15035343170166,2.280359983444214,-1.210768222808838
1260,133000.0,10.15035343170166,2.280359983444214,-1.210768222808838
1261,133100.0,11.265408515930176,-1.0887343883514404,-3.579662799835205
1262,133200.0,11.265408515930176,-1.0887343883514404,-3.579662799835205
1263,133300.0,8.178668022155763,-1.7443678379058838,-1.4261221885681152
1264,133400.0,8.178668022155763,-1.7443678379058838,-1.4261221885681152
1265,133500.0,11.370694160461426,0.16510476171970367,0.016749758273363113
1266,133600.0,11.370694160461426,0.16510476171970367,0.016749758273363113
1267,133700.0,6.551548480987549,0.8111668825149536,-1.5361920595169067
1268,133800.0,6.551548480987549,0.8111668825149536,-1.5361920595169067
1269,133900.0,6.551548480987549,0.8111668825149536,-1.5361920595169067
1270,134000.0,16.76889991760254,0.6293123364448547,-2.0434706211090092
1271,134100.0,16.76889991760254,0.6293123364448547,-2.0434706211090092
1272,134200.0,6.819544315338135,-0.6364907622337341,-0.6245267391204834
1273,134300.0,6.819544315338135,-0.6364907622337341,-0.6245267391204834
1274,134400.0,8.896513938903809,-1.5409778356552124,-0.672383189201355
1275,134500.0,8.896513938903809,-1.5409778356552124,-0.672383189201355
1276,134600.0,8.896513938903809,-1.5409778356552124,-0.672383189201355
1277,134700.0,11.212766647338867,-0.031106693670153618,-3.089133977890014
1278,134800.0,11.212766647338867,-0.031106693670153618,-3.089133977890014
1279,134900.0,12.299108505249025,1.5481561422348022,-0.9738788008689879
1280,135000.0,12.299108505249025,1.5481561422348022,-0.9738788008689879
1281,135100.0,9.035298347473145,1.3232309818267822,-0.12681959569454193
1282,135200.0,9.035298347473145,1.3232309818267822,-0.12681959569454193
1283,135300.0,7.278966426849365,0.9667003750801086,-2.476571559906006
1284,135400.0,7.278966426849365,0.9667003750801086,-2.476571559906006
1285,135500.0,14.639288902282715,0.5503491759300232,-3.507878065109253
1286,135600.0,14.639288902282715,0.5503491759300232,-3.507878065109253
1287,135700.0,7.5469627380371085,1.5649060010910034,-1.921436548233032
1288,135800.0,7.5469627380371085,1.5649060010910034,-1.921436548233032
1289,135900.0,7.5469627380371085,1.5649060010910034,-1.921436548233032
1290,136000.0,8.456235885620117,-0.2751745879650116,-2.739781856536865
1291,136100.0,8.456235885620117,-0.2751745879650116,-2.739781856536865
1292,136200.0,10.174281120300293,-0.9619146585464478,-2.4717857837677
1293,136300.0,10.174281120300293,-0.9619146585464478,-2.4717857837677
1294,136400.0,8.853443145751953,1.244267821311951,-1.043270707130432
1295,136500.0,8.853443145751953,1.244267821311951,-1.043270707130432
1296,136600.0,8.853443145751953,1.244267821311951,-1.043270707130432
1297,136700.0,8.10688304901123,1.5649060010910034,-0.5718846321105957
1298,136800.0,8.10688304901123,1.5649060010910034,-0.5718846321105957
1299,136900.0,11.964113235473633,1.0073783397674558,-2.263610363006592
1300,137000.0,11.964113235473633,1.0073783397674558,-2.263610363006592
1301,137100.0,9.863215446472168,-0.031106693670153618,-1.5553346872329712
1302,137200.0,9.863215446472168,-0.031106693670153618,-1.5553346872329712
1303,137300.0,8.303093910217285,1.0193424224853516,-1.2011969089508057
1304,137400.0,8.303093910217285,1.0193424224853516,-1.2011969089508057
1305,137500.0,8.303093910217285,1.0193424224853516,-1.2011969089508057
1306,137600.0,10.475777626037598,1.1150553226470947,-3.249453067779541
1307,137700.0,10.475777626037598,1.1150553226470947,-3.249453067779541
1308,137800.0,8.863015174865723,1.6486548185348509,-2.321038007736206
1309,137900.0,8.863015174865723,1.6486548185348509,-2.321038007736206
1310,138000.0,9.265008926391602,1.423729419708252,-0.3613162040710449
1311,138100.0,9.265008926391602,1.423729419708252,-0.3613162040710449
1312,138200.0,9.265008926391602,1.423729419708252,-0.3613162040710449
1313,138300.0,6.077769756317139,1.5720844268798828,-1.3543376922607422
1314,138400.0,6.077769756317139,1.5720844268798828,-1.3543376922607422
1315,138500.0,16.730615615844727,-0.05982056260108948,-2.825923442840576
1316,138600.0,16.730615615844727,-0.05982056260108948,-2.825923442840576
1317,138700.0,7.264609336853027,-1.56251323223114,-0.9188438653945924
1318,138800.0,7.264609336853027,-1.56251323223114,-0.9188438653945924
1319,138900.0,7.264609336853027,-1.56251323223114,-0.9188438653945924
1320,139000.0,8.891729354858398,-0.7130610942840576,-2.0434706211090092
1321,139100.0,8.891729354858398,-0.7130610942840576,-2.0434706211090092
1322,139200.0,12.55274772644043,-2.651247262954712,-2.612962245941162
1323,139300.0,12.55274772644043,-2.651247262954712,-2.612962245941162
1324,139400.0,10.52363395690918,0.6867401003837585,-1.430907964706421
1325,139500.0,10.52363395690918,0.6867401003837585,-1.430907964706421
1326,139600.0,6.441478729248048,1.093519926071167,-1.4500504732131958
1327,139700.0,6.441478729248048,1.093519926071167,-1.4500504732131958
1328,139800.0,6.441478729248048,1.093519926071167,-1.4500504732131958
1329,139900.0,10.561919212341307,-0.09092726558446884,-2.5004994869232178
1330,140000.0,10.561919212341307,-0.09092726558446884,-2.5004994869232178
1331,140100.0,10.437491416931152,0.969093143939972,-0.2464607357978821
1332,140200.0,10.437491416931152,0.969093143939972,-0.2464607357978821
1333,140300.0,8.475377082824707,2.4047868251800537,-0.7776673436164856
1334,140400.0,8.475377082824707,2.4047868251800537,-0.7776673436164856
1335,140500.0,8.475377082824707,2.4047868251800537,-0.7776673436164856
1336,140600.0,12.629318237304688,1.7036896944046018,-5.292923927307129
1337,140700.0,12.629318237304688,1.7036896944046018,-5.292923927307129
1338,140800.0,14.050655364990234,0.09092726558446884,-2.524427890777588
1339,140900.0,14.050655364990234,0.09092726558446884,-2.524427890777588
1340,141000.0,6.92482852935791,-1.131805181503296,-3.0484561920166016
1341,141100.0,6.92482852935791,-1.131805181503296,-3.0484561920166016
1342,141200.0,6.92482852935791,-1.131805181503296,-3.0484561920166016
1343,141300.0,12.782458305358887,0.4259224236011505,-2.749353408813477
1344,141400.0,12.782458305358887,0.4259224236011505,-2.749353408813477
1345,141500.0,8.283952713012695,1.4859429597854614,-2.359323024749756
1346,141600.0,8.283952713012695,1.4859429597854614,-2.359323024749756
1347,141700.0,8.283952713012695,1.4859429597854614,-2.359323024749756
1348,141800.0,9.40379238128662,1.6223337650299072,-3.7232320308685294
1349,141900.0,9.40379238128662,1.6223337650299072,-3.7232320308685294
1350,142000.0,9.355937004089355,0.6340980529785156,-3.2542388439178467
1351,142100.0,9.355937004089355,0.6340980529785156,-3.2542388439178467
1352,142200.0,10.155139923095703,-0.2991028428077698,-1.8472589254379272
1353,142300.0,10.155139923095703,-0.2991028428077698,-1.8472589254379272
1354,142400.0,5.37906551361084,-0.17228324711322784,-2.67278265953064
1355,142500.0,5.37906551361084,-0.17228324711322784,-2.67278265953064
1356,142600.0,13.093524932861328,0.9954141974449158,-2.0243279933929443
1357,142700.0,13.093524932861328,0.9954141974449158,-2.0243279933929443
1358,142800.0,13.093524932861328,0.9954141974449158,-2.0243279933929443
1359,142900.0,7.590033531188965,1.5074783563613892,-1.9142580032348635
1360,143000.0,7.590033531188965,1.5074783563613892,-1.9142580032348635
1361,143100.0,9.322437286376953,1.0552347898483276,-2.364108800888061
1362,143200.0,9.322437286376953,1.0552347898483276,-2.364108800888061
1363,143300.0,12.370892524719238,-2.0099709033966064,-2.651247262954712
1364,143400.0,12.370892524719238,-2.0099709033966064,-2.651247262954712
1365,143500.0,12.370892524719238,-2.0099709033966064,-2.651247262954712
1366,143600.0,10.652846336364746,1.2251251935958862,-0.413958340883255
1367,143700.0,10.652846336364746,1.2251251935958862,-0.413958340883255
1368,143800.0,8.307880401611326,1.3710873126983645,-0.30149564146995544
1369,143900.0,8.307880401611326,1.3710873126983645,-0.30149564146995544
1370,144000.0,12.370892524719238,-0.4977070987224579,-2.4598214626312256
1371,144100.0,12.370892524719238,-0.4977070987224579,-2.4598214626312256
1372,144200.0,8.441878318786621,0.7010970115661621,-1.741974949836731
1373,144300.0,8.441878318786621,0.7010970115661621,-1.741974949836731
1374,144400.0,8.71944522857666,1.0815558433532717,-1.8113667964935305
1375,144500.0,8.71944522857666,1.0815558433532717,-1.8113667964935305
1376,144600.0,8.71944522857666,1.0815558433532717,-1.8113667964935305
1377,144700.0,11.763115882873535,0.26560330390930176,-2.5986053943634038
1378,144800.0,11.763115882873535,0.26560330390930176,-2.5986053943634038
1379,144900.0,11.983256340026855,2.1918253898620605,-0.413958340883255
1380,145000.0,11.983256340026855,2.1918253898620605,-0.413958340883255
1381,145100.0,8.762516975402832,0.7561319470405579,-0.4067798554897308
1382,145200.0,8.762516975402832,0.7561319470405579,-0.4067798554897308
1383,145300.0,7.925028324127197,0.6867401003837585,-1.5864413976669312
1384,145400.0,7.925028324127197,0.6867401003837585,-1.5864413976669312
1385,145500.0,7.925028324127197,0.6867401003837585,-1.5864413976669312
1386,145600.0,16.453048706054688,0.062213387340307236,-2.2683956623077397
1387,145700.0,16.453048706054688,0.062213387340307236,-2.2683956623077397
1388,145800.0,7.149754047393799,-0.8662018179893494,-1.5242280960083008
1389,145900.0,7.149754047393799,-0.8662018179893494,-1.5242280960083008
1390,146000.0,9.585646629333496,-1.1341978311538696,-1.1533405780792236
1391,146100.0,9.585646629333496,-1.1341978311538696,-1.1533405780792236
1392,146200.0,9.585646629333496,-1.1341978311538696,-1.1533405780792236
1393,146300.0,15.122639656066895,-0.3254238963127136,-2.4646072387695312
1394,146400.0,15.122639656066895,-0.3254238963127136,-2.4646072387695312
1395,146500.0,9.944571495056152,1.5002998113632202,-0.7178468108177185
1396,146600.0,9.944571495056152,1.5002998113632202,-0.7178468108177185
1397,146700.0,8.776873588562013,1.4883356094360352,0.4618147313594818
1398,146800.0,8.776873588562013,1.4883356094360352,0.4618147313594818
1399,146900.0,13.24666690826416,-1.674975872039795,-2.1032910346984863
1400,147000.0,13.24666690826416,-1.674975872039795,-2.1032910346984863
1401,147100.0,13.24666690826416,-1.674975872039795,-2.1032910346984863
1402,147200.0,7.901099681854247,0.11964112520217896,-1.7012970447540283
1403,147300.0,7.901099681854247,0.11964112520217896,-1.7012970447540283
1404,147400.0,9.72921657562256,0.705882728099823,-2.053041696548462
1405,147500.0,9.72921657562256,0.705882728099823,-2.053041696548462
1406,147600.0,13.02652645111084,0.3876372575759888,-2.730210542678833
1407,147700.0,13.02652645111084,0.3876372575759888,-2.730210542678833
1408,147800.0,13.02652645111084,0.3876372575759888,-2.730210542678833
1409,147900.0,8.886943817138672,1.3495519161224363,-1.0552347898483276
1410,148000.0,8.886943817138672,1.3495519161224363,-1.0552347898483276
1411,148100.0,8.82951545715332,1.730010747909546,-0.2321037948131561
1412,148200.0,8.82951545715332,1.730010747909546,-0.2321037948131561
1413,148300.0,15.462419509887695,0.7274181246757507,-1.9956141710281368
1414,148400.0,15.462419509887695,0.7274181246757507,-1.9956141710281368
1415,148500.0,15.462419509887695,0.7274181246757507,-1.9956141710281368
1416,148600.0,8.49452018737793,1.9669002294540403,-1.8305093050003047
1417,148700.0,8.49452018737793,1.9669002294540403,-1.8305093050003047
1418,148800.0,8.097311973571777,0.9834501147270204,-1.3902300596237185
1419,148900.0,8.097311973571777,0.9834501147270204,-1.3902300596237185
1420,149000.0,9.078369140625,-0.1052841916680336,-3.3547375202178955
1421,149100.0,9.078369140625,-0.1052841916680336,-3.3547375202178955
1422,149200.0,11.131410598754883,0.25363919138908386,-2.9048867225646973
1423,149300.0,11.131410598754883,0.25363919138908386,-2.9048867225646973
1424,149400.0,11.131410598754883,0.25363919138908386,-2.9048867225646973
1425,149500.0,9.753145217895508,1.8640089035034182,-1.6175479888916016
1426,149600.0,9.753145217895508,1.8640089035034182,-1.6175479888916016
1427,149700.0,9.140583038330078,0.6747759580612183,-1.9716858863830569
1428,149800.0,9.140583038330078,0.6747759580612183,-1.9716858863830569
1429,149900.0,8.422735214233397,0.2392822504043579,-2.376072883605957
1430,150000.0,8.422735214233397,0.2392822504043579,-2.376072883605957
1431,150100.0,8.394021987915039,0.9116654396057128,-0.48574298620224
1432,150200.0,8.394021987915039,0.9116654396057128,-0.48574298620224
1433,150300.0,8.394021987915039,0.9116654396057128,-0.48574298620224
1434,150400.0,7.776673316955566,1.6319050788879397,-1.1389836072921753
1435,150500.0,7.776673316955566,1.6319050788879397,-1.1389836072921753
1436,150600.0,10.37527847290039,0.1052841916680336,-3.869194030761719
1437,150700.0,10.37527847290039,0.1052841916680336,-3.869194030761719
1438,150800.0,11.705689430236815,0.7537391781806946,-2.258824586868286
1439,150900.0,11.705689430236815,0.7537391781806946,-2.258824586868286
1440,151000.0,8.427520751953125,-0.0813559740781784,-2.0027925968170166
1441,151100.0,8.427520751953125,-0.0813559740781784,-2.0027925968170166
1442,151200.0,8.427520751953125,-0.0813559740781784,-2.0027925968170166
1443,151300.0,7.130610942840576,-0.3397807776927948,-2.4957141876220703
1444,151400.0,7.130610942840576,-0.3397807776927948,-2.4957141876220703
1445,151500.0,9.987641334533693,1.3854442834854126,-0.4833501875400543
1446,151600.0,9.987641334533693,1.3854442834854126,-0.4833501875400543
1447,151700.0,9.250652313232422,2.6321046352386475,0.22492533922195435
1448,151800.0,9.250652313232422,2.6321046352386475,0.22492533922195435
1449,151900.0,9.250652313232422,2.6321046352386475,0.22492533922195435
1450,152000.0,10.872984886169434,-3.32602334022522,-3.168097257614136
1451,152100.0,10.872984886169434,-3.32602334022522,-3.168097257614136
1452,152200.0,7.829315185546875,-0.23688943684101105,-1.00259268283844
1453,152300.0,7.829315185546875,-0.23688943684101105,-1.00259268283844
1454,152400.0,10.954340934753418,1.2610174417495728,0.1579262912273407
1455,152500.0,10.954340934753418,1.2610174417495728,0.1579262912273407
1456,152600.0,10.954340934753418,1.2610174417495728,0.1579262912273407
1457,152700.0,7.183253765106201,0.2943171858787537,-1.730010747909546
1458,152800.0,7.183253765106201,0.2943171858787537,-1.730010747909546
1459,152900.0,9.250652313232422,1.5984054803848269,-1.5912269353866575
1460,153000.0,9.250652313232422,1.5984054803848269,-1.5912269353866575
1461,153100.0,8.551947593688965,0.7393822073936462,-2.445464611053467
1462,153200.0,8.551947593688965,0.7393822073936462,-2.445464611053467
1463,153300.0,9.355937004089355,-0.1339980661869049,-2.5986053943634038
1464,153400.0,9.355937004089355,-0.1339980661869049,-2.5986053943634038
1465,153500.0,9.355937004089355,-0.1339980661869049,-2.5986053943634038
1466,153600.0,11.854043006896973,0.6340980529785156,-3.359522819519043
1467,153700.0,11.854043006896973,0.6340980529785156,-3.359522819519043
1468,153800.0,10.250852584838867,0.8805587291717529,-1.3519448041915894
1469,153900.0,10.250852584838867,0.8805587291717529,-1.3519448041915894
1470,154000.0,7.8819580078125,0.7800601720809937,-0.9786643981933594
1471,154100.0,7.8819580078125,0.7800601720809937,-0.9786643981933594
1472,154200.0,10.25563907623291,0.8350951075553894,-2.203789472579956
1473,154300.0,10.25563907623291,0.8350951075553894,-2.203789472579956
1474,154400.0,10.25563907623291,0.8350951075553894,-2.203789472579956
1475,154500.0,11.145767211914062,1.2634103298187256,-1.832902193069458
1476,154600.0,11.145767211914062,1.2634103298187256,-1.832902193069458
1477,154700.0,8.489734649658201,0.5718846321105957,-2.785245418548584
1478,154800.0,8.489734649658201,0.5718846321105957,-2.785245418548584
1479,154900.0,8.489734649658201,0.5718846321105957,-2.785245418548584
1480,155000.0,9.432506561279297,0.3086740970611572,-2.8426735401153564
1481,155100.0,9.432506561279297,0.3086740970611572,-2.8426735401153564
1482,155200.0,10.370492935180664,0.8015955686569214,-1.8616160154342647
1483,155300.0,10.370492935180664,0.8015955686569214,-1.8616160154342647
1484,155400.0,5.8337016105651855,0.09092726558446884,-1.3016955852508545
1485,155500.0,5.8337016105651855,0.09092726558446884,-1.3016955852508545
1486,155600.0,5.8337016105651855,0.09092726558446884,-1.3016955852508545
1487,155700.0,14.878570556640625,0.23449662327766416,-1.5314064025878906
1488,155800.0,14.878570556640625,0.23449662327766416,-1.5314064025878906
1489,155900.0,8.724230766296388,1.1126624345779421,-1.4141581058502195
1490,156000.0,8.724230766296388,1.1126624345779421,-1.4141581058502195
1491,156100.0,8.628519058227539,0.7202396392822266,-1.3639088869094849
1492,156200.0,8.628519058227539,0.7202396392822266,-1.3639088869094849
1493,156300.0,10.935199737548828,-0.6532405614852905,-2.988635540008545
1494,156400.0,10.935199737548828,-0.6532405614852905,-2.988635540008545
1495,156500.0,10.935199737548828,-0.6532405614852905,-2.988635540008545
1496,156600.0,8.767301559448242,1.636690616607666,-0.7800601720809937
1497,156700.0,8.767301559448242,1.636690616607666,-0.7800601720809937
1498,156800.0,9.379864692687988,0.8398807048797607,-0.6819544434547424
1499,156900.0,9.379864692687988,0.8398807048797607,-0.6819544434547424
1500,157000.0,11.614761352539062,0.0263210479170084,-2.4047868251800537
1501,157100.0,11.614761352539062,0.0263210479170084,-2.4047868251800537
1502,157200.0,11.614761352539062,0.0263210479170084,-2.4047868251800537
1503,157300.0,10.202995300292967,0.2321037948131561,-1.3974084854125977
1504,157400.0,10.202995300292967,0.2321037948131561,-1.3974084854125977
1505,157500.0,8.226524353027344,0.39960137009620667,-0.5670989155769348
1506,157600.0,8.226524353027344,0.39960137009620667,-0.5670989155769348
1507,157700.0,10.351350784301758,0.8350951075553894,-2.4502503871917725
1508,157800.0,10.351350784301758,0.8350951075553894,-2.4502503871917725
1509,157900.0,10.083355903625488,-0.4163511395454407,-3.7184462547302246
1510,158000.0,10.083355903625488,-0.4163511395454407,-3.7184462547302246
1511,158100.0,10.083355903625488,-0.4163511395454407,-3.7184462547302246
1512,158200.0,8.322237014770508,0.9212367534637452,-0.7465606331825256
1513,158300.0,8.322237014770508,0.9212367534637452,-0.7465606331825256
1514,158400.0,7.36032247543335,0.7130610942840576,-1.9764715433120728
1515,158500.0,7.36032247543335,0.7130610942840576,-1.9764715433120728
1516,158600.0,14.088939666748047,-0.3756731450557709,-2.3545374870300293
1517,158700.0,14.088939666748047,-0.3756731450557709,-2.3545374870300293
1518,158800.0,10.719844818115234,1.871187210083008,-1.0408778190612793
1519,158900.0,10.719844818115234,1.871187210083008,-1.0408778190612793
1520,159000.0,10.719844818115234,1.871187210083008,-1.0408778190612793
1521,159100.0,8.542377471923826,2.833101987838745,-1.5218352079391482
1522,159200.0,8.542377471923826,2.833101987838745,-1.5218352079391482
1523,159300.0,12.514461517333984,1.794616937637329,-4.498506546020508
1524,159400.0,12.514461517333984,1.794616937637329,-4.498506546020508
1525,159500.0,12.571890830993652,-0.3158525824546814,-2.335394859313965
1526,159600.0,12.571890830993652,-0.3158525824546814,-2.335394859313965
1527,159700.0,6.939186096191406,-1.2634103298187256,-2.885744333267212
1528,159800.0,6.939186096191406,-1.2634103298187256,-2.885744333267212
1529,159900.0,12.461820602416992,1.3040882349014282,-1.6893328428268433
1530,160000.0,12.461820602416992,1.3040882349014282,-1.6893328428268433
1531,160100.0,12.461820602416992,1.3040882349014282,-1.6893328428268433
1532,160200.0,8.800802230834961,1.4452648162841797,-1.6271194219589231
1533,160300.0,8.800802230834961,1.4452648162841797,-1.6271194219589231
1534,160400.0,10.561919212341307,0.9882357716560364,-4.2065820693969735
1535,160500.0,10.561919212341307,0.9882357716560364,-4.2065820693969735
1536,160600.0,14.175081253051758,1.2586246728897097,-1.969292998313904
1537,160700.0,14.175081253051758,1.2586246728897097,-1.969292998313904
1538,160800.0,14.175081253051758,1.2586246728897097,-1.969292998313904
1539,160900.0,5.723631858825684,-0.397208571434021,-2.5842485427856445
1540,161000.0,5.723631858825684,-0.397208571434021,-2.5842485427856445
1541,161100.0,13.60080337524414,1.2705888748168943,-1.5720844268798828
1542,161200.0,13.60080337524414,1.2705888748168943,-1.5720844268798828
1543,161300.0,13.60080337524414,1.2705888748168943,-1.5720844268798828
1544,161400.0,9.77707290649414,1.1988041400909424,-1.94297194480896
1545,161500.0,9.77707290649414,1.1988041400909424,-1.94297194480896
1546,161600.0,9.236295700073242,0.662811815738678,-3.35713005065918
1547,161700.0,9.236295700073242,0.662811815738678,-3.35713005065918
1548,161800.0,11.260623931884766,-1.2346963882446291,-2.4646072387695312
1549,161900.0,11.260623931884766,-1.2346963882446291,-2.4646072387695312
1550,162000.0,11.260623931884766,-1.2346963882446291,-2.4646072387695312
1551,162100.0,10.442277908325195,-0.10049854964017868,0.7154539823532104
1552,162200.0,10.442277908325195,-0.10049854964017868,0.7154539823532104
1553,162300.0,8.877371788024902,0.6269195079803467,-1.1270195245742798
1554,162400.0,8.877371788024902,0.6269195079803467,-1.1270195245742798
1555,162500.0,9.083154678344727,1.0815558433532717,-2.943171739578247
1556,162600.0,9.083154678344727,1.0815558433532717,-2.943171739578247
1557,162700.0,9.083154678344727,1.0815558433532717,-2.943171739578247
1558,162800.0,11.968899726867676,1.3974084854125977,-2.179861307144165
1559,162900.0,11.968899726867676,1.3974084854125977,-2.179861307144165
1560,163000.0,8.293522834777832,0.6675975918769836,-1.284945726394653
1561,163100.0,8.293522834777832,0.6675975918769836,-1.284945726394653
1562,163200.0,6.73818826675415,0.5958128571510315,-1.430907964706421
1563,163300.0,6.73818826675415,0.5958128571510315,-1.430907964706421
1564,163400.0,11.279767036437988,1.2969098091125488,-2.1032910346984863
1565,163500.0,11.279767036437988,1.2969098091125488,-2.1032910346984863
1566,163600.0,12.031112670898438,1.6677974462509155,-2.622533798217773
1567,163700.0,12.031112670898438,1.6677974462509155,-2.622533798217773
1568,163800.0,12.031112670898438,1.6677974462509155,-2.622533798217773
1569,163900.0,10.427922248840332,1.5242280960083008,-1.7324036359786987
1570,164000.0,10.427922248840332,1.5242280960083008,-1.7324036359786987
1571,164100.0,7.5326056480407715,1.105484127998352,-0.28953152894973755
1572,164200.0,7.5326056480407715,1.105484127998352,-0.28953152894973755
1573,164300.0,7.6522464752197275,0.97148597240448,-1.6606187820434568
1574,164400.0,7.6522464752197275,0.97148597240448,-1.6606187820434568
1575,164500.0,11.27019500732422,0.9810572862625122,-2.57228422164917
1576,164600.0,11.27019500732422,0.9810572862625122,-2.57228422164917
1577,164700.0,7.877171993255615,0.8087739944458008,-2.069791555404663
1578,164800.0,7.877171993255615,0.8087739944458008,-2.069791555404663
1579,164900.0,7.877171993255615,0.8087739944458008,-2.069791555404663
1580,165000.0,8.690732002258299,0.605384111404419,-2.7014968395233154
1581,165100.0,8.690732002258299,0.605384111404419,-2.7014968395233154
1582,165200.0,11.514263153076172,0.2751745879650116,-1.9932212829589844
1583,165300.0,11.514263153076172,0.2751745879650116,-1.9932212829589844
1584,165400.0,9.183652877807617,0.763310432434082,-1.4548362493515017
1585,165500.0,9.183652877807617,0.763310432434082,-1.4548362493515017
1586,165600.0,9.183652877807617,0.763310432434082,-1.4548362493515017
1587,165700.0,7.905886173248291,0.916451096534729,-1.4907284975051882
1588,165800.0,7.905886173248291,0.916451096534729,-1.4907284975051882
1589,165900.0,9.250652313232422,1.0815558433532717,-1.6390833854675293
1590,166000.0,9.250652313232422,1.0815558433532717,-1.6390833854675293
1591,166100.0,12.610175132751465,1.1629117727279663,-1.66301167011261
1592,166200.0,12.610175132751465,1.1629117727279663,-1.66301167011261
1593,166300.0,12.610175132751465,1.1629117727279663,-1.66301167011261
1594,166400.0,7.22153902053833,-0.8590233325958252,-0.0263210479170084
1595,166500.0,7.22153902053833,-0.8590233325958252,-0.0263210479170084
1596,166600.0,9.868000030517578,0.1339980661869049,-2.09850549697876
1597,166700.0,9.868000030517578,0.1339980661869049,-2.09850549697876
1598,166800.0,10.978270530700684,-0.36370906233787537,-2.392822742462158
1599,166900.0,10.978270530700684,-0.36370906233787537,-2.392822742462158
1600,167000.0,10.978270530700684,-0.36370906233787537,-2.392822742462158
1601,167100.0,11.164910316467283,-0.3038884699344635,-0.7322037816047668
1602,167200.0,11.164910316467283,-0.3038884699344635,-0.7322037816047668
1603,167300.0,7.920242786407472,0.20817556977272034,-0.7657032012939453
1604,167400.0,7.920242786407472,0.20817556977272034,-0.7657032012939453
1605,167500.0,7.814958095550537,0.4977070987224579,-3.797409296035767
1606,167600.0,7.814958095550537,0.4977070987224579,-3.797409296035767
1607,167700.0,7.814958095550537,0.4977070987224579,-3.797409296035767
1608,167800.0,12.710674285888672,1.179661512374878,-2.2683956623077397
1609,167900.0,12.710674285888672,1.179661512374878,-2.2683956623077397
1610,168000.0,8.786444664001465,0.28235307335853577,-1.4165509939193726
1611,168100.0,8.786444664001465,0.28235307335853577,-1.4165509939193726
1612,168200.0,8.260024070739746,1.0839486122131348,-1.9453648328781128
1613,168300.0,8.260024070739746,1.0839486122131348,-1.9453648328781128
1614,168400.0,8.260024070739746,1.0839486122131348,-1.9453648328781128
1615,168500.0,9.087940216064453,0.8303093910217285,-3.239881753921509
1616,168600.0,9.087940216064453,0.8303093910217285,-3.239881753921509
1617,168700.0,10.609774589538574,0.8518448472023009,-2.8115665912628174
1618,168800.0,10.609774589538574,0.8518448472023009,-2.8115665912628174
1619,168900.0,11.073983192443848,0.8422735333442688,-2.2707886695861816
1620,169000.0,11.073983192443848,0.8422735333442688,-2.2707886695861816
1621,169100.0,6.915257453918457,1.2131611108779907,-2.6392831802368164
1622,169200.0,6.915257453918457,1.2131611108779907,-2.6392831802368164
1623,169300.0,6.915257453918457,1.2131611108779907,-2.6392831802368164
1624,169400.0,8.599804878234862,0.9451649785041808,-3.531806230545044
1625,169500.0,8.599804878234862,0.9451649785041808,-3.531806230545044
1626,169600.0,8.628519058227539,1.7922240495681765,0.08853443711996077
1627,169700.0,8.628519058227539,1.7922240495681765,0.08853443711996077
1628,169800.0,8.628519058227539,1.7922240495681765,0.08853443711996077
1629,169900.0,8.800802230834961,2.3473589420318604,-1.3399806022644043
1630,170000.0,8.800802230834961,2.3473589420318604,-1.3399806022644043
1631,170100.0,9.499505043029783,1.1437692642211914,-3.476771354675293
1632,170200.0,9.499505043029783,1.1437692642211914,-3.476771354675293
1633,170300.0,10.260422706604004,1.241874933242798,-3.050848960876465
1634,170400.0,10.260422706604004,1.241874933242798,-3.050848960876465
1635,170500.0,9.528220176696776,1.1222338676452637,-1.284945726394653
1636,170600.0,9.528220176696776,1.1222338676452637,-1.284945726394653
1637,170700.0,9.528220176696776,1.1222338676452637,-1.284945726394653
1638,170800.0,10.260422706604004,0.9427721500396729,-2.888136863708496
1639,170900.0,10.260422706604004,0.9427721500396729,-2.888136863708496
1640,171000.0,14.24207878112793,1.978864312171936,-0.4426721632480621
1641,171100.0,14.24207878112793,1.978864312171936,-0.4426721632480621
1642,171200.0,14.24207878112793,1.978864312171936,-0.4426721632480621
1643,171300.0,7.791030406951903,1.519442439079285,-0.12921242415905002
1644,171400.0,7.791030406951903,1.519442439079285,-0.12921242415905002
1645,171500.0,10.279565811157227,0.10049854964017868,-3.3164520263671875
1646,171600.0,10.279565811157227,0.10049854964017868,-3.3164520263671875
1647,171700.0,14.007582664489744,1.105484127998352,-2.4717857837677
1648,171800.0,14.007582664489744,1.105484127998352,-2.4717857837677
1649,171900.0,10.782057762145996,1.0863415002822876,-0.35892340540885925
1650,172000.0,10.782057762145996,1.0863415002822876,-0.35892340540885925
1651,172100.0,10.782057762145996,1.0863415002822876,-0.35892340540885925
1652,172200.0,7.082754611968994,1.2658032178878784,-0.41156551241874695
1653,172300.0,7.082754611968994,1.2658032178878784,-0.41156551241874695
1654,172400.0,12.839885711669922,1.227518081665039,-2.648854732513428
1655,172500.0,12.839885711669922,1.227518081665039,-2.648854732513428
1656,172600.0,8.226524353027344,1.1988041400909424,-2.1894328594207764
1657,172700.0,8.226524353027344,1.1988041400909424,-2.1894328594207764
1658,172800.0,8.226524353027344,1.1988041400909424,-2.1894328594207764
1659,172900.0,8.499305725097656,0.7393822073936462,-2.4191436767578125
1660,173000.0,8.499305725097656,0.7393822073936462,-2.4191436767578125
1661,173100.0,9.77707290649414,-1.196411371231079,-2.335394859313965
1662,173200.0,9.77707290649414,-1.196411371231079,-2.335394859313965
1663,173300.0,8.135597229003906,1.6342979669570925,-1.8113667964935305
1664,173400.0,8.135597229003906,1.6342979669570925,-1.8113667964935305
1665,173500.0,8.915657043457031,0.9475577473640442,-0.969093143939972
1666,173600.0,8.915657043457031,0.9475577473640442,-0.969093143939972
1667,173700.0,8.915657043457031,0.9475577473640442,-0.969093143939972
1668,173800.0,9.528220176696776,1.2490534782409668,-0.9212367534637452
1669,173900.0,9.528220176696776,1.2490534782409668,-0.9212367534637452
1670,174000.0,12.978670120239258,0.0526420958340168,-0.3326023519039154
1671,174100.0,12.978670120239258,0.0526420958340168,-0.3326023519039154
1672,174200.0,8.432307243347168,0.882951557636261,-0.5359922647476196
1673,174300.0,8.432307243347168,0.882951557636261,-0.5359922647476196
1674,174400.0,8.432307243347168,0.882951557636261,-0.5359922647476196
1675,174500.0,7.456035614013673,-0.35892340540885925,-1.7204395532608032
1676,174600.0,7.456035614013673,-0.35892340540885925,-1.7204395532608032
1677,174700.0,12.083754539489744,0.5790630578994751,-1.9238293170928955
1678,174800.0,12.083754539489744,0.5790630578994751,-1.9238293170928955
1679,174900.0,10.906485557556152,1.5768700838088991,-0.5168496966362001
1680,175000.0,10.906485557556152,1.5768700838088991,-0.5168496966362001
1681,175100.0,7.690531730651855,1.8927226066589355,-0.0526420958340168
1682,175200.0,7.690531730651855,1.8927226066589355,-0.0526420958340168
1683,175300.0,7.690531730651855,1.8927226066589355,-0.0526420958340168
1684,175400.0,11.557332992553713,0.7609176039695741,-1.739582061767578
1685,175500.0,11.557332992553713,0.7609176039695741,-1.739582061767578
1686,175600.0,8.997013092041016,0.4187439680099487,-2.715853452682495
1687,175700.0,8.997013092041016,0.4187439680099487,-2.715853452682495
1688,175800.0,8.997013092041016,0.4187439680099487,-2.715853452682495
1689,175900.0,7.412964344024657,1.6151552200317385,-1.3304094076156616
1690,176000.0,7.412964344024657,1.6151552200317385,-1.3304094076156616
1691,176100.0,9.767501831054688,2.273181438446045,-2.565105676651001
1692,176200.0,9.767501831054688,2.273181438446045,-2.565105676651001
1693,176300.0,9.55214786529541,1.3471590280532837,-1.9812570810317995
1694,176400.0,9.55214786529541,1.3471590280532837,-1.9812570810317995
1695,176500.0,6.585048198699951,0.6987042427062988,-1.22033953666687
1696,176600.0,6.585048198699951,0.6987042427062988,-1.22033953666687
1697,176700.0,6.585048198699951,0.6987042427062988,-1.22033953666687
1698,176800.0,9.62393283843994,1.4500504732131958,-1.2873386144638062
1699,176900.0,9.62393283843994,1.4500504732131958,-1.2873386144638062
1700,177000.0,15.926627159118652,0.27756744623184204,-1.3974084854125977
1701,177100.0,15.926627159118652,0.27756744623184204,-1.3974084854125977
1702,177200.0,7.75753116607666,-0.17946170270442965,-1.3902300596237185
1703,177300.0,7.75753116607666,-0.17946170270442965,-1.3902300596237185
1704,177400.0,7.75753116607666,-0.17946170270442965,-1.3902300596237185
1705,177500.0,9.365508079528807,-0.8733802437782288,-2.940778970718384
1706,177600.0,9.365508079528807,-0.8733802437782288,-2.940778970718384
1707,177700.0,8.087740898132324,-0.4905286431312561,-3.2542388439178467
1708,177800.0,8.087740898132324,-0.4905286431312561,-3.2542388439178467
1709,177900.0,11.198410987854004,1.8448662757873533,-1.7443678379058838
1710,178000.0,11.198410987854004,1.8448662757873533,-1.7443678379058838
1711,178100.0,10.53799057006836,2.311466693878174,-2.328216552734375
1712,178200.0,10.53799057006836,2.311466693878174,-2.328216552734375
1713,178300.0,10.53799057006836,2.311466693878174,-2.328216552734375
1714,178400.0,8.858229637145996,0.3182453811168671,-3.3978083133697514
1715,178500.0,8.858229637145996,0.3182453811168671,-3.3978083133697514
1716,178600.0,9.772287368774414,-0.4019941985607147,-2.67278265953064
1717,178700.0,9.772287368774414,-0.4019941985607147,-2.67278265953064
1718,178800.0,9.772287368774414,-0.4019941985607147,-2.67278265953064
1719,178900.0,9.80100154876709,0.7178468108177185,-1.6534404754638672
1720,179000.0,9.80100154876709,0.7178468108177185,-1.6534404754638672
1721,179100.0,11.217552185058594,3.0460631847381587,-2.627319574356079
1722,179200.0,11.217552185058594,3.0460631847381587,-2.627319574356079
1723,179300.0,10.509278297424316,1.2514461278915403,-3.759124279022217
