,timestamp,ax,ay,az
0,5000.0,0.518943190574646,-8.125920295715332,4.321534156799316
1,5100.0,0.518943190574646,-8.125920295715332,4.321534156799316
2,5200.0,0.518943190574646,-8.125920295715332,4.321534156799316
3,5300.0,-0.24600422382354736,-6.700173377990723,2.6569652557373047
4,5400.0,-0.24600422382354736,-6.700173377990723,2.6569652557373047
5,5500.0,1.790264368057251,-13.612234115600586,0.8391677141189575
6,5600.0,0.4638765752315521,-10.310629844665527,-1.581370234489441
7,5700.0,0.4638765752315521,-10.310629844665527,-1.581370234489441
8,5800.0,-1.4496891498565674,-10.06043529510498,0.7032967209815979
9,5900.0,-1.4496891498565674,-10.06043529510498,0.7032967209815979
10,6000.0,-1.3060370683670044,-8.933364868164062,-0.6709750294685364
56,10600.0,1.1109095811843872,-7.2999210357666025,1.4670470952987669
57,10700.0,0.6404489278793335,-7.420229434967041,5.739500045776367
58,10800.0,0.6404489278793335,-7.420229434967041,5.739500045776367
59,10900.0,0.2214636504650116,-11.207258224487305,-1.6843209266662598
109,15900.0,2.6378116607666016,-14.019248008728027,-2.8634653091430664
110,16000.0,2.6378116607666016,-14.019248008728027,-2.8634653091430664
111,16100.0,1.4850035905838013,-9.57201862335205,-1.0863690376281738
112,16200.0,1.4850035905838013,-9.57201862335205,-1.0863690376281738
124,17400.0,2.086546897888184,-12.628216743469238,-2.5354595184326167
125,17500.0,1.568800687789917,-9.619902610778807,-0.9074024558067322
126,17600.0,1.568800687789917,-9.619902610778807,-0.9074024558067322
127,17700.0,0.6835445761680603,-9.682151794433594,-0.18914192914962769
128,17800.0,0.6835445761680603,-9.682151794433594,-0.18914192914962769
129,17900.0,2.5222914218902592,-9.898228645324707,0.4411316514015198
130,18000.0,2.5222914218902592,-9.898228645324707,0.4411316514015198
131,18100.0,2.090736627578736,-10.88284397125244,0.497395396232605
132,18200.0,2.090736627578736,-10.88284397125244,0.497395396232605
133,18300.0,2.1122844219207764,-6.89410400390625,2.182913303375244
134,18400.0,-0.8026561141014099,-8.449137687683105,2.985569477081299
147,19700.0,0.6242880821228027,-10.353126525878906,2.513911724090576
148,19800.0,0.6242880821228027,-10.353126525878906,2.513911724090576
149,19900.0,0.641047477722168,-7.629722118377685,1.416170358657837
150,20000.0,0.641047477722168,-7.629722118377685,1.416170358657837
151,20100.0,-0.4219780564308167,-7.465719223022461,1.977012038230896
152,20200.0,-0.4327519536018372,-14.101847648620605,-2.097919225692749
175,22500.0,-0.444722980260849,-9.063250541687012,0.376488208770752
176,22600.0,0.3513490855693817,-6.926425457000732,-1.425148606300354
177,22700.0,0.3513490855693817,-6.926425457000732,-1.425148606300354
178,22800.0,1.049857497215271,-16.758813858032227,4.655525207519531
179,22900.0,1.0420763492584229,-6.8162922859191895,1.4472949504852295
180,23000.0,1.0420763492584229,-6.8162922859191895,1.4472949504852295
181,23100.0,0.67815762758255,-8.702324867248535,2.4618380069732666
182,23200.0,0.67815762758255,-8.702324867248535,2.4618380069732666
183,23300.0,0.8349778652191162,-7.877521991729736,1.833359956741333
184,23400.0,0.8349778652191162,-7.877521991729736,1.833359956741333
185,23500.0,0.7439981698989868,-7.099406719207764,2.437297344207764
186,23600.0,0.7439981698989868,-7.099406719207764,2.437297344207764
187,23700.0,0.4812345504760742,-13.94742202758789,-1.9764134883880613
188,23800.0,1.0989385843276978,-6.763619899749756,-1.216254472732544
189,23900.0,1.0989385843276978,-6.763619899749756,-1.216254472732544
190,24000.0,-1.4359225034713743,-9.090784072875977,-0.2783259451389313
191,24100.0,-1.4359225034713743,-9.090784072875977,-0.2783259451389313
192,24200.0,-0.010773907415568829,-8.662819862365723,-0.034117374569177635
193,24300.0,-0.010773907415568829,-8.662819862365723,-0.034117374569177635
194,24400.0,0.038307227194309235,-18.02115631103516,3.508702516555786
195,24500.0,0.038307227194309235,-18.02115631103516,3.508702516555786
196,24600.0,1.3437457084655762,-5.895721912384032,1.0558429956436155
197,24700.0,0.790086567401886,-8.359953880310059,2.5971102714538574
198,24800.0,0.790086567401886,-8.359953880310059,2.5971102714538574
199,24900.0,1.0720038414001465,-8.88907241821289,3.321356296539306
200,25000.0,1.0720038414001465,-8.88907241821289,3.321356296539306
201,25100.0,0.8619126081466675,-6.5038490295410165,1.8441338539123533
202,25200.0,0.8619126081466675,-6.5038490295410165,1.8441338539123533
203,25300.0,-0.426167905330658,-15.128960609436035,10.967239379882812
204,25400.0,-0.426167905330658,-15.128960609436035,10.967239379882812
205,25500.0,0.9373299479484558,-9.785101890563963,-1.5658079385757446
206,25600.0,-1.3658920526504517,-8.411429405212402,-1.0289081335067751
207,25700.0,-1.3658920526504517,-8.411429405212402,-1.0289081335067751
208,25800.0,-1.8507179021835327,-11.867459297180176,2.649184226989746
209,25900.0,-1.8507179021835327,-11.867459297180176,2.649184226989746
210,26000.0,2.258330821990967,-14.203601837158205,2.3301568031311035
211,26100.0,2.258330821990967,-14.203601837158205,2.3301568031311035
233,28300.0,-0.3190273642539978,-9.70429801940918,-1.4820108413696291
234,28400.0,-0.3190273642539978,-9.70429801940918,-1.4820108413696291
235,28500.0,0.4596867263317108,-9.716269493103027,-1.577778935432434
236,28600.0,0.4596867263317108,-9.716269493103027,-1.577778935432434
237,28700.0,1.5628151893615725,-9.333795547485352,-0.606930136680603
238,28800.0,1.5628151893615725,-9.333795547485352,-0.606930136680603
260,31000.0,0.7966706156730652,-6.783970355987549,1.8860323429107664
261,31100.0,0.7966706156730652,-6.783970355987549,1.8860323429107664
262,31200.0,2.3062148094177246,-14.064139366149902,0.6302735805511475
263,31300.0,2.3062148094177246,-14.064139366149902,0.6302735805511475
305,35500.0,2.3325510025024414,-17.5955867767334,1.5867571830749512
306,35600.0,2.3325510025024414,-17.5955867767334,1.5867571830749512
307,35700.0,1.173158884048462,-6.440402507781982,1.354519605636597
308,35800.0,1.173158884048462,-6.440402507781982,1.354519605636597
317,36700.0,-1.033696532249451,-11.9027738571167,7.603984832763673
318,36800.0,1.1875240802764893,-9.77672290802002,1.4814122915267944
319,36900.0,1.1875240802764893,-9.77672290802002,1.4814122915267944
320,37000.0,-1.2970588207244873,-9.029132843017578,-1.4311341047286987
331,38100.0,1.337161660194397,-6.8336501121521,2.671330451965332
332,38200.0,0.997184991836548,-11.993154525756836,-4.2353429794311515
333,38300.0,0.997184991836548,-11.993154525756836,-4.2353429794311515
334,38400.0,0.28311434388160706,-9.687539100646973,0.8170213103294373
347,39700.0,1.7980455160140991,-7.2394676208496085,3.092710018157959
348,39800.0,1.7980455160140991,-7.2394676208496085,3.092710018157959
349,39900.0,0.7769184708595276,-11.030685424804688,0.1125274822115898
350,40000.0,0.7769184708595276,-11.030685424804688,0.1125274822115898
351,40100.0,0.6159083843231201,-11.130643844604492,-0.8708908557891846
352,40200.0,2.625840663909912,-9.083003044128418,-1.314416766166687
353,40300.0,2.625840663909912,-9.083003044128418,-1.314416766166687
354,40400.0,0.8206126093864441,-11.783661842346193,-1.5771803855895996
355,40500.0,0.8206126093864441,-11.783661842346193,-1.5771803855895996
356,40600.0,3.160944700241089,-8.140884399414062,0.2346317619085312
357,40700.0,3.160944700241089,-8.140884399414062,0.2346317619085312
358,40800.0,1.213860273361206,-6.83903694152832,-0.0035913025494664907
369,41900.0,2.255936622619629,-11.630433082580565,-0.4752490520477295
370,42000.0,-0.2412158250808716,-14.54956340789795,0.4890156984329224
371,42100.0,-0.2412158250808716,-14.54956340789795,0.4890156984329224
372,42200.0,2.18770170211792,-6.593032836914063,1.786673069000244
404,45400.0,0.9900023937225342,-8.611943244934082,3.4320881366729736
405,45500.0,-0.11552023142576218,-8.917203903198242,1.4784195423126218
406,45600.0,1.0295066833496094,-6.220734596252441,2.030881643295288
407,45700.0,1.0295066833496094,-6.220734596252441,2.030881643295288
408,45800.0,-0.6991068720817566,-11.595717430114744,-3.6361937522888175
409,45900.0,-0.6991068720817566,-11.595717430114744,-3.6361937522888175
410,46000.0,0.0736217051744461,-7.089829921722412,-0.9433154463768004
411,46100.0,0.0736217051744461,-7.089829921722412,-0.9433154463768004
412,46200.0,-0.7481880187988281,-9.708487510681152,0.8888474106788635
413,46300.0,-0.7481880187988281,-9.708487510681152,0.8888474106788635
414,46400.0,-0.31364041566848755,-9.280524253845217,0.3303998410701752
415,46500.0,-0.33339259028434753,-7.229291915893555,0.35075053572654724
416,46600.0,-0.33339259028434753,-7.229291915893555,0.35075053572654724
417,46700.0,0.13048399984836578,-18.69632148742676,4.422688961029053
426,47600.0,0.5273229479789734,-6.65169095993042,2.6216509342193604
427,47700.0,0.5273229479789734,-6.65169095993042,2.6216509342193604
428,47800.0,0.7110779285430908,-11.367071151733398,-1.5203180313110352
429,47900.0,0.7110779285430908,-11.367071151733398,-1.5203180313110352
480,53000.0,0.7571662664413452,-9.06983470916748,3.075352191925049
481,53100.0,0.7571662664413452,-9.06983470916748,3.075352191925049
482,53200.0,0.6955155730247498,-7.277175903320312,2.299032211303711
483,53300.0,0.6955155730247498,-7.277175903320312,2.299032211303711
541,59100.0,1.599326729774475,-7.988852500915527,4.0719385147094735
542,59200.0,1.599326729774475,-7.988852500915527,4.0719385147094735
543,59300.0,-0.1149216815829277,-11.030685424804688,-4.2538976669311515
544,59400.0,-0.1149216815829277,-11.030685424804688,-4.2538976669311515
545,59500.0,0.7206547260284424,-7.62373685836792,-0.7733271718025208
546,59600.0,0.7206547260284424,-7.62373685836792,-0.7733271718025208
581,63100.0,0.9074024558067322,-9.285911560058594,-2.098517894744873
582,63200.0,0.9074024558067322,-9.285911560058594,-2.098517894744873
583,63300.0,0.26815059781074524,-10.08198356628418,0.27473464608192444
584,63400.0,0.26815059781074524,-10.08198356628418,0.27473464608192444
585,63500.0,-2.0392613410949707,-8.015189170837402,2.3133974075317383
586,63600.0,-2.0392613410949707,-8.015189170837402,2.3133974075317383
587,63700.0,-3.030460834503174,-10.38724422454834,1.986588835716248
588,63800.0,2.52109432220459,-14.025832176208494,3.0184898376464844
589,63900.0,2.52109432220459,-14.025832176208494,3.0184898376464844
590,64000.0,1.9901801347732544,-8.022371292114258,2.564189910888672
591,64100.0,1.9901801347732544,-8.022371292114258,2.564189910888672
592,64200.0,0.7445967197418213,-9.763554573059082,0.9487023949623108
593,64300.0,0.7445967197418213,-9.763554573059082,0.9487023949623108
594,64400.0,-0.6757634282112122,-8.097189903259277,1.5275006294250488
595,64500.0,-0.6757634282112122,-8.097189903259277,1.5275006294250488
596,64600.0,2.0512323379516597,-14.113819122314453,-0.4028244316577912
597,64700.0,1.127070426940918,-8.708310127258299,-0.11312603205442427
598,64800.0,1.127070426940918,-8.708310127258299,-0.11312603205442427
599,64900.0,-0.6805518269538879,-10.13286018371582,0.6224924325942993
600,65000.0,-0.6805518269538879,-10.13286018371582,0.6224924325942993
601,65100.0,0.08559270948171616,-7.4316020011901855,0.9493009448051452
602,65200.0,0.08559270948171616,-7.4316020011901855,0.9493009448051452
622,67200.0,1.45806884765625,-5.9968767166137695,0.8720879554748535
623,67300.0,0.3519476354122162,-7.072471618652344,0.6230909824371338
624,67400.0,-2.4355015754699707,-12.037447929382324,6.572083473205566
625,67500.0,-2.4355015754699707,-12.037447929382324,6.572083473205566
626,67600.0,2.165555477142334,-6.013636112213135,-0.7392097711563109
627,67700.0,2.165555477142334,-6.013636112213135,-0.7392097711563109
651,70100.0,2.389413356781006,-5.762843608856201,2.007538080215454
652,70200.0,2.389413356781006,-5.762843608856201,2.007538080215454
653,70300.0,-3.093907117843628,-14.873379707336426,5.246892929077148
654,70400.0,-3.093907117843628,-14.873379707336426,5.246892929077148
693,74300.0,-1.4341268539428709,-7.496245384216309,2.254140853881836
694,74400.0,-1.4341268539428709,-7.496245384216309,2.254140853881836
695,74500.0,4.74111795425415,-14.415488243103027,3.5242648124694824
696,74600.0,4.460397720336914,-8.311470985412598,2.602497339248657
697,74700.0,4.460397720336914,-8.311470985412598,2.602497339248657
698,74800.0,1.255160212516785,-8.42699146270752,1.8860323429107664
699,74900.0,1.255160212516785,-8.42699146270752,1.8860323429107664
700,75000.0,-0.20231004059314728,-6.931213855743407,1.12467622756958
701,75100.0,-0.20231004059314728,-6.931213855743407,1.12467622756958
702,75200.0,-0.8349778652191162,-10.65479564666748,-3.924695253372192
703,75300.0,-0.8349778652191162,-10.65479564666748,-3.924695253372192
704,75400.0,0.7158663272857666,-7.86734676361084,-1.908777356147766
705,75500.0,-0.4638765752315521,-10.129268646240234,1.213860273361206
706,75600.0,-0.4638765752315521,-10.129268646240234,1.213860273361206
707,75700.0,-0.6488286852836609,-8.871115684509277,0.7966706156730652
708,75800.0,-0.6488286852836609,-8.871115684509277,0.7966706156730652
709,75900.0,-2.404376983642578,-7.9385743141174325,1.790264368057251
710,76000.0,-2.404376983642578,-7.9385743141174325,1.790264368057251
711,76100.0,5.992686748504639,-11.718420028686525,2.0769698619842534
712,76200.0,5.992686748504639,-11.718420028686525,2.0769698619842534
713,76300.0,1.594538331031799,-5.397727966308594,1.6316484212875366
714,76400.0,0.3423708379268646,-8.64246940612793,2.211643934249878
715,76500.0,0.3423708379268646,-8.64246940612793,2.211643934249878
716,76600.0,0.5518634915351868,-9.592967987060547,4.974552631378174
717,76700.0,0.5518634915351868,-9.592967987060547,4.974552631378174
794,84400.0,-0.5033808946609497,-12.07695198059082,-5.075109004974365
795,84500.0,-0.5033808946609497,-12.07695198059082,-5.075109004974365
796,84600.0,0.7835025191307068,-8.376712799072267,-0.5494692921638489
797,84700.0,-0.8325836658477783,-10.059837341308594,1.2192472219467163
798,84800.0,-0.8325836658477783,-10.059837341308594,1.2192472219467163
799,84900.0,-1.4107834100723269,-6.932411193847656,-0.28311434388160706
800,85000.0,-1.4107834100723269,-6.932411193847656,-0.28311434388160706
801,85100.0,-2.8886044025421143,-15.852009773254395,2.667739152908325
802,85200.0,-2.8886044025421143,-15.852009773254395,2.667739152908325
803,85300.0,2.804208755493164,-9.24640655517578,1.823184609413147
804,85400.0,2.804208755493164,-9.24640655517578,1.823184609413147
805,85500.0,2.0416555404663086,-7.802104949951173,2.1529858112335205
864,91400.0,-0.6979097723960876,-7.697957038879394,0.14844051003456116
865,91500.0,-0.6979097723960876,-7.697957038879394,0.14844051003456116
866,91600.0,-0.24600422382354736,-11.8812255859375,3.6858735084533687
867,91700.0,-0.24600422382354736,-11.8812255859375,3.6858735084533687
895,94500.0,-0.7835025191307068,-12.516287803649902,0.15741875767707825
896,94600.0,2.5133132934570317,-12.4169282913208,1.0330979824066162
897,94700.0,2.5133132934570317,-12.4169282913208,1.0330979824066162
898,94800.0,1.659181833267212,-6.429628849029541,0.8026561141014099
899,94900.0,1.659181833267212,-6.429628849029541,0.8026561141014099
900,95000.0,-1.371279001235962,-14.787786483764648,6.063914299011231
901,95100.0,-1.371279001235962,-14.787786483764648,6.063914299011231
902,95200.0,2.558803081512451,-1.9434932470321653,-0.20949265360832212
903,95300.0,2.558803081512451,-1.9434932470321653,-0.20949265360832212
904,95400.0,0.839766263961792,-9.186552047729492,-1.2988544702529907
905,95500.0,0.5363011956214905,-9.45111083984375,-0.8062474131584167
906,95600.0,0.5363011956214905,-9.45111083984375,-0.8062474131584167
907,95700.0,-0.7356184720993042,-10.236409187316896,-0.6212953329086304
908,95800.0,-0.7356184720993042,-10.236409187316896,-0.6212953329086304
909,95900.0,6.215347766876222,-8.594585418701174,-1.468244194984436
966,101600.0,0.8744821548461914,-6.931812286376952,-0.7649474143981934
967,101700.0,-1.1432312726974487,-8.726864814758299,0.5632359385490417
968,101800.0,-0.8643068075180054,-6.386533260345459,0.11312603205442427
969,101900.0,-0.8643068075180054,-6.386533260345459,0.11312603205442427
970,102000.0,3.7427358627319336,-12.816162109375,1.6855180263519287
971,102100.0,3.7427358627319336,-12.816162109375,1.6855180263519287
972,102200.0,2.9161376953125,-7.621342658996582,1.723825216293335
973,102300.0,2.9161376953125,-7.621342658996582,1.723825216293335
974,102400.0,0.228047713637352,-7.806893348693848,0.8810662031173706
975,102500.0,0.228047713637352,-7.806893348693848,0.8810662031173706
976,102600.0,-0.03232172131538391,-8.866327285766602,0.21667525172233584
977,102700.0,-1.0043675899505615,-11.81299114227295,-8.041524887084961
978,102800.0,-1.0043675899505615,-11.81299114227295,-8.041524887084961
979,102900.0,0.5931634902954102,-7.099406719207764,-0.8846575021743774
997,104700.0,0.014365210197865963,-9.633668899536133,-0.8577227592468262
998,104800.0,0.014365210197865963,-9.633668899536133,-0.8577227592468262
999,104900.0,-0.4686649739742279,-9.791088104248047,0.15023615956306458
1000,105000.0,-0.4686649739742279,-9.791088104248047,0.15023615956306458
1001,105100.0,-0.6422445774078369,-7.18320369720459,-0.7074866294860841
1002,105200.0,-0.6422445774078369,-7.18320369720459,-0.7074866294860841
1003,105300.0,5.056553840637207,-10.978013038635254,1.3976151943206787
1004,105400.0,5.056553840637207,-10.978013038635254,1.3976151943206787
1005,105500.0,3.7169981002807617,-5.477933406829834,1.9165585041046145
1006,105600.0,0.3232172429561615,-8.237251281738281,1.4305355548858645
1007,105700.0,0.3232172429561615,-8.237251281738281,1.4305355548858645
1028,107800.0,-0.4195838570594788,-9.295488357543944,0.22445641458034515
1029,107900.0,-0.4195838570594788,-9.295488357543944,0.22445641458034515
1030,108000.0,0.6488286852836609,-9.982624053955078,-0.5746083855628967
1031,108100.0,0.6488286852836609,-9.982624053955078,-0.5746083855628967
1045,109500.0,-0.6189011335372925,-12.006921768188475,-0.6542156338691711
1046,109600.0,3.811569213867188,-7.464522361755371,-1.5705963373184204
1047,109700.0,3.811569213867188,-7.464522361755371,-1.5705963373184204
1048,109800.0,2.3373394012451167,-7.006631374359131,-0.1538274586200714
