,timestamp,ax,ay,az
0,0.0,-6.4356141090393075,-4.9374423027038565,4.119822502136231
1,200.0,-5.944802761077881,-8.507795333862305,1.5592238903045654
2,400.0,-5.009867191314697,-6.664858818054199,0.0802057534456253
3,600.0,2.056619167327881,-7.1197571754455575,1.4640543460845947
4,800.0,-2.2236149311065674,-10.383652687072754,-0.5261258482933044
5,1000.0,0.6177040338516235,-9.3828763961792,-0.38486793637275696
6,1200.0,0.15502455830574036,-9.794678688049316,-0.3794809579849243
7,1400.0,1.0348936319351196,-9.5007905960083,-0.6206967830657959
8,1600.0,0.8415619134902954,-9.543288230895996,-1.0031704902648926
9,1800.0,0.7529764175415039,-9.676166534423828,-1.0408791303634644
10,2000.0,0.6829460263252258,-9.66299819946289,-0.4578910768032074
11,2200.0,0.061650693416595466,-9.592369079589844,-0.9050082564353944
12,2400.0,-0.4704606235027313,-9.61212158203125,-1.483207941055298
13,2600.0,1.3210008144378662,-9.10574722290039,0.4489128291606903
14,2800.0,-0.6985083222389221,-8.376712799072267,-0.6799532771110535
15,3000.0,-1.0881646871566772,-14.207192420959473,5.51624059677124
16,3200.0,0.9391255974769592,-9.452308654785156,1.986588835716248
17,3400.0,-2.0021512508392334,-10.24658489227295,3.403357744216919
18,3600.0,-0.9714473485946656,-5.936423301696777,0.8720879554748535
19,3800.0,-4.216787815093993,-10.20528507232666,2.6216509342193604
20,4000.0,0.30945056676864624,-8.702922821044924,-2.668337821960449
21,4200.0,-1.2258312702178955,-10.99776554107666,-0.9870096445083618
22,4400.0,-0.9989806413650512,-9.693524360656738,-1.4748282432556152
23,4600.0,-2.0356700420379643,-9.436147689819336,-0.5219359993934631
24,4800.0,-1.578976035118103,-8.747814178466799,0.5321113467216492
25,5000.0,-1.766920804977417,-8.474276542663574,-0.8684966564178467
26,5200.0,-2.9233202934265137,-8.935759544372559,1.3072341680526731
27,5400.0,2.3295583724975586,-14.314931869506836,-0.05147533491253853
28,5600.0,-1.8644845485687256,-9.61451530456543,1.4754267930984497
29,5800.0,-0.05027823522686958,-9.30686092376709,2.714426279067993
30,6000.0,-3.093308687210083,-9.13387966156006,0.14484919607639313
31,6200.0,-2.120664119720459,-8.833407402038574,0.4489128291606903
32,6400.0,-8.330026626586914,-16.550518035888672,0.6087257862091064
33,6600.0,-0.10893617570400238,-12.534244537353516,2.457648038864136
34,6800.0,-3.3506853580474854,-9.42597198486328,-2.5025393962860107
35,7000.0,-0.9277531504631042,-9.586383819580078,-2.4612393379211426
36,7200.0,-2.3995885848999023,-8.58620548248291,-1.1426327228546145
37,7400.0,-0.8930372595787048,-8.924386978149414,0.07302315533161162
38,7600.0,-2.6803088188171387,-12.780248641967773,3.557185173034668
39,7800.0,0.0454898327589035,-8.671199798583983,2.0278887748718257
40,8000.0,-1.8489222526550293,-8.025962829589844,1.9093759059906008
41,8200.0,-1.392826795578003,-10.267534255981444,0.8044517636299133
42,8400.0,-2.0590133666992188,-8.808267593383789,2.2655134201049805
43,8600.0,-3.1298201084136963,-8.240841865539549,-0.07481880486011505
44,8800.0,-3.117250680923462,-9.482834815979004,1.136048674583435
45,9000.0,0.4842272996902466,-13.572729110717773,-2.631826162338257
46,9200.0,-1.4550760984420776,-9.534908294677734,-0.9929951429367064
47,9400.0,-2.4779987335205083,-8.042721748352049,-1.0253168344497678
48,9600.0,-3.813963413238525,-8.034940719604492,0.3693056106567383
49,9800.0,-0.4387374520301819,-7.894880294799805,-2.0446481704711914
50,10000.0,-1.0121487379074097,-11.915343284606935,2.1817162036895748
51,10200.0,-0.06464344263076782,-10.320804595947266,0.9900023937225342
52,10400.0,-1.0253168344497678,-9.07522201538086,0.7254431247711182
53,10600.0,-4.169502258300781,-9.082404136657717,2.9011738300323486
54,10800.0,-1.5999252796173096,-7.751227855682372,1.0773907899856567
55,11000.0,-3.624222755432129,-9.913790702819824,1.802833914756775
56,11200.0,1.1827356815338137,-8.777742385864258,-2.9454667568206787
57,11400.0,-0.30945056676864624,-8.537723541259767,-1.9937714338302608
58,11600.0,-0.7781155705451965,-9.461286544799805,-1.0534487962722778
59,11800.0,-2.3080103397369385,-9.153033256530762,-2.1027076244354252
60,12000.0,-2.9640216827392583,-8.853757858276367,-0.9044097065925598
61,12200.0,-2.831143617630005,-9.228450775146484,0.26156654953956604
62,12400.0,0.19572599232196808,-11.784260749816895,1.756745457649231
63,12600.0,1.5071499347686768,-7.105990409851074,1.4454993009567259
64,12800.0,0.13048399984836578,-8.629899978637695,1.6950948238372805
65,13000.0,-1.1264718770980835,-6.9665284156799325,2.5773582458496094
66,13200.0,-3.5823242664337163,-19.3792667388916,-1.1115081310272217
67,13400.0,-1.103128433227539,-8.991424560546875,-2.2679076194763184
68,13600.0,-3.667917013168335,-9.01895809173584,-1.8034324645996092
69,13800.0,-0.9056068062782288,-8.987833023071289,0.07661445438861847
70,14000.0,-2.2679076194763184,-8.567051887512207,-0.8170213103294373
71,14200.0,-2.2673089504241943,-7.184999465942383,-0.5776011347770691
72,14400.0,1.215057373046875,-15.224129676818848,2.4205379486083984
73,14600.0,-2.454056739807129,-9.081207275390623,3.3022027015686035
74,14800.0,-1.4317326545715332,-8.798690795898438,1.3557167053222656
75,15000.0,-0.5704185366630554,-8.955511093139648,-0.37529110908508295
76,15200.0,-0.706289529800415,-7.816470146179199,-1.6400281190872192
77,15400.0,1.057040095329285,-11.25454330444336,6.537367820739746
78,15600.0,2.6653449535369877,-8.916605949401855,-3.1495723724365234
79,15800.0,-1.8997989892959597,-9.947309494018556,-1.368884801864624
80,16000.0,-0.33758243918418884,-9.332598686218262,-0.9139865040779114
81,16200.0,-3.0735564231872563,-8.223484039306639,0.545877993106842
82,16400.0,-6.5499372482299805,-12.418724060058596,3.1058781147003174
83,16600.0,0.9385270476341248,-7.508815288543701,-0.4740519225597382
84,16800.0,2.782062292098999,-10.556633949279783,5.54317569732666
85,17000.0,-0.4129997789859772,-7.3472065925598145,-3.646369218826294
86,17200.0,-0.517746090888977,-3.745130062103272,-1.6304513216018677
87,17400.0,2.169146776199341,-10.113107681274414,-10.983400344848633
88,17600.0,0.4566939771175385,-6.86597204208374,4.710591793060303
89,17800.0,0.5650315880775452,-10.974422454833984,3.2537200450897217
90,18000.0,-2.1775264739990234,-9.491812705993652,-0.5135562419891357
91,18200.0,0.07481880486011505,-8.167220115661621,-1.8483237028121948
92,18400.0,0.07481880486011505,-8.167220115661621,-1.8483237028121948
93,18600.0,-6.800729751586914,-8.374319076538086,-5.0445828437805185
94,18800.0,2.3564929962158203,-18.407819747924805,4.885967254638672
95,19000.0,-2.2619221210479736,-10.653000831604004,-1.6089035272598269
96,19200.0,-1.2270283699035645,-9.747393608093262,-3.7762546539306636
97,19400.0,-1.646013617515564,-9.555258750915527,-1.0767922401428225
98,19600.0,-0.25498247146606445,-10.131064414978027,-1.7735048532485962
99,19800.0,-0.3800795078277588,-10.29087734222412,-0.6189011335372925
100,20000.0,-1.9829975366592407,-11.59332275390625,6.142324447631836
101,20200.0,-3.2740707397460938,-10.10891819000244,1.7040730714797974
102,20400.0,-1.6759412288665771,-7.529764175415039,0.4351461529731751
103,20600.0,1.840542554855347,-9.369708061218262,1.8058266639709477
104,20800.0,0.8020575642585754,-6.866570472717285,1.0516531467437744
105,21000.0,-6.622960567474365,-15.162479400634766,8.640673637390138
106,21200.0,-3.137601375579834,-8.507197380065918,-1.313219666481018
107,21400.0,-1.5759832859039309,-9.460687637329102,-2.7778725624084477
108,21600.0,-1.4395138025283811,-5.609015941619873,-0.8720879554748535
109,21800.0,-5.9956793785095215,-16.584035873413086,1.8596961498260496
110,22000.0,2.473809003829956,-10.214861869812012,-0.7882909178733826
111,22200.0,0.3627215623855591,-7.8056960105896,-0.09696517139673233
112,22400.0,-1.6262614727020264,-8.736441612243652,-0.10534487664699554
113,22600.0,0.7649474143981934,-6.955155849456787,1.7842788696289065
114,22800.0,2.0254945755004883,-13.168108940124512,-3.666121244430542
115,23000.0,-2.09672212600708,-8.728660583496094,0.7463923692703247
116,23200.0,-4.524442672729492,-8.169614791870117,-4.544793605804443
117,23400.0,-4.721964359283447,-11.815983772277832,-4.050390720367432
118,23600.0,-0.8218097090721129,-9.229647636413574,-0.10773907601833344
119,23800.0,-4.271255970001222,-7.628525257110597,-0.4399345517158508
120,24000.0,0.9032126069068908,-16.163854598999027,2.416347980499268
121,24200.0,1.3162124156951904,-6.357802391052246,0.4578910768032074
122,24400.0,-0.009576806798577309,-9.730634689331056,3.5260605812072754
123,24600.0,-0.8505401611328125,-8.868123054504395,1.2018892765045166
124,24800.0,-0.6536170840263367,-8.608950614929201,1.9734207391738887
125,25000.0,-1.2958617210388184,-7.42561674118042,0.706289529800415
126,25200.0,-7.762001991271973,-13.736133575439453,-3.958812475204468
127,25400.0,0.3998316824436188,-9.787496566772461,-2.0009541511535645
128,25600.0,-1.9506758451461792,-9.673771858215332,-2.3056161403656006
129,25800.0,-0.4800374507904053,-8.83939266204834,-0.03711012750864029
130,26000.0,-2.078166961669922,-7.724293231964111,-0.6416460275650024
131,26200.0,-3.699041604995728,-15.174449920654295,0.8194155097007751
132,26400.0,-0.8954314589500427,-6.9940619468688965,0.20290859043598172
133,26600.0,-1.2348095178604126,-9.978434562683104,2.1326351165771484
134,26800.0,-1.3593080043792725,-8.568249702453612,0.2711433470249176
135,27000.0,1.6777368783950806,-7.457938194274902,-1.0432734489440918
136,27200.0,0.5267243981361389,-7.7763671875,0.812831461429596
137,27400.0,-2.8371291160583496,-9.909002304077148,-1.4419080018997192
138,27600.0,0.18974047899246216,-9.531316757202148,-2.713827610015869
139,27800.0,-2.2703018188476562,-9.007585525512695,-1.4257471561431885
140,28000.0,-0.9894038438796996,-8.861538887023926,-0.8254010081291199
141,28200.0,-0.8631097078323364,-7.980473041534424,-2.167949676513672
142,28400.0,-1.7405846118927002,-7.021595001220702,0.12988543510437012
143,28600.0,0.6973112225532532,-16.803705215454098,-0.7751228213310242
144,28800.0,3.421314239501953,-5.2439002990722665,1.9416975975036619
145,29000.0,-6.794146060943604,-13.2896146774292,6.214748859405518
146,29200.0,-1.7220295667648315,-8.409633636474611,1.1911153793334959
147,29400.0,-2.6007015705108643,-7.8039002418518075,0.8882488012313843
148,29600.0,-2.3122003078460693,-6.837840080261231,0.1191115379333496
149,29800.0,-2.8532898426055913,-9.771934509277344,-2.270900249481201
150,30000.0,-4.155735492706299,-10.089764595031738,-1.8884265422821045
151,30200.0,0.4088099300861359,-9.63187313079834,-0.2711433470249176
152,30400.0,-3.1226375102996826,-8.099584579467772,1.4616601467132568
153,30600.0,-2.784456491470337,-7.0988078117370605,-1.7369933128356934
154,30800.0,-1.2653355598449707,-14.942811012268065,1.4000093936920166
155,31000.0,4.139574527740479,-8.96269416809082,-1.7298107147216797
156,31200.0,1.909974455833435,-3.1112651824951167,-5.7520694732666025
157,31400.0,1.1773487329483032,-6.4266357421875,-2.145803213119507
158,31600.0,-4.346673011779785,-12.600683212280273,1.9698294401168823
159,31800.0,-3.687070608139038,-7.39748477935791,1.499967336654663
160,32000.0,-4.4077253341674805,-9.662399291992188,-1.0684125423431396
161,32200.0,-2.169146776199341,-10.091560363769533,-3.842095136642456
162,32400.0,-4.63397741317749,-7.496245384216309,-1.41257905960083
163,32600.0,-2.5228900909423833,-6.65288782119751,-1.6388310194015503
164,32800.0,0.9738415479660034,-9.44871711730957,-1.0576386451721191
165,33000.0,4.473566055297852,-11.007342338562012,3.5853171348571777
166,33200.0,-1.3090298175811768,-7.314286231994629,1.1994950771331787
167,33400.0,1.40180504322052,-5.410297393798828,1.1994950771331787
168,33600.0,-10.826580047607422,-19.608510971069336,12.447454452514648
169,33800.0,-0.7942764163017273,-7.189787864685059,1.9704279899597168
170,34000.0,-0.4459200799465179,-10.492588996887207,-3.0107085704803467
171,34200.0,-1.2545616626739502,-11.48618221282959,-0.6380547285079956
172,34400.0,1.1192892789840698,-12.023680686950685,-2.6821043491363525
173,34600.0,-2.3295583724975586,-2.692279815673828,-0.7302315235137941
174,34800.0,6.672640323638916,-7.2005615234375,-2.4217350482940674
175,35000.0,-1.8590975999832156,-10.255562782287598,-2.293645143508911
176,35200.0,1.0630255937576294,-8.695740699768066,-1.5843629837036133
177,35400.0,-0.4620809257030487,-9.988011360168457,-1.0438719987869265
178,35600.0,-0.9343371987342834,-10.453084945678713,-2.1254525184631348
179,35800.0,0.9983820915222168,-10.967239379882812,-1.2994530200958252
180,36000.0,-0.18794482946395874,-8.73225212097168,0.2693476974964142
181,36200.0,-2.3349452018737797,-8.081028938293457,2.364872694015503
182,36400.0,-3.646369218826294,-10.994174003601074,2.9640216827392583
183,36600.0,-1.4000093936920166,-9.37509536743164,0.8469488620758057
184,36800.0,-0.5764040350914001,-10.137648582458496,-0.3890577852725983
185,37000.0,-1.4586673974990845,-9.67077922821045,-0.3812766075134277
186,37200.0,0.93254154920578,-10.102932929992676,4.568735599517822
187,37400.0,-1.0205284357070925,-7.781754016876222,0.7793126702308655
188,37600.0,1.0791864395141602,-9.943717956542967,0.05027823522686958
189,37800.0,0.788889467716217,-5.181052684783936,0.7589619159698486
190,38000.0,1.1378443241119385,-7.353790283203125,-0.7284358739852905
191,38200.0,3.1453824043273926,-6.446388244628906,1.4305355548858645
192,38400.0,-2.008136749267578,-9.305065155029297,-1.0199298858642578
193,38600.0,-1.1330559253692627,-9.657610893249512,0.3926490843296051
194,38800.0,2.381632089614868,-6.634931564331055,-2.6880898475646973
195,39000.0,-3.445854902267456,-8.668207168579103,1.566406488418579
196,39200.0,-0.8625111579895021,-9.45410442352295,0.18076223134994507
197,39400.0,1.7441759109497068,-8.577826499938965,0.2711433470249176
198,39600.0,0.0867898091673851,-8.632294654846191,-1.7729063034057615
199,39800.0,-4.478952884674072,-15.168464660644533,4.3801918029785165
200,40000.0,-2.6186580657958984,-9.436147689819336,-0.475847601890564
201,40200.0,-1.4879963397979736,-7.969698905944824,-0.2364274114370346
202,40400.0,-3.3937809467315674,-5.098452568054199,1.6519991159439087
203,40600.0,-1.4784195423126218,-13.69962215423584,1.0624270439147951
204,40800.0,2.6479871273040767,-7.043741226196289,-0.5404910445213318
205,41000.0,0.21009120345115664,-7.248445510864258,-2.0368671417236333
206,41200.0,-9.63067626953125,-18.27733612060547,6.097433090209961
207,41400.0,2.4450783729553223,-10.273519515991213,-2.569576978683472
208,41600.0,-2.0063409805297847,-10.010157585144043,-0.6494272351264954
209,41800.0,-1.3515268564224243,-9.773730278015137,-1.7244237661361694
210,42000.0,-1.195903778076172,-9.50498104095459,-1.4203602075576782
211,42200.0,-0.7104793787002563,-9.473258018493652,-0.8379706144332886
212,42400.0,-2.410961151123047,-9.730634689331056,-1.300650119781494
213,42600.0,0.5764040350914001,-9.032724380493164,-0.7930793166160583
214,42800.0,-0.6153098344802856,-8.916605949401855,0.12449848651885985
215,43000.0,-1.8920178413391116,-10.041281700134276,-1.714846968650818
216,43200.0,-0.4195838570594788,-12.702437400817873,1.9650410413742063
217,43400.0,-3.728370666503906,-9.419387817382812,1.928529500961304
218,43600.0,-2.075174331665039,-9.12729549407959,-0.35374331474304205
219,43800.0,1.2228385210037231,-8.126519203186035,0.23343466222286224
220,44000.0,-1.8848352432250977,-7.824849605560303,1.8644845485687256
221,44200.0,2.9053637981414795,-13.652337074279785,-1.4149732589721682
222,44400.0,-0.9894038438796996,-8.701127052307129,-0.517746090888977
223,44600.0,-0.3561375141143799,-9.90122127532959,-0.8176198601722717
224,44800.0,-1.447893500328064,-9.790489196777344,-0.5805938839912415
225,45000.0,-0.4782418012619018,-9.776124000549316,-1.7459715604782104
226,45200.0,-1.9901801347732544,-8.919598579406738,-0.4626794755458832
227,45400.0,-4.141968727111816,-9.434351921081543,-0.4578910768032074
228,45600.0,-3.441664934158325,-14.41728401184082,1.007360339164734
229,45800.0,2.074575662612915,-5.6700682640075675,-0.5781996846199036
230,46000.0,-0.8738836050033569,-18.8465576171875,16.846799850463867
231,46200.0,-2.7988216876983643,-8.668207168579103,0.7906851172447205
232,46400.0,1.8794482946395876,-8.272565841674805,-2.2906525135040283
233,46600.0,0.4944026470184326,-11.57237434387207,0.6434416770935059
234,46800.0,-4.328118324279785,-1.8010382652282717,-2.736572504043579
235,47000.0,-14.068927764892578,-8.279149055480957,-11.64060878753662
236,47200.0,0.14365209639072418,-9.300874710083008,-6.231508255004883
237,47400.0,-1.1659762859344482,-9.570222854614258,-0.9624691009521484
238,47600.0,-0.3124433159828186,-8.959701538085938,-1.9752163887023928
239,47800.0,0.042497079819440835,-9.28650951385498,-1.2186486721038818
240,48000.0,-3.867234230041504,-11.710040092468262,0.3034650683403015
241,48200.0,-0.013168109580874443,-9.836577415466307,-4.223970413208009
242,48400.0,0.8074445128440857,-10.13166332244873,-0.8385691642761229
243,48600.0,0.4842272996902466,-8.64246940612793,2.670133352279663
244,48800.0,-6.754641532897949,-10.051457405090332,2.382829189300537
245,49000.0,-2.4660277366638184,-10.071807861328123,1.4634557962417605
246,49200.0,-5.054758548736572,-8.933364868164062,-2.3738510608673096
247,49400.0,-1.8818424940109253,-9.294290542602539,-2.7240030765533447
248,49600.0,-0.8140285611152649,-10.357316970825195,-1.3287819623947144
249,49800.0,0.4680664241313934,-9.621099472045898,0.9385270476341248
250,50000.0,0.09816227108240128,-8.379706382751465,0.23942017555236814
251,50200.0,-5.98490571975708,-10.60272216796875,3.4308910369873047
252,50400.0,0.3148375153541565,-6.581061840057372,0.942716896533966
253,50600.0,-2.980781078338623,-13.909114837646484,-0.0520738884806633
254,50800.0,0.7727286219596863,-8.138489723205566,-3.2088289260864262
255,51000.0,-1.7184382677078247,-9.831789016723633,-1.162384867668152
256,51200.0,1.3162124156951904,-9.314043045043944,-0.12509703636169436
257,51400.0,-2.2679076194763184,-10.022727012634276,-0.6775590777397156
258,51600.0,-2.227206230163574,-7.897274494171143,-3.47578239440918
259,51800.0,-2.9927520751953125,-14.531607627868652,1.0630255937576294
260,52000.0,0.12928688526153564,-9.849745750427246,0.8044517636299133
261,52200.0,2.1948843002319336,-7.185597896575928,-0.27473464608192444
262,52400.0,-8.167819023132324,-10.002974510192873,4.6471452713012695
263,52600.0,-0.5494692921638489,-8.598775863647461,1.8387469053268437
264,52800.0,-1.2198457717895508,-6.5044474601745605,0.41778820753097534
265,53000.0,-0.6153098344802856,-8.933364868164062,0.3447650372982025
266,53200.0,1.611896276473999,-2.891597032546997,-4.40233850479126
267,53400.0,-4.065953254699707,-10.025120735168457,-0.6542156338691711
268,53600.0,-2.227206230163574,-8.950722694396973,-1.192312479019165
269,53800.0,-2.3971943855285645,-7.571064472198486,-0.7296329736709595
270,54000.0,-0.6919242739677429,-8.486248016357424,1.125873327255249
271,54200.0,-2.252943754196167,-9.99459457397461,2.7240030765533447
272,54400.0,-0.2388216257095337,-8.78193187713623,1.810615062713623
273,54600.0,-0.7463923692703247,-9.235034942626953,-1.3634978532791138
274,54800.0,0.3920505344867706,-10.10592555999756,4.624400615692139
275,55000.0,-2.249951124191284,-9.498994827270508,-0.7906851172447205
276,55200.0,1.0013748407363892,-7.175422668457031,-0.6673837304115295
277,55400.0,-6.04655647277832,-11.039664268493652,0.4165911078453064
278,55600.0,-4.013280391693115,-8.180388450622559,-0.4890156984329224
279,55800.0,-2.759916067123413,-9.881468772888184,-0.8601169586181641
280,56000.0,-1.4377181529998782,-9.20929718017578,-1.3946224451065063
281,56200.0,-1.6065093278884888,-8.635287284851074,0.03172317147254944
282,56400.0,-0.5776011347770691,-6.5499372482299805,-1.7357962131500244
283,56600.0,2.4660277366638184,-13.708600044250488,2.6785130500793457
284,56800.0,-0.4537012279033661,-7.8308353424072275,0.1388636976480484
285,57000.0,-0.9475052952766418,-9.415796279907227,1.170764684677124
286,57200.0,-1.2192472219467163,-9.52473258972168,-0.2388216257095337
287,57400.0,0.44532153010368347,-8.521562576293945,1.4395138025283811
288,57600.0,0.9582792520523072,-8.124124526977539,1.1785458326339722
289,57800.0,-0.3806780576705933,-16.236278533935547,3.751115560531616
290,58000.0,-1.58795428276062,-10.56800651550293,-1.5424644947052002
291,58200.0,-2.7694928646087646,-9.7605619430542,-1.8519150018692017
292,58400.0,-0.7996633648872375,-9.651026725769043,-1.027711033821106
293,58600.0,-0.8738836050033569,-6.365583896636963,-1.6771383285522459
294,58800.0,-2.075174331665039,-13.17888355255127,4.4077253341674805
295,59000.0,1.821987509727478,-6.517615795135497,1.6549919843673706
296,59200.0,-1.0319008827209473,-11.568782806396484,2.7892448902130127
297,59400.0,-3.1411926746368413,-9.847949981689453,2.9514522552490234
298,59600.0,-0.18794482946395874,-8.355165481567383,0.9145850539207458
299,59800.0,-0.646434485912323,-9.03870964050293,1.237802267074585
300,60000.0,-0.9475052952766418,-19.182344436645508,1.0684125423431396
301,60200.0,-1.9381062984466555,-8.394071578979492,-1.869871497154236
302,60400.0,-0.960673451423645,-9.251194953918457,-2.145204782485962
303,60600.0,-3.2225954532623287,-9.531915664672852,-0.7769184708595276
304,60800.0,1.071405291557312,-4.772840976715088,-2.127248287200928
305,61000.0,-9.051877975463867,-18.67776679992676,0.9774328470230104
306,61200.0,1.7603367567062378,-5.0906715393066415,1.000776290893555
307,61400.0,0.6033388376235962,-11.192294120788574,5.015254020690918
308,61600.0,-1.5556325912475586,-8.117541313171388,-0.5632359385490417
309,61800.0,-3.884592294692993,-14.419678688049315,-4.331110954284668
310,62000.0,1.5640122890472412,-5.872378349304199,0.7074866294860841
311,62200.0,-2.739565372467041,-9.494206428527832,-0.7296329736709595
312,62400.0,-1.521515130996704,-10.070611000061037,-2.340930700302124
313,62600.0,-1.5292962789535522,-9.975440979003906,-2.607884168624878
314,62800.0,-1.8034324645996092,-8.078036308288574,-1.6466121673583984
315,63000.0,-4.159925460815431,-10.177751541137695,1.986588835716248
316,63200.0,2.1631612777709956,-12.797008514404295,-1.8267759084701536
317,63400.0,2.071583032608032,-8.771756172180176,1.948880195617676
318,63600.0,0.9235633015632628,-5.810727596282959,0.06823474913835527
319,63800.0,2.668337821960449,-7.085639953613281,-9.919178009033203
320,64000.0,-0.17417816817760468,-9.84256362915039,-1.5705963373184204
321,64200.0,1.171961784362793,-9.485827445983887,0.9534908533096312
322,64400.0,-2.172139406204224,-9.299078941345217,-0.0628477931022644
323,64600.0,-1.6023194789886477,-8.801684379577637,-0.2861070930957794
324,64800.0,-2.5085248947143555,-10.032901763916016,0.2112883031368256
325,65000.0,-0.5201402902603149,-8.359354972839355,1.0085574388504028
326,65200.0,-5.893327713012695,-9.366117477416992,2.540846586227417
327,65400.0,-4.884171485900879,-16.603788375854492,3.3734302520751958
328,65600.0,-0.3489548861980438,-8.962095260620117,1.4945803880691528
329,65800.0,1.514931082725525,-9.43914031982422,-1.0462661981582642
330,66000.0,0.33937808871269226,-9.121908187866213,-0.7499836683273315
331,66200.0,-2.2260091304779053,-8.769960403442383,-1.824381709098816
332,66400.0,0.3998316824436188,-10.787075996398926,-1.8297686576843264
333,66600.0,-4.975151062011719,-9.470264434814453,0.3130418658256531
334,66800.0,2.5252842903137207,-13.375207901000975,1.1546037197113037
335,67000.0,-0.4668693244457245,-6.12017822265625,1.3970166444778442
336,67200.0,-0.9091981053352356,-7.930793285369872,2.5330653190612797
337,67400.0,-0.706289529800415,-8.640673637390138,1.6639702320098877
338,67600.0,-3.1723172664642334,-19.608510971069336,-7.918822288513184
339,67800.0,-1.3617022037506104,-7.947552680969237,-0.2364274114370346
340,68000.0,-1.5275006294250488,-10.15021800994873,-3.700837373733521
341,68200.0,-3.0591912269592285,-8.889671325683594,-2.846705913543701
342,68400.0,-1.986588835716248,-6.217741966247559,0.751779317855835
343,68600.0,-3.8953661918640137,-14.702792167663574,2.0039467811584477
344,68800.0,-2.492363929748535,-9.962273597717283,2.187103271484375
345,69000.0,0.8732850551605225,-9.080010414123537,-1.2527660131454468
346,69200.0,-0.3124433159828186,-6.71453857421875,-0.5626373887062073
347,69400.0,-3.578732967376709,-18.04270362854004,-4.8901567459106445
348,69600.0,6.922834396362305,-7.756016254425049,-4.477157115936278
349,69800.0,-2.2804770469665527,-9.114127159118652,-0.9636662006378174
350,70000.0,2.571372509002685,-9.560646057128906,1.8848352432250977
351,70200.0,-1.3401544094085691,-8.882488250732422,-0.26815059781074524
352,70400.0,-5.241506099700928,-8.362347602844237,4.217984676361084
353,70600.0,3.0831332206726074,-15.798738479614258,-4.347271919250488
354,70800.0,3.380014181137085,-5.2439002990722665,0.1256955862045288
355,71000.0,-3.5374329090118413,-3.931279182434082,-1.6861165761947632
356,71200.0,-2.2218191623687744,-13.354857444763185,-4.107253074645996
357,71400.0,4.906916618347168,-11.382035255432127,-5.6916160583496085
358,71600.0,-4.047398090362549,-9.460687637329102,-2.0578162670135502
359,71800.0,3.117849111557007,-9.443928718566896,3.6703112125396733
360,72000.0,-3.4117374420166016,-7.712920665740968,-3.7080199718475337
361,72200.0,-3.0885202884674072,-18.26895523071289,1.106719732284546
362,72400.0,-1.2210428714752195,-8.474875450134277,1.722628116607666
363,72600.0,-3.296815633773804,-9.627084732055664,1.6651673316955566
364,72800.0,-2.6013002395629883,-9.531915664672852,0.21188685297966006
365,73000.0,-0.8104372620582581,-8.04691219329834,0.9265560507774352
366,73200.0,-2.406771183013916,-9.1045503616333,-0.4537012279033661
367,73400.0,-1.427542805671692,-10.462661743164064,0.4955997467041016
368,73600.0,-1.2826935052871704,-10.858901977539064,-0.5368997454643251
369,73800.0,-0.3890577852725983,-9.585186958312988,-2.68569564819336
370,74000.0,-1.994369983673096,-9.473258018493652,-2.293645143508911
371,74200.0,-1.7322049140930176,-9.191340446472168,-1.3072341680526731
372,74400.0,-3.246537446975708,-8.751405715942383,0.2298433631658554
373,74600.0,-4.581305027008057,-15.301941871643065,-0.9355342984199524
374,74800.0,-2.3582887649536133,-9.588179588317873,0.7451952695846558
375,75000.0,-0.3010708689689636,-8.150461196899414,2.3924059867858887
376,75200.0,0.10833762586116792,-7.9385743141174325,2.476801633834839
377,75400.0,-2.9095535278320317,-8.650250434875487,6.144718647003174
378,75600.0,1.832162857055664,-9.71507167816162,-3.2184057235717773
379,75800.0,-0.8122329115867615,-11.425728797912598,-1.9309237003326416
380,76000.0,-2.3810336589813232,-8.775347709655763,-1.8722656965255735
381,76200.0,-0.8846575021743774,-8.73344898223877,-0.1843535304069519
382,76400.0,0.04189852997660637,-9.53011989593506,1.2419921159744265
383,76600.0,-1.83695125579834,-7.320271492004394,-2.2822728157043457
384,76800.0,-2.477400302886963,-9.069235801696776,2.669534921646118
385,77000.0,-0.1999158412218094,-12.286444664001465,0.9229647517204284
386,77200.0,1.6651673316955566,-6.9934630393981925,0.8523358106613159
387,77400.0,1.7573440074920654,-7.507617950439452,0.4950011968612671
388,77600.0,-2.0027496814727783,-19.58816146850586,12.098499298095705
389,77800.0,2.942473888397217,-18.806453704833984,-2.120664119720459
390,78000.0,-1.9560627937316892,-8.966285705566406,1.6729484796524048
391,78200.0,1.0977414846420288,-8.470685958862305,-1.4167689085006714
392,78400.0,-5.204395771026611,-11.710638999938965,5.273828029632568
393,78600.0,-1.918952703475952,-9.525331497192383,-2.3373394012451167
394,78800.0,2.298433542251587,-9.567828178405762,1.0408791303634644
395,79000.0,-2.715623378753662,-6.795941352844237,0.7398083209991455
396,79200.0,1.1899182796478271,-6.194398403167725,2.4139537811279297
397,79400.0,3.7307648658752437,-6.050147533416747,-5.768230438232423
398,79600.0,2.3971943855285645,-10.302249908447266,1.6603789329528809
399,79800.0,1.080383539199829,-9.888052940368652,-0.8732850551605225
400,80000.0,-3.4081461429595947,-10.620678901672363,2.384026288986206
401,80200.0,-3.123834609985352,-10.487201690673828,-2.682703018188477
402,80400.0,2.8191723823547363,-5.492298603057861,-0.4213795065879822
403,80600.0,-0.5518634915351868,-6.3985042572021475,-1.8956091403961184
404,80800.0,-4.104858875274658,-14.27662467956543,-4.826112270355225
405,81000.0,-3.0472202301025386,-8.698134422302246,-3.1411926746368413
406,81200.0,1.261744260787964,-8.035539627075195,-0.4824316501617432
407,81400.0,0.3381809890270233,-7.113173484802246,-0.7074866294860841
408,81600.0,-4.264671802520752,-7.423820972442628,2.553416013717652
409,81800.0,0.1628057211637497,-8.959701538085938,0.37229835987091053
410,82000.0,0.09217676520347597,-9.577404975891113,-2.4229321479797363
411,82200.0,1.2539631128311155,-6.676829814910889,-0.5781996846199036
412,82400.0,-1.4383167028427124,-9.707889556884766,2.7120320796966557
413,82600.0,-3.885190725326538,-10.348937034606934,1.592742681503296
414,82800.0,-5.043984413146973,-10.22144603729248,-0.9906009435653688
415,83000.0,0.4357447028160095,-9.90241813659668,-3.0334534645080566
416,83200.0,-1.4083890914916992,-8.297704696655272,-1.5275006294250488
417,83400.0,-3.5446155071258545,-8.200738906860353,-0.6829460263252258
418,83600.0,-2.493561029434204,-12.449849128723145,4.183269023895264
419,83800.0,-6.243479251861572,-10.005369186401367,2.5019407272338867
420,84000.0,-0.2645592987537384,-6.025607109069824,-0.5734112858772278
421,84200.0,-5.716156482696532,-13.476961135864258,-7.052719593048097
422,84400.0,4.3436803817749015,-8.493430137634277,-0.061052143573760986
423,84600.0,-3.654748916625977,-9.62828254699707,-0.6518214344978333
424,84800.0,0.2992752194404602,-8.289324760437013,5.003881454467773
425,85000.0,-2.2164323329925537,-5.231330871582031,0.6727706789970398
426,85200.0,-3.4787750244140625,-15.81549835205078,-0.8259995579719543
427,85400.0,-5.108627796173097,-10.511143684387207,8.576628684997559
428,85600.0,-0.5560533404350281,-5.021239280700684,-2.1344308853149414
429,85800.0,-4.056376457214356,-14.951190948486328,-7.1454949378967285
430,86000.0,3.1483752727508545,-11.139023780822754,-5.783194065093994
431,86200.0,-1.7423802614212036,-8.927978515625,0.041299980133771896
432,86400.0,1.5053542852401731,-8.329427719116211,-1.1815385818481443
433,86600.0,-3.1681272983551025,-7.022193431854247,-1.1456254720687866
434,86800.0,-2.601898670196533,-14.756063461303713,2.937086820602417
435,87000.0,0.1909375786781311,-7.396886348724365,1.2701239585876465
436,87200.0,-3.9510314464569087,-8.991424560546875,1.514931082725525
437,87400.0,-2.583942174911499,-6.919841289520264,1.2204443216323853
438,87600.0,-3.5003228187561035,-19.07400703430176,-5.978321552276611
439,87800.0,-1.1887211799621582,-7.507617950439452,-2.2667105197906494
440,88000.0,-0.7428010702133179,-10.767922401428224,-3.418321371078491
441,88200.0,-5.048772811889648,-9.193734169006348,-2.2691047191619877
442,88400.0,-3.8247373104095463,-9.990405082702637,-0.8924387097358704
443,88600.0,-2.497750997543335,-5.7095723152160645,-2.1972784996032715
444,88800.0,0.9983820915222168,-19.474435806274414,-4.595670223236084
445,89000.0,2.43669867515564,-5.026626586914063,0.1388636976480484
446,89200.0,-2.4917654991149902,-6.554725646972656,-1.4065934419631958
447,89400.0,-3.1992521286010738,-14.116811752319336,5.70777702331543
448,89600.0,0.44771572947502136,-10.60032844543457,-0.21368250250816345
449,89800.0,-3.06876802444458,-9.090784072875977,0.788889467716217
