,timestamp,ax,ay,az
0,0.0,-0.3110669553279877,6.836294651031494,-1.636690616607666
1,200.0,-0.3110669553279877,6.836294651031494,-1.636690616607666
2,400.0,0.19142580032348636,7.207180976867676,0.25842484831810003
3,600.0,-1.0241280794143677,11.392227172851562,2.7876384258270264
4,800.0,2.416750907897949,6.439085483551025,-2.146361827850342
5,1000.0,9.131011009216307,5.201996326446533,-1.2969098091125488
6,1200.0,8.695517539978027,5.302494525909424,-0.19621144235134125
7,1400.0,8.968299865722656,1.643869161605835,-3.775874137878418
8,1600.0,8.968299865722656,1.643869161605835,-3.775874137878418
9,1800.0,8.216952323913574,2.3234307765960693,-1.871187210083008
10,2000.0,7.412964344024657,0.7968099117279053,-3.6945178508758554
11,2200.0,11.303693771362305,2.2827527523040767,-2.0243279933929443
12,2400.0,7.594818592071532,2.029113531112671,-2.423929214477539
13,2600.0,6.283552646636963,3.1992037296295166,-1.5649060010910034
14,2800.0,15.9170560836792,4.855037212371826,-2.959921598434448
15,3000.0,15.9170560836792,4.855037212371826,-2.959921598434448
16,3200.0,8.729016304016112,2.390429735183716,-3.4743783473968506
17,3400.0,8.370094299316406,3.5437703132629395,-1.7994027137756348
18,3600.0,8.260024070739746,3.31884503364563,-2.8737800121307373
19,3800.0,8.370094299316406,1.4356936216354368,-2.67278265953064
20,4000.0,9.891928672790527,2.7421746253967285,-2.51007080078125
21,4200.0,8.614161491394043,3.129812002182007,-1.3974084854125977
22,4400.0,8.614161491394043,3.129812002182007,-1.3974084854125977
23,4600.0,8.796016693115233,3.034099102020264,-2.0410776138305664
24,4800.0,8.896513938903809,1.8951154947280884,-2.754138946533203
25,5000.0,8.044669151306152,2.414358139038086,-1.8759729862213133
26,5200.0,7.843672752380371,3.7830524444580083,-1.7922240495681765
27,5400.0,7.733603000640869,1.22033953666687,-4.220939159393311
28,5600.0,8.98265552520752,3.3858442306518555,-2.4598214626312256
29,5800.0,8.98265552520752,3.3858442306518555,-2.4598214626312256
30,6000.0,8.049454689025879,2.909672498703003,-2.4335007667541504
31,6200.0,8.580661773681639,1.1820544004440308,-3.2374887466430664
32,6400.0,8.671588897705076,2.557927370071411,-2.7900311946868896
33,6600.0,8.86780071258545,3.0747771263122563,-2.4358932971954346
34,6800.0,9.040083885192873,3.1992037296295166,-2.167897224426269
35,7000.0,7.762316703796388,2.8043880462646484,-2.218146562576294
36,7200.0,8.786444664001465,2.68953275680542,-1.7874385118484497
37,7400.0,9.820144653320312,2.7828526496887207,-3.1441688537597656
38,7600.0,9.820144653320312,2.7828526496887207,-3.1441688537597656
39,7800.0,8.149953842163086,1.921436548233032,-3.469593048095703
40,8000.0,8.130810737609862,2.4717857837677,-2.9479575157165527
41,8200.0,10.336994171142578,8.489734649658201,-3.115455150604248
42,8400.0,3.3403804302215576,8.087740898132324,-2.447857618331909
43,8600.0,-0.2871387302875519,2.957528829574585,-5.139782905578613
44,8800.0,-0.2871387302875519,2.957528829574585,-5.139782905578613
45,9000.0,-1.1006983518600464,4.960320949554443,-9.004191398620605
46,9200.0,-0.18185453116893768,4.347758769989014,-8.97787094116211
47,9400.0,-1.0001999139785769,4.319044589996338,-8.181060791015625
48,9600.0,-4.182653903961182,2.117647886276245,-7.3363938331604
49,9800.0,1.2969098091125488,5.194818019866943,-8.370094299316406
50,10000.0,-0.14835500717163086,6.431907176971436,-7.3531436920166025
51,10200.0,0.3302095234394073,6.716653347015381,-6.9344000816345215
52,10400.0,0.861416220664978,6.099304676055907,-7.774280071258545
53,10600.0,0.861416220664978,6.099304676055907,-7.774280071258545
54,10800.0,-1.5936198234558103,13.931013107299805,-6.506085395812987
55,11000.0,-6.8721866607666025,5.572883605957031,0.5120640397071838
56,11200.0,-6.790830135345459,-1.062413215637207,-2.0865414142608643
57,11400.0,-10.796415328979492,-0.07657032459974289,-1.6654045581817627
58,11600.0,-9.135796546936037,-0.3445664942264557,-0.4331009089946747
59,11800.0,-5.97727108001709,-3.6059837341308594,-1.131805181503296
60,12000.0,-5.97727108001709,-3.6059837341308594,-1.131805181503296
61,12200.0,-6.632904052734375,8.394021987915039,-2.770888566970825
62,12400.0,-0.2105683833360672,9.372685432434082,-8.877371788024902
63,12600.0,9.91585636138916,2.7900311946868896,-9.841679573059082
64,12800.0,5.259423732757568,3.0556347370147705,-6.955935001373291
65,13000.0,2.048256158828736,5.434100151062012,-6.410372257232666
66,13200.0,5.8480587005615225,6.781259536743164,-7.286144733428955
67,13400.0,5.8480587005615225,6.781259536743164,-7.286144733428955
68,13600.0,2.723031997680664,8.104490280151367,-4.515256404876709
69,13800.0,12.150753021240234,6.6281185150146475,-1.0743772983551023
70,14000.0,8.508876800537111,3.483949899673462,-0.2991028428077698
71,14200.0,8.98265552520752,3.945764780044556,-1.026520848274231
72,14400.0,10.437491416931152,3.1082763671875,-1.5601203441619873
73,14600.0,8.623733520507812,1.3040882349014282,-2.447857618331909
74,14800.0,8.623733520507812,1.3040882349014282,-2.447857618331909
75,15000.0,8.346165657043457,2.033899307250977,-2.297109842300415
76,15200.0,8.700303077697754,2.447857618331909,-2.0673987865448002
77,15400.0,11.49512004852295,1.8831514120101929,-1.3375877141952517
78,15600.0,7.944170951843263,3.8524444103240967,-1.0911270380020142
79,15800.0,8.776873588562013,2.691925525665283,-1.2370892763137815
80,16000.0,10.868200302124023,3.2207393646240234,-0.8997013568878174
81,16200.0,10.868200302124023,3.2207393646240234,-0.8997013568878174
82,16400.0,8.968299865722656,4.4004011154174805,-0.7010970115661621
83,16600.0,7.858029365539551,1.7682960033416748,-2.720639228820801
84,16800.0,8.111669540405272,3.684947013854981,-1.215553879737854
85,17000.0,10.03549861907959,1.1700903177261353,-0.8949156999588013
86,17200.0,9.083154678344727,2.7876384258270264,-1.0193424224853516
87,17400.0,8.882158279418945,0.7202396392822266,-2.344966173171997
88,17600.0,9.518648147583008,1.0241280794143677,-0.7226324081420898
89,17800.0,11.461621284484865,1.5768700838088991,-2.6416761875152592
90,18000.0,11.461621284484865,1.5768700838088991,-2.6416761875152592
91,18200.0,9.753145217895508,1.2299107313156128,-2.1750757694244385
92,18400.0,8.571090698242188,1.2059825658798218,-1.2227323055267334
93,18600.0,10.131211280822754,0.1698903888463974,-0.9140582084655762
94,18800.0,9.973284721374512,-0.00957129057496786,-1.7180466651916504
95,19000.0,8.930014610290527,1.6582260131835938,-0.5958128571510315
96,19200.0,10.518847465515137,1.94297194480896,-0.5910272002220154
97,19400.0,10.518847465515137,1.94297194480896,-0.5910272002220154
98,19600.0,10.75813102722168,3.572484016418457,-2.6009981632232666
99,19800.0,8.365307807922362,1.3543376922607422,-1.7730815410614014
100,20000.0,9.207581520080566,0.9834501147270204,-1.107876896858215
101,20200.0,9.796216011047363,1.9286150932312007,-0.6699903011322021
102,20400.0,10.490135192871094,2.47896409034729,-1.3304094076156616
103,20600.0,9.346364974975586,1.7994027137756348,-1.5314064025878906
104,20800.0,8.886943817138672,1.2921242713928225,-2.4023938179016118
105,21000.0,8.886943817138672,1.2921242713928225,-2.4023938179016118
106,21200.0,9.279366493225098,1.0360921621322632,-0.34217363595962524
107,21400.0,9.667003631591797,1.4261221885681152,-0.48574298620224
108,21600.0,14.495719909667967,0.5503491759300232,-2.376072883605957
109,21800.0,8.709875106811522,2.273181438446045,-1.2370892763137815
110,22000.0,8.379664421081543,2.7014968395233154,-1.3902300596237185
111,22200.0,8.729016304016112,1.7706886529922483,-1.1341978311538696
112,22400.0,8.729016304016112,1.7706886529922483,-1.1341978311538696
113,22600.0,12.16989517211914,3.5341989994049072,-0.007178467698395251
114,22800.0,9.044869422912598,2.799602746963501,-0.9499505758285522
115,23000.0,8.193024635314941,2.6153552532196045,-1.7156537771224976
116,23200.0,9.375079154968262,2.3330020904541016,-1.2035897970199585
117,23400.0,12.490534782409668,2.115255117416382,-2.390429735183716
118,23600.0,8.422735214233397,1.758724570274353,-2.084148406982422
119,23800.0,9.265008926391602,1.8520447015762331,-1.7371891736984253
120,24000.0,9.265008926391602,1.8520447015762331,-1.7371891736984253
121,24200.0,12.452248573303224,2.421536445617676,-2.0195422172546387
122,24400.0,9.743573188781738,2.4670000076293945,-0.9930213689804076
123,24600.0,9.073582649230957,1.4787644147872925,-0.97148597240448
124,24800.0,8.293522834777832,2.280359983444214,-0.7465606331825256
125,25000.0,12.189038276672365,1.2011969089508057,-2.486142873764038
126,25200.0,7.647461414337157,2.7254250049591064,-1.804188132286072
127,25400.0,8.695517539978027,2.627319574356079,-1.9716858863830569
128,25600.0,8.695517539978027,2.627319574356079,-1.9716858863830569
129,25800.0,6.853044033050537,2.4358932971954346,-1.832902193069458
130,26000.0,11.83489990234375,3.3978083133697514,-1.9286150932312007
131,26200.0,10.73420238494873,2.847458839416504,-1.6582260131835938
132,26400.0,7.365108013153076,2.390429735183716,-1.1940184831619265
133,26600.0,12.796814918518065,3.7567315101623535,-2.0889341831207275
134,26800.0,8.681159973144531,2.263610363006592,-1.8903299570083616
135,27000.0,8.681159973144531,2.263610363006592,-1.8903299570083616
136,27200.0,8.925228118896484,2.44067907333374,-0.6652047038078308
137,27400.0,11.509476661682127,1.8472589254379272,-1.0839486122131348
138,27600.0,11.753543853759766,-0.3278167247772217,-0.8398807048797607
139,27800.0,8.188239097595215,-0.20817556977272034,-0.28235307335853577
140,28000.0,9.284152030944824,2.3473589420318604,-0.5934200286865234
141,28200.0,9.169296264648438,1.368694543838501,-2.1846470832824707
142,28400.0,9.169296264648438,1.368694543838501,-2.1846470832824707
143,28600.0,8.853443145751953,2.3784656524658203,-1.8065810203552248
144,28800.0,8.882158279418945,1.8424735069274905,-2.792424201965332
145,29000.0,10.576275825500488,2.71346116065979,-1.179661512374878
146,29200.0,8.910871505737305,1.5457634925842283,-1.1509476900100708
147,29400.0,9.212367057800293,1.9070796966552732,-1.2562319040298462
148,29600.0,9.442078590393066,1.935793399810791,-1.9046868085861208
149,29800.0,8.164310455322267,2.888136863708496,-2.2947168350219727
150,30000.0,7.743173599243164,3.945764780044556,-1.7347965240478516
151,30200.0,7.743173599243164,3.945764780044556,-1.7347965240478516
152,30400.0,8.413164138793945,2.6321046352386475,-1.8903299570083616
153,30600.0,10.509278297424316,3.460021495819092,-0.7369893789291382
154,30800.0,9.308080673217773,4.1587257385253915,-1.4189438819885254
155,31000.0,18.72623062133789,1.959721684455872,-3.768695831298828
156,31200.0,7.690531730651855,3.641876220703125,-0.21296121180057528
157,31400.0,18.76930046081543,4.828716278076172,-3.464807271957397
158,31600.0,1.8999011516571045,-2.431107759475708,-8.429913520812987
159,31800.0,10.514062881469727,16.04148292541504,-6.563512325286865
160,32000.0,10.514062881469727,16.04148292541504,-6.563512325286865
161,32200.0,4.216153621673584,3.811766624450684,-7.006184577941895
162,32400.0,1.3208380937576294,1.3998013734817505,-5.280959606170653
163,32600.0,8.561518669128418,5.120640754699707,-3.960121393203736
164,32800.0,8.451449394226074,4.761716842651367,-0.8398807048797607
165,33000.0,7.661818027496338,3.3092737197875977,-0.15074782073497772
166,33200.0,10.054640769958496,4.522434711456299,0.1052841916680336
167,33400.0,10.054640769958496,4.522434711456299,0.1052841916680336
168,33600.0,9.944571495056152,3.6514470577239986,-2.888136863708496
169,33800.0,8.145168304443361,2.328216552734375,-1.8999011516571045
170,34000.0,7.901099681854247,3.3643085956573486,-1.4500504732131958
171,34200.0,7.9585280418396,2.7014968395233154,-1.581655740737915
172,34400.0,10.882556915283203,4.000799655914307,-0.8709874749183655
173,34600.0,8.092526435852049,2.830709218978882,-0.2416750937700272
174,34800.0,8.092526435852049,2.830709218978882,-0.2416750937700272
175,35000.0,8.288737297058105,2.7900311946868896,-1.6319050788879397
176,35200.0,8.489734649658201,3.146562099456787,-1.0743772983551023
177,35400.0,9.848857879638672,3.9553356170654297,-1.380658507347107
178,35600.0,7.891529560089111,1.741974949836731,-1.7371891736984253
179,35800.0,7.7048888206481925,2.809173583984375,-1.8783657550811768
180,36000.0,8.269595146179201,2.3473589420318604,-2.033899307250977
181,36200.0,11.772686958312988,2.933600425720215,-1.2227323055267334
182,36400.0,7.441678524017334,2.1631116867065434,-0.7250252366065979
183,36600.0,8.413164138793945,2.8043880462646484,-1.7682960033416748
184,36800.0,8.413164138793945,2.8043880462646484,-1.7682960033416748
185,37000.0,8.322237014770508,2.823530912399292,-1.239482045173645
186,37200.0,11.672188758850098,2.8977081775665283,-2.569891452789306
187,37400.0,10.69113063812256,0.9308080077171326,-3.395415067672729
188,37600.0,9.025726318359377,1.2729815244674685,-2.47896409034729
189,37800.0,7.432106971740723,2.337787628173828,-2.706282377243042
190,38000.0,8.130810737609862,2.421536445617676,-1.9884356260299685
191,38200.0,8.130810737609862,2.421536445617676,-1.9884356260299685
192,38400.0,12.916457176208494,1.959721684455872,-2.426322221755981
193,38600.0,10.03549861907959,1.373480200767517,-0.8853443264961243
194,38800.0,9.087940216064453,2.0721843242645264,-0.5264209508895874
195,39000.0,9.049654960632324,2.964707374572754,-0.605384111404419
196,39200.0,8.561518669128418,0.02153540588915348,-1.5409778356552124
197,39400.0,8.968299865722656,2.5004994869232178,-0.5599204897880554
198,39600.0,8.968299865722656,2.5004994869232178,-0.5599204897880554
199,39800.0,9.360722541809082,2.062613010406494,-1.9046868085861208
200,40000.0,10.045069694519043,0.7106683850288391,-1.8209381103515625
201,40200.0,9.62393283843994,1.6175479888916016,-1.2586246728897097
202,40400.0,9.351150512695312,2.0745770931243896,-1.7706886529922483
203,40600.0,9.633503913879396,0.4235295951366425,-2.0003998279571533
204,40800.0,7.99681282043457,3.4121649265289307,-1.7515461444854736
205,41000.0,7.99681282043457,3.4121649265289307,-1.7515461444854736
206,41200.0,9.107083320617676,1.6271194219589231,-2.825923442840576
207,41400.0,8.896513938903809,1.124626636505127,-2.0027925968170166
208,41600.0,12.815958023071287,2.1894328594207764,-2.0650060176849365
209,41800.0,8.915657043457031,1.131805181503296,-0.6173481941223145
210,42000.0,8.863015174865723,2.256431579589844,-0.8446664214134216
211,42200.0,9.269794464111328,1.4524433612823486,-0.8949156999588013
212,42400.0,9.269794464111328,1.4524433612823486,-0.8949156999588013
213,42600.0,9.073582649230957,1.5960125923156738,-0.763310432434082
214,42800.0,8.872586250305176,2.612962245941162,-0.26560330390930176
215,43000.0,8.968299865722656,2.557927370071411,-0.8422735333442688
216,43200.0,10.088139533996582,2.9934213161468506,-2.1966111660003658
217,43400.0,8.571090698242188,0.9906285405158995,-2.2133607864379883
218,43600.0,9.71485996246338,1.7132610082626345,-2.763710021972656
219,43800.0,9.71485996246338,1.7132610082626345,-2.763710021972656
220,44000.0,8.872586250305176,2.648854732513428,-2.1415762901306152
221,44200.0,8.920442581176758,1.4715858697891235,-2.3330020904541016
222,44400.0,8.810372352600098,2.644068956375122,-2.3186452388763428
223,44600.0,7.503891944885254,2.431107759475708,-2.9766712188720703
224,44800.0,17.123037338256836,10.640881538391113,0.062213387340307236
225,45000.0,4.436293125152588,2.244467735290528,-0.002392822643741965
226,45200.0,4.436293125152588,2.244467735290528,-0.002392822643741965
227,45400.0,4.149154186248778,6.632904052734375,-1.6606187820434568
228,45600.0,6.6281185150146475,4.1180477142333975,-1.7084753513336182
229,45800.0,9.824929237365724,3.187239646911621,-0.8135597109794617
230,46000.0,6.049055576324463,1.7898313999176023,-4.347758769989014
231,46200.0,8.781659126281737,-0.3397807776927948,-3.249453067779541
232,46400.0,8.743373870849611,-1.210768222808838,-3.562912940979004
233,46600.0,8.456235885620117,0.17706887423992154,-2.933600425720215
234,46800.0,8.456235885620117,0.17706887423992154,-2.933600425720215
235,47000.0,10.14556884765625,2.6632115840911865,-3.5820553302764893
236,47200.0,9.351150512695312,3.036492109298706,-4.792823314666748
237,47400.0,8.264809608459473,5.063212871551514,-3.5509488582611084
238,47600.0,2.7804601192474365,8.9371919631958,-0.2488535493612289
239,47800.0,1.8616160154342647,6.484549045562744,-1.031306505203247
240,48000.0,4.8191447257995605,6.553941249847412,-0.8781659603118896
241,48200.0,4.8191447257995605,6.553941249847412,-0.8781659603118896
242,48400.0,9.844072341918944,4.706681728363037,-3.873979806900024
243,48600.0,8.389235496520996,6.417550563812256,-0.7800601720809937
244,48800.0,9.686145782470703,0.9236294627189636,-2.455036163330078
245,49000.0,8.662017822265625,-1.1485549211502075,-2.933600425720215
246,49200.0,8.465806007385254,1.2921242713928225,-1.4668002128601074
247,49400.0,8.738588333129883,-0.4522434771060944,-2.9048867225646973
248,49600.0,7.058826446533202,3.9912283420562735,-1.3328022956848145
249,49800.0,11.633904457092285,4.776073932647705,-1.430907964706421
250,50000.0,11.633904457092285,4.776073932647705,-1.430907964706421
251,50200.0,6.618547439575195,4.089334011077882,-0.13878372311592102
252,50400.0,7.762316703796388,3.8955152034759517,0.1986042857170105
253,50600.0,10.29870891571045,3.1250264644622803,-0.935593605041504
254,50800.0,14.476577758789062,2.132004976272583,-1.4787644147872925
255,51000.0,9.059226989746094,2.12961220741272,-2.280359983444214
256,51200.0,11.404192924499512,1.5433706045150757,-3.6681969165802
257,51400.0,11.404192924499512,1.5433706045150757,-3.6681969165802
258,51600.0,6.661618232727051,2.902493953704834,-1.7180466651916504
259,51800.0,7.030113220214844,3.103491306304932,-1.3950155973434448
260,52000.0,13.993226051330565,3.713660717010498,-1.8616160154342647
261,52200.0,7.331608772277832,2.297109842300415,-0.4737788736820221
262,52400.0,9.585646629333496,0.5790630578994751,-1.7682960033416748
263,52600.0,9.509077072143556,1.155733346939087,-1.871187210083008
264,52800.0,9.509077072143556,1.155733346939087,-1.871187210083008
265,53000.0,10.102496147155762,-1.727617859840393,-2.146361827850342
266,53200.0,8.551947593688965,1.8592231273651123,-1.2610174417495728
267,53400.0,8.671588897705076,2.462214469909668,-1.7754744291305542
268,53600.0,11.002198219299316,2.3186452388763428,-2.445464611053467
269,53800.0,9.10229778289795,0.4426721632480621,-1.4739787578582764
270,54000.0,8.729016304016112,1.160519003868103,-0.6436693072319031
271,54200.0,8.729016304016112,1.160519003868103,-0.6436693072319031
272,54400.0,9.231510162353516,0.5479563474655151,-0.3445664942264557
273,54600.0,7.9585280418396,2.7278177738189697,-0.9643075466156006
274,54800.0,16.189838409423828,1.921436548233032,-3.76151704788208
275,55000.0,9.734003067016602,2.1846470832824707,-1.5529417991638184
276,55200.0,6.939186096191406,3.9744782447814937,-1.902293920516968
277,55400.0,8.609375953674316,3.431307554244995,-1.9669002294540403
278,55600.0,8.609375953674316,3.431307554244995,-1.9669002294540403
279,55800.0,9.633503913879396,3.029313325881958,-1.921436548233032
280,56000.0,7.939385414123535,3.0221347808837886,-2.0865414142608643
281,56200.0,15.031710624694824,4.515256404876709,-2.959921598434448
282,56400.0,8.236095428466799,1.641476273536682,0.055034920573234565
283,56600.0,7.795816421508789,3.072384119033813,-1.294516921043396
284,56800.0,8.724230766296388,3.2542388439178467,-1.129412293434143
285,57000.0,11.724830627441404,1.998006820678711,-1.2705888748168943
286,57200.0,11.724830627441404,1.998006820678711,-1.2705888748168943
287,57400.0,8.882158279418945,1.3375877141952517,-2.7732813358306885
288,57600.0,10.509278297424316,1.7371891736984253,-2.5292134284973145
289,57800.0,8.303093910217285,2.47896409034729,-1.8400806188583372
290,58000.0,7.52303409576416,2.675175428390503,-1.761117458343506
291,58200.0,13.864013671875,5.359922409057617,-0.672383189201355
292,58400.0,9.934999465942383,2.445464611053467,-0.2297109663486481
293,58600.0,9.934999465942383,2.445464611053467,-0.2297109663486481
294,58800.0,9.504291534423828,0.35892340540885925,-1.0145567655563354
295,59000.0,8.86780071258545,1.306481122970581,-1.4668002128601074
296,59200.0,9.891928672790527,1.9884356260299685,-1.184447169303894
297,59400.0,11.801401138305664,0.4211367666721344,-2.7254250049591064
298,59600.0,7.939385414123535,1.4189438819885254,-2.7876384258270264
299,59800.0,8.915657043457031,2.8594231605529785,-1.88075852394104
300,60000.0,8.915657043457031,2.8594231605529785,-1.88075852394104
301,60200.0,8.752944946289062,1.9453648328781128,-1.8831514120101929
302,60400.0,7.618747234344482,2.0195422172546387,-1.938186287879944
303,60600.0,11.078768730163574,-1.1222338676452637,-1.1437692642211914
304,60800.0,9.437292098999023,1.4620146751403809,-1.0169496536254885
305,61000.0,9.619147300720217,1.8281164169311523,-1.1700903177261353
306,61200.0,9.054441452026367,1.0863415002822876,-0.5455635190010071
307,61400.0,9.054441452026367,1.0863415002822876,-0.5455635190010071
308,61600.0,9.284152030944824,1.6390833854675293,-0.8805587291717529
309,61800.0,8.346165657043457,3.1537401676177983,-1.1126624345779421
310,62000.0,10.016355514526367,1.3399806022644043,-2.12961220741272
311,62200.0,7.556533336639403,1.9884356260299685,-1.7730815410614014
312,62400.0,9.044869422912598,2.7804601192474365,-2.0243279933929443
313,62600.0,8.796016693115233,2.4670000076293945,-1.7874385118484497
314,62800.0,8.193024635314941,0.8590233325958252,-1.0073783397674558
315,63000.0,8.193024635314941,0.8590233325958252,-1.0073783397674558
316,63200.0,12.480962753295898,1.361515998840332,-0.6891329884529114
317,63400.0,9.470791816711426,0.8949156999588013,-0.4977070987224579
318,63600.0,9.40379238128662,0.8733802437782288,-0.3230310678482056
319,63800.0,8.685946464538574,0.6029912829399109,-0.3397807776927948
320,64000.0,9.437292098999023,0.9571290016174316,-0.3613162040710449
321,64200.0,8.35573673248291,1.1748759746551514,-0.2416750937700272
322,64400.0,12.490534782409668,1.2658032178878784,-1.916650891304016
323,64600.0,9.767501831054688,0.8063812851905823,-0.6125625967979431
324,64800.0,9.767501831054688,0.8063812851905823,-0.6125625967979431
325,65000.0,9.193224906921387,0.3708875179290772,-1.3016955852508545
326,65200.0,13.074383735656738,2.050648927688598,-1.093519926071167
327,65400.0,10.016355514526367,2.2875385284423833,-1.8855443000793457
328,65600.0,9.681360244750977,2.8522443771362305,-1.0695916414260864
329,65800.0,8.71466064453125,2.7326035499572754,-1.4715858697891235
330,66000.0,9.351150512695312,2.3330020904541016,-1.0456634759902954
331,66200.0,9.351150512695312,2.3330020904541016,-1.0456634759902954
332,66400.0,9.116654396057127,3.431307554244995,-2.5555346012115483
333,66600.0,9.116654396057127,2.691925525665283,-2.4287149906158447
334,66800.0,8.657232284545897,1.730010747909546,-1.7754744291305542
335,67000.0,9.643074989318848,2.1822540760040283,-1.6199408769607544
336,67200.0,9.221939086914062,1.7443678379058838,-1.6510475873947144
337,67400.0,9.523433685302734,1.9262222051620483,-1.2346963882446291
338,67600.0,9.556933403015137,1.430907964706421,-0.6604190468788147
339,67800.0,9.332008361816406,1.5529417991638184,-2.768495798110962
340,68000.0,8.743373870849611,1.7778673171997068,0.0526420958340168
341,68200.0,8.743373870849611,1.7778673171997068,0.0526420958340168
342,68400.0,10.327423095703123,1.1724830865859983,-2.263610363006592
343,68600.0,9.461220741271973,0.3613162040710449,-1.06480610370636
344,68800.0,9.016156196594238,1.3591231107711792,-1.5792629718780518
345,69000.0,9.231510162353516,2.132004976272583,-2.057827472686768
346,69200.0,9.159724235534668,1.0504491329193115,-2.1631116867065434
347,69400.0,9.131011009216307,1.4045867919921875,-1.105484127998352
348,69600.0,9.269794464111328,1.2011969089508057,-1.5314064025878906
349,69800.0,9.269794464111328,1.2011969089508057,-1.5314064025878906
350,70000.0,10.260422706604004,1.6654045581817627,-2.1702899932861333
351,70200.0,10.370492935180664,2.8977081775665283,-1.361515998840332
352,70400.0,9.997212409973145,2.2875385284423833,-1.1126624345779421
353,70600.0,7.073184013366699,3.041277408599853,-0.6604190468788147
354,70800.0,10.834701538085938,3.5054850578308105,-0.6149553656578064
355,71000.0,10.834701538085938,3.5054850578308105,-0.6149553656578064
356,71200.0,9.77707290649414,3.2135608196258545,-1.294516921043396
357,71400.0,8.35573673248291,3.1082763671875,-2.0434706211090092
358,71600.0,11.767902374267578,1.1772687435150146,-2.060220241546631
359,71800.0,9.839285850524902,2.1702899932861333,-1.430907964706421
360,72000.0,10.02592658996582,1.514656662940979,-1.7802598476409912
361,72200.0,10.892127990722656,0.7537391781806946,-3.1106693744659424
362,72400.0,10.892127990722656,0.7537391781806946,-3.1106693744659424
363,72600.0,7.929814338684082,0.1746760606765747,-1.964507341384888
364,72800.0,11.619546890258787,-3.6323046684265137,-2.5842485427856445
365,73000.0,9.82971477508545,0.6819544434547424,-1.1868400573730469
366,73200.0,9.183652877807617,1.289731502532959,-0.82791668176651
367,73400.0,9.920641899108887,0.7992027401924133,-1.423729419708252
368,73600.0,8.164310455322267,2.400001049041748,-0.6675975918769836
369,73800.0,8.164310455322267,2.400001049041748,-0.6675975918769836
370,74000.0,11.815757751464846,2.749353408813477,-1.2777673006057741
371,74200.0,9.494720458984377,-1.160519003868103,-1.4835500717163086
372,74400.0,9.083154678344727,-0.3900300860404968,-2.4957141876220703
373,74600.0,8.800802230834961,1.9238293170928955,-2.6703903675079346
374,74800.0,9.293723106384276,1.9477576017379759,-2.1272192001342773
375,75000.0,7.111469268798827,2.203789472579956,-1.4404792785644531
376,75200.0,7.111469268798827,2.203789472579956,-1.4404792785644531
377,75400.0,9.66221809387207,3.680161237716675,-1.227518081665039
378,75600.0,9.753145217895508,3.828516006469727,-1.0695916414260864
379,75800.0,9.06879711151123,2.8833510875701904,0.3828516006469727
380,76000.0,9.030512809753418,1.6199408769607544,-0.6197410225868225
381,76200.0,9.77707290649414,1.643869161605835,-0.9140582084655762
382,76400.0,9.265008926391602,2.8833510875701904,-0.8973084688186646
383,76600.0,9.265008926391602,2.8833510875701904,-0.8973084688186646
384,76800.0,12.423534393310547,1.4213367700576782,-2.1894328594207764
385,77000.0,8.513663291931152,2.4502503871917725,-2.644068956375122
386,77200.0,8.513663291931152,2.9623143672943115,-2.5986053943634038
387,77400.0,9.413363456726074,3.0173492431640625,-3.6059837341308594
388,77600.0,7.556533336639403,1.4548362493515017,-2.7014968395233154
389,77800.0,10.045069694519043,1.4093725681304932,-2.1104695796966557
390,78000.0,12.696316719055176,1.9501504898071291,-0.8446664214134216
391,78200.0,9.667003631591797,1.514656662940979,-1.8257235288619995
392,78400.0,9.667003631591797,1.514656662940979,-1.8257235288619995
393,78600.0,9.757929801940918,1.1676974296569824,-1.5218352079391482
394,78800.0,10.15992546081543,1.8472589254379272,-0.696311354637146
395,79000.0,8.49452018737793,2.359323024749756,-1.5960125923156738
396,79200.0,7.082754611968994,4.582255363464356,-1.155733346939087
397,79400.0,11.150553703308104,6.321837425231934,-0.6699903011322021
398,79600.0,7.791030406951903,4.211367607116698,-1.2059825658798218
399,79800.0,7.791030406951903,4.211367607116698,-1.2059825658798218
400,80000.0,8.824729919433594,3.806980848312378,-1.9118653535842896
401,80200.0,7.542177200317383,4.304687976837158,-2.675175428390503
402,80400.0,8.264809608459473,2.8115665912628174,-3.32602334022522
403,80600.0,8.00638484954834,4.847858428955078,-1.835294842720032
404,80800.0,7.738388061523437,4.902893543243408,-1.368694543838501
405,81000.0,6.647261142730713,6.527620315551758,-1.3232309818267822
406,81200.0,7.676175117492676,6.525227069854736,-0.2871387302875519
407,81400.0,7.676175117492676,6.525227069854736,-0.2871387302875519
408,81600.0,9.001798629760742,5.120640754699707,-0.8805587291717529
409,81800.0,8.652446746826174,4.735395908355713,-1.442872166633606
410,82000.0,7.714460372924805,5.1014976501464835,-1.636690616607666
411,82200.0,6.776473522186278,6.396015167236327,-1.1198409795761108
412,82400.0,7.484748840332031,5.929414749145508,-1.588834285736084
413,82600.0,7.494320392608643,3.8524444103240967,-1.8520447015762331
414,82800.0,7.494320392608643,3.8524444103240967,-1.8520447015762331
415,83000.0,9.183652877807617,4.7569313049316415,-2.6081764698028564
416,83200.0,9.834501266479492,4.067798614501953,-1.6654045581817627
417,83400.0,9.34157943725586,4.01037073135376,-1.7539390325546265
418,83600.0,8.528019905090332,4.453042984008789,-1.4739787578582764
419,83800.0,8.149953842163086,4.677968502044678,-1.7491532564163208
420,84000.0,8.149953842163086,4.677968502044678,-1.7491532564163208
421,84200.0,7.594818592071532,5.027320384979248,-1.0360921621322632
422,84400.0,8.207381248474121,4.72582483291626,-0.2847459018230438
423,84600.0,8.614161491394043,4.563112735748291,-1.4189438819885254
424,84800.0,7.867600917816162,4.122833251953125,-0.7824530005455017
425,85000.0,11.801401138305664,4.194617748260498,-1.6199408769607544
426,85200.0,9.044869422912598,2.9862425327301025,-1.9573287963867188
427,85400.0,9.044869422912598,2.9862425327301025,-1.9573287963867188
428,85600.0,9.949356079101562,2.4646072387695312,-1.935793399810791
429,85800.0,8.762516975402832,1.856830358505249,-1.765903115272522
430,86000.0,8.044669151306152,2.620140790939331,-2.146361827850342
431,86200.0,9.011369705200195,1.6510475873947144,-2.8043880462646484
432,86400.0,11.566904067993164,2.273181438446045,-1.5481561422348022
433,86600.0,9.973284721374512,2.380858421325684,-0.794417142868042
434,86800.0,9.973284721374512,2.380858421325684,-0.794417142868042
435,87000.0,9.600004196166992,3.438485860824585,-1.124626636505127
436,87200.0,8.891729354858398,3.292524099349976,-1.368694543838501
437,87400.0,9.159724235534668,2.53399920463562,-0.9858429431915284
438,87600.0,8.638089179992676,2.5076780319213867,-1.1820544004440308
439,87800.0,8.685946464538574,3.589233875274658,-1.0600204467773438
440,88000.0,9.020941734313963,3.3643085956573486,-1.5314064025878906
441,88200.0,9.020941734313963,3.3643085956573486,-1.5314064025878906
442,88400.0,8.518448829650879,2.416750907897949,-2.062613010406494
443,88600.0,9.796216011047363,2.768495798110962,-2.1391832828521733
444,88800.0,9.087940216064453,2.526820659637451,-2.0195422172546387
445,89000.0,8.729016304016112,2.6153552532196045,-2.5052852630615234
446,89200.0,9.595218658447266,2.2707886695861816,-2.526820659637451
447,89400.0,8.958727836608887,2.411965131759644,-2.1583259105682373
448,89600.0,8.958727836608887,2.411965131759644,-2.1583259105682373
449,89800.0,8.614161491394043,2.462214469909668,-2.589033842086792
450,90000.0,8.197811126708983,3.156132936477661,-2.263610363006592
451,90200.0,11.653045654296875,1.8376877307891848,-1.7874385118484497
452,90400.0,9.585646629333496,2.1343977451324463,-1.1629117727279663
453,90600.0,9.231510162353516,2.426322221755981,-0.4881358444690704
454,90800.0,9.509077072143556,1.3878371715545654,-0.7250252366065979
455,91000.0,9.322437286376953,2.00518536567688,-0.8159525394439697
456,91200.0,9.322437286376953,2.00518536567688,-0.8159525394439697
457,91400.0,10.490135192871094,1.938186287879944,-0.8087739944458008
458,91600.0,8.441878318786621,3.3092737197875977,0.4498506784439087
459,91800.0,8.528019905090332,2.6847469806671143,-0.5503491759300232
460,92000.0,10.69113063812256,4.1276187896728525,-0.4881358444690704
461,92200.0,9.40379238128662,2.3330020904541016,-1.8975083827972408
462,92400.0,8.906085968017578,2.187039852142334,-1.7180466651916504
463,92600.0,9.298508644104004,2.3545374870300293,-2.1822540760040283
464,92800.0,9.298508644104004,2.3545374870300293,-2.1822540760040283
465,93000.0,7.503891944885254,2.1631116867065434,-1.7467604875564575
466,93200.0,7.747959613800049,2.392822742462158,-1.868794322013855
467,93400.0,10.169495582580566,2.833101987838745,-0.8997013568878174
468,93600.0,8.441878318786621,2.9862425327301025,-1.0600204467773438
469,93800.0,8.997013092041016,3.845265865325928,-0.7776673436164856
470,94000.0,9.016156196594238,3.680161237716675,-0.7657032012939453
471,94200.0,9.016156196594238,3.680161237716675,-0.7657032012939453
472,94400.0,8.528019905090332,3.842873096466065,-0.5814558863639832
473,94600.0,7.647461414337157,4.089334011077882,-0.7369893789291382
474,94800.0,8.762516975402832,3.34995174407959,-0.9427721500396729
475,95000.0,7.891529560089111,2.8043880462646484,-0.6580261588096619
476,95200.0,9.221939086914062,3.5700912475585938,-0.7393822073936462
477,95400.0,9.221939086914062,3.5700912475585938,-0.7393822073936462
478,95600.0,14.237295150756836,2.242074966430664,-6.360122680664063
479,95800.0,9.121439933776855,-0.3661018908023834,-2.0410776138305664
480,96000.0,8.61894702911377,2.4717857837677,-1.710868239402771
481,96200.0,9.408578872680664,1.0408778190612793,-2.2923240661621094
482,96400.0,9.083154678344727,1.730010747909546,-2.108076810836792
483,96600.0,9.269794464111328,1.4500504732131958,-2.651247262954712
484,96800.0,8.925228118896484,1.5936198234558103,-2.53399920463562
485,97000.0,8.925228118896484,1.5936198234558103,-2.53399920463562
486,97200.0,8.59501838684082,0.07657032459974289,-2.00518536567688
487,97400.0,7.680960178375244,1.7084753513336182,-0.9427721500396729
488,97600.0,13.777873039245605,0.397208571434021,-3.1106693744659424
489,97800.0,10.202995300292967,0.3182453811168671,-1.9525433778762815
490,98000.0,8.518448829650879,3.2374887466430664,-1.6797614097595217
491,98200.0,9.844072341918944,5.560920238494873,-0.06699903309345245
492,98400.0,8.202595710754395,3.4408791065216064,-2.0458633899688716
493,98600.0,9.432506561279297,4.950750350952148,-0.7537391781806946
494,98800.0,7.982456684112549,5.498706817626953,-1.3710873126983645
495,99000.0,7.982456684112549,5.498706817626953,-1.3710873126983645
496,99200.0,9.51386260986328,3.8356947898864746,-1.5098710060119631
497,99400.0,7.680960178375244,4.115654945373535,-1.529013752937317
498,99600.0,10.384849548339844,4.534398555755615,-1.7706886529922483
499,99800.0,8.542377471923826,2.617748022079468,-2.483749866485596
500,100000.0,8.374878883361816,3.888336658477783,-1.526620864868164
501,100200.0,10.600205421447754,4.890929222106934,-2.1032910346984863
502,100400.0,10.600205421447754,4.890929222106934,-2.1032910346984863
503,100600.0,8.374878883361816,3.0197420120239262,-1.0743772983551023
504,100800.0,8.054241180419924,2.957528829574585,-1.4883356094360352
505,101000.0,7.83410120010376,3.81655216217041,-1.2131611108779907
506,101200.0,11.274980545043945,3.579662799835205,-2.548356056213379
507,101400.0,10.054640769958496,2.091326951980591,-2.4430718421936035
508,101600.0,8.365307807922362,1.8209381103515625,-1.3495519161224363
509,101800.0,8.365307807922362,1.8209381103515625,-1.3495519161224363
510,102000.0,8.23130989074707,2.493321180343628,-2.3425734043121342
511,102200.0,8.504091262817383,2.280359983444214,-1.6582260131835938
512,102400.0,9.824929237365724,0.9044869542121888,-0.8973084688186646
513,102600.0,9.30329418182373,2.2875385284423833,-0.5383850932121277
514,102800.0,9.580862045288086,3.1345977783203125,-1.3591231107711792
515,103000.0,8.819944381713867,1.935793399810791,-0.3206382095813751
516,103200.0,8.135597229003906,1.7754744291305542,-1.1006983518600464
517,103400.0,8.135597229003906,1.7754744291305542,-1.1006983518600464
518,103600.0,8.331808090209961,2.68953275680542,-0.935593605041504
519,103800.0,10.068997383117676,3.146562099456787,-1.581655740737915
520,104000.0,9.207581520080566,1.7898313999176023,-1.3950155973434448
521,104200.0,9.059226989746094,2.1894328594207764,-1.6007983684539795
522,104400.0,8.111669540405272,2.746960401535034,-1.8233308792114256
523,104600.0,8.805586814880371,2.0171494483947754,-2.210968255996704
524,104800.0,11.265408515930176,3.0101709365844727,-1.0719845294952393
525,105000.0,11.265408515930176,3.0101709365844727,-1.0719845294952393
526,105200.0,9.111868858337402,3.1274189949035645,-0.5072783827781677
527,105400.0,9.38943576812744,1.8472589254379272,-0.6508477926254272
528,105600.0,9.34157943725586,3.3547375202178955,0.6364907622337341
529,105800.0,8.992227554321289,2.380858421325684,-0.3732803165912628
530,106000.0,8.786444664001465,3.3092737197875977,-0.2416750937700272
531,106200.0,10.494919776916504,3.711267709732056,-1.1413763761520386
532,106400.0,9.06401252746582,1.8520447015762331,-1.6606187820434568
533,106600.0,9.06401252746582,1.8520447015762331,-1.6606187820434568
534,106800.0,9.011369705200195,2.4598214626312256,-1.0959126949310305
535,107000.0,8.183453559875487,3.060420036315918,-2.124826431274414
536,107200.0,8.451449394226074,2.117647886276245,-1.6701902151107788
537,107400.0,9.968499183654783,2.12961220741272,-0.9810572862625122
538,107600.0,19.094724655151367,6.884150981903076,3.2279179096221924
539,107800.0,8.221738815307617,3.6562328338623047,-0.011964112520217896
540,108000.0,8.599804878234862,5.292923927307129,-1.2059825658798218
541,108200.0,8.599804878234862,5.292923927307129,-1.2059825658798218
542,108400.0,6.269195556640625,5.864808082580566,-0.8757730722427368
543,108600.0,5.350350856781006,5.225924491882324,-0.7800601720809937
544,108800.0,10.322636604309082,8.372486114501951,0.5862415432929993
545,109000.0,7.77188777923584,6.245267391204834,-0.5455635190010071
546,109200.0,7.728816509246826,5.967699527740479,-1.6103696823120115
547,109400.0,2.756531953811645,12.720245361328125,8.513663291931152
548,109600.0,-4.689932346343994,3.3547375202178955,2.957528829574585
549,109800.0,-4.689932346343994,3.3547375202178955,2.957528829574585
550,110000.0,-8.130810737609862,6.898508071899414,1.7180466651916504
551,110200.0,-7.676175117492676,0.4546363055706024,0.729810893535614
552,110400.0,-8.920442581176758,-1.0600204467773438,-0.882951557636261
553,110600.0,-9.987641334533693,-3.1513471603393555,0.5335994362831116
554,110800.0,-10.652846336364746,1.4739787578582764,3.634697675704956
555,111000.0,0.4881358444690704,8.989834785461426,0.04785645008087158
556,111200.0,-9.547362327575684,2.823530912399292,-1.4715858697891235
557,111400.0,-9.547362327575684,2.823530912399292,-1.4715858697891235
558,111600.0,-7.192824840545653,-1.2753744125366209,-5.249853134155273
559,111800.0,-9.001798629760742,0.4354937374591827,-2.026720762252808
560,112000.0,-9.260223388671877,-2.6009981632232666,-3.87876558303833
561,112200.0,-9.72921657562256,-2.67278265953064,-2.2707886695861816
562,112400.0,-8.039883613586426,-1.954936146736145,-0.8374879360198975
563,112600.0,-10.547561645507812,1.9477576017379759,-1.519442439079285
564,112800.0,-10.547561645507812,1.9477576017379759,-1.519442439079285
565,113000.0,-1.7850456237792969,6.953542709350586,0.5288137793540955
566,113200.0,2.995814085006714,7.999206066131593,-7.427321434020996
567,113400.0,0.97148597240448,6.838686943054199,-2.636890411376953
568,113600.0,5.26899528503418,7.999206066131593,-5.752345561981201
569,113800.0,7.762316703796388,4.589433670043945,-3.3020951747894287
570,114000.0,15.15613842010498,3.1178479194641118,-7.503891944885254
571,114200.0,15.15613842010498,3.1178479194641118,-7.503891944885254
572,114400.0,8.408378601074219,4.347758769989014,-3.9003009796142583
573,114600.0,6.460620880126952,5.412564754486084,-4.115654945373535
574,114800.0,3.948157548904419,4.790431022644043,-4.831109046936035
575,115000.0,5.661418437957764,5.592026710510254,-6.137589931488037
576,115200.0,3.981656789779663,4.60139799118042,-5.099104881286621
577,115400.0,8.365307807922362,5.9342002868652335,-5.532205581665039
578,115600.0,7.0923261642456055,4.948357105255127,-5.209175109863281
579,115800.0,7.0923261642456055,4.948357105255127,-5.209175109863281
580,116000.0,8.092526435852049,3.634697675704956,-3.833301782608032
581,116200.0,8.97787094116211,3.711267709732056,-4.110869407653809
582,116400.0,8.834300994873047,4.0175490379333505,-2.562713146209717
583,116600.0,7.77188777923584,4.283152580261231,-2.416750907897949
584,116800.0,7.905886173248291,4.49132776260376,-2.857030153274536
585,117000.0,8.193024635314941,4.319044589996338,-3.084348201751709
586,117200.0,7.207180976867676,4.747360229492188,-1.9884356260299685
587,117400.0,7.207180976867676,4.747360229492188,-1.9884356260299685
588,117600.0,7.489534854888916,4.833501815795898,-3.072384119033813
589,117800.0,9.930214881896973,3.259024381637573,-2.6632115840911865
590,118000.0,9.346364974975586,3.957728624343872,1.3304094076156616
591,118200.0,10.657631874084473,2.426322221755981,-1.4141581058502195
592,118400.0,9.346364974975586,3.541377305984497,-1.6701902151107788
593,118600.0,9.882357597351074,3.957728624343872,-1.9573287963867188
594,118800.0,9.882357597351074,3.957728624343872,-1.9573287963867188
595,119000.0,6.293124198913574,3.10109806060791,-1.1485549211502075
596,119200.0,7.724031925201416,4.335794448852538,-1.6342979669570925
597,119400.0,11.059626579284668,3.7016968727111816,-0.9595218896865844
598,119600.0,9.55214786529541,1.3136597871780396,-0.8039883971214294
599,119800.0,9.461220741271973,3.1752755641937256,-0.9451649785041808
600,120000.0,11.691330909729006,2.847458839416504,-1.0049854516983032
601,120200.0,8.508876800537111,3.060420036315918,-0.30149564146995544
602,120400.0,8.508876800537111,3.060420036315918,-0.30149564146995544
603,120600.0,7.178467750549316,3.084348201751709,-1.0695916414260864
604,120800.0,12.10768222808838,3.16331148147583,-0.9523434042930604
605,121000.0,11.11705493927002,1.5050854682922363,-1.9046868085861208
606,121200.0,8.657232284545897,1.9716858863830569,-1.6725829839706419
607,121400.0,11.633904457092285,2.234896183013916,-2.3712873458862305
608,121600.0,9.533005714416504,2.57228422164917,-1.969292998313904
609,121800.0,7.154539585113525,2.0171494483947754,-1.3663017749786377
610,122000.0,7.154539585113525,2.0171494483947754,-1.3663017749786377
611,122200.0,14.026725769042967,3.670589685440064,-3.304487943649292
612,122400.0,8.303093910217285,3.864408254623413,-1.3136597871780396
613,122600.0,10.188638687133787,3.2207393646240234,-1.7491532564163208
614,122800.0,10.676774978637695,1.6677974462509155,-1.368694543838501
615,123000.0,7.39860725402832,2.337787628173828,-0.8446664214134216
616,123200.0,12.35653591156006,2.617748022079468,-0.6364907622337341
617,123400.0,10.202995300292967,3.445664882659912,-1.761117458343506
618,123600.0,10.202995300292967,3.445664882659912,-1.761117458343506
619,123800.0,9.647860527038574,3.400200843811035,-1.6701902151107788
620,124000.0,11.102697372436523,2.4717857837677,-0.8255237936973572
621,124200.0,7.719245910644531,2.0889341831207275,-0.4211367666721344
622,124400.0,11.609975814819336,2.830709218978882,0.5024927258491516
623,124600.0,10.423135757446287,3.828516006469727,-0.5910272002220154
624,124800.0,8.642874717712402,2.7326035499572754,-1.5960125923156738
625,125000.0,10.456634521484377,2.210968255996704,-1.9621145725250244
626,125200.0,8.819944381713867,2.830709218978882,-1.06480610370636
627,125400.0,8.819944381713867,2.830709218978882,-1.06480610370636
628,125600.0,9.250652313232422,2.2468602657318115,-2.0865414142608643
629,125800.0,10.518847465515137,2.4909284114837646,-2.801995038986206
630,126000.0,9.15493869781494,3.0987055301666264,-2.0099709033966064
631,126200.0,12.437891960144045,1.6965112686157229,-1.9573287963867188
632,126400.0,8.288737297058105,2.4047868251800537,-1.6271194219589231
633,126600.0,8.288737297058105,2.4047868251800537,-1.6271194219589231
634,126800.0,7.767102241516112,1.8640089035034182,-0.0263210479170084
635,127000.0,7.5804619789123535,4.792823314666748,-2.8594231605529785
636,127200.0,10.04985523223877,3.2446675300598145,0.5096712112426758
637,127400.0,9.15493869781494,2.8211379051208496,-0.39481574296951294
638,127600.0,7.412964344024657,4.3860440254211435,0.20338992774486545
639,127800.0,7.412964344024657,4.3860440254211435,0.20338992774486545
640,128000.0,8.690732002258299,4.742574691772461,-1.741974949836731
641,128200.0,10.112068176269533,3.005385160446167,0.06460621207952501
642,128400.0,10.86341381072998,0.7345964908599854,0.39481574296951294
643,128600.0,8.968299865722656,2.0793628692626958,-2.124826431274414
644,128800.0,8.858229637145996,1.588834285736084,-2.230110645294189
645,129000.0,12.31346607208252,1.2705888748168943,-2.4287149906158447
646,129200.0,9.60478973388672,3.235095977783203,-1.4739787578582764
647,129400.0,9.60478973388672,3.235095977783203,-1.4739787578582764
648,129600.0,7.8867435455322275,3.751945972442627,-0.3828516006469727
649,129800.0,8.800802230834961,4.130012035369873,-1.3471590280532837
650,130000.0,9.475577354431152,4.055834770202637,0.8039883971214294
651,130200.0,9.863215446472168,1.9573287963867188,-1.7467604875564575
652,130400.0,9.336793899536133,1.5744771957397459,-1.5457634925842283
653,130600.0,9.355937004089355,2.5124638080596924,-1.581655740737915
654,130800.0,9.355937004089355,2.5124638080596924,-1.581655740737915
655,131000.0,8.188239097595215,2.177468776702881,-1.423729419708252
656,131200.0,8.465806007385254,2.792424201965332,-1.4859429597854614
657,131400.0,10.24606704711914,2.44067907333374,-0.2967100143432617
658,131600.0,8.417949676513674,0.11006984114646913,-0.9451649785041808
659,131800.0,9.533005714416504,2.3712873458862305,-1.411765456199646
660,132000.0,9.57607650756836,3.6299118995666495,-0.28235307335853577
661,132200.0,9.57607650756836,3.6299118995666495,-0.28235307335853577
662,132400.0,8.336593627929688,3.4121649265289307,-0.3445664942264557
663,132600.0,9.509077072143556,2.7014968395233154,-0.4187439680099487
664,132800.0,9.332008361816406,2.974278450012207,-0.8997013568878174
665,133000.0,8.805586814880371,2.3258235454559326,-1.6319050788879397
666,133200.0,10.997413635253906,2.943171739578247,-1.8448662757873533
667,133400.0,10.997413635253906,2.943171739578247,-1.8448662757873533
668,133600.0,9.45164966583252,2.950350284576416,-1.4907284975051882
669,133800.0,8.762516975402832,2.801995038986206,-1.7347965240478516
670,134000.0,9.542576789855957,3.2446675300598145,-1.514656662940979
671,134200.0,9.001798629760742,3.2709887027740483,-1.983649969100952
672,134400.0,9.265008926391602,1.8592231273651123,-2.9671001434326167
673,134600.0,8.757731437683105,3.1968109607696533,-1.5864413976669312
674,134800.0,8.757731437683105,3.1968109607696533,-1.5864413976669312
675,135000.0,7.077969074249268,1.801795244216919,-1.2299107313156128
676,135200.0,10.24606704711914,2.2396819591522217,-1.9573287963867188
677,135400.0,10.269994735717773,0.11006984114646913,-1.0384850502014158
678,135600.0,9.31765079498291,2.0793628692626958,-1.289731502532959
679,135800.0,11.84447193145752,0.5982056856155396,-2.431107759475708
680,136000.0,8.508876800537111,2.8594231605529785,-0.2871387302875519
681,136200.0,8.508876800537111,2.8594231605529785,-0.2871387302875519
682,136400.0,9.035298347473145,3.0963122844696045,-0.8398807048797607
683,136600.0,9.31765079498291,3.6011981964111333,-1.0169496536254885
684,136800.0,8.188239097595215,3.0197420120239262,-0.9451649785041808
685,137000.0,8.824729919433594,4.0462632179260245,-1.043270707130432
686,137200.0,10.466205596923828,5.094319343566895,-1.84965181350708
687,137400.0,10.466205596923828,5.094319343566895,-1.84965181350708
688,137600.0,6.953542709350586,3.713660717010498,-0.9762716889381408
689,137800.0,8.920442581176758,3.586841106414795,-1.0671988725662231
690,138000.0,11.198410987854004,3.634697675704956,-1.6007983684539795
691,138200.0,8.504091262817383,3.4241292476654053,-2.146361827850342
692,138400.0,11.504691123962402,2.8426735401153564,-1.8927226066589355
693,138600.0,8.413164138793945,2.383251428604126,-0.8638089299201965
694,138800.0,10.399208068847656,3.3523442745208736,-1.5242280960083008
695,139000.0,10.399208068847656,3.3523442745208736,-1.5242280960083008
696,139200.0,11.796616554260256,0.21774686872959134,-4.261617183685304
697,139400.0,8.71944522857666,2.775674343109131,-0.38045880198478704
698,139600.0,10.336994171142578,2.6679973602294917,-1.3950155973434448
699,139800.0,9.059226989746094,3.2542388439178467,0.9619146585464478
700,140000.0,8.336593627929688,2.4023938179016118,-0.4450649619102478
701,140200.0,8.336593627929688,2.4023938179016118,-0.4450649619102478
702,140400.0,10.772488594055176,3.0197420120239262,-0.2943171858787537
703,140600.0,10.078569412231444,3.0484561920166016,-2.7254250049591064
704,140800.0,15.54377555847168,1.8999011516571045,-2.746960401535034
705,141000.0,10.52841854095459,2.612962245941162,0.1938186287879944
706,141200.0,7.905886173248291,1.6510475873947144,-1.368694543838501
707,141400.0,10.983055114746094,6.288337707519531,-0.35413774847984314
708,141600.0,8.767301559448242,2.5914268493652344,-2.9551358222961426
709,141800.0,10.188638687133787,1.6486548185348509,-2.799602746963501
710,142000.0,10.188638687133787,1.6486548185348509,-2.799602746963501
711,142200.0,9.470791816711426,2.943171739578247,-1.4261221885681152
712,142400.0,7.747959613800049,2.2755744457244877,-1.6582260131835938
713,142600.0,11.710474014282227,2.2229323387146,-1.8233308792114256
714,142800.0,9.509077072143556,2.3090739250183105,-1.2562319040298462
715,143000.0,10.250852584838867,1.706082463264465,-1.1653046607971191
716,143200.0,9.370293617248537,2.63449764251709,-0.04307081177830696
717,143400.0,9.370293617248537,2.63449764251709,-0.04307081177830696
718,143600.0,8.456235885620117,2.8833510875701904,-0.21774686872959134
719,143800.0,9.51386260986328,2.6608188152313232,0.028713870793581012
720,144000.0,9.686145782470703,2.823530912399292,-0.28235307335853577
721,144200.0,9.298508644104004,2.974278450012207,0.16510476171970367
722,144400.0,9.413363456726074,2.5914268493652344,-1.2993026971817017
723,144600.0,10.719844818115234,8.35573673248291,2.493321180343628
724,144800.0,2.603391170501709,7.508677005767822,-2.328216552734375
725,145000.0,2.603391170501709,7.508677005767822,-2.328216552734375
726,145200.0,0.033499516546726234,-6.355337142944336,-6.015556335449219
727,145400.0,1.9812570810317995,1.2227323055267334,-2.833101987838745
728,145600.0,4.110869407653809,9.104689598083496,-6.166304588317871
729,145800.0,1.2299107313156128,8.800802230834961,3.670589685440064
730,146000.0,12.634103775024414,11.2366943359375,-2.4909284114837646
731,146200.0,8.690732002258299,1.5768700838088991,-2.09850549697876
732,146400.0,12.035898208618164,0.7250252366065979,-1.9716858863830569
733,146600.0,12.035898208618164,0.7250252366065979,-1.9716858863830569
734,146800.0,9.643074989318848,2.3425734043121342,-1.4500504732131958
735,147000.0,10.164710998535156,3.5748770236968994,-1.6654045581817627
736,147200.0,7.781459331512451,4.000799655914307,0.0406779870390892
737,147400.0,8.834300994873047,4.175475597381592,0.5718846321105957
738,147600.0,9.628718376159668,1.8448662757873533,-0.8015955686569214
739,147800.0,9.628718376159668,1.8448662757873533,-0.8015955686569214
740,148000.0,9.968499183654783,-0.1938186287879944,-1.289731502532959
741,148200.0,9.571290969848633,1.5242280960083008,-1.7635102272033691
742,148400.0,11.68175983428955,2.1942183971405034,-2.1224336624145512
743,148600.0,9.595218658447266,1.3160523176193235,-1.8855443000793457
744,148800.0,9.083154678344727,2.730210542678833,-1.356730580329895
745,149000.0,8.484949111938478,4.287938117980957,-1.131805181503296
746,149200.0,8.528019905090332,2.778067111968994,-1.4859429597854614
747,149400.0,8.949156761169434,2.524427890777588,-1.1413763761520386
748,149600.0,8.949156761169434,2.524427890777588,-1.1413763761520386
749,149800.0,8.48016357421875,2.021935224533081,-1.7204395532608032
750,150000.0,8.700303077697754,2.426322221755981,-2.6967110633850098
751,150200.0,9.67657470703125,3.7878382205963135,-3.0460631847381587
752,150400.0,8.413164138793945,4.816751956939697,-1.5984054803848269
753,150600.0,5.9198431968688965,3.94097900390625,-1.2227323055267334
754,150800.0,5.9198431968688965,3.94097900390625,-1.2227323055267334
755,151000.0,9.499505043029783,4.694717884063722,-1.0695916414260864
756,151200.0,10.021141052246094,4.661218643188477,0.2225324809551239
757,151400.0,7.245467185974121,1.6773687601089478,-1.9142580032348635
758,151600.0,9.858428955078123,2.124826431274414,-1.5720844268798828
759,151800.0,11.542977333068848,2.998206615447998,-1.7204395532608032
760,152000.0,8.781659126281737,1.8424735069274905,-2.050648927688598
761,152200.0,8.781659126281737,1.8424735069274905,-2.050648927688598
762,152400.0,11.203195571899414,2.603391170501709,-0.6269195079803467
763,152600.0,9.566505432128906,2.531606435775757,-3.548555850982666
764,152800.0,9.15493869781494,1.6486548185348509,-3.976871252059937
765,153000.0,10.28913688659668,2.9072794914245605,-0.6125625967979431
766,153200.0,10.413564682006836,1.969292998313904,-0.9834501147270204
767,153400.0,11.045268058776855,1.722832441329956,-3.4743783473968506
768,153600.0,11.045268058776855,1.722832441329956,-3.4743783473968506
769,153800.0,9.044869422912598,1.6582260131835938,-2.4430718421936035
770,154000.0,11.499905586242676,2.7254250049591064,-0.8494520783424377
771,154200.0,9.365508079528807,2.3425734043121342,0.06699903309345245
772,154400.0,10.447062492370604,3.050848960876465,-0.7776673436164856
773,154600.0,10.805987358093262,2.187039852142334,-1.978864312171936
774,154800.0,9.025726318359377,3.012563943862915,-2.517249345779419
775,155000.0,9.025726318359377,3.012563943862915,-2.517249345779419
776,155200.0,10.729416847229004,2.4335007667541504,-1.964507341384888
777,155400.0,8.772088050842285,2.885744333267212,-0.6101697683334351
778,155600.0,8.901299476623535,2.900100946426392,-1.4763716459274292
779,155800.0,12.136396408081055,2.816352128982544,-1.4069796800613403
780,156000.0,10.26520824432373,2.959921598434448,-1.5074783563613892
781,156200.0,9.738788604736328,1.5361920595169067,-2.438286304473877
782,156400.0,10.236495971679688,3.0245277881622314,0.7824530005455017
783,156600.0,5.168497085571289,2.2133607864379883,-0.3110669553279877
784,156800.0,12.457035064697266,4.161118507385254,-3.572484016418457
785,157000.0,12.457035064697266,4.161118507385254,-3.572484016418457
786,157200.0,12.614960670471193,-0.17946170270442965,-1.7778673171997068
787,157400.0,8.95394229888916,2.3976082801818848,-3.6921253204345694
788,157600.0,10.619346618652344,0.3684946894645691,-2.857030153274536
789,157800.0,8.035098075866701,3.0484561920166016,-0.9140582084655762
790,158000.0,10.935199737548828,1.4500504732131958,-1.6965112686157229
791,158200.0,8.98265552520752,3.081955671310425,-2.7804601192474365
792,158400.0,11.241480827331543,2.3186452388763428,-2.7876384258270264
793,158600.0,10.571491241455078,2.242074966430664,-0.7202396392822266
794,158800.0,9.877571105957033,2.6847469806671143,-0.6747759580612183
795,159000.0,8.365307807922362,2.6009981632232666,-0.818345308303833
796,159200.0,8.365307807922362,2.6009981632232666,-0.818345308303833
797,159400.0,10.068997383117676,0.9619146585464478,-0.6125625967979431
798,159600.0,9.001798629760742,3.050848960876465,-2.031506299972534
799,159800.0,11.059626579284668,2.744567632675171,-1.4021940231323242
800,160000.0,8.073383331298826,2.603391170501709,0.2967100143432617
801,160200.0,8.877371788024902,2.526820659637451,-1.0600204467773438
802,160400.0,10.724631309509276,2.2779672145843506,-2.091326951980591
803,160600.0,10.724631309509276,2.2779672145843506,-2.091326951980591
804,160800.0,8.958727836608887,2.7254250049591064,-2.5986053943634038
805,161000.0,11.040483474731444,1.6127625703811646,-1.804188132286072
806,161200.0,7.125825881958008,2.1032910346984863,-1.0097711086273191
807,161400.0,6.20219612121582,-2.155933380126953,-7.7599239349365225
808,161600.0,11.83489990234375,2.1032910346984863,-0.23449662327766416
809,161800.0,9.265008926391602,2.2683956623077397,-3.2781667709350586
810,162000.0,9.265008926391602,2.2683956623077397,-3.2781667709350586
811,162200.0,10.322636604309082,2.426322221755981,-2.167897224426269
812,162400.0,7.891529560089111,2.050648927688598,-1.5314064025878906
813,162600.0,9.667003631591797,2.1990041732788086,-1.4572290182113647
814,162800.0,8.901299476623535,2.543570280075073,-0.705882728099823
815,163000.0,9.92542839050293,1.0983055830001829,-2.328216552734375
816,163200.0,10.183852195739746,0.9260223507881165,-2.6464619636535645
817,163400.0,10.63848876953125,3.79262375831604,-0.2153540551662445
818,163600.0,10.63848876953125,3.79262375831604,-0.2153540551662445
819,163800.0,7.671389579772949,4.412364959716797,0.028713870793581012
820,164000.0,8.044669151306152,5.331209182739258,0.7010970115661621
821,164200.0,8.97787094116211,4.761716842651367,0.25842484831810003
822,164400.0,9.06401252746582,2.514856576919556,-0.3876372575759888
823,164600.0,9.4660062789917,0.33738797903060913,-1.9070796966552732
824,164800.0,9.456435203552246,1.804188132286072,-2.8139593601226807
825,165000.0,10.059426307678224,2.438286304473877,-2.7182462215423584
826,165200.0,10.059426307678224,2.438286304473877,-2.7182462215423584
827,165400.0,10.63848876953125,3.69930362701416,-0.8901299238204956
828,165600.0,11.06919765472412,3.201596736907959,-0.9954141974449158
829,165800.0,9.561718940734863,2.2923240661621094,-0.5718846321105957
830,166000.0,9.91107177734375,3.060420036315918,-1.0719845294952393
831,166200.0,9.073582649230957,1.935793399810791,-1.3280165195465088
832,166400.0,9.164510726928713,2.9383859634399414,-0.5120640397071838
833,166600.0,8.394021987915039,6.254837989807129,0.8949156999588013
834,166800.0,8.532805442810059,4.7569313049316415,-0.8925228118896484
835,167000.0,8.532805442810059,4.7569313049316415,-0.8925228118896484
836,167200.0,10.045069694519043,0.5120640397071838,-6.022734642028809
837,167400.0,9.63828945159912,1.730010747909546,-2.581855773925781
838,167600.0,8.647661209106445,3.2709887027740483,-3.005385160446167
839,167800.0,9.087940216064453,3.335594892501831,-0.7752745151519775
840,168000.0,9.06401252746582,2.6249265670776367,-0.9427721500396729
841,168200.0,11.13619613647461,2.280359983444214,-0.8063812851905823
842,168400.0,11.13619613647461,2.280359983444214,-0.8063812851905823
843,168600.0,9.073582649230957,2.359323024749756,-2.0434706211090092
844,168800.0,9.384650230407717,2.902493953704834,-1.7922240495681765
845,169000.0,8.958727836608887,2.847458839416504,-0.662811815738678
846,169200.0,9.719645500183104,4.180261135101318,-1.3471590280532837
847,169400.0,10.504491806030273,3.579662799835205,-1.7898313999176023
848,169600.0,9.475577354431152,2.376072883605957,-3.653840303421021
849,169800.0,9.475577354431152,2.376072883605957,-3.653840303421021
850,170000.0,9.054441452026367,2.3018953800201416,-2.8426735401153564
851,170200.0,9.719645500183104,1.4572290182113647,-1.804188132286072
852,170400.0,10.284351348876953,2.4717857837677,-1.3639088869094849
853,170600.0,12.198609352111815,2.380858421325684,-1.191625714302063
854,170800.0,9.8871431350708,2.799602746963501,-1.6654045581817627
855,171000.0,9.475577354431152,2.749353408813477,-1.4141581058502195
856,171200.0,8.159524917602539,3.641876220703125,1.2227323055267334
857,171400.0,8.159524917602539,3.641876220703125,1.2227323055267334
858,171600.0,6.589833736419678,2.935993194580078,0.1579262912273407
859,171800.0,12.01675510406494,3.2709887027740483,-0.9332008361816406
860,172000.0,9.74835968017578,2.502892255783081,-2.2995026111602783
861,172200.0,9.96371364593506,2.038684844970703,-2.792424201965332
862,172400.0,9.3128662109375,2.438286304473877,-0.7250252366065979
863,172600.0,7.499105930328369,2.359323024749756,0.0263210479170084
864,172800.0,14.213366508483887,2.806780815124512,-4.515256404876709
865,173000.0,14.213366508483887,2.806780815124512,-4.515256404876709
866,173200.0,8.82951545715332,1.9621145725250244,-1.8616160154342647
867,173400.0,10.102496147155762,2.531606435775757,-1.4907284975051882
868,173600.0,7.877171993255615,3.239881753921509,0.7704889178276062
869,173800.0,6.642475128173827,2.6847469806671143,-0.6747759580612183
870,174000.0,10.887343406677246,3.053241729736328,-2.273181438446045
871,174200.0,9.901500701904297,2.2851457595825195,-2.636890411376953
872,174400.0,10.040283203125,2.900100946426392,-2.562713146209717
873,174600.0,10.040283203125,2.900100946426392,-2.562713146209717
874,174800.0,9.556933403015137,2.359323024749756,-1.3495519161224363
875,175000.0,6.781259536743164,3.400200843811035,-1.5457634925842283
876,175200.0,11.767902374267578,4.8023948669433585,-1.5409778356552124
877,175400.0,9.049654960632324,3.589233875274658,-0.22492533922195435
878,175600.0,9.494720458984377,1.6151552200317385,-1.8424735069274905
879,175800.0,9.494720458984377,1.6151552200317385,-1.8424735069274905
880,176000.0,10.284351348876953,1.998006820678711,-3.002992391586304
881,176200.0,8.408378601074219,2.438286304473877,-1.741974949836731
882,176400.0,9.265008926391602,3.0221347808837886,-0.705882728099823
883,176600.0,10.193424224853516,1.7132610082626345,-2.084148406982422
884,176800.0,8.834300994873047,2.7948169708251958,-1.8472589254379272
885,177000.0,11.691330909729006,2.328216552734375,-2.0099709033966064
886,177200.0,11.691330909729006,2.328216552734375,-2.0099709033966064
887,177400.0,9.198010444641113,2.5555346012115483,-1.1006983518600464
888,177600.0,7.47517728805542,3.211168050765991,-1.0528419017791748
889,177800.0,10.021141052246094,3.680161237716675,-0.8757730722427368
890,178000.0,9.399007797241213,1.9525433778762815,-2.1511476039886475
891,178200.0,9.025726318359377,1.3878371715545654,-3.6681969165802
892,178400.0,8.523234367370605,1.56251323223114,-2.2372891902923584
893,178600.0,10.461421012878418,2.847458839416504,-2.665604591369629
894,178800.0,9.260223388671877,3.06999135017395,-2.71346116065979
895,179000.0,6.7860450744628915,2.833101987838745,-1.3519448041915894
896,179200.0,9.011369705200195,4.055834770202637,-1.584048628807068
897,179400.0,9.06879711151123,1.2681961059570312,-0.3756731450557709
898,179600.0,9.06879711151123,1.2681961059570312,-0.3756731450557709
899,179800.0,9.346364974975586,1.88075852394104,-1.37587308883667
900,180000.0,9.422935485839844,2.553141593933105,-0.6269195079803467
901,180200.0,8.95394229888916,3.160918712615967,-0.6101697683334351
902,180400.0,7.116254806518555,2.89052963256836,-0.9954141974449158
903,180600.0,11.00698471069336,2.63449764251709,-2.146361827850342
904,180800.0,9.198010444641113,2.053041696548462,-3.005385160446167
905,181000.0,9.198010444641113,2.053041696548462,-3.005385160446167
906,181200.0,8.738588333129883,1.8305093050003047,-2.4741785526275635
907,181400.0,8.872586250305176,3.7016968727111816,-1.0289137363433838
908,181600.0,10.28913688659668,3.579662799835205,-1.6175479888916016
909,181800.0,9.332008361816406,3.304487943649292,-0.6915256977081299
910,182000.0,10.667202949523926,1.8281164169311523,-0.4402793645858765
911,182200.0,9.116654396057127,0.8542376756668091,-1.392622709274292
912,182400.0,9.116654396057127,0.8542376756668091,-1.392622709274292
913,182600.0,8.178668022155763,0.8207381367683411,-0.4211367666721344
914,182800.0,8.556733131408691,1.7635102272033691,-0.6771688461303711
915,183000.0,7.183253765106201,1.0911270380020142,-4.364508152008057
916,183200.0,9.016156196594238,4.560719966888428,-2.4813570976257324
917,183400.0,6.920042991638184,3.759124279022217,-1.8759729862213133
918,183600.0,8.331808090209961,3.5461630821228027,-2.177468776702881
919,183800.0,9.231510162353516,2.9479575157165527,-2.289931058883667
920,184000.0,9.231510162353516,2.9479575157165527,-2.289931058883667
921,184200.0,8.585447311401367,0.7920243144035339,-2.359323024749756
922,184400.0,8.173882484436035,1.3471590280532837,-2.3234307765960693
923,184600.0,11.351551055908205,1.6965112686157229,-0.7010970115661621
924,184800.0,10.121639251708984,-1.026520848274231,-3.3714869022369385
925,185000.0,8.001599311828612,3.0269205570220947,-1.1988041400909424
926,185200.0,9.260223388671877,2.744567632675171,-0.672383189201355
927,185400.0,10.241281509399414,4.421936511993408,-0.3732803165912628
928,185600.0,10.241281509399414,4.421936511993408,-0.3732803165912628
929,185800.0,9.131011009216307,2.1535403728485107,-1.6725829839706419
930,186000.0,10.336994171142578,3.608376264572144,0.26081767678260803
931,186200.0,9.269794464111328,3.0460631847381587,0.01914258114993572
932,186400.0,8.135597229003906,2.258824586868286,0.3206382095813751
933,186600.0,10.77727222442627,4.620540142059326,-1.1389836072921753
934,186800.0,8.98265552520752,2.3401806354522705,-2.2779672145843506
935,187000.0,8.98265552520752,2.3401806354522705,-2.2779672145843506
936,187200.0,11.097911834716797,2.8139593601226807,-0.8542376756668091
937,187400.0,8.82951545715332,3.10109806060791,-1.043270707130432
938,187600.0,9.461220741271973,1.4069796800613403,-1.6941183805465698
939,187800.0,12.54317569732666,3.218346357345581,-2.09850549697876
940,188000.0,7.097111701965332,3.268595933914185,-1.4213367700576782
941,188200.0,7.097111701965332,3.268595933914185,-1.4213367700576782
942,188400.0,12.04068374633789,0.413958340883255,-2.868994235992432
943,188600.0,9.049654960632324,3.10109806060791,-1.0289137363433838
944,188800.0,9.489934921264648,2.3162522315979004,-0.794417142868042
945,189000.0,10.418350219726562,3.845265865325928,-0.4091726541519165
946,189200.0,11.394620895385742,1.6773687601089478,0.7752745151519775
947,189400.0,2.1343977451324463,0.0526420958340168,1.4907284975051882
948,189600.0,2.1343977451324463,0.0526420958340168,1.4907284975051882
