timestamp,ax,ay,az
1481950858098,9.154938697814941,2.3162522315979004,-3.4719858169555664
1481950858333,8.949156761169434,2.2133607864379883,-2.8977081775665283
1481950858563,8.886943817138672,2.2947168350219727,-2.9312076568603516
1481950858764,8.973085403442383,2.210968255996704,-3.029313325881958
1481950859002,8.958727836608887,2.2683956623077393,-2.974278450012207
1481950859242,8.886943817138672,2.2540390491485596,-2.974278450012207
1481950859481,8.920442581176758,2.2779672145843506,-2.912065029144287
1481950859703,8.968299865722656,2.335394859313965,-2.912065029144287
1481950859930,8.98265552520752,2.289931058883667,-2.837887763977051
1481950860158,8.963513374328613,2.313859462738037,-2.878565788269043
1481950860360,9.001798629760742,2.311466693878174,-2.9048867225646973
1481950860597,8.973085403442383,2.342573404312134,-2.830709218978882
1481950860801,8.973085403442383,2.3473589420318604,-2.8594231605529785
1481950861042,8.949156761169434,2.2612173557281494,-2.857030153274536
1481950861277,9.006584167480469,2.313859462738037,-2.849851608276367
1481950861478,8.934800148010254,2.249253273010254,-2.8354949951171875
1481950861725,8.949156761169434,2.2923240661621094,-2.7972097396850586
1481950861957,8.987441062927246,2.282752752304077,-2.8283162117004395
1481950862194,9.030512809753418,2.273181438446045,-2.8929224014282227
1481950862395,9.001798629760742,2.232503652572632,-2.7804601192474365
1481950862635,9.006584167480469,2.210968255996704,-2.715853452682495
1481950862874,8.939584732055664,2.1607186794281006,-2.809173583984375
1481950863101,8.992227554321289,2.297109842300415,-2.7637100219726562
1481950863322,8.925228118896484,2.225324869155884,-2.8522443771362305
1481950863554,8.987441062927246,2.263610363006592,-2.830709218978882
1481950863769,9.054441452026367,2.287538528442383,-2.7326035499572754
1481950863993,9.016156196594238,2.258824586868286,-2.8666017055511475
1481950864231,9.006584167480469,2.3473589420318604,-2.737389087677002
1481950864471,9.035298347473145,2.187039852142334,-2.768495798110962
1481950864683,9.030512809753418,2.289931058883667,-2.770888566970825
1481950864917,8.963513374328613,2.148754596710205,-2.7110681533813477
1481950865120,9.06879711151123,2.2851457595825195,-2.7421746253967285
1481950865349,8.901299476623535,2.266003131866455,-2.9312076568603516
1481950865589,8.949156761169434,2.3090739250183105,-2.8043880462646484
1481950865827,8.896513938903809,2.2229323387145996,-2.8283162117004395
1481950866028,8.97787094116211,2.218146562576294,-2.785245418548584
1481950866250,8.920442581176758,2.266003131866455,-2.7182462215423584
1481950866495,9.011369705200195,2.2157537937164307,-2.8211379051208496
1481950866717,8.963513374328613,2.196611166000366,-2.7661027908325195
1481950866945,9.001798629760742,2.1535403728485107,-2.7565319538116455
1481950867162,9.06879711151123,2.1535403728485107,-2.8522443771362305
1481950867386,9.059226989746094,2.1296122074127197,-2.71346116065979
1481950867625,8.973085403442383,2.0650060176849365,-2.730210542678833
1481950867864,8.944371223449707,2.163111686706543,-2.7876384258270264
1481950868079,9.054441452026367,2.234896183013916,-2.8354949951171875
1481950868311,9.044869422912598,2.196611166000366,-2.6703903675079346
1481950868544,9.035298347473145,2.172683000564575,-2.8187451362609863
1481950868754,9.035298347473145,2.196611166000366,-2.8115665912628174
1481950868982,8.992227554321289,2.124826431274414,-2.7493534088134766
1481950869222,8.997013092041016,2.122433662414551,-2.785245418548584
1481950869462,9.011369705200195,2.177468776702881,-2.723031997680664
1481950869676,9.035298347473145,2.1511476039886475,-2.8115665912628174
1481950869890,9.040083885192871,2.1415762901306152,-2.825923442840576
1481950870109,8.944371223449707,2.1607186794281006,-2.8689942359924316
1481950870340,9.016156196594238,2.0817556381225586,-2.878565788269043
1481950870579,9.040083885192871,2.210968255996704,-2.746960401535034
1481950870819,9.078369140625,2.2205395698547363,-2.7732813358306885
1481950871058,9.087940216064453,2.242074966430664,-2.888136863708496
1481950871275,9.020941734313965,2.196611166000366,-2.706282377243042
1481950871506,9.006584167480469,2.1511476039886475,-2.746960401535034
1481950871739,8.997013092041016,2.1846470832824707,-2.715853452682495
1481950871976,9.09272575378418,2.1918253898620605,-2.768495798110962
1481950872216,9.06401252746582,2.234896183013916,-2.823530912399292
1481950872455,9.006584167480469,2.2061824798583984,-2.7038896083831787
1481950872701,9.044869422912598,2.1583259105682373,-2.849851608276367
1481950872905,9.011369705200195,2.1583259105682373,-2.7278177738189697
1481950873134,9.044869422912598,2.1272192001342773,-2.6943180561065674
1481950873374,9.025726318359375,2.177468776702881,-2.7828526496887207
1481950873613,9.044869422912598,2.1678972244262695,-2.720639228820801
1481950873876,8.997013092041016,2.139183282852173,-2.8211379051208496
1481950874101,8.98265552520752,2.146361827850342,-2.723031997680664
1481950874332,8.886943817138672,2.1607186794281006,-2.8426735401153564
1481950874546,9.011369705200195,2.187039852142334,-2.8139593601226807
1481950874771,9.011369705200195,2.187039852142334,-2.7661027908325195
1481950875010,9.030512809753418,2.1200408935546875,-2.761317014694214
1481950875250,8.98265552520752,2.170289993286133,-2.8067808151245117
1481950875467,9.016156196594238,2.225324869155884,-2.823530912399292
1481950875694,9.025726318359375,2.172683000564575,-2.8450663089752197
1481950875896,9.040083885192871,2.170289993286133,-2.8211379051208496
1481950876128,8.930014610290527,2.1128623485565186,-2.7589242458343506
1481950876368,8.97787094116211,2.148754596710205,-2.7110681533813477
1481950876570,9.040083885192871,2.196611166000366,-2.691925525665283
1481950876809,9.040083885192871,2.163111686706543,-2.7565319538116455
1481950877045,9.035298347473145,2.179861307144165,-2.7326035499572754
1481950877264,9.044869422912598,2.1128623485565186,-2.6632115840911865
1481950877496,9.006584167480469,2.0793628692626953,-2.7637100219726562
1481950877725,9.011369705200195,2.1128623485565186,-2.7086753845214844
1481950877962,9.083154678344727,2.1104695796966553,-2.667997360229492
1481950878204,9.083154678344727,2.0482561588287354,-2.6799612045288086
1481950878429,9.06401252746582,2.100898265838623,-2.6560330390930176
1481950878647,9.040083885192871,2.155933380126953,-2.7493534088134766
1481950878862,9.10229778289795,2.155933380126953,-2.644068956375122
1481950879091,9.06401252746582,2.1032910346984863,-2.7565319538116455
1481950879292,8.98265552520752,2.108076810836792,-2.7110681533813477
1481950879524,9.001798629760742,2.1535403728485107,-2.830709218978882
1481950879760,8.949156761169434,2.177468776702881,-2.7828526496887207
1481950880000,8.958727836608887,2.1128623485565186,-2.7589242458343506
1481950880242,9.059226989746094,2.2468602657318115,-2.8115665912628174
1481950880462,9.035298347473145,2.2085752487182617,-2.7828526496887207
1481950880687,9.040083885192871,2.2157537937164307,-2.857030153274536
1481950880928,9.016156196594238,2.163111686706543,-2.75174617767334
1481950881159,9.001798629760742,2.2301106452941895,-2.9168508052825928
1481950881398,9.083154678344727,2.218146562576294,-2.8450663089752197
1481950881637,8.934800148010254,2.225324869155884,-2.857030153274536
1481950881853,8.973085403442383,2.2157537937164307,-2.8067808151245117
1481950882066,9.006584167480469,2.2061824798583984,-2.840280532836914
1481950882284,9.044869422912598,2.2205395698547363,-2.7732813358306885
1481950882514,8.968299865722656,2.1583259105682373,-2.8139593601226807
1481950882731,8.97787094116211,2.1511476039886475,-2.857030153274536
1481950882953,8.97787094116211,2.263610363006592,-2.8450663089752197
1481950883194,8.997013092041016,2.187039852142334,-2.8905296325683594
1481950883451,8.930014610290527,2.273181438446045,-2.7421746253967285
1481950883659,8.973085403442383,2.1990041732788086,-2.7900311946868896
1481950883881,9.011369705200195,2.3162522315979004,-2.8833510875701904
1481950884113,9.09272575378418,2.342573404312134,-2.7637100219726562
1481950884327,8.95394229888916,2.1439690589904785,-2.864208698272705
1481950884552,9.030512809753418,2.266003131866455,-2.775674343109131
1481950884791,8.944371223449707,2.163111686706543,-2.801995038986206
1481950885030,8.949156761169434,2.091326951980591,-2.8426735401153564
1481950885265,8.97787094116211,2.170289993286133,-2.871387243270874
1481950885477,8.906085968017578,2.251646041870117,-2.8283162117004395
1481950885707,9.006584167480469,2.203789472579956,-2.8187451362609863
1481950885908,9.083154678344727,2.196611166000366,-2.8426735401153564
1481950886147,9.030512809753418,2.2444677352905273,-2.7565319538116455
1481950886390,9.011369705200195,2.249253273010254,-2.6943180561065674
1481950886612,8.987441062927246,2.155933380126953,-2.7637100219726562
1481950886825,8.944371223449707,2.251646041870117,-2.7493534088134766
1481950887050,8.98265552520752,2.227717876434326,-2.737389087677002
1481950887279,9.06401252746582,2.2013967037200928,-2.8115665912628174
1481950887506,9.087940216064453,2.2205395698547363,-2.854637384414673
1481950887711,9.016156196594238,2.163111686706543,-2.7732813358306885
1481950887944,9.040083885192871,2.187039852142334,-2.7038896083831787
1481950888184,9.06879711151123,2.266003131866455,-2.68953275680542
1481950888423,9.044869422912598,2.177468776702881,-2.65842604637146
1481950888641,9.035298347473145,2.2947168350219727,-2.8354949951171875
1481950888872,9.011369705200195,2.2205395698547363,-2.6847469806671143
1481950889073,9.025726318359375,2.1511476039886475,-2.720639228820801
1481950889304,9.054441452026367,2.263610363006592,-2.785245418548584
1481950889510,8.97787094116211,2.196611166000366,-2.761317014694214
1481950889741,8.901299476623535,2.172683000564575,-2.7086753845214844
1481950889981,9.073582649230957,2.1678972244262695,-2.6608188152313232
1481950890228,9.020941734313965,2.3162522315979004,-2.809173583984375
1481950890446,8.944371223449707,2.2468602657318115,-2.6703903675079346
1481950890666,9.049654960632324,2.1822540760040283,-2.830709218978882
1481950890868,9.025726318359375,2.2540390491485596,-2.768495798110962
1481950891098,8.963513374328613,2.1750757694244385,-2.809173583984375
1481950891338,8.910871505737305,2.2085752487182617,-2.7278177738189697
1481950891578,9.044869422912598,2.3330020904541016,-2.8594231605529785
1481950891817,8.939584732055664,2.194218397140503,-2.8187451362609863
1481950892033,9.054441452026367,2.297109842300415,-2.7349963188171387
1481950892263,8.973085403442383,2.2612173557281494,-2.761317014694214
1481950892465,8.992227554321289,2.187039852142334,-2.7397818565368652
1481950892695,8.987441062927246,2.227717876434326,-2.7421746253967285
1481950892935,9.049654960632324,2.2755744457244873,-2.7254250049591064
1481950893173,8.997013092041016,2.1918253898620605,-2.7493534088134766
1481950893414,9.006584167480469,2.172683000564575,-2.6775684356689453
1481950893626,9.016156196594238,2.1607186794281006,-2.8283162117004395
1481950893863,9.020941734313965,2.232503652572632,-2.720639228820801
1481950894093,9.040083885192871,2.139183282852173,-2.730210542678833
1481950894334,9.054441452026367,2.1846470832824707,-2.7110681533813477
1481950894572,9.001798629760742,2.1990041732788086,-2.6799612045288086
1481950894811,9.044869422912598,2.1296122074127197,-2.7732813358306885
1481950895034,8.987441062927246,2.187039852142334,-2.68953275680542
1481950895259,9.035298347473145,2.172683000564575,-2.68953275680542
1481950895487,9.006584167480469,2.2372891902923584,-2.723031997680664
1481950895704,9.020941734313965,2.1918253898620605,-2.6727826595306396
1481950895929,9.001798629760742,2.1296122074127197,-2.7326035499572754
1481950896169,8.98265552520752,2.1750757694244385,-2.778067111968994
1481950896408,8.997013092041016,2.146361827850342,-2.723031997680664
1481950896632,9.030512809753418,2.122433662414551,-2.785245418548584
1481950896856,9.06401252746582,2.1607186794281006,-2.7182462215423584
1481950897088,9.09272575378418,2.1990041732788086,-2.7110681533813477
1481950897328,9.087940216064453,2.218146562576294,-2.720639228820801
1481950897566,9.06879711151123,2.1296122074127197,-2.7589242458343506
1481950897820,9.06401252746582,2.163111686706543,-2.7876384258270264
1481950898050,9.025726318359375,2.2133607864379883,-2.7110681533813477
1481950898253,8.98265552520752,2.076970100402832,-2.675175428390503
1481950898481,9.001798629760742,2.1583259105682373,-2.768495798110962
1481950898722,9.097511291503906,2.1272192001342773,-2.6727826595306396
1481950898924,9.09272575378418,2.155933380126953,-2.68953275680542
1481950899162,9.059226989746094,2.179861307144165,-2.715853452682495
1481950899391,9.016156196594238,2.1655044555664062,-2.6560330390930176
1481950899629,9.030512809753418,2.1750757694244385,-2.7589242458343506
1481950899851,9.06879711151123,2.155933380126953,-2.6536402702331543
1481950900081,9.126225471496582,2.163111686706543,-2.7278177738189697
1481950900297,9.054441452026367,2.0889341831207275,-2.7254250049591064
1481950900520,9.06401252746582,2.218146562576294,-2.720639228820801
1481950900760,9.030512809753418,2.093719720840454,-2.754138946533203
1481950900999,9.073582649230957,2.1367905139923096,-2.7349963188171387
1481950901205,8.944371223449707,2.0889341831207275,-2.761317014694214
1481950901448,9.035298347473145,2.172683000564575,-2.720639228820801
1481950901677,9.06879711151123,2.2085752487182617,-2.6775684356689453
1481950901921,9.001798629760742,2.1822540760040283,-2.801995038986206
1481950902155,8.98265552520752,2.1607186794281006,-2.7493534088134766
1481950902396,9.025726318359375,2.203789472579956,-2.6943180561065674
1481950902616,8.97787094116211,2.187039852142334,-2.8905296325683594
1481950902843,8.992227554321289,2.249253273010254,-2.7900311946868896
1481950903074,8.944371223449707,2.1750757694244385,-2.7637100219726562
1481950903314,9.040083885192871,2.263610363006592,-2.849851608276367
1481950903553,9.030512809753418,2.146361827850342,-2.627319574356079
1481950903754,9.020941734313965,2.1822540760040283,-2.6464619636535645
1481950903979,9.059226989746094,2.2157537937164307,-2.8211379051208496
1481950904195,9.016156196594238,2.2301106452941895,-2.744567632675171
1481950904404,8.997013092041016,2.2085752487182617,-2.6321046352386475
1481950904640,9.030512809753418,2.1200408935546875,-2.8666017055511475
1481950904883,8.987441062927246,2.2444677352905273,-2.7254250049591064
1481950905110,8.906085968017578,2.2396819591522217,-2.7876384258270264
1481950905375,9.016156196594238,2.3306093215942383,-2.7589242458343506
1481950905590,8.968299865722656,2.3497519493103027,-2.8522443771362305
1481950905813,8.992227554321289,2.196611166000366,-2.7326035499572754
1481950906038,8.987441062927246,2.2923240661621094,-2.816352128982544
1481950906269,9.006584167480469,2.3018953800201416,-2.5914268493652344
1481950906475,8.863015174865723,2.2540390491485596,-2.691925525665283
1481950906707,9.044869422912598,2.2947168350219727,-2.7589242458343506
1481950906947,8.968299865722656,2.2707886695861816,-2.7637100219726562
1481950907187,8.987441062927246,2.2013967037200928,-2.825923442840576
1481950907412,8.958727836608887,2.3162522315979004,-2.7326035499572754
1481950907636,9.054441452026367,2.337787628173828,-2.857030153274536
1481950907864,9.054441452026367,2.2444677352905273,-2.8067808151245117
1481950908072,8.98265552520752,2.242074966430664,-2.737389087677002
1481950908304,8.992227554321289,2.242074966430664,-2.861815929412842
1481950908544,8.949156761169434,2.242074966430664,-2.7828526496887207
1481950908784,8.901299476623535,2.249253273010254,-2.7900311946868896
1481950908996,9.030512809753418,2.2755744457244873,-2.8211379051208496
1481950909233,8.987441062927246,2.2779672145843506,-2.7804601192474365
1481950909463,8.987441062927246,2.2396819591522217,-2.778067111968994
1481950909705,9.006584167480469,2.2085752487182617,-2.7421746253967285
1481950909941,8.863015174865723,2.1678972244262695,-2.8522443771362305
1481950910143,9.140583038330078,2.2707886695861816,-2.809173583984375
1481950910364,9.06401252746582,2.2564315795898438,-2.6727826595306396
1481950910580,8.896513938903809,2.0554347038269043,-2.9383859634399414
1481950910827,8.958727836608887,2.2013967037200928,-2.8115665912628174
1481950911060,8.973085403442383,2.3162522315979004,-2.9001009464263916
1481950911267,8.987441062927246,2.251646041870117,-2.823530912399292
1481950911499,9.030512809753418,2.155933380126953,-2.825923442840576
1481950911737,8.992227554321289,2.232503652572632,-2.8450663089752197
1481950911977,9.030512809753418,2.2061824798583984,-2.919243574142456
1481950912202,9.030512809753418,2.2564315795898438,-2.857030153274536
1481950912425,8.968299865722656,2.1511476039886475,-2.888136863708496
1481950912655,8.997013092041016,2.2229323387145996,-2.8737800121307373
1481950912895,9.040083885192871,2.1990041732788086,-2.943171739578247
1481950913135,9.044869422912598,2.225324869155884,-2.9790639877319336
1481950913374,8.968299865722656,2.210968255996704,-2.933600425720215
1481950913575,9.006584167480469,2.266003131866455,-2.964707374572754
1481950913824,9.035298347473145,2.163111686706543,-2.768495798110962
1481950914054,9.059226989746094,2.084148406982422,-2.8043880462646484
1481950914292,8.925228118896484,2.2779672145843506,-2.861815929412842
1481950914532,8.963513374328613,2.0171494483947754,-3.077169895172119
1481950914771,8.915657043457031,2.069791555404663,-2.8833510875701904
1481950914989,8.930014610290527,2.0793628692626953,-2.9766712188720703
1481950915221,9.111868858337402,1.9740787744522095,-2.8689942359924316
1481950915452,8.95394229888916,2.108076810836792,-3.0484561920166016
1481950915692,8.886943817138672,2.1032910346984863,-2.912065029144287
1481950915930,8.944371223449707,2.1128623485565186,-2.7589242458343506
1481950916170,9.10229778289795,2.0338993072509766,-2.8354949951171875
1481950916390,9.025726318359375,2.124826431274414,-2.981456995010376
1481950916618,8.920442581176758,2.163111686706543,-2.691925525665283
1481950916863,9.020941734313965,2.1607186794281006,-2.7972097396850586
1481950917086,8.934800148010254,2.1511476039886475,-2.7349963188171387
1481950917288,9.083154678344727,2.1990041732788086,-2.830709218978882
1481950917525,9.001798629760742,2.060220241546631,-2.6847469806671143
1481950917760,9.040083885192871,2.2133607864379883,-2.7565319538116455
1481950917965,8.997013092041016,2.0865414142608643,-2.6153552532196045
1481950918187,9.06401252746582,2.155933380126953,-2.6847469806671143
1481950918411,9.073582649230957,2.266003131866455,-2.7637100219726562
1481950918612,9.001798629760742,2.1296122074127197,-2.8043880462646484
1481950918842,8.98265552520752,2.1535403728485107,-2.830709218978882
1481950919043,8.968299865722656,2.172683000564575,-2.6775684356689453
1481950919282,9.020941734313965,2.084148406982422,-2.7589242458343506
1481950919522,8.992227554321289,2.1846470832824707,-2.761317014694214
1481950919754,9.011369705200195,2.2013967037200928,-2.857030153274536
1481950919961,9.016156196594238,2.100898265838623,-2.888136863708496
1481950920183,8.944371223449707,2.1104695796966553,-2.840280532836914
1481950920407,8.95394229888916,2.155933380126953,-2.715853452682495
1481950920609,8.997013092041016,2.132004976272583,-2.9072794914245605
1481950920838,9.001798629760742,2.196611166000366,-2.715853452682495
1481950921039,8.997013092041016,2.148754596710205,-2.7565319538116455
1481950921279,8.997013092041016,2.172683000564575,-2.63449764251709
1481950921519,9.040083885192871,2.177468776702881,-2.612962245941162
1481950921758,9.020941734313965,2.218146562576294,-2.6799612045288086
1481950921974,8.997013092041016,2.203789472579956,-2.6488547325134277
1481950922207,9.06401252746582,2.196611166000366,-2.7972097396850586
1481950922437,9.040083885192871,2.1655044555664062,-2.715853452682495
1481950922653,9.06401252746582,2.2444677352905273,-2.6967110633850098
1481950922876,9.001798629760742,2.2061824798583984,-2.6871397495269775
1481950923115,8.97787094116211,2.1439690589904785,-2.667997360229492
1481950923379,9.011369705200195,2.1367905139923096,-2.7565319538116455
1481950923604,9.030512809753418,2.225324869155884,-2.7326035499572754
1481950923833,8.987441062927246,2.1367905139923096,-2.770888566970825
1481950924043,8.97787094116211,2.163111686706543,-2.7828526496887207
1481950924273,9.030512809753418,2.2061824798583984,-2.8450663089752197
1481950924512,8.997013092041016,2.2133607864379883,-2.7565319538116455
1481950924752,8.973085403442383,2.258824586868286,-2.8977081775665283
1481950924964,8.997013092041016,2.132004976272583,-2.7828526496887207
1481950925200,9.06879711151123,2.3162522315979004,-2.7326035499572754
1481950925432,9.040083885192871,2.218146562576294,-2.629711866378784
1481950925671,9.044869422912598,2.187039852142334,-2.754138946533203
1481950925910,8.934800148010254,2.1918253898620605,-2.778067111968994
1481950926150,8.944371223449707,2.1343977451324463,-2.620140790939331
1481950926375,9.044869422912598,2.328216552734375,-2.864208698272705
1481950926597,9.06879711151123,2.194218397140503,-2.9144580364227295
1481950926825,9.059226989746094,2.187039852142334,-2.644068956375122
1481950927033,9.035298347473145,2.2013967037200928,-2.730210542678833
1481950927267,9.087940216064453,2.132004976272583,-2.723031997680664
1481950927506,8.987441062927246,2.196611166000366,-2.761317014694214
1481950927746,9.140583038330078,2.0482561588287354,-2.7589242458343506
1481950927962,9.073582649230957,2.179861307144165,-2.531606435775757
1481950928192,8.987441062927246,2.093719720840454,-2.6799612045288086
1481950928396,9.020941734313965,2.1439690589904785,-2.6177480220794678
1481950928624,9.044869422912598,2.1750757694244385,-2.823530912399292
1481950928863,9.030512809753418,2.148754596710205,-2.6608188152313232
1481950929105,9.025726318359375,2.2229323387145996,-2.737389087677002
1481950929343,9.025726318359375,2.1655044555664062,-2.651247262954712
1481950929551,9.035298347473145,2.146361827850342,-2.75174617767334
1481950929793,9.011369705200195,2.1272192001342773,-2.7182462215423584
1481950930021,9.001798629760742,2.091326951980591,-2.75174617767334
1481950930261,8.973085403442383,2.117647886276245,-2.801995038986206
1481950930500,9.073582649230957,2.163111686706543,-2.691925525665283
1481950930740,9.044869422912598,2.117647886276245,-2.75174617767334
1481950930956,9.030512809753418,2.076970100402832,-2.706282377243042
1481950931186,8.97787094116211,2.091326951980591,-2.68953275680542
1481950931388,9.049654960632324,2.187039852142334,-2.7661027908325195
1481950931617,9.011369705200195,2.194218397140503,-2.6775684356689453
1481950931858,9.040083885192871,2.0793628692626953,-2.71346116065979
1481950932098,9.035298347473145,2.1583259105682373,-2.71346116065979
1481950932337,8.95394229888916,2.0195422172546387,-2.667997360229492
1481950932555,9.001798629760742,2.0793628692626953,-2.620140790939331
1481950932785,9.049654960632324,2.1296122074127197,-2.5866410732269287
1481950933026,9.06879711151123,2.093719720840454,-2.6847469806671143
1481950933255,9.121439933776855,1.954936146736145,-2.799602746963501
1481950933495,9.049654960632324,2.0171494483947754,-2.538784980773926
1481950933734,9.111868858337402,1.9812570810317993,-2.565105676651001
1481950933955,9.116654396057129,2.069791555404663,-2.486142873764038
1481950934182,9.121439933776855,2.060220241546631,-2.548356056213379
1481950934411,9.087940216064453,2.0961124897003174,-2.562713146209717
1481950934623,9.044869422912598,2.091326951980591,-2.548356056213379
1481950934851,9.083154678344727,2.1128623485565186,-2.6632115840911865
1481950935095,9.059226989746094,2.187039852142334,-2.5220348834991455
1481950935332,9.116654396057129,2.0961124897003174,-2.8737800121307373
1481950935548,9.06879711151123,2.1750757694244385,-2.71346116065979
1481950935778,9.011369705200195,2.0650060176849365,-2.65842604637146
1481950935980,9.116654396057129,2.093719720840454,-2.620140790939331
1481950936208,9.09272575378418,2.2444677352905273,-2.629711866378784
1481950936410,9.049654960632324,2.194218397140503,-2.7110681533813477
1481950936647,8.968299865722656,2.1655044555664062,-2.565105676651001
1481950936848,9.044869422912598,2.1655044555664062,-2.6703903675079346
1481950937088,9.049654960632324,2.196611166000366,-2.641676187515259
1481950937327,9.030512809753418,2.203789472579956,-2.6632115840911865
1481950937574,9.054441452026367,2.1846470832824707,-2.665604591369629
1481950937776,9.09272575378418,2.2133607864379883,-2.665604591369629
1481950938006,9.169296264648438,2.218146562576294,-2.7086753845214844
1481950938245,9.020941734313965,2.2229323387145996,-2.6464619636535645
1481950938483,9.10229778289795,2.203789472579956,-2.6488547325134277
1481950938684,9.087940216064453,2.232503652572632,-2.65842604637146
1481950938912,9.078369140625,2.146361827850342,-2.5674986839294434
1481950939124,9.083154678344727,2.1607186794281006,-2.612962245941162
1481950939335,9.011369705200195,2.146361827850342,-2.6727826595306396
1481950939573,9.06401252746582,2.132004976272583,-2.6871397495269775
1481950939803,9.054441452026367,2.053041696548462,-2.6225337982177734
1481950940009,9.035298347473145,2.0482561588287354,-2.6799612045288086
1481950940242,9.06879711151123,2.1439690589904785,-2.6081764698028564
1481950940481,9.044869422912598,2.1846470832824707,-2.6703903675079346
1481950940721,9.059226989746094,2.155933380126953,-2.65842604637146
1481950940941,8.98265552520752,2.1272192001342773,-2.6632115840911865
1481950941167,9.016156196594238,2.1535403728485107,-2.5698914527893066
1481950941399,9.10229778289795,2.196611166000366,-2.610569477081299
1481950941612,9.078369140625,2.2013967037200928,-2.548356056213379
1481950941837,9.09272575378418,2.187039852142334,-2.5220348834991455
1481950942038,9.087940216064453,2.1128623485565186,-2.5531415939331055
1481950942278,9.121439933776855,2.1535403728485107,-2.6799612045288086
1481950942507,9.040083885192871,2.187039852142334,-2.562713146209717
1481950942718,9.006584167480469,2.0267207622528076,-2.5842485427856445
1481950942937,9.135796546936035,2.0961124897003174,-2.502892255783081
1481950943163,9.126225471496582,2.2013967037200928,-2.562713146209717
1481950943366,9.10229778289795,2.1439690589904785,-2.5124638080596924
1481950943595,9.030512809753418,2.1535403728485107,-2.4191436767578125
1481950943802,9.126225471496582,2.2301106452941895,-2.4335007667541504
1481950944034,9.06879711151123,2.060220241546631,-2.4837498664855957
1481950944274,9.083154678344727,2.163111686706543,-2.4909284114837646
1481950944513,9.159724235534668,2.146361827850342,-2.4406790733337402
1481950944722,9.107083320617676,2.1343977451324463,-2.5004994869232178
1481950944964,9.135796546936035,2.148754596710205,-2.4047868251800537
1481950945191,9.049654960632324,2.0171494483947754,-2.5531415939331055
1481950945407,9.09272575378418,2.132004976272583,-2.455036163330078
1481950945630,9.10229778289795,2.0865414142608643,-2.486142873764038
1481950945870,9.17886734008789,2.0793628692626953,-2.557927370071411
1481950946110,9.107083320617676,2.1655044555664062,-2.455036163330078
1481950946335,9.150154113769531,2.225324869155884,-2.5459630489349365
1481950946558,9.10229778289795,2.1894328594207764,-2.416750907897949
1481950946803,9.140583038330078,2.1200408935546875,-2.5292134284973145
1481950947029,9.145368576049805,2.1296122074127197,-2.5459630489349365
1481950947268,9.111868858337402,2.2085752487182617,-2.51007080078125
1481950947507,9.111868858337402,2.177468776702881,-2.5363922119140625
1481950947724,9.083154678344727,2.1535403728485107,-2.4646072387695312
1481950947952,9.150154113769531,2.2133607864379883,-2.555534601211548
1481950948154,9.078369140625,2.1655044555664062,-2.5148565769195557
1481950948355,9.035298347473145,2.187039852142334,-2.5842485427856445
1481950948584,9.135796546936035,2.194218397140503,-2.51007080078125
1481950948785,9.17886734008789,2.060220241546631,-2.4095723628997803
1481950949022,9.154938697814941,2.1056838035583496,-2.610569477081299
1481950949263,8.963513374328613,2.163111686706543,-2.51007080078125
1481950949490,9.030512809753418,2.1343977451324463,-2.5603203773498535
1481950949703,9.09272575378418,2.210968255996704,-2.5603203773498535
1481950949925,9.073582649230957,2.1343977451324463,-2.5914268493652344
1481950950152,9.09272575378418,2.1990041732788086,-2.5746772289276123
1481950950393,9.10229778289795,2.1655044555664062,-2.6057839393615723
1481950950622,9.073582649230957,2.1296122074127197,-2.5459630489349365
1481950950861,9.06879711151123,2.2468602657318115,-2.610569477081299
1481950951101,9.073582649230957,2.1655044555664062,-2.4646072387695312
1481950951350,9.083154678344727,2.2205395698547363,-2.557927370071411
1481950951578,9.078369140625,2.021935224533081,-2.476571559906006
1481950951818,9.09272575378418,2.225324869155884,-2.541177749633789
1481950952058,9.111868858337402,2.146361827850342,-2.5459630489349365
1481950952296,9.073582649230957,2.0817556381225586,-2.531606435775757
1481950952499,9.059226989746094,2.177468776702881,-2.476571559906006
1481950952745,9.10229778289795,2.139183282852173,-2.5435702800750732
1481950952976,9.121439933776855,2.225324869155884,-2.5148565769195557
1481950953216,9.107083320617676,2.179861307144165,-2.5004994869232178
1481950953456,9.135796546936035,2.172683000564575,-2.5986053943634033
1481950953695,9.083154678344727,2.132004976272583,-2.476571559906006
1481950953919,9.135796546936035,1.9573287963867188,-2.3569302558898926
1481950954147,9.030512809753418,2.1439690589904785,-2.3258235454559326
1481950954375,9.035298347473145,2.0793628692626953,-2.548356056213379
1481950954590,9.06401252746582,2.1535403728485107,-2.4430718421936035
1481950954813,9.040083885192871,2.139183282852173,-2.5746772289276123
1481950955052,9.087940216064453,2.1343977451324463,-2.51007080078125
1481950955292,9.073582649230957,2.1655044555664062,-2.4406790733337402
1481950955519,9.06401252746582,2.091326951980591,-2.579463005065918
1481950955738,9.111868858337402,2.1583259105682373,-2.5220348834991455
1481950955941,8.997013092041016,2.03629207611084,-2.65842604637146
1481950956172,9.016156196594238,2.115255117416382,-2.5124638080596924
1481950956410,9.06401252746582,2.4406790733337402,-2.71346116065979
1481950956650,9.073582649230957,2.187039852142334,-2.548356056213379
1481950956889,8.97787094116211,2.3784656524658203,-2.7828526496887207
1481950957107,9.054441452026367,2.3401806354522705,-2.4981069564819336
1481950957335,9.06401252746582,2.2157537937164307,-2.5196423530578613
1481950957538,9.059226989746094,2.313859462738037,-2.644068956375122
1481950957767,9.059226989746094,2.227717876434326,-2.675175428390503
1481950958006,9.001798629760742,2.273181438446045,-2.5866410732269287
1481950958245,8.997013092041016,2.132004976272583,-2.612962245941162
1481950958446,9.135796546936035,2.1990041732788086,-2.629711866378784
1481950958672,9.06401252746582,2.2779672145843506,-2.565105676651001
1481950958882,9.145368576049805,2.2157537937164307,-2.579463005065918
1481950959100,9.06401252746582,2.196611166000366,-2.5004994869232178
1481950959334,9.107083320617676,2.2157537937164307,-2.589033842086792
1481950959564,9.06879711151123,2.187039852142334,-2.562713146209717
1481950959803,9.083154678344727,2.2229323387145996,-2.691925525665283
1481950960042,9.150154113769531,2.234896183013916,-2.6392831802368164
1481950960282,8.853443145751953,2.1415762901306152,-2.3808584213256836
1481950960504,9.049654960632324,2.344966173171997,-2.723031997680664
1481950960727,9.145368576049805,2.3545374870300293,-2.5842485427856445
1481950960930,8.958727836608887,2.4358932971954346,-2.538784980773926
1481950961162,9.040083885192871,2.234896183013916,-2.526820659637451
1481950961401,9.044869422912598,2.304288148880005,-2.4741785526275635
1481950961640,9.078369140625,2.2372891902923584,-2.4263222217559814
1481950961877,9.030512809753418,2.2157537937164307,-2.579463005065918
1481950962106,9.087940216064453,2.2995026111602783,-2.5124638080596924
1481950962327,9.09272575378418,2.2301106452941895,-2.524427890777588
1481950962559,9.06879711151123,2.1894328594207764,-2.431107759475708
1481950962798,9.159724235534668,2.1990041732788086,-2.445464611053467
1481950963036,9.025726318359375,2.2707886695861816,-2.469392776489258
1481950963276,9.078369140625,2.0338993072509766,-2.5770699977874756
1481950963495,9.198010444641113,2.069791555404663,-2.5148565769195557
1481950963723,9.111868858337402,2.155933380126953,-2.502892255783081
1481950963924,9.159724235534668,2.148754596710205,-2.555534601211548
1481950964155,9.054441452026367,2.1343977451324463,-2.6703903675079346
1481950964395,9.116654396057129,2.062613010406494,-2.6177480220794678
1481950964633,9.06401252746582,2.060220241546631,-2.6560330390930176
1481950964874,9.044869422912598,2.0961124897003174,-2.6081764698028564
1481950965079,9.06401252746582,2.210968255996704,-2.651247262954712
1481950965322,9.116654396057129,2.1032910346984863,-2.6775684356689453
1481950965550,9.087940216064453,2.053041696548462,-2.5220348834991455
1481950965766,9.073582649230957,2.0817556381225586,-2.627319574356079
1481950965991,9.040083885192871,2.1678972244262695,-2.550748825073242
1481950966192,9.06879711151123,2.038684844970703,-2.651247262954712
1481950966430,9.087940216064453,2.0889341831207275,-2.620140790939331
1481950966668,9.111868858337402,2.100898265838623,-2.5196423530578613
1481950966869,8.958727836608887,2.021935224533081,-2.555534601211548
1481950967085,9.116654396057129,2.1990041732788086,-2.6967110633850098
1481950967317,9.111868858337402,2.043470621109009,-2.4957141876220703
1481950967547,9.078369140625,2.1272192001342773,-2.476571559906006
1481950967761,9.087940216064453,2.2707886695861816,-2.667997360229492
1481950967987,8.987441062927246,2.03629207611084,-2.612962245941162
1481950968188,9.025726318359375,2.060220241546631,-2.3736801147460938
1481950968425,9.073582649230957,2.2157537937164307,-2.5435702800750732
1481950968626,9.145368576049805,2.146361827850342,-2.4909284114837646
1481950968863,9.06401252746582,2.170289993286133,-2.5435702800750732
1481950969064,9.06401252746582,2.210968255996704,-2.550748825073242
1481950969281,9.025726318359375,2.1200408935546875,-2.579463005065918
1481950969511,9.016156196594238,2.1296122074127197,-2.57228422164917
1481950969751,9.111868858337402,2.218146562576294,-2.6177480220794678
1481950969983,9.09272575378418,2.1846470832824707,-2.589033842086792
1481950970223,9.150154113769531,2.227717876434326,-2.6608188152313232
1481950970461,9.097511291503906,2.249253273010254,-2.63449764251709
1481950970687,9.121439933776855,2.2013967037200928,-2.7038896083831787
1481950970910,9.250652313232422,2.1894328594207764,-2.5076780319213867
1481950971140,9.111868858337402,2.1990041732788086,-2.5698914527893066
1481950971355,9.083154678344727,2.100898265838623,-2.6560330390930176
1481950971582,9.121439933776855,2.177468776702881,-2.6464619636535645
1481950971821,9.116654396057129,2.122433662414551,-2.675175428390503
1481950972059,9.054441452026367,2.1990041732788086,-2.6153552532196045
1481950972281,9.107083320617676,2.2444677352905273,-2.629711866378784
1481950972508,9.073582649230957,2.108076810836792,-2.6943180561065674
1481950972737,9.059226989746094,2.1846470832824707,-2.6488547325134277
1481950972951,8.987441062927246,2.1343977451324463,-2.682354211807251
1481950973176,9.016156196594238,2.155933380126953,-2.6392831802368164
1481950973416,9.09272575378418,2.187039852142334,-2.723031997680664
1481950973681,8.992227554321289,2.196611166000366,-2.610569477081299
1481950973887,9.016156196594238,2.1990041732788086,-2.6009981632232666
1481950974105,9.040083885192871,2.1272192001342773,-2.6775684356689453
1481950974335,9.049654960632324,2.108076810836792,-2.6608188152313232
1481950974549,9.054441452026367,2.172683000564575,-2.6488547325134277
1481950974773,9.083154678344727,2.163111686706543,-2.691925525665283
1481950975015,9.06879711151123,2.1607186794281006,-2.641676187515259
1481950975253,9.054441452026367,2.1439690589904785,-2.667997360229492
1481950975477,9.126225471496582,2.1918253898620605,-2.691925525665283
1481950975699,9.121439933776855,2.1990041732788086,-2.665604591369629
1481950975931,9.087940216064453,2.060220241546631,-2.6560330390930176
1481950976138,9.073582649230957,2.117647886276245,-2.555534601211548
1481950976373,9.140583038330078,2.1367905139923096,-2.6608188152313232
1481950976609,9.083154678344727,2.1128623485565186,-2.6321046352386475
1481950976849,9.107083320617676,2.163111686706543,-2.6321046352386475
1481950977076,9.073582649230957,2.1583259105682373,-2.785245418548584
1481950977298,8.997013092041016,2.0793628692626953,-2.6488547325134277
1481950977528,9.040083885192871,2.021935224533081,-2.737389087677002
1481950977736,9.049654960632324,2.0745770931243896,-2.651247262954712
1481950977967,9.083154678344727,2.148754596710205,-2.7110681533813477
1481950978207,9.059226989746094,2.1128623485565186,-2.6488547325134277
1481950978447,8.987441062927246,2.1511476039886475,-2.675175428390503
1481950978695,9.135796546936035,2.084148406982422,-2.667997360229492
1481950978924,9.001798629760742,2.1272192001342773,-2.7397818565368652
1481950979142,9.049654960632324,2.1655044555664062,-2.778067111968994
1481950979365,9.06879711151123,2.0673987865448,-2.723031997680664
1481950979566,8.973085403442383,2.069791555404663,-2.7326035499572754
1481950979803,9.09272575378418,2.1750757694244385,-2.7493534088134766
1481950980029,9.097511291503906,2.196611166000366,-2.691925525665283
1481950980242,9.078369140625,2.124826431274414,-2.63449764251709
1481950980468,9.059226989746094,2.163111686706543,-2.7421746253967285
1481950980691,9.059226989746094,2.170289993286133,-2.730210542678833
1481950980922,9.049654960632324,2.1439690589904785,-2.7086753845214844
1481950981145,9.006584167480469,2.1200408935546875,-2.7804601192474365
1481950981361,9.09272575378418,2.1822540760040283,-2.6560330390930176
1481950981600,9.049654960632324,2.03629207611084,-2.7493534088134766
1481950981838,9.087940216064453,2.132004976272583,-2.691925525665283
1481950982055,9.111868858337402,2.1272192001342773,-2.6488547325134277
1481950982287,9.044869422912598,2.0027925968170166,-2.7732813358306885
1481950982524,9.011369705200195,1.9836499691009521,-2.589033842086792
1481950982757,9.073582649230957,2.0410776138305664,-2.816352128982544
1481950982960,9.054441452026367,2.0793628692626953,-2.667997360229492
1481950983199,9.020941734313965,2.021935224533081,-2.799602746963501
1481950983431,9.016156196594238,2.0650060176849365,-2.7038896083831787
1481950983634,9.097511291503906,2.0171494483947754,-2.629711866378784
1481950983863,9.111868858337402,2.0650060176849365,-2.7182462215423584
1481950984084,9.097511291503906,2.1583259105682373,-2.6488547325134277
1481950984314,9.078369140625,2.132004976272583,-2.6608188152313232
1481950984531,9.025726318359375,2.0961124897003174,-2.6081764698028564
1481950984754,9.10229778289795,2.0338993072509766,-2.6488547325134277
1481950984992,9.049654960632324,2.093719720840454,-2.557927370071411
1481950985233,9.044869422912598,2.1343977451324463,-2.7014968395233154
1481950985442,9.044869422912598,2.029113531112671,-2.6967110633850098
1481950985682,9.06879711151123,2.060220241546631,-2.5938196182250977
1481950985911,9.183652877807617,2.0506489276885986,-2.612962245941162
1481950986151,9.073582649230957,2.0865414142608643,-2.6153552532196045
1481950986353,9.097511291503906,2.062613010406494,-2.6632115840911865
1481950986591,9.06879711151123,2.093719720840454,-2.665604591369629
1481950986828,9.054441452026367,2.0482561588287354,-2.6177480220794678
1481950987050,9.054441452026367,1.9740787744522095,-2.636890411376953
1481950987280,9.059226989746094,2.043470621109009,-2.6967110633850098
1481950987508,9.078369140625,2.0554347038269043,-2.7828526496887207
1481950987748,9.126225471496582,2.0195422172546387,-2.7589242458343506
1481950987987,9.035298347473145,2.076970100402832,-2.629711866378784
1481950988227,9.116654396057129,2.122433662414551,-2.68953275680542
1481950988445,9.083154678344727,2.060220241546631,-2.68953275680542
1481950988675,9.073582649230957,2.0889341831207275,-2.6967110633850098
1481950988904,9.174081802368164,2.0482561588287354,-2.6177480220794678
1481950989111,8.95394229888916,2.0650060176849365,-2.667997360229492
1481950989345,9.164510726928711,2.0267207622528076,-2.675175428390503
1481950989584,9.06879711151123,1.9908283948898315,-2.754138946533203
1481950989824,9.040083885192871,2.062613010406494,-2.629711866378784
1481950990040,9.035298347473145,2.0554347038269043,-2.7637100219726562
1481950990272,9.135796546936035,2.1056838035583496,-2.6847469806671143
1481950990514,9.073582649230957,2.093719720840454,-2.754138946533203
1481950990742,9.011369705200195,1.9836499691009521,-2.5746772289276123
1481950990981,9.159724235534668,2.0817556381225586,-2.737389087677002
1481950991221,9.087940216064453,2.1990041732788086,-2.620140790939331
1481950991441,9.087940216064453,2.00518536567688,-2.6871397495269775
1481950991668,9.111868858337402,2.045863389968872,-2.6703903675079346
1481950991869,9.06879711151123,2.076970100402832,-2.7086753845214844
1481950992098,9.06879711151123,2.043470621109009,-2.746960401535034
1481950992299,9.016156196594238,1.9884356260299683,-2.823530912399292
1481950992507,9.06879711151123,2.1918253898620605,-2.754138946533203
1481950992738,8.958727836608887,1.6965112686157227,-2.7589242458343506
1481950992977,8.934800148010254,2.0865414142608643,-2.6009981632232666
1481950993217,9.097511291503906,2.251646041870117,-2.7948169708251953
1481950993431,9.083154678344727,1.9573287963867188,-2.6632115840911865
1481950993666,9.06401252746582,2.132004976272583,-2.612962245941162
1481950993895,9.06879711151123,2.203789472579956,-2.6943180561065674
1481950994136,9.087940216064453,2.108076810836792,-2.665604591369629
1481950994375,9.011369705200195,2.1439690589904785,-2.7278177738189697
1481950994614,9.06879711151123,2.108076810836792,-2.7565319538116455
1481950994832,9.09272575378418,2.170289993286133,-2.761317014694214
1481950995063,9.020941734313965,2.1056838035583496,-2.6703903675079346
1481950995293,9.059226989746094,2.124826431274414,-2.730210542678833
1481950995501,9.059226989746094,2.0673987865448,-2.6632115840911865
1481950995732,9.059226989746094,2.1272192001342773,-2.7349963188171387
1481950995971,8.97787094116211,2.117647886276245,-2.768495798110962
1481950996211,9.083154678344727,2.091326951980591,-2.706282377243042
1481950996435,9.020941734313965,2.117647886276245,-2.75174617767334
1481950996656,8.968299865722656,2.108076810836792,-2.7565319538116455
1481950996861,8.987441062927246,2.1056838035583496,-2.857030153274536
1481950997089,9.06879711151123,2.069791555404663,-2.6871397495269775
1481950997329,9.06879711151123,2.1104695796966553,-2.7349963188171387
1481950997569,9.073582649230957,2.124826431274414,-2.699103832244873
1481950997808,9.044869422912598,2.1104695796966553,-2.730210542678833
1481950998033,9.040083885192871,2.1439690589904785,-2.7900311946868896
1481950998258,8.997013092041016,2.139183282852173,-2.8354949951171875
1481950998487,8.891729354858398,1.9716858863830566,-2.768495798110962
1481950998703,8.949156761169434,2.060220241546631,-2.715853452682495
1481950998926,8.958727836608887,2.053041696548462,-2.849851608276367
1481950999165,9.020941734313965,2.115255117416382,-2.6727826595306396
1481950999404,9.025726318359375,2.1367905139923096,-2.785245418548584
1481950999630,9.049654960632324,2.2013967037200928,-2.675175428390503
1481950999851,9.025726318359375,2.2468602657318115,-2.5938196182250977
1481951000054,9.083154678344727,2.2396819591522217,-2.7876384258270264
1481951000285,9.09272575378418,2.1750757694244385,-2.6081764698028564
1481951000523,9.073582649230957,2.1272192001342773,-2.612962245941162
1481951000762,9.145368576049805,2.139183282852173,-2.63449764251709
1481951001002,8.987441062927246,2.1583259105682373,-2.7278177738189697
1481951001214,8.968299865722656,2.0889341831207275,-2.620140790939331
1481951001451,9.035298347473145,2.0506489276885986,-2.627319574356079
1481951001681,9.06879711151123,2.249253273010254,-2.7254250049591064
1481951001920,9.06401252746582,2.1367905139923096,-2.6249265670776367
1481951002161,9.097511291503906,2.1535403728485107,-2.816352128982544
1481951002399,9.016156196594238,2.1535403728485107,-2.538784980773926
1481951002617,9.020941734313965,2.2133607864379883,-2.675175428390503
1481951002847,8.987441062927246,2.3018953800201416,-2.792424201965332
1481951003077,8.853443145751953,2.1822540760040283,-2.7565319538116455
1481951003317,9.001798629760742,2.2396819591522217,-2.651247262954712
1481951003557,9.040083885192871,2.2157537937164307,-2.7493534088134766
1481951003796,9.06401252746582,2.2061824798583984,-2.7948169708251953
1481951004012,8.910871505737305,2.1032910346984863,-2.6775684356689453
1481951004221,8.997013092041016,2.0578274726867676,-2.6464619636535645
1481951004444,8.997013092041016,2.266003131866455,-2.7589242458343506
1481951004674,9.083154678344727,2.2013967037200928,-2.8594231605529785
1481951004914,9.078369140625,2.263610363006592,-2.6632115840911865
1481951005153,9.025726318359375,2.273181438446045,-2.7828526496887207
1481951005393,9.035298347473145,2.1750757694244385,-2.7182462215423584
1481951005614,9.030512809753418,2.1894328594207764,-2.840280532836914
1481951005840,9.040083885192871,2.242074966430664,-2.7326035499572754
1481951006042,8.973085403442383,2.227717876434326,-2.770888566970825
1481951006271,8.992227554321289,2.1511476039886475,-2.8426735401153564
1481951006513,9.059226989746094,2.177468776702881,-2.768495798110962
1481951006751,8.98265552520752,2.1415762901306152,-2.799602746963501
1481951006990,8.98265552520752,2.1104695796966553,-2.7948169708251953
1481951007217,9.006584167480469,2.1272192001342773,-2.833101987838745
1481951007438,8.987441062927246,2.146361827850342,-2.7972097396850586
1481951007668,8.992227554321289,2.093719720840454,-2.7397818565368652
1481951007885,9.030512809753418,2.172683000564575,-2.768495798110962
1481951008107,9.001798629760742,2.1655044555664062,-2.8067808151245117
1481951008347,9.030512809753418,2.2301106452941895,-2.730210542678833
1481951008586,9.10229778289795,2.2301106452941895,-2.8211379051208496
1481951008803,9.006584167480469,2.2157537937164307,-2.715853452682495
1481951009032,8.95394229888916,2.1846470832824707,-2.840280532836914
1481951009234,8.925228118896484,2.1822540760040283,-2.7828526496887207
1481951009465,9.001798629760742,2.1750757694244385,-2.7637100219726562
1481951009705,9.073582649230957,2.1678972244262695,-2.816352128982544
1481951009944,8.992227554321289,2.1511476039886475,-2.6560330390930176
1481951010183,9.049654960632324,2.132004976272583,-2.8187451362609863
1481951010405,9.040083885192871,2.1056838035583496,-2.7972097396850586
1481951010629,8.997013092041016,2.1535403728485107,-2.8067808151245117
1481951010830,9.06879711151123,2.2013967037200928,-2.7948169708251953
1481951011062,8.97787094116211,2.1415762901306152,-2.538784980773926
1481951011302,9.040083885192871,2.1990041732788086,-2.8809585571289062
1481951011541,9.040083885192871,2.210968255996704,-2.6871397495269775
1481951011782,9.011369705200195,2.1415762901306152,-2.7182462215423584
1481951011997,9.06879711151123,2.139183282852173,-2.7110681533813477
1481951012226,8.997013092041016,1.9740787744522095,-2.71346116065979
1481951012431,9.044869422912598,2.0482561588287354,-2.730210542678833
1481951012656,8.997013092041016,2.203789472579956,-2.7397818565368652
1481951012859,9.097511291503906,2.0985054969787598,-2.7589242458343506
1481951013097,9.083154678344727,2.1104695796966553,-2.7182462215423584
1481951013337,9.044869422912598,2.1296122074127197,-2.744567632675171
1481951013575,9.078369140625,2.1415762901306152,-2.7038896083831787
1481951013779,9.140583038330078,2.139183282852173,-2.8043880462646484
1481951013995,9.06879711151123,2.242074966430664,-2.746960401535034
1481951014224,9.049654960632324,2.084148406982422,-2.778067111968994
1481951014425,8.944371223449707,2.2540390491485596,-2.7421746253967285
1481951014654,9.087940216064453,2.187039852142334,-2.825923442840576
1481951014893,9.097511291503906,2.1104695796966553,-2.730210542678833
1481951015096,9.10229778289795,2.2133607864379883,-2.7565319538116455
1481951015333,9.097511291503906,2.2061824798583984,-2.778067111968994
1481951015573,8.920442581176758,2.1655044555664062,-2.761317014694214
1481951015785,8.997013092041016,2.029113531112671,-2.761317014694214
1481951016021,9.054441452026367,2.2205395698547363,-2.7493534088134766
1481951016253,8.934800148010254,2.225324869155884,-2.6967110633850098
1481951016491,9.06879711151123,2.177468776702881,-2.9240293502807617
1481951016731,9.011369705200195,2.203789472579956,-2.7589242458343506
1481951016970,9.044869422912598,2.1296122074127197,-2.71346116065979
1481951017192,9.097511291503906,2.172683000564575,-2.6943180561065674
1481951017419,9.035298347473145,2.1104695796966553,-2.644068956375122
1481951017648,9.049654960632324,2.0865414142608643,-2.641676187515259
1481951017888,9.078369140625,2.1056838035583496,-2.610569477081299
1481951018138,9.083154678344727,2.0338993072509766,-2.6536402702331543
1481951018367,9.131011009216309,2.108076810836792,-2.5986053943634033
1481951018579,9.09272575378418,2.0865414142608643,-2.706282377243042
1481951018816,8.992227554321289,2.0793628692626953,-2.548356056213379
1481951019045,9.054441452026367,2.0195422172546387,-2.7948169708251953
1481951019284,9.10229778289795,2.1343977451324463,-2.7876384258270264
1481951019525,9.116654396057129,2.076970100402832,-2.706282377243042
1481951019763,9.107083320617676,2.0410776138305664,-2.75174617767334
1481951019984,9.040083885192871,2.1655044555664062,-2.610569477081299
1481951020212,9.073582649230957,2.2013967037200928,-2.730210542678833
1481951020413,9.107083320617676,2.069791555404663,-2.6057839393615723
1481951020645,9.011369705200195,1.9860427379608154,-2.7804601192474365
1481951020883,8.853443145751953,2.1918253898620605,-2.3808584213256836
1481951021122,9.198010444641113,2.148754596710205,-2.6464619636535645
1481951021362,9.035298347473145,2.0673987865448,-2.5866410732269287
1481951021588,9.049654960632324,2.227717876434326,-2.5818557739257812
1481951021807,9.097511291503906,2.007578134536743,-2.833101987838745
1481951022011,8.97787094116211,2.203789472579956,-2.785245418548584
1481951022240,8.843873023986816,2.108076810836792,-2.493321180343628
1481951022480,9.107083320617676,2.1583259105682373,-2.6632115840911865
1481951022719,9.09272575378418,2.1607186794281006,-2.486142873764038
1481951022958,9.025726318359375,2.225324869155884,-2.6560330390930176
1481951023176,9.231510162353516,2.3856441974639893,-2.761317014694214
1481951023405,9.030512809753418,2.1678972244262695,-2.7110681533813477
1481951023637,8.98265552520752,2.187039852142334,-2.644068956375122
1481951023859,8.934800148010254,2.122433662414551,-2.6608188152313232
1481951024076,9.001798629760742,2.3066811561584473,-2.7349963188171387
1481951024315,9.059226989746094,2.328216552734375,-2.754138946533203
1481951024555,9.011369705200195,2.242074966430664,-2.746960401535034
1481951024801,9.06879711151123,2.146361827850342,-2.706282377243042
1481951025003,8.949156761169434,2.2444677352905273,-2.761317014694214
1481951025233,9.044869422912598,2.210968255996704,-2.5914268493652344
1481951025474,9.159724235534668,2.1822540760040283,-2.801995038986206
1481951025713,9.111868858337402,2.203789472579956,-2.7278177738189697
1481951025966,8.848658561706543,2.139183282852173,-2.8666017055511475
1481951026200,8.973085403442383,2.273181438446045,-2.5196423530578613
1481951026403,9.06401252746582,1.8903299570083618,-2.629711866378784
1481951026628,9.016156196594238,2.021935224533081,-2.8139593601226807
1481951026853,9.001798629760742,2.342573404312134,-2.68953275680542
1481951027070,9.001798629760742,1.947757601737976,-2.5603203773498535
1481951027313,9.040083885192871,2.1607186794281006,-2.596212387084961
1481951027549,9.025726318359375,2.203789472579956,-2.6943180561065674
1481951027770,9.059226989746094,2.172683000564575,-2.675175428390503
1481951027997,9.107083320617676,2.1032910346984863,-2.5866410732269287
1481951028229,9.107083320617676,2.1439690589904785,-2.6943180561065674
1481951028442,9.06879711151123,2.117647886276245,-2.6153552532196045
1481951028669,9.10229778289795,2.124826431274414,-2.6249265670776367
1481951028906,9.054441452026367,2.0817556381225586,-2.723031997680664
1481951029146,9.06401252746582,2.124826431274414,-2.6703903675079346
1481951029365,9.044869422912598,2.03629207611084,-2.5986053943634033
1481951029591,9.135796546936035,2.1343977451324463,-2.6057839393615723
1481951029794,9.107083320617676,2.1128623485565186,-2.6177480220794678
1481951030024,9.09272575378418,2.0482561588287354,-2.57228422164917
1481951030267,9.06879711151123,2.1296122074127197,-2.682354211807251
1481951030503,9.06401252746582,2.0961124897003174,-2.6392831802368164
1481951030743,9.06401252746582,2.148754596710205,-2.5914268493652344
1481951030966,9.001798629760742,2.1678972244262695,-2.6488547325134277
1481951031188,9.073582649230957,2.1128623485565186,-2.5866410732269287
1481951031420,9.126225471496582,2.2683956623077393,-2.6632115840911865
1481951031660,9.107083320617676,2.203789472579956,-2.5842485427856445
1481951031861,9.044869422912598,2.196611166000366,-2.6249265670776367
1481951032100,9.049654960632324,2.115255117416382,-2.641676187515259
1481951032340,9.049654960632324,2.218146562576294,-2.5842485427856445
1481951032554,9.06401252746582,2.1750757694244385,-2.7182462215423584
1481951032789,9.011369705200195,2.1750757694244385,-2.603391170501709
1481951033018,8.949156761169434,2.031506299972534,-2.6799612045288086
1481951033264,9.035298347473145,2.2133607864379883,-2.675175428390503
1481951033497,9.06401252746582,2.1918253898620605,-2.641676187515259
1481951033756,9.011369705200195,2.1272192001342773,-2.65842604637146
1481951033986,9.040083885192871,2.187039852142334,-2.5986053943634033
1481951034213,8.973085403442383,2.060220241546631,-2.6560330390930176
1481951034431,9.049654960632324,2.1128623485565186,-2.7086753845214844
1481951034655,9.073582649230957,2.1894328594207764,-2.6081764698028564
1481951034895,9.035298347473145,2.0865414142608643,-2.7014968395233154
1481951035133,8.987441062927246,2.0985054969787598,-2.6321046352386475
1481951035348,9.025726318359375,2.0985054969787598,-2.6488547325134277
1481951035582,9.001798629760742,2.0985054969787598,-2.651247262954712
1481951035783,9.097511291503906,2.1583259105682373,-2.7278177738189697
1481951036014,8.963513374328613,2.084148406982422,-2.5770699977874756
1481951036252,9.049654960632324,2.1343977451324463,-2.682354211807251
1481951036492,9.087940216064453,2.148754596710205,-2.665604591369629
1481951036731,9.011369705200195,2.1415762901306152,-2.723031997680664
1481951036979,9.107083320617676,2.108076810836792,-2.620140790939331
1481951037211,9.049654960632324,2.132004976272583,-2.550748825073242
1481951037425,9.06401252746582,2.0865414142608643,-2.706282377243042
1481951037652,9.025726318359375,2.1128623485565186,-2.754138946533203
1481951037889,9.059226989746094,2.115255117416382,-2.778067111968994
1481951038129,9.418149948120117,2.4981069564819336,-2.8283162117004395
1481951038354,8.575876235961914,1.8352948427200317,-2.723031997680664
1481951038576,8.968299865722656,2.155933380126953,-2.9312076568603516
1481951038804,9.06401252746582,2.122433662414551,-3.0484561920166016
1481951039010,9.087940216064453,2.2301106452941895,-2.912065029144287
1481951039245,8.886943817138672,2.1918253898620605,-2.778067111968994
1481951039486,8.882158279418945,2.1296122074127197,-3.160918712615967
1481951039725,9.06401252746582,2.1511476039886475,-2.7972097396850586
1481951039926,9.207581520080566,1.998006820678711,-2.902493953704834
1481951040174,9.040083885192871,2.053041696548462,-2.6177480220794678
1481951040405,8.973085403442383,2.1367905139923096,-2.825923442840576
1481951040647,9.131011009216309,2.232503652572632,-2.8761727809906006
1481951040882,9.059226989746094,2.203789472579956,-2.8354949951171875
1481951041144,9.111868858337402,2.1296122074127197,-2.8187451362609863
1481951041372,8.786444664001465,2.076970100402832,-2.861815929412842
1481951041603,9.006584167480469,2.0961124897003174,-2.935993194580078
1481951041840,8.973085403442383,2.122433662414551,-2.7349963188171387
1481951042041,9.049654960632324,2.084148406982422,-2.8187451362609863
1481951042280,9.030512809753418,2.0410776138305664,-2.816352128982544
1481951042508,8.992227554321289,2.0267207622528076,-2.7565319538116455
1481951042720,9.035298347473145,2.0410776138305664,-2.737389087677002
1481951042935,9.174081802368164,2.108076810836792,-2.9623143672943115
1481951043165,8.97787094116211,2.00518536567688,-2.7182462215423584
1481951043367,8.958727836608887,1.950150489807129,-2.8115665912628174
1481951043598,8.973085403442383,2.084148406982422,-2.7278177738189697
1481951043836,9.154938697814941,1.9764715433120728,-2.8187451362609863
1481951044077,8.98265552520752,2.084148406982422,-2.823530912399292
1481951044334,8.939584732055664,2.108076810836792,-2.830709218978882
1481951044565,9.049654960632324,2.0817556381225586,-2.878565788269043
1481951044795,8.992227554321289,2.1439690589904785,-2.809173583984375
1481951045000,9.006584167480469,2.1439690589904785,-2.837887763977051
1481951045234,9.083154678344727,2.1296122074127197,-2.809173583984375
1481951045473,9.035298347473145,2.045863389968872,-2.8761727809906006
1481951045712,8.939584732055664,2.062613010406494,-2.799602746963501
1481951045931,8.886943817138672,1.8592231273651123,-2.902493953704834
1481951046160,8.949156761169434,2.0650060176849365,-2.885744333267212
1481951046362,8.891729354858398,1.919043779373169,-2.761317014694214
1481951046592,8.915657043457031,2.0171494483947754,-2.8809585571289062
1481951046831,8.992227554321289,2.117647886276245,-2.7110681533813477
1481951047071,9.17886734008789,2.108076810836792,-2.895315170288086
1481951047311,9.327221870422363,2.2372891902923584,-2.768495798110962
1481951047526,9.18843936920166,2.069791555404663,-2.7326035499572754
1481951047758,9.111868858337402,2.0650060176849365,-2.744567632675171
1481951047998,8.992227554321289,2.091326951980591,-2.5196423530578613
1481951048228,9.059226989746094,2.031506299972534,-2.675175428390503
1481951048468,9.097511291503906,2.170289993286133,-2.775674343109131