timestamp,ax,ay,az
1482152936687,-0.7356184720993042,-9.628880500793457,0.7314286231994629
1482152936875,-0.5219359993934631,-9.594164848327637,0.9690531492233276
1482152937050,-0.5746083855628967,-9.5223388671875,1.0959458351135254
1482152937229,-0.5392939448356628,-9.3828763961792,0.46746787428855896
1482152937416,-0.13347674906253815,-9.63067626953125,0.28311434388160706
1482152937592,-0.3274070918560028,-9.93354320526123,-0.21308395266532898
1482152937768,-0.20889410376548767,-9.555258750915527,-0.44592007994651794
1482152937950,-0.2735375463962555,-9.509769439697266,-0.38546648621559143
1482152938149,0.033518824726343155,-9.659406661987305,-0.3250128924846649
1482152938312,-0.166995570063591,-9.580398559570313,-0.4213795065879822
1482152938490,0.14006079733371735,-9.77253246307373,-0.16579847037792206
1482152938669,0.1951274424791336,-9.654019355773926,-0.4189853072166443
1482152938851,-0.39205053448677063,-9.727043151855469,-0.20889410376548767
1482152939035,-0.20530278980731964,-9.872490882873535,-0.055665191262960434
1482152939213,-0.10474632680416107,-9.64683723449707,-0.21128830313682556
1482152939402,-0.608127236366272,-9.781511306762695,-0.08379705995321274
1482152939573,-0.1562216579914093,-9.718663215637207,-0.1975216418504715
1482152939754,-0.2298433631658554,-9.650428771972656,-0.12090718746185303
1482152939930,-0.6619967818260193,-9.637260437011719,0.11791443079710007
1482152940110,-0.5734112858772278,-9.675567626953125,0.12509703636169434
1482152940295,-0.5512649416923523,-9.642048835754395,0.25079262256622314
1482152940479,-0.38307225704193115,-9.65222454071045,0.24779987335205078
1482152940654,-0.50876784324646,-9.693524360656738,0.16519992053508759
1482152940834,-0.5069721937179565,-9.659406661987305,0.26336219906806946
1482152941017,-0.5554547905921936,-9.627683639526367,0.2388216257095337
1482152941197,-0.33039984107017517,-9.694721221923828,0.07781155407428741
1482152941376,-0.5147533416748047,-9.634267807006836,0.11013327538967133
1482152941555,-0.456095427274704,-9.70310115814209,0.10295066982507706
1482152941737,-0.27054479718208313,-9.662399291992188,0.10115502029657364
1482152941916,-0.4513070285320282,-9.624092102050781,0.1975216418504715
1482152942094,-0.3214215636253357,-9.670180320739746,0.04489128291606903
1482152942276,-0.47165772318840027,-9.661202430725098,0.12689268589019775
1482152942454,-0.05386953800916672,-9.65222454071045,-0.041299980133771896
1482152942636,-0.34356793761253357,-9.631275177001953,-0.016759412363171577
1482152942817,-0.30705636739730835,-9.677363395690918,-0.0071826050989329815
1482152942998,-0.10833762586116791,-9.642647743225098,-0.1107318252325058
1482152943177,-0.06404489278793335,-9.640851974487305,-0.03531447425484657
1482152943354,-0.13826514780521393,-9.643245697021484,-0.023942016065120697
1482152943538,-0.2190694510936737,-9.694721221923828,0.03292027488350868
1482152943719,-0.5793967843055725,-9.673172950744629,-0.1646013706922531
1482152943898,-0.053270988166332245,-9.598953247070313,0.013168109580874443
1482152944080,-0.33758243918418884,-9.708487510681152,0.2148796021938324
1482152944259,-0.3034650683403015,-9.654618263244629,0.10654197633266449
1482152944439,-0.353743314743042,-9.653421401977539,0.12270283699035645
1482152944619,-0.456095427274704,-9.658209800720215,0.11791443079710007
1482152944800,-0.32202014327049255,-9.673771858215332,0.13826514780521393
1482152944977,-0.3866635859012604,-9.64683723449707,0.058059390634298325
1482152945157,-0.22685061395168304,-9.694122314453125,0.0975637212395668
1482152945340,-0.39564183354377747,-9.689932823181152,0.08918401598930359
1482152945516,-0.27653029561042786,-9.63067626953125,-0.002992752008140087
1482152945702,-0.3495534360408783,-9.711481094360352,0.09397241473197937
1482152945881,-0.38726213574409485,-9.59596061706543,0.04908113554120064
1482152946060,-0.30705636739730835,-9.640851974487305,0.09397241473197937
1482152946242,-0.3298012912273407,-9.621099472045898,0.03711012750864029
1482152946421,-0.38486793637275696,-9.651625633239746,0.020350715145468712
1482152946598,-0.30466216802597046,-9.666589736938477,-0.015562310814857483
1482152946781,-0.3058592677116394,-9.686341285705566,0.005386953707784414
1482152946962,-0.27712884545326233,-9.697713851928711,-0.004189853090792894
1482152947142,-0.28550854325294495,-9.671378135681152,-0.012569558806717396
1482152947323,-0.2585737705230713,-9.651026725769043,-0.009576806798577309
1482152947498,-0.2322375625371933,-9.703699111938477,-0.046088382601737976
1482152947683,-0.24420857429504395,-9.677363395690918,-0.046088382601737976
1482152947862,-0.20530278980731964,-9.679159164428711,-0.046088382601737976
1482152948039,-0.19812019169330597,-9.665990829467773,-0.06823474913835526
1482152948221,-0.14784196019172668,-9.71926212310791,-0.07900865375995636
1482152948402,-0.1735796183347702,-9.670180320739746,-0.10893617570400238
1482152948581,-0.15502455830574036,-9.639056205749512,-0.12928688526153564
1482152948761,-0.292691171169281,-9.658209800720215,-0.08080431073904037
1482152948942,-0.3214215636253357,-9.667187690734863,-0.04429273307323456
1482152949122,-0.28131869435310364,-9.673172950744629,-0.014365210197865963
1482152949302,-0.21128830313682556,-9.706093788146973,-0.03172317147254944
1482152949483,-0.2603694200515747,-9.64923095703125,-0.05386953800916672
1482152949664,-0.3076549172401428,-9.640253067016602,-0.03770867735147476
1482152949843,-0.2795230448246002,-9.683947563171387,-0.018555063754320145
1482152950021,-0.29867666959762573,-9.653421401977539,0.017956512048840523
1482152950204,-0.3172317147254944,-9.637859344482422,-0.019153613597154617
1482152950383,-0.2537853717803955,-9.627683639526367,-0.061052143573760986
1482152950562,-0.24660277366638184,-9.699509620666504,-0.0065840547904372215
1482152950742,-0.3944447338581085,-9.674370765686035,0.014365210197865963
1482152950926,-0.24600422382354736,-9.62828254699707,-0.06344634294509888
1482152951107,-0.25019407272338867,-9.641449928283691,-0.08259996026754379
1482152951285,-0.36750996112823486,-9.670180320739746,0.11133038252592087
1482152951465,-0.3411737382411957,-9.64683723449707,-0.06584054976701736
1482152951643,-0.3274070918560028,-9.570222854614258,-0.10354922711849213
1482152951825,-0.06703764945268631,-9.704896926879883,0.015562310814857483
1482152952004,-0.29209262132644653,-9.742006301879883,-0.1346738487482071
1482152952186,-0.19153612852096558,-9.640851974487305,-0.12030863761901855
1482152952365,-0.24660277366638184,-9.639056205749512,-0.07661445438861847
1482152952543,0.058059390634298325,-9.696516990661621,-0.14365209639072418
1482152952724,-0.3561375141143799,-9.684545516967773,0.0065840547904372215
1482152952906,-0.17178396880626678,-9.667786598205566,-0.0628477931022644
1482152953087,-0.22206220030784607,-9.670180320739746,-0.048482585698366165
1482152953266,-0.2759317457675934,-9.634865760803223,-0.013168109580874443
1482152953447,-0.3411737382411957,-9.64564037322998,0.017956512048840523
1482152953628,-0.33758243918418884,-9.66299819946289,0.06763619929552078
1482152953807,-0.27054479718208313,-9.634267807006836,0.08499415963888168
1482152953988,-0.32680854201316833,-9.647436141967773,0.07541735470294952
1482152954167,-0.3381809890270233,-9.675567626953125,0.05925649031996727
1482152954346,-0.36332011222839355,-9.655815124511719,0.06404489278793335
1482152954526,-0.41778820753097534,-9.670180320739746,0.05386953800916672
1482152954709,-0.31184476613998413,-9.690531730651855,0.02693476900458336
1482152954890,-0.3280056416988373,-9.618106842041016,0.031124621629714966
1482152955065,-0.32022446393966675,-9.677363395690918,0.14185644686222076
1482152955246,-0.46507367491722107,-9.641449928283691,0.09217676520347595
1482152955429,-0.365115761756897,-9.63187313079834,0.05985504388809204
1482152955606,-0.33997663855552673,-9.671378135681152,0.047884032130241394
1482152955789,-0.3166331648826599,-9.645041465759277,0.010773907415568829
1482152955969,-0.33279404044151306,-9.654618263244629,0.09576806426048279
1482152956151,-0.36750996112823486,-9.677363395690918,0.0999579206109047
1482152956325,-0.32860419154167175,-9.657012939453125,0.02513911761343479
1482152956513,-0.3166331648826599,-9.683947563171387,0.09157821536064148
1482152956691,-0.34656068682670593,-9.63187313079834,0.07422025501728058
1482152956870,-0.3196259140968323,-9.712079048156738,0.03890577703714371
1482152957055,-0.3429693877696991,-9.642647743225098,0.026336219161748886
1482152957234,-0.3405751883983612,-9.673172950744629,0.03172317147254944
1482152957408,-0.28730419278144836,-9.710283279418945,-0.01496376097202301
1482152957586,-0.29209262132644653,-9.700706481933594,-0.016160860657691956
1482152957773,-0.23343466222286224,-9.68274974822998,-0.0071826050989329815
1482152957952,-0.2717418968677521,-9.642048835754395,-0.011372458189725876
1482152958131,-0.2992752194404602,-9.6618013381958,0.020350715145468712
1482152958344,-0.30526071786880493,-9.650428771972656,0.07900865375995636
1482152958492,-0.262763649225235,-9.671378135681152,0.04369417950510979
1482152958673,-0.24241292476654053,-9.654618263244629,0.013168109580874443
1482152958852,-0.23163901269435883,-9.658807754516602,0.05985504388809204
1482152959031,-0.21966800093650818,-9.668384552001953,0.0293289702385664
1482152959211,-0.322618693113327,-9.682151794433594,0.07960720360279083
1482152959391,-0.3190273642539978,-9.657610893249512,0.06643909960985184
1482152959570,-0.20290859043598175,-9.63187313079834,-0.08080431073904037
1482152959755,-0.09217676520347595,-9.68155288696289,-0.2998737692832947
1482152959935,-0.1322796493768692,-9.707889556884766,-0.2651578485965729
1482152960110,-0.08738835901021957,-9.668983459472656,-0.15442600846290588
1482152960295,-0.2472013235092163,-9.639056205749512,-0.11013327538967133
1482152960474,-0.2106897532939911,-9.62828254699707,-0.0999579206109047
1482152960652,-0.22744916379451752,-9.664793968200684,-0.0694318488240242
1482152960836,-0.16998831927776337,-9.636661529541016,-0.035913024097681046
1482152961016,-0.19213469326496124,-9.666589736938477,-0.028131870552897453
1482152961196,-0.21368250250816345,-9.654019355773926,-0.13527239859104156
1482152961374,-0.20111294090747833,-9.660005569458008,-0.14065934717655182
1482152961578,-0.2124854028224945,-9.654019355773926,-0.12389993667602539
1482152961734,-0.24181437492370605,-9.631275177001953,-0.07062894850969315
1482152961916,-0.21308395266532898,-9.643245697021484,-0.13527239859104156
1482152962090,-0.25019407272338867,-9.666589736938477,-0.05267243832349777
1482152962276,-0.31783026456832886,-9.61212158203125,-0.08439560979604721
1482152962457,-0.29388827085494995,-9.64683723449707,-0.0065840547904372215
1482152962632,-0.3280056416988373,-9.665990829467773,-0.04189852997660637
1482152962817,-0.28550854325294495,-9.619902610778809,0.04728548228740692
1482152962997,-0.38307225704193115,-9.68274974822998,0.02513911761343479
1482152963176,-0.34596213698387146,-9.637260437011719,0.023942016065120697
1482152963357,-0.3447650372982025,-9.647436141967773,-0.02992752194404602
1482152963537,-0.42437225580215454,-9.637260437011719,0.04010287672281265
1482152963718,-0.36750996112823486,-9.671976089477539,0.04369417950510979
1482152963898,-0.4620809257030487,-9.712677955627441,0.011971008032560349
1482152964078,-0.48961424827575684,-9.543288230895996,0.1215057373046875
1482152964258,0.021547814831137657,-9.922170639038086,-0.053270988166332245
1482152964438,-0.5722141861915588,-9.707290649414063,0.07122749835252762
1482152964615,-0.2064998894929886,-9.6618013381958,-0.026336219161748886
1482152964799,-0.6649895310401917,-9.667786598205566,0.08798690885305405
1482152964978,-0.19393034279346466,-9.631275177001953,-0.11971008777618408
1482152965155,-0.4207809567451477,-9.668384552001953,-0.06224924325942993
1482152965339,-0.3597288131713867,-9.654618263244629,-0.05267243832349777
1482152965519,-0.2190694510936737,-9.710882186889648,-0.04189852997660637
1482152965700,-0.3728969097137451,-9.728240013122559,-0.0065840547904372215
1482152965880,-0.3321954905986786,-9.633668899536133,-0.03232172131538391
1482152966059,-0.2472013235092163,-9.655815124511719,0.025737667456269264
1482152966236,-0.37229835987091064,-9.672574996948242,0.04668693244457245
1482152966417,-0.26575639843940735,-9.677363395690918,-0.10354922711849213
1482152966596,-0.3280056416988373,-9.52473258972168,-0.090979665517807
1482152966781,-0.3621230125427246,-9.706692695617676,0.04189852997660637
1482152966961,-0.2298433631658554,-9.663596153259277,-0.08978256583213806
1482152967136,-0.42616790533065796,-9.713275909423828,-0.05446808785200119
1482152967321,-0.2364274114370346,-9.582792282104492,-0.04010287672281265
1482152967507,-0.3166331648826599,-9.617507934570313,-0.076015904545784
1482152967681,-0.39624038338661194,-9.660005569458008,-0.10235211998224258
1482152967860,-0.23822307586669922,-9.693524360656738,-0.11312603205442429
1482152968042,-0.28371289372444153,-9.695918083190918,-0.11432313174009323
1482152968222,-0.3100491166114807,-9.75637149810791,-0.05147533491253853
1482152968400,-0.383670836687088,-9.747393608093262,-0.013168109580874443
1482152968580,-0.2495955228805542,-9.636063575744629,-0.06763619929552078
1482152968762,-0.38905778527259827,-9.706692695617676,0.02513911761343479
1482152968943,-0.3944447338581085,-9.656414031982422,-0.002394201699644327
1482152969119,-0.4531026780605316,-9.657012939453125,0.010175357572734356
1482152969301,-0.2992752194404602,-9.700108528137207,0.0011971008498221636
1482152969483,-0.3357867896556854,-9.657610893249512,-5.985504249110818E-4
1482152969659,-0.4016273319721222,-9.679159164428711,-0.04010287672281265
1482152969843,-0.40282443165779114,-9.70429801940918,-0.10354922711849213
1482152970020,-0.43095630407333374,-9.679159164428711,-0.12210428714752197
1482152970201,-0.33339259028434753,-9.671976089477539,-0.13946224749088287
1482152970381,-0.3579331636428833,-9.663596153259277,-0.15502455830574036
1482152970561,-0.46507367491722107,-9.66419506072998,-0.17896658182144165
1482152970743,-0.35434186458587646,-9.66539192199707,-0.1346738487482071
1482152970925,-0.46986207365989685,-9.677961349487305,-0.1538274586200714
1482152971104,-0.39384618401527405,-9.65222454071045,-0.16879121959209442
1482152971286,-0.49320554733276367,-9.79288387298584,-0.23822307586669922
1482152971465,-0.3824737071990967,-9.6618013381958,-0.1933317929506302
1482152971659,-0.49380409717559814,-9.689932823181152,-0.16160862147808075
1482152971824,-0.5105634927749634,-9.6989107131958,-0.12210428714752197
1482152972004,-0.44592007994651794,-9.644442558288574,-0.004788403399288654
1482152972181,-0.6177040338516235,-9.643245697021484,-0.1215057373046875
1482152972366,-0.40701428055763245,-9.624092102050781,-0.02753331884741783
1482152972546,-0.48243165016174316,-9.726444244384766,0.11851298063993454
1482152972721,-0.579995334148407,-9.649829864501953,0.08499415963888168
1482152972905,-0.5273229479789734,-9.692925453186035,0.13706804811954498
1482152973085,-0.5614402890205383,-9.606734275817871,0.06763619929552078
1482152973267,-0.5003881454467773,-9.654618263244629,0.04967968538403511
1482152973447,-0.5009866952896118,-9.596558570861816,0.04429273307323456
1482152973625,-0.4638765752315521,-9.57979965209961,0.06165069341659546
1482152973807,-0.4357447028160095,-9.718064308166504,-0.13048399984836578
1482152973989,-0.5045779943466187,-9.70549488067627,-0.009576806798577309
1482152974163,-0.4602852761745453,-9.682151794433594,0.04728548228740692
1482152974348,-0.4489128291606903,-9.68274974822998,0.18734627962112427
1482152974528,-0.6685808300971985,-9.656414031982422,0.18315643072128296
1482152974703,-0.4345476031303406,-9.660603523254395,0.13287819921970367
1482152974888,-0.535702645778656,-9.558850288391113,0.14185644686222076
1482152975068,-0.48063600063323975,-9.612719535827637,0.10773907601833344
1482152975247,-0.5835866928100586,-9.550470352172852,0.10654197633266449
1482152975430,-0.518943190574646,-9.667786598205566,0.1041477769613266
1482152975609,-0.4866214990615845,-9.66539192199707,-0.005386953707784414
1482152975789,-0.5165489912033081,-9.691728591918945,-0.09457096457481384
1482152975969,-0.4357447028160095,-9.563039779663086,-0.013168109580874443
1482152976157,-0.47884035110473633,-9.671976089477539,0.014365210197865963
1482152976330,-0.5081692934036255,-9.64564037322998,-0.1562216579914093
1482152976509,-0.363918662071228,-9.648633003234863,-0.15562310814857483
1482152976684,-0.39803603291511536,-9.685144424438477,-0.1215057373046875
1482152976869,-0.32441434264183044,-9.631275177001953,-0.31543606519699097
1482152977049,-0.5321113467216492,-9.633668899536133,-0.15502455830574036
1482152977226,-0.3944447338581085,-9.728838920593262,-0.17178396880626678
1482152977410,-0.414795458316803,-9.603142738342285,-0.15322890877723694
1482152977591,-0.586579442024231,-9.6618013381958,-0.14604631066322327
1482152977767,-0.6189011335372925,-9.654019355773926,-0.03890577703714371
1482152977951,-0.6847416758537292,-9.66958236694336,-0.08200141042470932
1482152978131,-0.6386532783508301,-9.683348655700684,-0.013766659423708916
1482152978311,-0.7128735780715942,-9.637859344482422,0.04489128291606903
1482152978489,-0.800261914730072,-9.620500564575195,-0.07302315533161163
1482152978677,-0.5117605924606323,-9.650428771972656,0.08559270948171616
1482152978851,-0.6189011335372925,-9.740211486816406,0.013766659423708916
1482152979032,-0.5195417404174805,-9.671378135681152,0.11133038252592087
1482152979207,-0.6715735793113708,-9.683947563171387,-0.05686229094862938
1482152979391,-0.6602011322975159,-9.600749015808105,-0.02513911761343479
1482152979572,-0.46986207365989685,-9.709685325622559,-0.10235211998224258
1482152979747,-0.6147112846374512,-9.651026725769043,-0.0802057534456253
1482152979932,-0.6619967818260193,-9.719860076904297,-0.06344634294509888
1482152980113,-0.5153518915176392,-9.643844604492188,-0.05746084079146385
1482152980291,-0.7368155717849731,-9.658209800720215,-0.17058686912059784
1482152980471,-0.6105214357376099,-9.602544784545898,-0.047884032130241394
1482152980654,-0.7122750282287598,-9.630077362060547,-0.11312603205442429
1482152980833,-0.6590040326118469,-9.707889556884766,-0.060453593730926514
1482152981014,-0.706289529800415,-9.619303703308105,0.01735796220600605
1482152981192,-0.6955155730247498,-9.652822494506836,-0.09397241473197937
1482152981375,-0.6218938827514648,-9.63187313079834,0.06823474913835526
1482152981555,-0.8206126093864441,-9.692925453186035,0.09217676520347595
1482152981735,-0.5979518890380859,-9.734824180603027,0.1867477297782898
1482152981913,-0.6931213736534119,-9.660603523254395,0.2124854028224945
1482152982092,-0.6937199234962463,-9.59835433959961,0.12629413604736328
1482152982270,-0.7775170207023621,-9.634267807006836,0.1215057373046875
1482152982455,-0.6883329749107361,-9.639654159545898,0.1388636976480484
1482152982636,-0.6224924325942993,-9.66299819946289,0.13048399984836578
1482152982809,-0.6602011322975159,-9.622296333312988,0.11192893236875534
1482152982991,-0.6518214344978333,-9.670180320739746,0.08439560979604721
1482152983176,-0.6063315868377686,-9.650428771972656,0.08918401598930359
1482152983351,-0.6386532783508301,-9.655815124511719,0.12449848651885986
1482152983536,-0.6619967818260193,-9.667786598205566,0.07721300423145294
1482152983716,-0.618302583694458,-9.668983459472656,0.07242459803819656
1482152983895,-0.6745663285255432,-9.645041465759277,0.05027823522686958
1482152984077,-0.7110779285430908,-9.618705749511719,0.043095629662275314
1482152984257,-0.679354727268219,-9.651026725769043,0.047884032130241394
1482152984435,-0.7134721279144287,-9.673771858215332,0.031124621629714966
1482152984617,-0.7362170219421387,-9.642647743225098,0.04249707981944084
1482152984801,-0.7152677774429321,-9.68274974822998,0.053270988166332245
1482152984977,-0.7338228225708008,-9.654618263244629,0.009576806798577309
1482152985158,-0.7122750282287598,-9.64923095703125,0.0293289702385664
1482152985333,-0.7380126714706421,-9.619303703308105,0.013168109580874443
1482152985518,-0.7032967209815979,-9.625288963317871,0.028131870552897453
1482152985698,-0.7559691667556763,-9.62947940826416,0.04728548228740692
1482152985874,-0.7122750282287598,-9.656414031982422,0.028730420395731926
1482152986056,-0.7242460250854492,-9.645041465759277,0.025737667456269264
1482152986239,-0.7092822790145874,-9.667786598205566,0.07481880486011505
1482152986416,-0.6871358752250671,-9.63067626953125,0.07003039866685867
1482152986599,-0.6811503767967224,-9.661202430725098,0.07003039866685867
1482152986789,-0.6883329749107361,-9.64683723449707,0.0520738884806633
1482152986960,-0.7272387742996216,-9.636661529541016,0.1173158809542656
1482152987139,-0.6625953316688538,-9.655217170715332,0.0454898327589035
1482152987323,-0.6859387755393982,-9.62947940826416,0.03950432687997818
1482152987499,-0.7356184720993042,-9.640253067016602,0.07302315533161163
1482152987679,-0.7715315222740173,-9.62828254699707,0.10953472554683685
1482152987856,-0.7613561153411865,-9.651026725769043,0.09277531504631042
1482152988040,-0.8236053586006165,-9.644442558288574,0.11611878126859665
1482152988220,-0.7876923680305481,-9.644442558288574,0.10833762586116791
1482152988396,-0.7637503147125244,-9.654019355773926,0.16819266974925995
1482152988581,-0.751779317855835,-9.615114212036133,0.13766659796237946
1482152988761,-0.8008604645729065,-9.639056205749512,0.15562310814857483
1482152988937,-0.7709329724311829,-9.636661529541016,0.10534487664699554
1482152989121,-0.7410054206848145,-9.677961349487305,0.06165069341659546
1482152989301,-0.6344634294509888,-9.640253067016602,-0.03770867735147476
1482152989482,-0.619499683380127,-9.642048835754395,-0.01496376097202301
1482152989662,-0.7266402244567871,-9.647436141967773,0.035913024097681046
1482152989838,-0.7098808288574219,-9.658807754516602,-5.985504249110818E-4
1482152990020,-0.5093663930892944,-9.667786598205566,-0.01735796220600605
1482152990202,-0.6254851818084717,-9.652822494506836,-0.16579847037792206
1482152990378,-0.4231751561164856,-9.654618263244629,-0.05626374110579491
1482152990562,-0.5554547905921936,-9.64803409576416,-0.13287819921970367
1482152990743,-0.4800374507904053,-9.739013671875,-0.16579847037792206
1482152990918,-0.6733692288398743,-9.64564037322998,-0.04369417950510979
1482152991103,-0.48901569843292236,-9.67077922821045,-0.06823474913835526
1482152991283,-0.48901569843292236,-9.676166534423828,-0.031124621629714966
1482152991461,-0.38965633511543274,-9.662399291992188,-0.1843535304069519
1482152991644,-0.36092591285705566,-9.59835433959961,-0.02693476900458336
1482152991820,-0.6530185341835022,-9.701904296875,-0.13048399984836578
1482152991999,-0.5949591398239136,-9.6989107131958,-0.06823474913835526
1482152992181,-0.5333084464073181,-9.654019355773926,-0.03770867735147476
1482152992360,-0.6667851805686951,-9.66539192199707,-0.17717093229293823
1482152992542,-0.49320554733276367,-9.653421401977539,-0.026336219161748886
1482152992725,-0.4513070285320282,-9.690531730651855,0.09457096457481384
1482152992900,-0.48602294921875,-9.586383819580078,-0.07841010391712189
1482152993083,-0.6751648783683777,-9.600749015808105,-0.13946224749088287
1482152993266,-0.579995334148407,-9.618705749511719,-0.06584054976701736
1482152993440,-0.4752490520477295,-9.680954933166504,-0.0520738884806633
1482152993626,-0.9277531504631042,-9.57979965209961,0.04908113554120064
1482152993806,-0.5183446407318115,-9.64683723449707,-0.13347674906253815
1482152993986,-0.6290764808654785,-9.632472038269043,-0.15682020783424377
1482152994166,-0.7080851793289185,-9.683348655700684,0.12389993667602539
1482152994343,-0.619499683380127,-9.617507934570313,0.013766659423708916
1482152994526,-0.8242039084434509,-9.64923095703125,0.17717093229293823
1482152994706,-0.6177040338516235,-9.642647743225098,0.13706804811954498
1482152994883,-0.5931634902954102,-9.609128952026367,0.06404489278793335
1482152995062,-0.606930136680603,-9.64803409576416,0.04908113554120064
1482152995247,-0.41539400815963745,-9.685144424438477,0.04429273307323456
1482152995422,-0.8924387097358704,-9.617507934570313,-0.026336219161748886
1482152995607,-0.4800374507904053,-9.660005569458008,-0.08978256583213806
1482152995787,-0.7775170207023621,-9.725846290588379,-0.17896658182144165
1482152995963,-0.48063600063323975,-9.61212158203125,0.05626374110579491
1482152996148,-0.3166331648826599,-9.661202430725098,-0.10714052617549896
1482152996328,-0.8810662031173706,-9.718663215637207,-0.09876082092523575
1482152996506,-0.558447539806366,-9.586383819580078,0.10953472554683685
1482152996688,-0.7068880796432495,-9.619303703308105,0.07721300423145294
1482152996864,-0.7613561153411865,-9.636661529541016,-0.005985504016280174
1482152997049,-0.3800795078277588,-9.580398559570313,0.37888240814208984
1482152997229,-0.5991489887237549,-10.08198356628418,-0.05446808785200119
1482152997404,-0.5973533391952515,-9.922170639038086,-0.10115502029657364
1482152997589,-0.8020575642585754,-9.677961349487305,0.20290859043598175
1482152997769,-0.884058952331543,-9.633668899536133,0.013766659423708916
1482152997945,-0.961870551109314,-9.646238327026367,0.16400282084941864
1482152998129,-0.8254010081291199,-9.649829864501953,0.22206220030784607
1482152998310,-0.8248024582862854,-9.621698379516602,0.1975216418504715
1482152998486,-0.8684966564178467,-9.63187313079834,0.21787235140800476
1482152998670,-0.8804676532745361,-9.64803409576416,0.26755204796791077
1482152998850,-0.9624691009521484,-9.606135368347168,0.19692309200763702
1482152999030,-0.646434485912323,-9.703699111938477,0.19692309200763702
1482152999210,-1.071405291557312,-9.636661529541016,0.34356793761253357
1482152999389,-0.16400282084941864,-9.871891975402832,-0.28969839215278625
1482152999567,-0.15981295704841614,-9.480440139770508,-0.08140286058187485
1482152999751,0.07541735470294952,-9.667786598205566,-0.12210428714752197
1482152999927,0.16879121959209442,-9.751583099365234,-0.40043023228645325
1482153000105,0.3519476354122162,-9.588777542114258,-0.6482301354408264
1482153000285,0.30286651849746704,-9.6803560256958,-0.6003460884094238
1482153000467,0.24779987335205078,-9.503185272216797,-0.6200982332229614
1482153000652,0.8122329115867615,-9.983820915222168,-0.5482721924781799
1482153000832,0.41539400815963745,-9.632472038269043,-0.2908954918384552
1482153001013,0.7110779285430908,-9.362525939941406,-0.5303156971931458
1482153001192,0.3381809890270233,-9.678560256958008,-0.43993455171585083
1482153001372,-0.05386953800916672,-9.615114212036133,-0.5626373887062073
1482153001553,0.47824180126190186,-9.901819229125977,0.45010992884635925
1482153001733,0.3387795388698578,-9.589376449584961,-0.4908113479614258
1482153001914,-0.3214215636253357,-9.776124000549316,-0.6153098344802856
1482153002093,0.9702502489089966,-9.515155792236328,-0.17238251864910126
1482153002274,0.20111294090747833,-9.95748519897461,-0.7386112213134766
1482153002449,-0.05147533491253853,-9.691728591918945,-0.7380126714706421
1482153002634,0.8170213103294373,-9.428964614868164,-0.019153613597154617
1482153002821,-0.5805938839912415,-9.458892822265625,-0.32022446393966675
1482153002989,0.5303156971931458,-9.736021041870117,-0.27413609623908997
1482153003175,-0.005386953707784414,-9.485228538513184,-0.0071826050989329815
1482153003355,0.12509703636169434,-9.637859344482422,0.14006079733371735
1482153003533,-0.7026981711387634,-9.608530044555664,-0.047884032130241394
1482153003715,-0.07661445438861847,-9.708487510681152,-0.19213469326496124
1482153003894,0.12030863761901855,-9.615114212036133,0.26396074891090393
1482153004072,-0.16879121959209442,-9.723451614379883,-0.3926490843296051
1482153004256,-0.05506663769483566,-9.641449928283691,-0.24660277366638184
1482153004433,-0.22744916379451752,-9.749189376831055,0.011372458189725876
1482153004614,-0.13946224749088287,-9.667187690734863,-0.14006079733371735
1482153004796,-0.13946224749088287,-9.662399291992188,-0.005985504016280174
1482153004971,-0.1999158412218094,-9.704896926879883,-0.24420857429504395
1482153005157,-0.26096799969673157,-9.666589736938477,-0.04967968538403511
1482153005337,-0.1388636976480484,-9.66958236694336,-0.1562216579914093
1482153005512,-0.25258827209472656,-9.68694019317627,-0.1909375786781311
1482153005696,-0.17657238245010376,-9.739013671875,-0.14365209639072418
1482153005873,-0.19931729137897491,-9.633668899536133,-0.08559270948171616
1482153006055,0.08499415963888168,-9.653421401977539,-0.2214636504650116
1482153006237,-0.2537853717803955,-9.804255485534668,-0.2298433631658554
1482153006434,-0.2406172752380371,-9.685144424438477,-0.1430535465478897
1482153006596,0.2059013396501541,-9.604340553283691,-0.16400282084941864
1482153006777,-0.028730420395731926,-9.682151794433594,-0.15682020783424377
1482153006952,-0.10654197633266449,-9.666589736938477,-0.09277531504631042
1482153007136,-0.03232172131538391,-9.639654159545898,-0.08140286058187485
1482153007318,-0.07182604819536209,-9.674968719482422,-0.06224924325942993
1482153007492,-0.10295066982507706,-9.658209800720215,-0.06165069341659546
1482153007677,-0.08858546614646912,-9.679757118225098,-0.09157821536064148
1482153007858,-0.11013327538967133,-9.702502250671387,-0.06464344263076782
1482153008037,-0.09516951441764832,-9.652822494506836,-0.0999579206109047
1482153008219,-0.15682020783424377,-9.687539100646973,-0.11851298063993454
1482153008399,-0.11851298063993454,-9.655217170715332,-0.12749123573303223
1482153008579,-0.1454477459192276,-9.682151794433594,-0.11791443079710007
1482153008759,-0.1107318252325058,-9.667786598205566,-0.07841010391712189
1482153008937,-0.1646013706922531,-9.693524360656738,-0.06643909960985184
1482153009120,-0.18076223134994507,-9.658807754516602,-0.0520738884806633
1482153009299,-0.1801636815071106,-9.653421401977539,-0.07122749835252762
1482153009475,-0.10295066982507706,-9.662399291992188,-0.05386953800916672
1482153009660,-0.2388216257095337,-9.586383819580078,-0.07242459803819656
1482153009840,-0.20889410376548767,-9.653421401977539,0.01496376097202301
1482153010016,-0.30885201692581177,-9.658209800720215,-0.15801730751991272
1482153010195,0.166995570063591,-9.633070945739746,-0.1586158573627472
1482153010379,-0.2388216257095337,-9.63067626953125,-0.16220717132091522
1482153010556,-0.13168109953403473,-9.739612579345703,-0.13407529890537262
1482153010737,-0.2017114907503128,-9.636063575744629,-0.18974047899246216
1482153010917,-0.15981295704841614,-9.65222454071045,-0.058059390634298325
1482153011098,-0.166995570063591,-9.68155288696289,-0.08978256583213806
1482153011278,-0.17298106849193573,-9.670180320739746,-0.026336219161748886
1482153011457,-0.13168109953403473,-9.657012939453125,-0.10773907601833344
1482153011638,-0.1322796493768692,-9.651625633239746,-0.07841010391712189
1482153011818,-0.08918401598930359,-9.642647743225098,-0.03292027488350868
1482153011998,-0.11372458189725876,-9.64803409576416,-0.011971008032560349
1482153012178,-0.17058686912059784,-9.634865760803223,-0.04429273307323456
1482153012359,-0.2819172441959381,-9.715071678161621,0.06165069341659546
1482153012538,0.22864626348018646,-9.843161582946777,0.09397241473197937
1482153012723,0.01975216343998909,-9.5408935546875,-0.03232172131538391
1482153012903,-0.34356793761253357,-9.625288963317871,-0.020949264988303185
1482153013081,-0.05925649031996727,-9.654019355773926,-0.08918401598930359
1482153013261,-0.2867056429386139,-9.66419506072998,0.06224924325942993
1482153013444,-0.3477577865123749,-9.59476375579834,-0.012569558806717396
1482153013625,-0.21847090125083923,-9.660603523254395,-0.05147533491253853
1482153013805,-0.17836803197860718,-9.655217170715332,-0.11971008777618408
1482153013980,-0.5009866952896118,-9.643245697021484,-0.02753331884741783
1482153014165,-0.27892449498176575,-9.765948295593262,0.07302315533161163
1482153014345,-0.4183867573738098,-9.604938507080078,0.21308395266532898
1482153014521,-0.3489548861980438,-9.64923095703125,0.41120412945747375
1482153014705,-0.6003460884094238,-9.586981773376465,0.16579847037792206
1482153014886,-0.5716156363487244,-9.665990829467773,0.07960720360279083
1482153015060,-0.48602294921875,-9.683947563171387,-0.21667525172233582
1482153015255,-0.49380409717559814,-9.730634689331055,-0.10953472554683685
1482153015426,-0.436343252658844,-9.692925453186035,-0.15143325924873352
1482153015606,-0.48243165016174316,-9.659406661987305,-0.26096799969673157
1482153015786,-0.4800374507904053,-9.68155288696289,-0.2495955228805542
1482153015960,-0.4638765752315521,-9.6618013381958,-0.27234044671058655
1482153016146,-0.46327802538871765,-9.658807754516602,-0.2124854028224945
1482153016326,-0.5027823448181152,-9.63067626953125,-0.24899697303771973
1482153016502,-0.5201402902603149,-9.666589736938477,-0.23343466222286224
1482153016687,-0.5560533404350281,-9.668983459472656,-0.42856210470199585
1482153016867,-0.8271966576576233,-9.622895240783691,-0.03651157766580582
1482153017042,-0.7326257228851318,-9.645041465759277,-0.3232172429561615
1482153017227,-0.8918401598930359,-9.581595420837402,-0.718859076499939
1482153017407,-0.38127660751342773,-9.561842918395996,-0.5009866952896118
1482153017583,-0.23403321206569672,-9.701904296875,-0.11013327538967133
1482153017767,0.041299980133771896,-9.707290649414063,-0.19452889263629913
1482153017946,-0.12389993667602539,-9.649829864501953,-0.3058592677116394
1482153018126,-0.043095629662275314,-9.67077922821045,-0.3866635859012604
1482153018308,-0.18375498056411743,-9.64564037322998,-0.2908954918384552
1482153018487,-0.15442600846290588,-9.670180320739746,-0.2663549482822418
1482153018668,-0.16639702022075653,-9.647436141967773,-0.2819172441959381
1482153018848,-0.23523031175136566,-9.664793968200684,-0.2472013235092163
1482153019027,-0.14903905987739563,-9.658807754516602,-0.22086510062217712
1482153019209,-0.15023615956306458,-9.633070945739746,-0.24779987335205078
1482153019385,-0.20470423996448517,-9.653421401977539,-0.2106897532939911
1482153019565,-0.20889410376548767,-9.657012939453125,-0.2819172441959381
1482153019749,-0.18076223134994507,-9.649829864501953,-0.2537853717803955
1482153019929,-0.1909375786781311,-9.666589736938477,-0.20709845423698425
1482153020106,-0.24779987335205078,-9.691728591918945,-0.11971008777618408
1482153020289,-0.21667525172233582,-9.668384552001953,-0.0999579206109047
1482153020470,-0.19931729137897491,-9.658209800720215,-0.07661445438861847
1482153020650,-0.23942017555236816,-9.619902610778809,-0.04010287672281265
1482153020830,-0.22086510062217712,-9.664793968200684,-0.04908113554120064
1482153021007,-0.22685061395168304,-9.653421401977539,-0.05267243832349777
1482153021188,-0.17058686912059784,-9.674968719482422,-0.11252748221158981
1482153021370,-0.21966800093650818,-9.673771858215332,-0.13108254969120026
1482153021547,-0.2513911724090576,-9.671378135681152,-0.0628477931022644
1482153021731,-0.24121582508087158,-9.6618013381958,-0.0071826050989329815
1482153021911,-0.21128830313682556,-9.64923095703125,-0.02274491637945175
1482153022087,-0.24899697303771973,-9.637859344482422,-0.02274491637945175
1482153022270,-0.3058592677116394,-9.654618263244629,0.020949264988303185
1482153022447,-0.29149407148361206,-9.654618263244629,0.07960720360279083
1482153022628,-0.32441434264183044,-9.653421401977539,0.05506663769483566
1482153022812,-0.20530278980731964,-9.676764488220215,-0.025737667456269264
1482153022992,-0.22026655077934265,-9.686341285705566,-0.009576806798577309
1482153023172,-0.2687491476535797,-9.663596153259277,0.06464344263076782
1482153023353,-0.24181437492370605,-9.676764488220215,-0.03172317147254944
1482153023530,-0.228047713637352,-9.64683723449707,-0.013766659423708916
1482153023712,-0.2735375463962555,-9.666589736938477,0.11671733111143112
1482153023893,-0.25318682193756104,-9.662399291992188,0.11432313174009323
1482153024069,-0.24600422382354736,-9.68813705444336,0.19931729137897491
1482153024252,-0.22864626348018646,-9.642647743225098,-0.03172317147254944
1482153024434,-0.2041056901216507,-9.653421401977539,-0.019153613597154617
1482153024609,-0.19213469326496124,-9.64923095703125,-0.05147533491253853
1482153024792,-0.25079262256622314,-9.640253067016602,-0.06524199992418289
1482153024977,-0.24480712413787842,-9.66958236694336,-0.06224924325942993
1482153025152,-0.1759738177061081,-9.641449928283691,-0.0975637212395668
1482153025332,-0.262763649225235,-9.66299819946289,-0.10175357013940811
1482153025514,-0.23942017555236816,-9.666589736938477,-0.12030863761901855
1482153025694,-0.2495955228805542,-9.673771858215332,-0.12270283699035645
1482153025876,-0.2513911724090576,-9.675567626953125,-0.13168109953403473
1482153026049,-0.13347674906253815,-9.695918083190918,-0.18614917993545532
1482153026235,-0.22206220030784607,-9.660005569458008,-0.16101007163524628
1482153026461,-0.16639702022075653,-9.663596153259277,-0.18914192914962769
1482153026590,-0.12090718746185303,-9.662399291992188,-0.2322375625371933
1482153026775,-0.21009120345115662,-9.68274974822998,-0.2693476974964142
1482153026956,-0.22445641458034515,-9.643245697021484,-0.32680854201316833
1482153027131,-0.1909375786781311,-9.673771858215332,-0.3363853394985199
1482153027316,-0.1843535304069519,-9.67077922821045,-0.2944868206977844
1482153027495,-0.17537526786327362,-9.64803409576416,-0.24181437492370605
1482153027675,-0.11013327538967133,-9.616311073303223,-0.3274070918560028
1482153027857,-0.2256535142660141,-9.631275177001953,-0.23104046285152435
1482153028035,-0.2513911724090576,-9.651026725769043,-0.14425064623355865
1482153028217,-0.16579847037792206,-9.676764488220215,-0.181959331035614
1482153028397,-0.2890998423099518,-9.66539192199707,-0.20051439106464386
1482153028575,-0.10474632680416107,-9.689932823181152,-0.2687491476535797
1482153028758,-0.11671733111143112,-9.663596153259277,-0.2064998894929886
1482153028938,-0.1885433793067932,-9.653421401977539,-0.2585737705230713
1482153029114,-0.29568392038345337,-9.671378135681152,-0.22505496442317963
1482153029298,-0.1711854189634323,-9.636063575744629,-0.04369417950510979
1482153029478,-0.2513911724090576,-9.62947940826416,0.033518824726343155
1482153029654,-0.34356793761253357,-9.656414031982422,-0.12988543510437012
1482153029839,-0.13946224749088287,-9.697713851928711,-0.1364694982767105
1482153030021,-0.21308395266532898,-9.70549488067627,-0.2124854028224945
1482153030199,-0.26575639843940735,-9.680954933166504,-0.12389993667602539
1482153030379,-0.2124854028224945,-9.646238327026367,-0.07302315533161163
1482153030559,-0.17836803197860718,-9.668384552001953,-0.11133038252592087
1482153030737,-0.21787235140800476,-9.672574996948242,-0.09038111567497253
1482153030922,-0.13766659796237946,-9.68813705444336,-0.181959331035614
1482153031096,-0.13347674906253815,-9.656414031982422,-0.2106897532939911
1482153031280,-0.19033902883529663,-9.676166534423828,-0.16160862147808075
1482153031460,-0.16639702022075653,-9.660603523254395,-0.1586158573627472
1482153031636,-0.11192893236875534,-9.65222454071045,-0.19033902883529663
1482153031820,-0.16579847037792206,-9.678560256958008,-0.1885433793067932
1482153032001,-0.18136078119277954,-9.607333183288574,-0.14185644686222076
1482153032176,-0.2059013396501541,-9.685144424438477,-0.19572599232196808
1482153032361,-0.1909375786781311,-9.66419506072998,-0.1562216579914093
1482153032540,-0.12509703636169434,-9.66419506072998,-0.2214636504650116
1482153032721,-0.1430535465478897,-9.662399291992188,-0.1759738177061081
1482153032897,-0.13287819921970367,-9.701904296875,-0.15801730751991272
1482153033079,-0.1388636976480484,-9.688735961914063,-0.14365209639072418
1482153033262,-0.15263035893440247,-9.665990829467773,-0.18794482946395874
1482153033442,-0.07122749835252762,-9.6618013381958,-0.20111294090747833
1482153033618,-0.32441434264183044,-9.767744064331055,-0.10115502029657364
1482153033802,-0.16639702022075653,-9.713275909423828,-0.12928688526153564
1482153033982,-0.07003039866685867,-9.645041465759277,-0.16220717132091522
1482153034158,-0.20290859043598175,-9.684545516967773,-0.1759738177061081
1482153034343,-0.10235211998224258,-9.653421401977539,-0.16998831927776337
1482153034520,-0.16519992053508759,-9.660603523254395,-0.20231004059314728
1482153034698,-0.12449848651885986,-9.68813705444336,-0.22445641458034515
1482153034884,-0.17058686912059784,-9.668384552001953,-0.17477671802043915
1482153035061,-0.1280897855758667,-9.66958236694336,-0.15682020783424377
1482153035242,-0.20769700407981873,-9.655217170715332,-0.10055647045373917
1482153035422,-0.14604631066322327,-9.634267807006836,-0.1364694982767105
1482153035607,-0.1693897694349289,-9.658209800720215,-0.1107318252325058
1482153035782,-0.08559270948171616,-9.63187313079834,-0.1256955862045288
1482153035965,-0.14844051003456116,-9.677363395690918,-0.15921440720558167
1482153036140,-0.17956513166427612,-9.646238327026367,-0.1885433793067932
1482153036326,-0.17657238245010376,-9.672574996948242,-0.15741875767707825
1482153036505,-0.1628057211637497,-9.64923095703125,-0.13826514780521393
1482153036680,-0.21368250250816345,-9.628880500793457,-0.05925649031996727
1482153036866,-0.1496376097202301,-9.651026725769043,-0.11432313174009323
1482153037046,-0.16579847037792206,-9.671976089477539,-0.09696517139673233
1482153037224,-0.1604115068912506,-9.660005569458008,-0.10055647045373917
1482153037404,-0.22385786473751068,-9.680954933166504,-0.12210428714752197
1482153037581,-0.22625206410884857,-9.657012939453125,-0.08200141042470932
1482153037766,-0.19213469326496124,-9.694122314453125,-0.05925649031996727
1482153037946,-0.2106897532939911,-9.68694019317627,-0.0867898091673851
1482153038125,-0.2256535142660141,-9.640253067016602,0.0293289702385664
1482153038306,-0.27473464608192444,-9.654618263244629,-0.0586579404771328
1482153038487,-0.17178396880626678,-9.654618263244629,-0.05386953800916672
1482153038662,-0.20350714027881622,-9.64923095703125,0.025737667456269264
1482153038846,-0.23822307586669922,-9.656414031982422,-0.010773907415568829
1482153039027,-0.22026655077934265,-9.679757118225098,-0.031124621629714966
1482153039203,-0.19871874153614044,-9.645041465759277,-0.07541735470294952
1482153039385,-0.15741875767707825,-9.674968719482422,-0.076015904545784
1482153039568,-0.19572599232196808,-9.676166534423828,-0.10055647045373917
1482153039743,-0.2017114907503128,-9.66419506072998,-0.09576806426048279
1482153039928,-0.2017114907503128,-9.673771858215332,-0.04668693244457245
1482153040108,-0.15023615956306458,-9.6618013381958,-0.09816227108240128
1482153040288,-0.15801730751991272,-9.642048835754395,-0.09935937076807022
1482153040468,-0.2148796021938324,-9.645041465759277,-0.0975637212395668
1482153040669,-0.1825578808784485,-9.667187690734863,-0.0867898091673851
1482153040829,-0.1909375786781311,-9.6618013381958,-0.10295066982507706
1482153041005,-0.19033902883529663,-9.674370765686035,-0.11133038252592087
1482153041185,-0.1951274424791336,-9.660603523254395,-0.08738835901021957
1482153041369,-0.16639702022075653,-9.670180320739746,-0.09696517139673233
1482153041549,-0.16639702022075653,-9.655217170715332,-0.14245499670505524
1482153041726,-0.09516951441764832,-9.693524360656738,-0.16340427100658417
1482153041910,-0.16579847037792206,-9.654618263244629,-0.15023615956306458
1482153042088,-0.1885433793067932,-9.659406661987305,-0.1430535465478897
1482153042269,-0.10534487664699554,-9.646238327026367,-0.14844051003456116
1482153042450,-0.12090718746185303,-9.675567626953125,-0.15322890877723694
1482153042630,-0.1256955862045288,-9.655217170715332,-0.16101007163524628
1482153042809,-0.13287819921970367,-9.667786598205566,-0.15143325924873352
1482153042991,-0.11791443079710007,-9.62828254699707,-0.18734627962112427
1482153043170,-0.1388636976480484,-9.68813705444336,-0.1999158412218094
1482153043351,-0.1430535465478897,-9.656414031982422,-0.17657238245010376
1482153043531,-0.17896658182144165,-9.660603523254395,-0.1364694982767105
1482153043716,-0.18315643072128296,-9.622895240783691,-0.09576806426048279
1482153043891,-0.1388636976480484,-9.667786598205566,-0.1173158809542656
1482153044072,-0.1364694982767105,-9.656414031982422,-0.12629413604736328
1482153044247,-0.14604631066322327,-9.650428771972656,-0.17417816817760468
1482153044432,-0.2082955539226532,-9.65222454071045,-0.14604631066322327
1482153044612,-0.1280897855758667,-9.671976089477539,-0.1346738487482071
1482153044792,-0.1454477459192276,-9.644442558288574,-0.16340427100658417
1482153044973,-0.18914192914962769,-9.657012939453125,-0.16340427100658417
1482153045151,-0.17298106849193573,-9.657610893249512,-0.13706804811954498
1482153045334,-0.14425064623355865,-9.66958236694336,-0.1280897855758667
1482153045512,-0.17657238245010376,-9.685144424438477,-0.11252748221158981
1482153045711,-0.1825578808784485,-9.656414031982422,-0.09157821536064148
1482153045873,-0.17537526786327362,-9.651026725769043,-0.0694318488240242
1482153046058,-0.18555063009262085,-9.666589736938477,-0.0999579206109047
1482153046229,-0.2148796021938324,-9.665990829467773,-0.060453593730926514
1482153046411,-0.1909375786781311,-9.655217170715332,-0.07302315533161163
1482153046591,-0.1867477297782898,-9.663596153259277,-0.07661445438861847
1482153046770,-0.21009120345115662,-9.673172950744629,-0.043095629662275314
1482153046952,-0.26096799969673157,-9.64923095703125,0.03292027488350868
1482153047132,-0.22026655077934265,-9.66299819946289,0.07541735470294952
1482153047314,-0.21428105235099792,-9.654019355773926,0.03890577703714371
1482153047496,-0.24001872539520264,-9.647436141967773,0.12689268589019775
1482153047672,-0.1759738177061081,-9.64923095703125,0.08798690885305405
1482153047854,-0.1586158573627472,-9.685144424438477,0.06703764945268631
1482153048035,-0.1346738487482071,-9.671976089477539,-0.05446808785200119
1482153048211,-0.16340427100658417,-9.716269493103027,-0.08858546614646912
1482153048395,-0.18614917993545532,-9.67077922821045,-0.08499415963888168
1482153048576,-0.17717093229293823,-9.656414031982422,-0.11013327538967133
1482153048751,-0.15322890877723694,-9.656414031982422,-0.13587094843387604
1482153048936,-0.18315643072128296,-9.639654159545898,-0.11552023142576218
1482153049116,-0.17717093229293823,-9.676764488220215,-0.152031809091568
1482153049292,-0.1280897855758667,-9.697115898132324,-0.17717093229293823
1482153049477,-0.16639702022075653,-9.656414031982422,-0.16639702022075653
1482153049657,-0.13706804811954498,-9.632472038269043,-0.1604115068912506
1482153049835,-0.14604631066322327,-9.672574996948242,-0.16340427100658417
1482153050017,-0.15741875767707825,-9.66419506072998,-0.11611878126859665
1482153050195,-0.11851298063993454,-9.66539192199707,-0.14784196019172668
1482153050378,-0.12988543510437012,-9.653421401977539,-0.1412578970193863
1482153050557,-0.15023615956306458,-9.658209800720215,-0.1777694821357727
1482153050734,-0.1322796493768692,-9.682151794433594,-0.17657238245010376
1482153050918,-0.12629413604736328,-9.671378135681152,-0.1777694821357727
1482153051092,-0.15263035893440247,-9.667187690734863,-0.15442600846290588
1482153051274,-0.12629413604736328,-9.659406661987305,-0.12749123573303223
1482153051459,-0.17058686912059784,-9.642647743225098,-0.11312603205442429
1482153051639,-0.14185644686222076,-9.677363395690918,-0.14065934717655182
1482153051816,-0.09217676520347595,-9.639654159545898,-0.13287819921970367
1482153051999,-0.19692309200763702,-9.665990829467773,-0.11432313174009323
1482153052179,-0.11552023142576218,-9.661202430725098,-0.1885433793067932
1482153052360,-0.14425064623355865,-9.643844604492188,-0.17058686912059784
1482153052539,-0.1933317929506302,-9.68274974822998,-0.12270283699035645
1482153052717,-0.20530278980731964,-9.676166534423828,-0.06703764945268631
1482153052900,-0.14664486050605774,-9.649829864501953,-0.11252748221158981
1482153053080,-0.17537526786327362,-9.66299819946289,-0.1041477769613266
1482153053256,-0.1843535304069519,-9.654019355773926,-0.08439560979604721
1482153053440,-0.19692309200763702,-9.652822494506836,-0.0999579206109047
1482153053620,-0.16579847037792206,-9.679757118225098,-0.10953472554683685
1482153053796,-0.13706804811954498,-9.653421401977539,-0.11312603205442429
1482153053980,-0.19273324310779572,-9.641449928283691,-0.12090718746185303
1482153054160,-0.12928688526153564,-9.64923095703125,-0.15083470940589905
1482153054337,-0.1472434103488922,-9.676764488220215,-0.11432313174009323
1482153054520,-0.15801730751991272,-9.651026725769043,-0.11791443079710007
1482153054701,-0.20350714027881622,-9.662399291992188,-0.15083470940589905
1482153054881,-0.02992752194404602,-9.613917350769043,-0.19931729137897491
1482153055062,-0.2346317619085312,-9.630077362060547,-0.181959331035614
1482153055239,-0.13706804811954498,-9.645041465759277,-0.2041056901216507
1482153055422,-0.22206220030784607,-9.725846290588379,-0.12090718746185303
1482153055602,-0.18974047899246216,-9.64564037322998,-0.11013327538967133
1482153055778,-0.11911153793334961,-9.668983459472656,-0.11192893236875534
1482153055962,-0.11133038252592087,-9.677363395690918,-0.12509703636169434
1482153056139,-0.1759738177061081,-9.644442558288574,-0.13168109953403473
1482153056318,-0.18136078119277954,-9.679757118225098,-0.13706804811954498
1482153056498,-0.15741875767707825,-9.661202430725098,-0.14664486050605774
1482153056684,-0.15801730751991272,-9.674968719482422,-0.1173158809542656
1482153056859,-0.1472434103488922,-9.651026725769043,-0.15322890877723694
1482153057042,-0.15322890877723694,-9.65222454071045,-0.16160862147808075
1482153057225,-0.12868833541870117,-9.663596153259277,-0.1711854189634323
1482153057401,-0.16998831927776337,-9.663596153259277,-0.1867477297782898
1482153057585,-0.1364694982767105,-9.6618013381958,-0.17836803197860718
1482153057764,-0.1909375786781311,-9.66419506072998,-0.18495208024978638
1482153057945,-0.15562310814857483,-9.664793968200684,-0.13347674906253815
1482153058124,-0.17477671802043915,-9.683348655700684,-0.11192893236875534
1482153058300,-0.1604115068912506,-9.643245697021484,-0.10295066982507706
1482153058486,-0.17477671802043915,-9.642048835754395,-0.08080431073904037
1482153058666,-0.19393034279346466,-9.665990829467773,-0.10474632680416107
1482153058841,-0.16639702022075653,-9.660005569458008,-0.09397241473197937
1482153059026,-0.2064998894929886,-9.68933391571045,-0.03950432687997818
1482153059206,-0.08559270948171616,-9.592369079589844,-0.061052143573760986
1482153059386,-0.21847090125083923,-9.652822494506836,-0.05626374110579491
1482153059566,-0.20290859043598175,-9.68274974822998,-0.04967968538403511
1482153059746,-0.16340427100658417,-9.670180320739746,-0.07481880486011505
1482153059927,-0.1604115068912506,-9.665990829467773,-0.11611878126859665
1482153060101,-0.2106897532939911,-9.662399291992188,-0.08259996026754379
1482153060281,-0.17477671802043915,-9.657610893249512,-0.05446808785200119
1482153060461,-0.20290859043598175,-9.637260437011719,-0.07781155407428741
1482153060641,-0.20949265360832214,-9.657012939453125,-0.0520738884806633
1482153060822,-0.15442600846290588,-9.64803409576416,-0.07182604819536209
1482153061007,-0.1777694821357727,-9.651625633239746,-0.07541735470294952
1482153061182,-0.1933317929506302,-9.677961349487305,-0.10773907601833344
1482153061363,-0.1825578808784485,-9.646238327026367,-0.0802057534456253
1482153061546,-0.16519992053508759,-9.673172950744629,-0.09636662155389786
1482153061728,-0.1562216579914093,-9.670180320739746,-0.12689268589019775
1482153061918,-0.15502455830574036,-9.671976089477539,-0.11372458189725876
1482153062088,-0.1909375786781311,-9.671976089477539,-0.10953472554683685
1482153062266,-0.1735796183347702,-9.691129684448242,-0.13587094843387604
1482153062447,-0.1843535304069519,-9.68155288696289,-0.10594342648983002
1482153062629,-0.1364694982767105,-9.673771858215332,-0.15023615956306458
1482153062808,-0.16579847037792206,-9.676764488220215,-0.13946224749088287
1482153062989,-0.1322796493768692,-9.678560256958008,-0.13766659796237946
1482153063169,-0.15143325924873352,-9.70310115814209,-0.10474632680416107
1482153063345,-0.1628057211637497,-9.659406661987305,-0.11192893236875534
1482153063527,-0.1909375786781311,-9.664793968200684,-0.06524199992418289
1482153063708,-0.15263035893440247,-9.68155288696289,-0.03232172131538391
1482153063885,-0.20111294090747833,-9.663596153259277,-0.026336219161748886
1482153064070,-0.17657238245010376,-9.641449928283691,-0.05985504388809204
1482153064250,-0.1173158809542656,-9.68274974822998,-0.11671733111143112
1482153064430,-0.18734627962112427,-9.659406661987305,-0.07541735470294952
1482153064611,-0.17058686912059784,-9.649829864501953,-0.0867898091673851
1482153064789,-0.12629413604736328,-9.646238327026367,-0.03531447425484657
1482153064966,-0.15442600846290588,-9.639654159545898,-0.09576806426048279
1482153065150,-0.22445641458034515,-9.653421401977539,-0.06883329898118973
1482153065327,-0.1885433793067932,-9.68933391571045,-0.0802057534456253
1482153065511,-0.23163901269435883,-9.651026725769043,-0.04249707981944084
1482153065692,-0.18315643072128296,-9.639056205749512,-0.0011971008498221636
1482153065867,-0.15741875767707825,-9.679757118225098,-0.0867898091673851
1482153066052,-0.19273324310779572,-9.673172950744629,-0.08319851011037827
1482153066231,-0.17717093229293823,-9.6618013381958,-0.10175357013940811
1482153066408,-0.1909375786781311,-9.667786598205566,-0.11971008777618408
1482153066592,-0.15562310814857483,-9.682151794433594,-0.15143325924873352
1482153066773,-0.14365209639072418,-9.675567626953125,-0.16400282084941864
1482153066953,-0.14425064623355865,-9.667786598205566,-0.24779987335205078
1482153067133,-0.16879121959209442,-9.674370765686035,-0.22625206410884857
1482153067309,-0.1867477297782898,-9.676166534423828,-0.19452889263629913
1482153067494,-0.12270283699035645,-9.66299819946289,-0.152031809091568
1482153067673,-0.11312603205442429,-9.68274974822998,-0.15023615956306458
1482153067850,-0.08559270948171616,-9.666589736938477,-0.1628057211637497
1482153068031,-0.1430535465478897,-9.648633003234863,-0.14006079733371735
1482153068216,-0.152031809091568,-9.659406661987305,-0.14844051003456116
1482153068389,-0.14425064623355865,-9.68813705444336,-0.16519992053508759
1482153068574,-0.1472434103488922,-9.67077922821045,-0.18914192914962769
1482153068755,-0.1430535465478897,-9.674370765686035,-0.17657238245010376
1482153068933,-0.15921440720558167,-9.689932823181152,-0.16101007163524628
1482153069114,-0.11671733111143112,-9.674370765686035,-0.1735796183347702
1482153069296,-0.14006079733371735,-9.64683723449707,-0.14245499670505524
1482153069475,-0.15502455830574036,-9.679757118225098,-0.18136078119277954
1482153069656,-0.09277531504631042,-9.656414031982422,-0.19273324310779572
1482153069835,-0.15801730751991272,-9.655217170715332,-0.17896658182144165
1482153070016,-0.09457096457481384,-9.64803409576416,-0.17058686912059784
1482153070196,-0.13048399984836578,-9.68694019317627,-0.13766659796237946
1482153070371,-0.15083470940589905,-9.659406661987305,-0.13287819921970367
1482153070556,-0.14065934717655182,-9.657012939453125,-0.16400282084941864
1482153070736,-0.10833762586116791,-9.659406661987305,-0.16101007163524628
1482153070912,-0.09636662155389786,-9.64683723449707,-0.19033902883529663
1482153071091,-0.08439560979604721,-9.659406661987305,-0.16400282084941864
1482153071277,-0.13168109953403473,-9.671976089477539,-0.15981295704841614
1482153071452,-0.14425064623355865,-9.657610893249512,-0.14245499670505524
1482153071637,-0.15083470940589905,-9.665990829467773,-0.13766659796237946
1482153071817,-0.152031809091568,-9.653421401977539,-0.09696517139673233
1482153071998,-0.12629413604736328,-9.634865760803223,-0.12928688526153564
1482153072178,-0.13108254969120026,-9.66299819946289,-0.12449848651885986
1482153072357,-0.166995570063591,-9.660603523254395,-0.11252748221158981
1482153072538,-0.15682020783424377,-9.677961349487305,-0.13108254969120026
1482153072718,-0.13766659796237946,-9.657610893249512,-0.13946224749088287
1482153072894,-0.12270283699035645,-9.653421401977539,-0.13706804811954498
1482153073078,-0.11791443079710007,-9.66299819946289,-0.1496376097202301
1482153073257,-0.1256955862045288,-9.673172950744629,-0.1472434103488922
1482153073434,-0.13108254969120026,-9.687539100646973,-0.14006079733371735
1482153073618,-0.13347674906253815,-9.649829864501953,-0.09576806426048279
1482153073799,-0.12928688526153564,-9.628880500793457,-0.1215057373046875
1482153073975,-0.10893617570400238,-9.64683723449707,-0.10295066982507706
1482153074158,-0.1496376097202301,-9.671378135681152,-0.16220717132091522
1482153074339,-0.13287819921970367,-9.64564037322998,-0.17058686912059784
1482153074518,-0.1885433793067932,-9.66419506072998,-0.17717093229293823
1482153074699,-0.1472434103488922,-9.654019355773926,-0.19871874153614044
1482153074881,-0.12090718746185303,-9.648633003234863,-0.1843535304069519
1482153075060,-0.12988543510437012,-9.678560256958008,-0.2172738015651703
1482153075240,-0.14365209639072418,-9.664793968200684,-0.22086510062217712
1482153075416,-0.1454477459192276,-9.657012939453125,-0.1951274424791336
1482153075601,-0.166995570063591,-9.655815124511719,-0.17477671802043915
1482153075781,-0.13048399984836578,-9.636661529541016,-0.14844051003456116
1482153075956,-0.12389993667602539,-9.67077922821045,-0.14425064623355865
1482153076140,-0.10534487664699554,-9.658807754516602,-0.1628057211637497
1482153076321,-0.12988543510437012,-9.679159164428711,-0.1777694821357727
1482153076497,-0.13527239859104156,-9.651625633239746,-0.16400282084941864
1482153076682,-0.1256955862045288,-9.66299819946289,-0.1777694821357727
1482153076862,-0.13587094843387604,-9.673172950744629,-0.1604115068912506
1482153077040,-0.10953472554683685,-9.68574333190918,-0.16819266974925995
1482153077217,-0.15023615956306458,-9.657012939453125,-0.1388636976480484
1482153077404,-0.13407529890537262,-9.63187313079834,-0.1628057211637497
1482153077583,-0.08200141042470932,-9.627683639526367,-0.1975216418504715
1482153077763,-0.17298106849193573,-9.677363395690918,-0.15801730751991272
1482153077939,-0.20290859043598175,-9.63187313079834,-0.17537526786327362
1482153078123,-0.1280897855758667,-9.64803409576416,-0.16879121959209442
1482153078303,-0.09217676520347595,-9.659406661987305,-0.17178396880626678
1482153078479,-0.2890998423099518,-10.055048942565918,-0.48722004890441895
1482153078664,-0.15502455830574036,-9.68155288696289,-0.21547815203666687
1482153078844,-0.14185644686222076,-9.674968719482422,-0.1711854189634323
1482153079022,-0.18136078119277954,-9.662399291992188,-0.18375498056411743
1482153079202,-0.1885433793067932,-9.674968719482422,-0.0802057534456253
1482153079385,-0.07302315533161163,-9.64564037322998,-0.10654197633266449
1482153079565,-0.2148796021938324,-9.659406661987305,-0.0694318488240242
1482153079745,-0.11911153793334961,-9.64803409576416,-0.07721300423145294
1482153079920,-0.17238251864910126,-9.660005569458008,-0.11432313174009323
1482153080106,-0.1412578970193863,-9.690531730651855,-0.10175357013940811
1482153080280,-0.2214636504650116,-9.679159164428711,-0.15981295704841614
1482153080461,-0.18794482946395874,-9.671976089477539,-0.15981295704841614
1482153080646,-0.1735796183347702,-9.66419506072998,-0.11791443079710007
1482153080826,-0.1711854189634323,-9.654019355773926,-0.11312603205442429
1482153081001,-0.13347674906253815,-9.637260437011719,-0.14185644686222076
1482153081186,-0.10654197633266449,-9.670180320739746,-0.19632454216480255
1482153081366,-0.26396074891090393,-9.657610893249512,-0.09038111567497253
1482153081546,-0.15263035893440247,-9.727043151855469,-0.12210428714752197
1482153081726,-0.13527239859104156,-9.567230224609375,-0.07960720360279083
1482153081906,-0.09696517139673233,-9.640253067016602,-0.053270988166332245
1482153082087,-0.13706804811954498,-9.656414031982422,-0.05686229094862938
1482153082267,-0.1364694982767105,-9.66539192199707,-0.05506663769483566
1482153082447,-0.08798690885305405,-9.610923767089844,-0.12330138683319092
1482153082626,-0.16998831927776337,-9.691129684448242,-0.1604115068912506
1482153082807,-0.14425064623355865,-9.594164848327637,-0.1215057373046875
1482153082983,-0.09397241473197937,-9.701305389404297,-0.17657238245010376
1482153083168,-0.10714052617549896,-9.678560256958008,-0.16998831927776337
1482153083343,-0.1280897855758667,-9.659406661987305,-0.2322375625371933
1482153083524,-0.17058686912059784,-9.678560256958008,-0.20530278980731964
1482153083708,-0.06883329898118973,-9.655815124511719,-0.20051439106464386
1482153083888,-0.1107318252325058,-9.659406661987305,-0.1999158412218094
1482153084067,-0.08978256583213806,-9.674370765686035,-0.19213469326496124
1482153084249,-0.08319851011037827,-9.646238327026367,-0.16579847037792206
1482153084426,-0.2663549482822418,-9.701904296875,-0.15682020783424377
1482153084607,-0.090979665517807,-9.640851974487305,-0.17417816817760468
1482153084789,-0.18974047899246216,-9.62947940826416,-0.13048399984836578
1482153084965,-0.12509703636169434,-9.671976089477539,-0.18495208024978638
1482153085149,-0.16759411990642548,-9.662399291992188,-0.1364694982767105
1482153085330,-0.1843535304069519,-9.691728591918945,-0.13048399984836578
1482153085506,-0.2041056901216507,-9.658807754516602,-0.18375498056411743
1482153085690,-0.08140286058187485,-9.55705451965332,0.03770867735147476
1482153085870,-0.048482585698366165,-9.71926212310791,-0.1604115068912506
1482153086046,-0.07900865375995636,-9.660603523254395,-0.22685061395168304
1482153086230,0.1843535304069519,-9.641449928283691,-0.2944868206977844
1482153086405,0.1107318252325058,-9.68574333190918,-0.2890998423099518
1482153086615,0.06404489278793335,-9.677961349487305,-0.2495955228805542
1482153086771,-0.0628477931022644,-9.64803409576416,-0.24899697303771973
1482153086950,-0.10714052617549896,-9.66539192199707,-0.10714052617549896
1482153087131,-0.09397241473197937,-9.656414031982422,-0.061052143573760986
1482153087311,-0.15442600846290588,-9.692925453186035,0.025737667456269264
1482153087488,-0.05506663769483566,-9.633668899536133,-0.14185644686222076
1482153087672,-0.10235211998224258,-9.648633003234863,-0.1867477297782898
1482153087852,-0.17298106849193573,-9.659406661987305,-0.2298433631658554
1482153088028,-0.16519992053508759,-9.662399291992188,-0.1975216418504715
1482153088212,-0.16579847037792206,-9.658807754516602,-0.2064998894929886
1482153088392,-0.1430535465478897,-9.777320861816406,-0.11851298063993454
1482153088573,-0.1562216579914093,-9.694721221923828,-0.15263035893440247
1482153088753,-0.11851298063993454,-9.624691009521484,-0.10953472554683685
1482153088933,-0.29149407148361206,-9.664793968200684,0.019153613597154617
1482153089109,-0.10833762586116791,-9.641449928283691,-0.0694318488240242
1482153089287,-0.16160862147808075,-9.6989107131958,-0.14784196019172668
1482153089469,-0.1801636815071106,-9.63067626953125,-0.090979665517807
1482153089653,-0.21847090125083923,-9.685144424438477,-0.15322890877723694
1482153089831,-0.14903905987739563,-9.692925453186035,-0.14425064623355865
1482153090009,-0.2801215946674347,-9.634865760803223,-0.10534487664699554
1482153090194,-0.15921440720558167,-9.658807754516602,-0.07481880486011505
1482153090375,-0.1041477769613266,-9.673172950744629,-0.10594342648983002
1482153090550,-0.10055647045373917,-9.658209800720215,-0.15801730751991272
1482153090733,-0.25977087020874023,-9.683348655700684,-0.05985504388809204
1482153090915,-0.49140989780426025,-9.679159164428711,-0.33518823981285095
1482153091095,0.2795230448246002,-9.701305389404297,-0.1909375786781311
1482153091296,-0.42197805643081665,-9.657610893249512,0.1496376097202301
1482153091455,-0.14425064623355865,-9.622296333312988,-0.12330138683319092
1482153091635,-0.16639702022075653,-9.578003883361816,-0.031124621629714966
1482153091816,-0.1628057211637497,-9.70429801940918,-0.12928688526153564
1482153091994,-0.0586579404771328,-9.656414031982422,-0.1825578808784485
1482153092174,-0.18136078119277954,-9.679757118225098,-0.12449848651885986
1482153092353,-0.28072014451026917,-9.609128952026367,-0.03411737456917763
1482153092532,-0.3669114112854004,-9.643844604492188,0.013766659423708916
1482153092715,0.12270283699035645,-9.674968719482422,-0.07182604819536209
1482153092897,-0.19812019169330597,-9.604340553283691,-0.050876785069704056
1482153093072,-0.4297592043876648,-9.588179588317871,-0.047884032130241394
1482153093257,-0.1825578808784485,-9.709685325622559,-0.11911153793334961
1482153093437,0.016160860657691956,-9.459490776062012,-0.5428852438926697
1482153093615,-0.13168109953403473,-9.707889556884766,-0.40940847992897034
1482153093797,-0.1646013706922531,-9.668983459472656,-0.12210428714752197
1482153093976,-0.12509703636169434,-9.668384552001953,-0.26096799969673157
1482153094158,0.02753331884741783,-9.692925453186035,-0.2663549482822418
1482153094338,-0.0694318488240242,-9.692925453186035,-0.25677812099456787
1482153094516,0.016759412363171577,-9.668983459472656,-0.33518823981285095
1482153094698,-0.09696517139673233,-9.639654159545898,-0.2472013235092163
1482153094878,-0.09935937076807022,-9.659406661987305,-0.23283611238002777
1482153095054,-0.03531447425484657,-9.598953247070313,-0.24899697303771973
1482153095239,0.19632454216480255,-9.656414031982422,-0.3357867896556854
1482153095419,-0.21308395266532898,-9.625887870788574,-0.25438392162323
1482153095595,-0.09157821536064148,-9.68694019317627,-0.1843535304069519
1482153095779,-0.1777694821357727,-9.729436874389648,-0.23762452602386475
1482153095959,-0.08259996026754379,-9.668983459472656,-0.2944868206977844
1482153096140,-0.19393034279346466,-9.68933391571045,-0.2519897222518921
1482153096323,-0.14903905987739563,-9.659406661987305,-0.2663549482822418
1482153096503,-0.18495208024978638,-9.611522674560547,-0.3495534360408783
1482153096680,-0.12030863761901855,-9.674968719482422,-0.21847090125083923
1482153096860,-0.20889410376548767,-9.647436141967773,-0.22744916379451752
1482153097037,-0.1454477459192276,-9.660603523254395,-0.17178396880626678
1482153097221,-0.19153612852096558,-9.68813705444336,-0.053270988166332245
1482153097401,-0.23762452602386475,-9.649829864501953,-0.15981295704841614
1482153097576,-0.13407529890537262,-9.64564037322998,-0.181959331035614
1482153097761,-0.20111294090747833,-9.644442558288574,-0.19452889263629913
1482153097941,-0.08619125932455063,-9.66419506072998,-0.24001872539520264
1482153098117,-0.1801636815071106,-9.665990829467773,-0.20111294090747833
1482153098300,-0.1322796493768692,-9.65222454071045,-0.17178396880626678
1482153098485,-0.08080431073904037,-9.663596153259277,-0.18794482946395874
1482153098661,-0.1322796493768692,-9.664793968200684,-0.18495208024978638
1482153098842,-0.1604115068912506,-9.662399291992188,-0.16340427100658417
1482153099022,-0.13527239859104156,-9.66299819946289,-0.17657238245010376
1482153099202,-0.19871874153614044,-9.687539100646973,-0.17298106849193573
1482153099381,-0.14365209639072418,-9.666589736938477,-0.2124854028224945
1482153099558,-0.15682020783424377,-9.66419506072998,-0.1759738177061081
1482153099742,-0.1538274586200714,-9.671378135681152,-0.16879121959209442
1482153099923,-0.1454477459192276,-9.673172950744629,-0.22086510062217712
1482153100099,-0.15682020783424377,-9.670180320739746,-0.18914192914962769
1482153100284,-0.11791443079710007,-9.67077922821045,-0.16160862147808075
1482153100461,-0.13587094843387604,-9.671378135681152,-0.2017114907503128
1482153100639,-0.16759411990642548,-9.664793968200684,-0.18315643072128296
1482153100825,-0.15502455830574036,-9.67077922821045,-0.1777694821357727
1482153101005,-0.13048399984836578,-9.658209800720215,-0.20769700407981873
1482153101182,-0.18734627962112427,-9.709685325622559,-0.17417816817760468
1482153101360,-0.13347674906253815,-9.68694019317627,-0.14604631066322327
1482153101542,-0.12689268589019775,-9.651026725769043,-0.1604115068912506
1482153101723,-0.1711854189634323,-9.672574996948242,-0.14185644686222076
1482153101906,-0.21368250250816345,-9.639654159545898,-0.07721300423145294
1482153102089,-0.1604115068912506,-9.683947563171387,-0.07661445438861847
1482153102266,-0.0736217051744461,-9.645041465759277,-0.1388636976480484
1482153102444,-0.22924481332302094,-9.618106842041016,-0.1454477459192276
1482153102621,-0.1867477297782898,-9.639056205749512,-0.1735796183347702
1482153102805,-0.1388636976480484,-9.691728591918945,-0.15442600846290588
1482153102986,-0.1628057211637497,-9.650428771972656,-0.1933317929506302
1482153103161,-0.14484919607639313,-9.674370765686035,-0.2106897532939911
1482153103346,-0.1951274424791336,-9.679757118225098,-0.19393034279346466
1482153103526,-0.1646013706922531,-9.660603523254395,-0.17178396880626678
1482153103707,-0.23403321206569672,-9.676764488220215,-0.14784196019172668
1482153103887,-0.1885433793067932,-9.670180320739746,-0.14365209639072418
1482153104066,-0.18914192914962769,-9.650428771972656,-0.10654197633266449
1482153104247,-0.22206220030784607,-9.655217170715332,-0.09696517139673233
1482153104426,-0.1280897855758667,-9.677363395690918,-0.061052143573760986
1482153104606,-0.19393034279346466,-9.686341285705566,-0.050876785069704056
1482153104787,-0.14604631066322327,-9.663596153259277,-0.13287819921970367
1482153104966,-0.15263035893440247,-9.679757118225098,-0.16220717132091522
1482153105144,-0.16101007163524628,-9.635464668273926,-0.15562310814857483
1482153105328,-0.1759738177061081,-9.657012939453125,-0.16639702022075653
1482153105508,-0.17896658182144165,-9.696516990661621,-0.1777694821357727
1482153105684,-0.16101007163524628,-9.657012939453125,-0.12928688526153564
1482153105867,-0.09038111567497253,-9.654019355773926,-0.166995570063591
1482153106049,-0.10295066982507706,-9.623494148254395,-0.20949265360832214
1482153106229,-0.09696517139673233,-9.627683639526367,-0.17477671802043915
1482153106405,-0.11552023142576218,-9.707290649414063,-0.01975216343998909
1482153106588,-0.1173158809542656,-9.677961349487305,-0.22266076505184174
1482153106770,-0.2059013396501541,-9.786897659301758,-0.2232593148946762
1482153106950,-0.03232172131538391,-9.63187313079834,-0.20051439106464386
1482153107127,-0.0933738648891449,-9.631275177001953,-0.15801730751991272
1482153107310,-0.07062894850969315,-9.740809440612793,-0.1454477459192276
1482153107490,-0.12330138683319092,-9.677363395690918,-0.10354922711849213
1482153107665,-0.12090718746185303,-9.616909980773926,-0.07062894850969315
1482153107850,-0.1801636815071106,-9.6803560256958,-0.15143325924873352
1482153108031,-0.14185644686222076,-9.631275177001953,-0.0520738884806633
1482153108206,-0.2059013396501541,-9.642048835754395,-0.10654197633266449
1482153108391,-0.22385786473751068,-9.761159896850586,-0.1346738487482071
1482153108571,-0.06883329898118973,-9.663596153259277,-0.08858546614646912
1482153108751,-0.26336219906806946,-9.684545516967773,-0.11911153793334961
1482153108931,-0.11133038252592087,-9.650428771972656,-0.1777694821357727
1482153109115,-0.1472434103488922,-9.656414031982422,-0.15322890877723694
1482153109292,-0.08200141042470932,-9.68813705444336,-0.0694318488240242
1482153109472,-0.13527239859104156,-9.651625633239746,-0.17178396880626678
1482153109650,-0.08738835901021957,-9.642647743225098,-0.15322890877723694
1482153109832,-0.06703764945268631,-9.66419506072998,-0.16879121959209442
1482153110012,-0.06823474913835526,-9.710283279418945,-0.13527239859104156
1482153110188,-0.08319851011037827,-9.634865760803223,-0.14365209639072418
1482153110373,-0.07003039866685867,-9.66299819946289,-0.15442600846290588
1482153110553,-0.053270988166332245,-9.671378135681152,-0.14903905987739563
1482153110728,-0.0933738648891449,-9.649829864501953,-0.10295066982507706
1482153110912,-0.16340427100658417,-9.674968719482422,-0.0999579206109047
1482153111094,-0.181959331035614,-9.673771858215332,-0.0586579404771328
1482153111271,0.09217676520347595,-9.68933391571045,-0.10833762586116791
1482153111450,-0.23044191300868988,-9.655217170715332,-0.09516951441764832
1482153111632,-0.13108254969120026,-9.677363395690918,-0.08798690885305405
1482153111812,-0.09217676520347595,-9.678560256958008,-0.12928688526153564
1482153111995,-0.19273324310779572,-9.668384552001953,-0.023343466222286224
1482153112170,-0.18555063009262085,-9.662399291992188,-0.0293289702385664
1482153112355,-0.20350714027881622,-9.633668899536133,0.018555063754320145
1482153112536,-0.1562216579914093,-9.683348655700684,0.030526071786880493
1482153112710,-0.13706804811954498,-9.653421401977539,-0.008978256024420261
1482153112899,-0.10295066982507706,-9.624092102050781,0.023343466222286224
1482153113076,-0.13407529890537262,-9.656414031982422,-0.023343466222286224
1482153113251,-0.15741875767707825,-9.638457298278809,0.06524199992418289
1482153113436,-0.17238251864910126,-9.652822494506836,0.03172317147254944
1482153113614,-0.1801636815071106,-9.660005569458008,0.05925649031996727
1482153113795,-0.1215057373046875,-9.654618263244629,0.011372458189725876
1482153113975,-0.10893617570400238,-9.621099472045898,-0.005985504016280174
1482153114159,-0.0520738884806633,-9.694122314453125,-0.05985504388809204
1482153114336,-0.2059013396501541,-9.638457298278809,-0.11911153793334961
1482153114515,-0.12629413604736328,-9.642048835754395,-0.08319851011037827
1482153114693,-0.10833762586116791,-9.660005569458008,-0.12270283699035645
1482153114877,-0.12689268589019775,-9.685144424438477,-0.1256955862045288
1482153115057,-0.11971008777618408,-9.685144424438477,-0.15801730751991272
1482153115233,-0.1173158809542656,-9.668983459472656,-0.17298106849193573
1482153115417,-0.15023615956306458,-9.671976089477539,-0.18495208024978638
1482153115598,-0.11252748221158981,-9.673172950744629,-0.12988543510437012
1482153115773,-0.0628477931022644,-9.662399291992188,-0.1280897855758667
1482153115958,-0.03292027488350868,-9.658807754516602,-0.1472434103488922
1482153116138,-0.05267243832349777,-9.673771858215332,-0.1388636976480484
1482153116316,-0.10654197633266449,-9.652822494506836,-0.13168109953403473
1482153116516,-0.1041477769613266,-9.677363395690918,-0.1280897855758667
1482153116676,-0.08738835901021957,-9.663596153259277,-0.10654197633266449
1482153116858,-0.10115502029657364,-9.655217170715332,-0.08319851011037827
1482153117039,-0.1173158809542656,-9.650428771972656,-0.08259996026754379
1482153117215,-0.1107318252325058,-9.678560256958008,-0.10055647045373917
1482153117398,-0.09457096457481384,-9.656414031982422,-0.10953472554683685
1482153117579,-0.08918401598930359,-9.661202430725098,-0.08559270948171616
1482153117755,-0.09576806426048279,-9.6803560256958,-0.09157821536064148
1482153117939,-0.0975637212395668,-9.656414031982422,-0.11432313174009323
1482153118119,-0.08619125932455063,-9.650428771972656,-0.10654197633266449
1482153118300,-0.12270283699035645,-9.64683723449707,-0.10833762586116791
1482153118480,-0.13706804811954498,-9.673172950744629,-0.08140286058187485
1482153118661,-0.1173158809542656,-9.658807754516602,-0.07062894850969315
1482153118841,-0.12389993667602539,-9.652822494506836,-0.0867898091673851
1482153119021,-0.13587094843387604,-9.654019355773926,-0.08319851011037827
1482153119199,-0.13527239859104156,-9.646238327026367,-0.08140286058187485
1482153119379,-0.14245499670505524,-9.661202430725098,-0.13048399984836578
1482153119561,-0.12210428714752197,-9.675567626953125,-0.09457096457481384
1482153119737,-0.1173158809542656,-9.673172950744629,-0.11552023142576218
1482153119921,-0.09457096457481384,-9.66419506072998,-0.10893617570400238
1482153120096,-0.09038111567497253,-9.68574333190918,-0.11611878126859665
1482153120276,-0.10115502029657364,-9.639654159545898,-0.10055647045373917
1482153120456,-0.08978256583213806,-9.654618263244629,-0.13287819921970367
1482153120640,-0.10235211998224258,-9.648633003234863,-0.10235211998224258
1482153120822,-0.1388636976480484,-9.68274974822998,-0.1562216579914093
1482153121002,-0.11671733111143112,-9.677961349487305,-0.10773907601833344
1482153121181,-0.07960720360279083,-9.66958236694336,-0.13108254969120026
1482153121363,-0.15442600846290588,-9.662399291992188,-0.1322796493768692
1482153121542,-0.14664486050605774,-9.694122314453125,-0.11671733111143112
1482153121719,-0.16400282084941864,-9.662399291992188,-0.09876082092523575
1482153121904,-0.16220717132091522,-9.624092102050781,-0.07661445438861847
1482153122084,-0.09636662155389786,-9.665990829467773,-0.06404489278793335
1482153122259,-0.10474632680416107,-9.637260437011719,-0.06823474913835526
1482153122445,-0.15143325924873352,-9.643844604492188,-0.06344634294509888
1482153122625,-0.11432313174009323,-9.662399291992188,-0.08080431073904037
1482153122813,-0.10773907601833344,-9.687539100646973,-0.05446808785200119
1482153122985,-0.09277531504631042,-9.68574333190918,-0.13527239859104156
1482153123165,-0.11791443079710007,-9.663596153259277,-0.13826514780521393
1482153123344,-0.09457096457481384,-9.66539192199707,-0.16819266974925995
1482153123526,-0.15502455830574036,-9.674968719482422,-0.13407529890537262
1482153123704,-0.11611878126859665,-9.687539100646973,-0.09397241473197937
1482153123886,-0.12988543510437012,-9.671976089477539,-0.11133038252592087
1482153124066,-0.13946224749088287,-9.66299819946289,-0.07661445438861847
1482153124242,-0.11911153793334961,-9.709685325622559,-0.04668693244457245
1482153124426,-0.09397241473197937,-9.651625633239746,-0.08559270948171616
1482153124606,-0.10295066982507706,-9.634267807006836,-0.090979665517807
1482153124781,-0.08080431073904037,-9.694122314453125,-0.11192893236875534
1482153124966,-0.14065934717655182,-9.665990829467773,-0.12210428714752197
1482153125148,-0.18555063009262085,-9.661202430725098,-0.0999579206109047
1482153125322,-0.04967968538403511,-9.658807754516602,-0.1430535465478897
1482153125507,-0.12629413604736328,-9.637859344482422,-0.1496376097202301
1482153125687,-0.061052143573760986,-9.672574996948242,-0.1604115068912506
1482153125869,-0.10654197633266449,-9.665990829467773,-0.1777694821357727
1482153126047,-0.1041477769613266,-9.664793968200684,-0.1472434103488922
1482153126226,-0.05446808785200119,-9.636661529541016,-0.1454477459192276
1482153126408,-0.07781155407428741,-9.678560256958008,-0.1322796493768692
1482153126585,-0.07960720360279083,-9.641449928283691,-0.1454477459192276
