timestamp,ax,ay,az
1482297301987,-4.125808238983154,-6.701370716094971,5.436633586883545
1482297302140,-4.347271919250488,-6.739677906036377,5.388150691986084
1482297302319,-4.314949989318848,-6.647500991821289,5.275623321533203
1482297302504,-5.445611953735352,-4.767454147338867,4.233547210693359
1482297302682,-5.7538652420043945,-10.847529411315918,0.23762452602386475
1482297302863,0.03411737456917763,-1.9524714946746826,-0.6799532771110535
1482297303042,0.8259995579719543,-0.9558850526809692,14.389750480651855
1482297303220,-1.9249382019042969,-10.904990196228027,3.7283706665039063
1482297303401,-0.5363011956214905,-9.943120002746582,-3.6116533279418945
1482297303585,-1.5131354331970215,-5.443816184997559,1.5765818357467651
1482297303763,-2.9029695987701416,-8.275558471679688,-1.2180501222610474
1482297303943,-4.89494514465332,-10.005369186401367,2.2822728157043457
1482297304125,-2.9765913486480713,-10.92953109741211,-3.066373825073242
1482297304305,-1.868674397468567,-9.145252227783203,-0.9271546006202698
1482297304486,-1.2731167078018188,-10.018536567687988,-1.5376760959625244
1482297304663,-0.46327802538871765,-9.807249069213867,-1.357512354850769
1482297304845,-0.4908113479614258,-9.41100788116455,-1.3958195447921753
1482297305031,-0.3064578175544739,-9.549273490905762,-2.166153907775879
1482297305205,-0.028730420395731926,-9.79288387298584,-1.9321208000183105
1482297305385,0.322618693113327,-9.388263702392578,-1.913565754890442
1482297305566,0.5907692909240723,-9.446322441101074,-1.7028759717941284
1482297305742,0.45848962664604187,-9.473258018493652,-2.0392613410949707
1482297305928,0.44352585077285767,-9.494805335998535,-1.8112136125564575
1482297306109,0.39384618401527405,-9.512762069702148,-1.7806875705718994
1482297306296,0.4770447015762329,-9.519346237182617,-1.8848352432250977
1482297306469,0.5374982953071594,-9.457695007324219,-1.96683669090271
1482297306650,0.557250440120697,-9.546280860900879,-1.8501193523406982
1482297306825,0.33937808871269226,-9.5223388671875,-1.8046295642852783
1482297307009,0.4908113479614258,-9.4822359085083,-1.9093759059906006
1482297307190,0.5129576921463013,-9.55825138092041,-1.7860745191574097
1482297307368,0.6003460884094238,-9.493608474731445,-1.7675193548202515
1482297307550,0.3866635859012604,-9.50857162475586,-1.7693150043487549
1482297307729,0.6751648783683777,-9.495404243469238,-1.8022353649139404
1482297307911,0.518943190574646,-9.4822359085083,-1.8148049116134644
1482297308089,0.5614402890205383,-9.470863342285156,-1.7381904125213623
1482297308266,0.6266822814941406,-9.44752025604248,-1.96683669090271
1482297308451,0.7457938194274902,-9.486425399780273,-1.624465823173523
1482297308632,0.5931634902954102,-9.558850288391113,-1.8082208633422852
1482297308810,0.7841010689735413,-9.516353607177734,-1.8489222526550293
1482297308989,0.5913678407669067,-9.561842918395996,-1.7280150651931763
1482297309172,0.5949591398239136,-9.507973670959473,-1.7926585674285889
1482297309352,0.6631938815116882,-9.582193374633789,-1.8393454551696777
1482297309532,0.6236895322799683,-9.61212158203125,-1.8189947605133057
1482297309712,0.6835445761680603,-9.53969669342041,-1.7896658182144165
1482297309890,0.4878185987472534,-9.558850288391113,-1.8567034006118774
1482297310069,0.5728127360343933,-9.57321548461914,-1.73519766330719
1482297310252,0.6326677799224854,-9.510966300964355,-1.7824832201004028
1482297310433,0.27653029561042786,-9.585186958312988,-1.5598224401474
1482297310613,0.3471592366695404,-9.527127265930176,-1.7531541585922241
1482297310793,0.3513490855693817,-9.534309387207031,-1.9093759059906006
1482297310968,0.4537012279033661,-9.55825138092041,-1.7190368175506592
1482297311153,0.4339490532875061,-9.548076629638672,-1.6741455793380737
1482297311333,0.23044191300868988,-9.521739959716797,-1.61069917678833
1482297311512,0.3106476664543152,-9.514557838439941,-1.7926585674285889
1482297311715,0.41539400815963745,-9.569025993347168,-1.823184609413147
1482297311868,0.31783026456832886,-9.533112525939941,-1.7495628595352173
1482297312048,0.3124433159828186,-9.59835433959961,-1.6490063667297363
1482297312229,0.3363853394985199,-9.504382133483887,-1.9818004369735718
1482297312409,0.27413609623908997,-9.567230224609375,-1.569997787475586
1482297312595,0.1628057211637497,-9.521739959716797,-1.9596540927886963
1482297312771,0.36810851097106934,-9.456498146057129,-2.032078742980957
1482297312956,0.19452889263629913,-9.589376449584961,-1.703474521636963
1482297313135,0.1280897855758667,-9.561842918395996,-1.8327614068984985
1482297313315,0.3477577865123749,-9.540295600891113,-1.8405425548553467
1482297313495,0.36092591285705566,-9.555258750915527,-1.6035165786743164
1482297313675,0.35494041442871094,-9.525331497192383,-1.7286136150360107
1482297313856,0.31184476613998413,-9.52473258972168,-1.7411831617355347
1482297314035,0.35733461380004883,-9.516353607177734,-1.6675615310668945
1482297314215,0.1843535304069519,-9.534309387207031,-1.6759412288665771
1482297314396,0.6482301354408264,-9.577404975891113,-1.6202759742736816
1482297314576,0.018555063754320145,-9.5223388671875,-1.4844050407409668
1482297314757,0.3776853084564209,-9.570821762084961,-1.6651673316955566
1482297314935,0.3172317147254944,-9.52353572845459,-1.6208745241165161
1482297315117,0.33937808871269226,-9.452308654785156,-1.4891934394836426
1482297315297,0.21787235140800476,-9.59057331085205,-1.4993687868118286
1482297315477,0.33518823981285095,-9.542689323425293,-1.3862427473068237
1482297315657,0.24361002445220947,-9.431957244873047,-1.9931728839874268
1482297315833,0.395043283700943,-9.543886184692383,-1.6274585723876953
1482297316018,0.345363587141037,-9.53849983215332,-1.8698714971542358
1482297316196,0.3387795388698578,-9.546280860900879,-1.8154034614562988
1482297316378,0.3315969407558441,-9.586383819580078,-1.710058569908142
1482297316562,0.26336219906806946,-9.524134635925293,-1.7866730690002441
1482297316752,0.536899745464325,-9.439739227294922,-1.523909330368042
1482297316915,0.24660277366638184,-9.616909980773926,-1.7178397178649902
1482297317097,0.304063618183136,-9.509769439697266,-2.005143880844116
1482297317278,0.3411737382411957,-9.546280860900879,-1.766920804977417
1482297317459,0.436343252658844,-9.484031677246094,-1.7046716213226318
1482297317639,0.1825578808784485,-9.555258750915527,-1.7375918626785278
1482297317819,0.27413609623908997,-9.540295600891113,-1.7208324670791626
1482297317999,0.5225345492362976,-9.48343276977539,-1.9387048482894897
1482297318180,0.38726213574409485,-9.503185272216797,-1.6136919260025024
1482297318360,0.27473464608192444,-9.546280860900879,-1.7675193548202515
1482297318540,0.35434186458587646,-9.547477722167969,-1.7717092037200928
1482297318721,0.3190273642539978,-9.445125579833984,-1.7872716188430786
1482297318901,0.38546648621559143,-9.539097785949707,-1.6927006244659424
1482297319080,0.40880993008613586,-9.516353607177734,-1.7860745191574097
1482297319261,0.3429693877696991,-9.512762069702148,-1.8698714971542358
1482297319442,0.36990416049957275,-9.559449195861816,-1.8914192914962769
1482297319617,0.39803603291511536,-9.548674583435059,-1.7597382068634033
1482297319799,0.25737667083740234,-9.513360023498535,-1.8567034006118774
1482297319978,0.3866635859012604,-9.558850288391113,-1.777096152305603
1482297320162,0.3429693877696991,-9.531915664672852,-1.8052281141281128
1482297320342,0.4016273319721222,-9.5007905960083,-1.800439715385437
1482297320522,0.3824737071990967,-9.558850288391113,-1.7627309560775757
1482297320700,0.4513070285320282,-9.533112525939941,-1.765723705291748
1482297320878,0.414795458316803,-9.545681953430176,-1.7196353673934937
1482297321061,0.1975216418504715,-9.560646057128906,-1.6370353698730469
1482297321241,0.4644751250743866,-9.498396873474121,-1.7938556671142578
1482297321421,0.35673606395721436,-9.485228538513184,-1.8195933103561401
1482297321602,0.4620809257030487,-9.509170532226563,-1.7621324062347412
1482297321781,0.35913026332855225,-9.536704063415527,-1.777096152305603
1482297321961,0.4339490532875061,-9.48882007598877,-1.7920600175857544
1482297322142,0.4734533727169037,-9.470863342285156,-1.754351258277893
1482297322324,0.44173020124435425,-9.489418029785156,-1.7088614702224731
1482297322504,0.1496376097202301,-9.539097785949707,-1.7531541585922241
1482297322682,0.3357867896556854,-9.586981773376465,-1.8088194131851196
1482297322864,0.44532153010368347,-9.497797966003418,-1.8698714971542358
1482297323042,0.42197805643081665,-9.512163162231445,-1.6424223184585571
1482297323224,0.2256535142660141,-9.542689323425293,-2.0027496814727783
1482297323405,0.32620999217033386,-9.530718803405762,-1.6166846752166748
1482297323585,0.27413609623908997,-9.586383819580078,-1.7908629179000854
1482297323764,0.18734627962112427,-9.572616577148438,-1.7052701711654663
1482297323941,0.2861070930957794,-9.543288230895996,-1.768117904663086
1482297324124,0.2364274114370346,-9.506776809692383,-1.8297686576843262
1482297324305,0.3315969407558441,-9.561244010925293,-1.8100165128707886
1482297324486,0.3292027413845062,-9.570821762084961,-1.7561469078063965
1482297324666,0.22206220030784607,-9.54209041595459,-1.68970787525177
1482297324842,0.292691171169281,-9.387664794921875,-1.6968904733657837
1482297325026,0.4686649739742279,-9.563039779663086,-1.778891921043396
1482297325216,0.2902969419956207,-9.536704063415527,-1.7423802614212036
1482297325385,0.39145198464393616,-9.570821762084961,-1.7387889623641968
1482297325565,0.37469255924224854,-9.55825138092041,-1.745373010635376
1482297325746,0.4273650050163269,-9.510966300964355,-1.7411831617355347
1482297325922,0.3758896589279175,-9.400833129882813,-1.6609774827957153
1482297326106,0.3998316824436188,-9.596558570861816,-1.7345991134643555
1482297326309,0.4692635238170624,-9.558850288391113,-1.8237831592559814
1482297326467,0.37409400939941406,-9.567828178405762,-1.6938977241516113
1482297326648,0.4866214990615845,-9.482834815979004,-1.9129672050476074
1482297326823,0.7068880796432495,-9.4636812210083,-1.8351556062698364
1482297327008,0.4315548539161682,-9.514557838439941,-1.944091796875
1482297327187,0.4926069974899292,-9.557653427124023,-1.7088614702224731
1482297327368,0.4812345504760742,-9.503783226013184,-1.755548357963562
1482297327548,0.22685061395168304,-9.600749015808105,-1.7393875122070313
1482297327729,0.2106897532939911,-9.589975357055664,-1.5604209899902344
1482297327909,0.4531026780605316,-9.46607494354248,-1.8770540952682495
1482297328085,0.47884035110473633,-9.531316757202148,-1.68970787525177
1482297328269,0.5716156363487244,-9.511565208435059,-2.0374655723571777
1482297328449,0.5704185366630554,-9.547477722167969,-1.7663222551345825
1482297328629,0.41359832882881165,-9.54209041595459,-1.5981296300888062
1482297328809,0.2944868206977844,-9.582193374633789,-1.73519766330719
1482297328988,0.44352585077285767,-9.50617790222168,-1.8632874488830566
1482297329170,0.5273229479789734,-9.528923034667969,-1.824381709098816
1482297329350,0.30047231912612915,-9.500192642211914,-1.843535304069519
1482297329531,0.2454056739807129,-9.513958930969238,-1.8148049116134644
1482297329711,0.22445641458034515,-9.543288230895996,-1.8872294425964355
1482297329891,0.5931634902954102,-9.478046417236328,-1.6699557304382324
1482297330071,0.17417816817760468,-9.560646057128906,-1.5753847360610962
1482297330252,0.38127660751342773,-9.515155792236328,-1.566406488418579
1482297330432,0.5578489899635315,-9.461885452270508,-1.8100165128707886
1482297330612,0.365115761756897,-9.549273490905762,-1.8273744583129883
1482297330791,0.5374982953071594,-9.470863342285156,-1.8417396545410156
1482297330968,0.5195417404174805,-9.55825138092041,-1.7196353673934937
1482297331152,0.2537853717803955,-9.553462982177734,-1.6944962739944458
1482297331332,0.25318682193756104,-9.527127265930176,-1.7256208658218384
1482297331512,0.3082534670829773,-9.535507202148438,-1.768117904663086
1482297331692,0.37469255924224854,-9.522936820983887,-1.8285715579986572
1482297331870,0.4644751250743866,-9.545681953430176,-1.7148469686508179
1482297332051,0.2364274114370346,-9.602544784545898,-1.7459715604782104
1482297332230,0.2064998894929886,-9.519944190979004,-1.6286556720733643
1482297332407,0.12270283699035645,-9.553462982177734,-1.6304513216018677
1482297332587,0.1933317929506302,-9.474454879760742,-1.8082208633422852
1482297332768,0.2902969419956207,-9.522936820983887,-1.590348482131958
1482297332948,0.6057330369949341,-9.429563522338867,-1.679532527923584
1482297333129,0.5309142470359802,-9.46607494354248,-1.7609353065490723
1482297333312,0.5129576921463013,-9.518747329711914,-1.8177976608276367
1482297333492,0.3627215623855591,-9.549872398376465,-1.8399440050125122
1482297333674,0.48482584953308105,-9.569623947143555,-1.8034324645996094
1482297333853,0.436343252658844,-9.531915664672852,-1.698686122894287
1482297334034,0.31124621629714966,-9.511565208435059,-1.9375077486038208
1482297334213,0.4381389021873474,-9.519944190979004,-1.8183962106704712
1482297334395,0.6326677799224854,-9.525331497192383,-1.9075802564620972
1482297334575,0.5596446394920349,-9.53849983215332,-1.8525135517120361
1482297334755,0.4908113479614258,-9.532513618469238,-1.9285295009613037
1482297334931,0.4620809257030487,-9.431957244873047,-2.0009541511535645
1482297335111,0.46327802538871765,-9.491812705993652,-1.6777368783950806
1482297335295,0.26096799969673157,-9.570821762084961,-1.7094600200653076
1482297335476,0.42437225580215454,-9.529520988464355,-1.768117904663086
1482297335656,0.5728127360343933,-9.511565208435059,-1.8596961498260498
1482297335836,0.5135562419891357,-9.493608474731445,-1.742978811264038
1482297336016,0.3148375153541565,-9.482834815979004,-1.7369933128356934
1482297336195,0.31364041566848755,-9.498396873474121,-1.7573440074920654
1482297336377,0.5297171473503113,-9.498396873474121,-1.890222191810608
1482297336557,0.5363011956214905,-9.485228538513184,-1.7142484188079834
1482297336737,0.4010287821292877,-9.484031677246094,-1.8638859987258911
1482297336916,0.3321954905986786,-9.57321548461914,-1.7842788696289063
1482297337097,0.595557689666748,-9.55466079711914,-1.9129672050476074
1482297337278,0.750582218170166,-9.5007905960083,-1.7729063034057617
1482297337459,0.6057330369949341,-9.552865028381348,-1.6962919235229492
1482297337638,0.37469255924224854,-9.534309387207031,-1.7794904708862305
1482297337815,0.4513070285320282,-9.446921348571777,-1.599326729774475
1482297337995,0.2885012924671173,-9.521739959716797,-1.7501614093780518
1482297338178,0.49140989780426025,-9.582792282104492,-1.7244237661361694
1482297338358,0.3130418658256531,-9.527127265930176,-1.698686122894287
1482297338539,0.42437225580215454,-9.495404243469238,-1.6466121673583984
1482297338719,0.628477931022644,-9.476848602294922,-1.7974469661712646
1482297338899,0.42616790533065796,-9.503783226013184,-1.6442179679870605
1482297339078,0.37169981002807617,-9.592369079589844,-1.6430208683013916
1482297339259,0.4213795065879822,-9.543288230895996,-1.8177976608276367
1482297339439,0.5428852438926697,-9.536105155944824,-1.8148049116134644
1482297339619,0.5446808934211731,-9.594164848327637,-1.6214730739593506
1482297339800,0.38486793637275696,-9.55466079711914,-1.7884687185287476
1482297339987,0.5069721937179565,-9.475052833557129,-1.8704700469970703
1482297340160,0.6093243360519409,-9.500192642211914,-1.8441338539123535
1482297340341,0.5793967843055725,-9.530718803405762,-1.799242615699768
1482297340517,0.4159925580024719,-9.487024307250977,-1.6484078168869019
1482297340701,0.7248445749282837,-9.490615844726563,-1.7944542169570923
1482297340877,0.5871779918670654,-9.545083999633789,-1.8584990501403809
1482297341061,0.5404910445213318,-9.470863342285156,-1.853710651397705
1482297341237,0.761954665184021,-9.549273490905762,-1.7531541585922241
1482297341422,0.7218518257141113,-9.503185272216797,-1.6609774827957153
1482297341602,0.5003881454467773,-9.464279174804688,-1.878849744796753
1482297341781,0.47584760189056396,-9.527725219726563,-1.6202759742736816
1482297341961,0.35913026332855225,-9.52353572845459,-1.9321208000183105
1482297342137,0.40940847992897034,-9.50857162475586,-1.7579425573349
1482297342319,0.5476736426353455,-9.536105155944824,-1.7393875122070313
1482297342501,0.3968389332294464,-9.513958930969238,-1.9027918577194214
1482297342681,0.3280056416988373,-9.581595420837402,-1.886630892753601
1482297342861,0.4118026793003082,-9.512163162231445,-1.5921441316604614
1482297343042,0.26336219906806946,-9.57860279083252,-1.8082208633422852
1482297343221,0.5333084464073181,-9.495404243469238,-1.8716671466827393
1482297343403,0.48063600063323975,-9.543288230895996,-1.613093376159668
1482297343583,0.17896658182144165,-9.533711433410645,-1.8668787479400635
1482297343763,0.2346317619085312,-9.519944190979004,-1.8399440050125122
1482297343943,0.6111199855804443,-9.57201862335205,-1.592742681503296
1482297344120,0.4489128291606903,-9.552865028381348,-1.7507599592208862
1482297344304,0.41958385705947876,-9.425971984863281,-1.8441338539123535
1482297344484,0.4770447015762329,-9.488221168518066,-1.768117904663086
1482297344664,0.3357867896556854,-9.518747329711914,-1.7764976024627686
1482297344843,0.2711433470249176,-9.545083999633789,-1.946485996246338
1482297345024,0.4183867573738098,-9.55466079711914,-1.922544002532959
1482297345199,0.6356605291366577,-9.519944190979004,-1.9003976583480835
1482297345384,0.36810851097106934,-9.558850288391113,-1.6502034664154053
1482297345560,0.4321534037590027,-9.552266120910645,-1.732803463935852
1482297345743,0.4124012291431427,-9.519346237182617,-1.853710651397705
1482297345925,0.5309142470359802,-9.531316757202148,-1.7387889623641968
1482297346105,0.3908534348011017,-9.54209041595459,-1.787870168685913
1482297346286,0.33698388934135437,-9.497200012207031,-1.7615338563919067
1482297346465,0.363918662071228,-9.468469619750977,-1.8076223134994507
1482297346646,0.4926069974899292,-9.477447509765625,-1.8375498056411743
1482297346826,0.3705027103424072,-9.560646057128906,-1.9015947580337524
1482297347005,0.5327098965644836,-9.61212158203125,-1.8064252138137817
1482297347182,0.4554968774318695,-9.560047149658203,-1.8836381435394287
1482297347367,0.46507367491722107,-9.537900924682617,-1.7872716188430786
1482297347547,0.36152446269989014,-9.545681953430176,-1.7693150043487549
1482297347727,0.41359832882881165,-9.540295600891113,-1.7711106538772583
1482297347906,0.5153518915176392,-9.535507202148438,-1.7621324062347412
1482297348087,0.5704185366630554,-9.48343276977539,-1.7495628595352173
1482297348263,0.5297171473503113,-9.525331497192383,-1.866280198097229
1482297348448,0.8918401598930359,-9.641449928283691,-2.0254945755004883
1482297348628,0.7613561153411865,-9.539097785949707,-1.7268179655075073
1482297348808,0.3034650683403015,-9.540295600891113,-1.744175910949707
1482297348988,0.5644330382347107,-9.550470352172852,-1.6645687818527222
1482297349170,0.6218938827514648,-9.50498104095459,-1.8806453943252563
1482297349348,0.5285200476646423,-9.48762321472168,-1.7208324670791626
1482297349528,0.4291606545448303,-9.491812705993652,-1.8285715579986572
1482297349709,0.4967968463897705,-9.565434455871582,-1.7495628595352173
1482297349889,0.5949591398239136,-9.529520988464355,-2.0464439392089844
1482297350068,0.7655459642410278,-9.50617790222168,-1.7028759717941284
1482297350245,0.3387795388698578,-9.463082313537598,-1.7322049140930176
1482297350429,0.44352585077285767,-9.512762069702148,-1.8722656965255737
1482297350610,0.29867666959762573,-9.479243278503418,-1.7399860620498657
1482297350790,0.2693476974964142,-9.586383819580078,-1.7986440658569336
1482297350970,0.43514615297317505,-9.498396873474121,-1.913565754890442
1482297351151,0.42197805643081665,-9.531316757202148,-1.8704700469970703
1482297351330,0.5428852438926697,-9.514557838439941,-1.7866730690002441
1482297351509,0.2711433470249176,-9.640851974487305,-1.7651251554489136
1482297351691,-0.15083470940589905,-9.531915664672852,-1.7830817699432373
1482297351869,0.40880993008613586,-9.50617790222168,-1.9129672050476074
1482297352048,0.6075286865234375,-9.55466079711914,-1.8710685968399048
1482297352231,0.28790274262428284,-9.412205696105957,-1.678335428237915
1482297352412,0.667982280254364,-9.518747329711914,-1.8052281141281128
1482297352592,0.07302315533161163,-9.5408935546875,-1.6376339197158813
1482297352791,0.3603273630142212,-9.601346969604492,-1.6956933736801147
1482297352946,0.657806932926178,-9.548674583435059,-1.7280150651931763
1482297353126,0.4537012279033661,-9.5809965133667,-1.6166846752166748
1482297353307,0.2663549482822418,-9.630077362060547,-1.890222191810608
1482297353491,0.29388827085494995,-9.535507202148438,-1.4089876413345337
1482297353672,0.5351040959358215,-9.569623947143555,-1.6316484212875366
1482297353852,0.5674257874488831,-9.536704063415527,-1.764526605606079
1482297354033,0.36092591285705566,-9.496601104736328,-1.8620903491973877
1482297354212,0.545877993106842,-9.434351921081543,-1.8626888990402222
1482297354393,0.43335050344467163,-9.542689323425293,-1.9381062984466553
1482297354573,0.49619829654693604,-9.55466079711914,-1.8381483554840088
1482297354753,0.3878606855869293,-9.582792282104492,-1.744175910949707
1482297354934,0.2621650993824005,-9.59596061706543,-1.8908207416534424
1482297355114,0.2735375463962555,-9.513360023498535,-1.7998411655426025
1482297355294,0.35254621505737305,-9.64683723449707,-1.935113549232483
1482297355474,0.5057750940322876,-9.568427085876465,-1.6382324695587158
1482297355654,0.6171054840087891,-9.567828178405762,-1.8046295642852783
1482297355834,0.5776011347770691,-9.518747329711914,-1.8800468444824219
1482297356015,0.35015198588371277,-9.476250648498535,-1.9632453918457031
1482297356193,0.3884592354297638,-9.551667213439941,-1.731606364250183
1482297356375,0.4537012279033661,-9.497797966003418,-1.6915035247802734
1482297356555,0.15921440720558167,-9.525930404663086,-1.5867571830749512
1482297356735,0.3645172119140625,-9.57321548461914,-1.590348482131958
1482297356915,0.3130418658256531,-9.57441234588623,-1.63344407081604
1482297357092,0.4040215313434601,-9.620500564575195,-1.6406266689300537
1482297357272,0.22266076505184174,-9.622895240783691,-1.6148890256881714
1482297357453,0.3429693877696991,-9.57860279083252,-1.613093376159668
1482297357635,0.45250412821769714,-9.477447509765625,-1.7944542169570923
1482297357816,0.3058592677116394,-9.554061889648438,-1.6053122282028198
1482297357998,0.4465186297893524,-9.516951560974121,-1.6992846727371216
1482297358177,0.353743314743042,-9.567828178405762,-1.7411831617355347
1482297358352,0.3603273630142212,-9.588777542114258,-1.7040730714797974
1482297358537,0.26156654953956604,-9.573814392089844,-1.7304092645645142
1482297358717,0.2992752194404602,-9.5624418258667,-1.8022353649139404
1482297358897,0.29628247022628784,-9.52114200592041,-1.6424223184585571
1482297359078,0.4124012291431427,-9.551069259643555,-1.6633716821670532
1482297359257,0.26396074891090393,-9.561842918395996,-1.6861165761947632
1482297359438,0.3585317134857178,-9.524134635925293,-1.6561890840530396
1482297359618,0.444722980260849,-9.518148422241211,-1.8022353649139404
1482297359798,0.2902969419956207,-9.567828178405762,-1.5442601442337036
1482297359978,0.04189852997660637,-9.503185272216797,-1.9093759059906006
1482297360153,0.7044938206672668,-9.494805335998535,-1.6723499298095703
1482297360340,0.2932897210121155,-9.528324127197266,-1.590348482131958
1482297360516,0.22685061395168304,-9.572616577148438,-1.659181833267212
1482297360699,0.42018240690231323,-9.552266120910645,-1.945288896560669
1482297360879,0.49380409717559814,-9.537900924682617,-1.8279730081558228
1482297361058,0.3519476354122162,-9.510966300964355,-1.7471686601638794
1482297361239,0.2998737692832947,-9.512762069702148,-1.889025092124939
1482297361418,0.18555063009262085,-9.516951560974121,-1.8590975999832153
1482297361600,0.44532153010368347,-9.528923034667969,-2.014122247695923
1482297361780,0.4531026780605316,-9.57979965209961,-2.009333848953247
1482297361956,0.5117605924606323,-9.512762069702148,-1.8010382652282715
1482297362139,0.5165489912033081,-9.507973670959473,-1.7172411680221558
1482297362319,0.3597288131713867,-9.613917350769043,-1.734000563621521
1482297362496,0.5542576909065247,-9.391256332397461,-1.592742681503296
1482297362681,0.5321113467216492,-9.549872398376465,-1.777694821357727
1482297362858,0.27234044671058655,-9.473258018493652,-1.6855180263519287
1482297363038,0.2890998423099518,-9.556455612182617,-1.6837223768234253
1482297363223,0.5847837924957275,-9.507973670959473,-1.8596961498260498
1482297363396,0.46327802538871765,-9.554061889648438,-1.866280198097229
1482297363582,0.33339259028434753,-9.534908294677734,-2.0476410388946533
1482297363761,0.48961424827575684,-9.539097785949707,-1.7932571172714233
1482297363940,0.6171054840087891,-9.486425399780273,-2.078166961669922
1482297364121,0.6009446382522583,-9.493608474731445,-1.8614917993545532
1482297364302,0.41778820753097534,-9.485228538513184,-1.9273324012756348
1482297364482,0.50876784324646,-9.533112525939941,-1.7854759693145752
1482297364663,0.5339069962501526,-9.568427085876465,-1.764526605606079
1482297364843,0.5548562407493591,-9.519346237182617,-1.7184382677078247
1482297365031,0.4183867573738098,-9.5408935546875,-1.8177976608276367
1482297365205,0.5171475410461426,-9.509769439697266,-1.7459715604782104
1482297365394,0.5033808946609497,-9.516951560974121,-1.8201918601989746
1482297365562,0.3693056106567383,-9.5624418258667,-1.7854759693145752
1482297365744,0.4429273009300232,-9.53969669342041,-1.8171991109848022
1482297365924,0.4100070297718048,-9.536105155944824,-1.8381483554840088
1482297366102,0.456095427274704,-9.501988410949707,-1.7363947629928589
1482297366282,0.3411737382411957,-9.50857162475586,-1.778891921043396
1482297366464,0.2992752194404602,-9.514557838439941,-2.029085874557495
1482297366644,0.25977087020874023,-9.515754699707031,-1.7585411071777344
1482297366825,0.4255693554878235,-9.560047149658203,-1.6352397203445435
1482297367004,0.28969839215278625,-9.498396873474121,-1.8513164520263672
1482297367183,0.36990416049957275,-9.495404243469238,-1.7292121648788452
1482297367363,0.4315548539161682,-9.553462982177734,-1.73519766330719
1482297367542,0.46148237586021423,-9.436147689819336,-1.8914192914962769
1482297367725,0.31184476613998413,-9.59476375579834,-1.5107412338256836
1482297367903,0.166995570063591,-9.525331497192383,-1.8363527059555054
1482297368086,0.1759738177061081,-9.575610160827637,-1.775899052619934
1482297368261,0.22086510062217712,-9.536105155944824,-1.9027918577194214
1482297368446,0.34356793761253357,-9.519944190979004,-1.7160440683364868
1482297368626,0.3172317147254944,-9.530119895935059,-1.6011223793029785
1482297368806,0.2322375625371933,-9.533711433410645,-1.8794482946395874
1482297368987,0.3705027103424072,-9.59596061706543,-1.600523829460144
1482297369167,0.37229835987091064,-9.53969669342041,-1.7597382068634033
1482297369347,0.2603694200515747,-9.511565208435059,-1.7028759717941284
1482297369527,0.517746090888977,-9.52473258972168,-1.7178397178649902
1482297369707,0.37828385829925537,-9.551667213439941,-1.8872294425964355
1482297369885,0.46746787428855896,-9.493009567260742,-1.799242615699768
1482297370067,0.353743314743042,-9.546280860900879,-1.8255788087844849
1482297370248,0.4513070285320282,-9.480440139770508,-1.8596961498260498
1482297370426,0.3770867586135864,-9.530119895935059,-1.8830395936965942
1482297370608,0.38067805767059326,-9.437344551086426,-1.8285715579986572
1482297370787,0.5033808946609497,-9.577404975891113,-1.823184609413147
1482297370968,0.5363011956214905,-9.479841232299805,-1.9584569931030273
1482297371148,0.6290764808654785,-9.55705451965332,-1.7591396570205688
1482297371328,0.5015852451324463,-9.522936820983887,-1.8644845485687256
1482297371508,0.44412440061569214,-9.5007905960083,-1.688510775566101
1482297371689,0.5213374495506287,-9.418789863586426,-1.6549919843673706
1482297371869,0.2998737692832947,-9.489418029785156,-1.6454150676727295
1482297372045,0.46986207365989685,-9.531316757202148,-1.6657658815383911
1482297372228,0.517746090888977,-9.569623947143555,-1.625662922859192
1482297372407,0.32022446393966675,-9.519944190979004,-1.8309657573699951
1482297372590,0.32620999217033386,-9.50498104095459,-1.8267759084701538
1482297372768,0.4770447015762329,-9.475651741027832,-1.703474521636963
1482297372951,0.4794389009475708,-9.45410442352295,-1.9243396520614624
1482297373131,0.3429693877696991,-9.489418029785156,-1.6190788745880127
1482297373306,0.33997663855552673,-9.542689323425293,-1.823184609413147
1482297373485,0.790086567401886,-9.568427085876465,-1.766920804977417
1482297373665,0.37169981002807617,-9.493608474731445,-1.6825252771377563
1482297373846,0.24600422382354736,-9.5408935546875,-1.7304092645645142
1482297374030,0.13766659796237946,-9.494805335998535,-1.6406266689300537
1482297374212,0.26096799969673157,-9.519944190979004,-1.6585832834243774
1482297374389,0.456095427274704,-9.505578994750977,-1.6789339780807495
1482297374572,0.36092591285705566,-9.552865028381348,-1.8249802589416504
1482297374752,0.4082113802433014,-9.545083999633789,-1.6735470294952393
1482297374932,0.4620809257030487,-9.589376449584961,-1.8818424940109253
1482297375112,0.507570743560791,-9.526528358459473,-1.7118542194366455
1482297375292,0.5201402902603149,-9.572616577148438,-1.723825216293335
1482297375473,0.535702645778656,-9.601945877075195,-1.7477672100067139
1482297375653,0.5410895943641663,-9.513360023498535,-1.9153614044189453
1482297375833,0.3884592354297638,-9.606135368347168,-1.5580267906188965
1482297376013,0.4076128304004669,-9.467870712280273,-1.789067268371582
1482297376193,0.2064998894929886,-9.539097785949707,-1.7747019529342651
1482297376371,0.4596867263317108,-9.533711433410645,-1.833359956741333
1482297376549,0.31603461503982544,-9.517550468444824,-1.8716671466827393
1482297376733,0.4255693554878235,-9.583989143371582,-1.7717092037200928
1482297376914,0.40222588181495667,-9.520543098449707,-1.7974469661712646
1482297377090,0.32620999217033386,-9.639654159545898,-1.680729627609253
1482297377272,0.05386953800916672,-9.59715747833252,-1.611896276473999
1482297377453,0.5183446407318115,-9.510966300964355,-1.8052281141281128
1482297377634,0.29388827085494995,-9.549273490905762,-1.589151382446289
1482297377815,0.1867477297782898,-9.554061889648438,-1.9363106489181519
1482297377995,0.38726213574409485,-9.504382133483887,-1.7130513191223145
1482297378175,0.10295066982507706,-9.54209041595459,-1.8513164520263672
1482297378349,0.24001872539520264,-9.543886184692383,-1.6723499298095703
1482297378531,0.30047231912612915,-9.576807022094727,-1.6430208683013916
1482297378711,0.20949265360832214,-9.548674583435059,-1.7513585090637207
1482297378895,0.13347674906253815,-9.585784912109375,-1.731606364250183
1482297379073,0.46806642413139343,-9.46487808227539,-1.7735048532485962
1482297379254,0.3405751883983612,-9.55705451965332,-1.7908629179000854
1482297379435,0.2759317457675934,-9.54209041595459,-1.713649868965149
1482297379616,0.16819266974925995,-9.513958930969238,-1.8824410438537598
1482297379796,0.35015198588371277,-9.490615844726563,-1.7417817115783691
1482297379976,0.2669534981250763,-9.50617790222168,-1.886630892753601
1482297380156,0.2041056901216507,-9.533112525939941,-1.5496470928192139
1482297380337,0.22685061395168304,-9.623494148254395,-1.6825252771377563
1482297380515,0.4944026470184326,-9.557653427124023,-1.7693150043487549
1482297380695,0.17298106849193573,-9.561244010925293,-1.459265947341919
1482297380877,0.23762452602386475,-9.620500564575195,-1.5568296909332275
1482297381058,0.3315969407558441,-9.55825138092041,-1.7292121648788452
1482297381238,0.14245499670505524,-9.609128952026367,-1.499967336654663
1482297381418,0.05386953800916672,-9.619303703308105,-1.614290475845337
1482297381598,0.3274070918560028,-9.497200012207031,-1.6316484212875366
1482297381778,0.32022446393966675,-9.515754699707031,-1.6502034664154053
1482297381958,0.33997663855552673,-9.555258750915527,-1.6089035272598267
1482297382134,0.26755204796791077,-9.578003883361816,-1.678335428237915
1482297382319,0.3381809890270233,-9.597756385803223,-1.61069917678833
1482297382499,0.30047231912612915,-9.567230224609375,-1.6944962739944458
1482297382675,0.28131869435310364,-9.543886184692383,-1.6849194765090942
1482297382859,0.21368250250816345,-9.57979965209961,-1.6753426790237427
1482297383038,0.2735375463962555,-9.532513618469238,-1.845929503440857
1482297383220,0.23283611238002777,-9.516951560974121,-1.8369512557983398
1482297383400,0.32381579279899597,-9.517550468444824,-1.6944962739944458
1482297383579,0.20709845423698425,-9.57201862335205,-1.5981296300888062
1482297383758,0.34177228808403015,-9.581595420837402,-1.5819687843322754
1482297383937,0.2908954918384552,-9.564835548400879,-1.754351258277893
1482297384119,0.3818751573562622,-9.531316757202148,-1.6711528301239014
1482297384299,0.3926490843296051,-9.548674583435059,-1.824381709098816
1482297384478,0.3357867896556854,-9.509769439697266,-1.9171570539474487
1482297384655,0.25258827209472656,-9.563638687133789,-1.5735890865325928
1482297384839,0.16101007163524628,-9.548076629638672,-1.7842788696289063
1482297385021,0.16639702022075653,-9.563039779663086,-1.61069917678833
1482297385197,0.4854243993759155,-9.595361709594727,-1.4209587574005127
1482297385382,0.3824737071990967,-9.5624418258667,-1.5741876363754272
1482297385560,0.22206220030784607,-9.560646057128906,-1.7435773611068726
1482297385742,0.5165489912033081,-9.52473258972168,-1.653794765472412
1482297385922,0.44592007994651794,-9.532513618469238,-1.789067268371582
1482297386101,0.5560533404350281,-9.539097785949707,-1.6418237686157227
1482297386282,0.3519476354122162,-9.556455612182617,-1.6585832834243774
1482297386463,0.29568392038345337,-9.519346237182617,-1.8950105905532837
1482297386641,0.43275195360183716,-9.588179588317871,-1.6927006244659424
1482297386823,0.2454056739807129,-9.515754699707031,-1.7938556671142578
1482297387001,0.35015198588371277,-9.549872398376465,-1.7304092645645142
1482297387179,0.2645592987537384,-9.554061889648438,-1.7812861204147339
1482297387362,0.3148375153541565,-9.52473258972168,-1.8471266031265259
1482297387543,0.35733461380004883,-9.5809965133667,-1.6238672733306885
1482297387724,0.17178396880626678,-9.555258750915527,-1.9297266006469727
1482297387902,0.24899697303771973,-9.588179588317871,-1.6077064275741577
1482297388082,0.24899697303771973,-9.566631317138672,-1.6651673316955566
1482297388262,0.3076549172401428,-9.529520988464355,-1.744175910949707
1482297388444,0.28790274262428284,-9.519346237182617,-1.7495628595352173
1482297388625,0.3082534670829773,-9.563039779663086,-1.690904974937439
1482297388802,0.3645172119140625,-9.515754699707031,-1.6394295692443848
1482297388985,0.353743314743042,-9.459490776062012,-1.7920600175857544
1482297389163,0.27712884545326233,-9.528923034667969,-1.6418237686157227
1482297389344,0.26575639843940735,-9.564835548400879,-1.7651251554489136
1482297389526,0.29209262132644653,-9.544485092163086,-1.824381709098816
1482297389701,0.3447650372982025,-9.543886184692383,-1.6340426206588745
1482297389886,0.40282443165779114,-9.531915664672852,-1.6777368783950806
1482297390066,0.3561375141143799,-9.550470352172852,-1.6484078168869019
1482297390246,0.2885012924671173,-9.541492462158203,-1.613093376159668
1482297390426,0.5183446407318115,-9.495404243469238,-1.6549919843673706
1482297390606,0.3693056106567383,-9.533711433410645,-1.821987509727478
1482297390781,0.25258827209472656,-9.550470352172852,-1.6519991159439087
1482297390965,0.38127660751342773,-9.539097785949707,-1.7884687185287476
1482297391147,0.36750996112823486,-9.546878814697266,-1.7956513166427612
1482297391327,0.37469255924224854,-9.557653427124023,-1.8177976608276367
1482297391506,0.33997663855552673,-9.533711433410645,-1.6950948238372803
1482297391687,0.35673606395721436,-9.503783226013184,-1.7597382068634033
1482297391868,0.3256114423274994,-9.561842918395996,-1.6657658815383911
1482297392048,0.3082534670829773,-9.584588050842285,-1.8088194131851196
1482297392228,0.39803603291511536,-9.496002197265625,-1.624465823173523
1482297392408,0.45250412821769714,-9.488221168518066,-1.7986440658569336
1482297392586,0.2777273952960968,-9.509170532226563,-1.6508020162582397
1482297392764,0.30047231912612915,-9.582193374633789,-1.7495628595352173
1482297392949,0.29209262132644653,-9.5408935546875,-1.6454150676727295
1482297393129,0.19452889263629913,-9.533112525939941,-1.8495208024978638
1482297393309,0.21966800093650818,-9.61571216583252,-1.8351556062698364
1482297393489,0.35015198588371277,-9.5223388671875,-1.5897499322891235
1482297393669,0.27892449498176575,-9.515754699707031,-1.754351258277893
1482297393849,0.2124854028224945,-9.497797966003418,-1.6202759742736816
1482297394030,0.11791443079710007,-9.532513618469238,-1.7627309560775757
1482297394210,0.2753331959247589,-9.569025993347168,-1.5658079385757446
1482297394390,0.32620999217033386,-9.585186958312988,-1.6561890840530396
1482297394570,0.22086510062217712,-9.566033363342285,-1.6621745824813843
1482297394748,0.3842693865299225,-9.566033363342285,-1.5999252796173096
1482297394931,0.3214215636253357,-9.531915664672852,-1.7393875122070313
1482297395108,0.38965633511543274,-9.559449195861816,-1.6382324695587158
1482297395291,0.363918662071228,-9.497200012207031,-1.7345991134643555
1482297395472,0.20470423996448517,-9.607931137084961,-1.5604209899902344
1482297395651,0.2537853717803955,-9.528324127197266,-1.8704700469970703
1482297395832,0.4626794755458832,-9.545083999633789,-1.6412252187728882
1482297396012,0.4357447028160095,-9.515754699707031,-1.6585832834243774
1482297396192,0.21787235140800476,-9.525930404663086,-1.746570110321045
1482297396376,0.3447650372982025,-9.522936820983887,-1.599326729774475
1482297396551,0.2795230448246002,-9.55825138092041,-1.7627309560775757
1482297396732,0.3298012912273407,-9.573814392089844,-1.5765818357467651
1482297396912,0.3968389332294464,-9.490615844726563,-1.7471686601638794
1482297397092,0.4273650050163269,-9.531316757202148,-1.5119383335113525
1482297397275,0.25318682193756104,-9.500192642211914,-1.721431016921997
1482297397453,0.28072014451026917,-9.57860279083252,-1.6047136783599854
1482297397633,0.4471171796321869,-9.588777542114258,-1.7615338563919067
1482297397813,0.4572925269603729,-9.548674583435059,-1.7142484188079834
1482297397993,0.5021837949752808,-9.554061889648438,-1.7345991134643555
1482297398172,0.6625953316688538,-9.576807022094727,-1.8154034614562988
1482297398354,0.24600422382354736,-9.57441234588623,-1.7142484188079834
1482297398534,0.44412440061569214,-9.601945877075195,-1.7615338563919067
1482297398713,0.5327098965644836,-9.551667213439941,-1.7938556671142578
1482297398894,0.6889315247535706,-9.54209041595459,-1.6418237686157227
1482297399074,0.3315969407558441,-9.615114212036133,-1.8088194131851196
1482297399254,0.48602294921875,-9.48462963104248,-1.8854337930679321
1482297399434,0.30885201692581177,-9.566033363342285,-1.8195933103561401
1482297399615,0.47644615173339844,-9.512163162231445,-1.8872294425964355
1482297399795,0.4411316514015198,-9.457097053527832,-1.7782933712005615
1482297399973,0.5033808946609497,-9.512762069702148,-1.8584990501403809
1482297400151,0.48961424827575684,-9.520543098449707,-1.8579005002975464
1482297400337,0.4537012279033661,-9.499593734741211,-1.9524714946746826
1482297400517,0.2651578485965729,-9.519346237182617,-1.8710685968399048
1482297400696,0.6979097723960876,-9.409811019897461,-2.0452468395233154
1482297400876,0.5398924946784973,-9.443329811096191,-1.956661343574524
1482297401055,0.5363011956214905,-9.509769439697266,-1.954267144203186
1482297401235,0.7858967185020447,-9.509170532226563,-1.9183541536331177
1482297401416,0.5997475385665894,-9.365518569946289,-1.613093376159668
1482297401596,0.3728969097137451,-9.481039047241211,-1.8022353649139404
1482297401780,0.4572925269603729,-9.542689323425293,-1.9812018871307373
1482297401955,0.5758054852485657,-10.019734382629395,-1.854907751083374
1482297402133,0.4118026793003082,-9.501988410949707,-1.523909330368042
1482297402317,0.7805097699165344,-9.50498104095459,-1.6789339780807495
1482297402497,0.547075092792511,-9.5223388671875,-1.912368655204773
1482297402678,0.524330198764801,-9.427767753601074,-2.0242974758148193
1482297402855,0.6344634294509888,-9.437943458557129,-1.813009262084961
1482297403033,0.5297171473503113,-9.54209041595459,-2.0272903442382813
1482297403218,1.0193313360214233,-9.514557838439941,-2.2649147510528564
1482297403398,0.9612720012664795,-9.585784912109375,-1.7806875705718994
1482297403578,1.05105459690094,-9.48882007598877,-1.6915035247802734
1482297403756,0.27712884545326233,-9.563039779663086,-1.8997989892959595
1482297403939,0.9469067454338074,-9.436147689819336,-1.8842366933822632
1482297404119,0.679354727268219,-9.464279174804688,-1.692102074623108
1482297404299,0.33099839091300964,-9.546878814697266,-1.7920600175857544
1482297404479,0.6667851805686951,-9.43255615234375,-1.9345149993896484
1482297404659,0.6332663297653198,-9.484031677246094,-1.7705121040344238
1482297404878,0.4513070285320282,-9.501988410949707,-1.8142063617706299
1482297405017,0.5961562395095825,-9.49001693725586,-1.9907786846160889
1482297405200,0.7200561761856079,-9.525331497192383,-1.8800468444824219
1482297405378,0.6422445774078369,-9.478046417236328,-1.8872294425964355
1482297405558,0.7266402244567871,-9.475651741027832,-1.8064252138137817
1482297405738,0.5728127360343933,-9.532513618469238,-1.7411831617355347
1482297405918,0.6308721303939819,-9.422979354858398,-1.777096152305603
1482297406101,0.6392518281936646,-9.458293914794922,-1.6376339197158813
1482297406279,0.8206126093864441,-9.515155792236328,-1.6166846752166748
1482297406459,0.363918662071228,-9.446322441101074,-1.7399860620498657
1482297406642,0.768538773059845,-9.452906608581543,-1.954267144203186
1482297406822,0.558447539806366,-9.4822359085083,-1.6741455793380737
1482297407002,0.5213374495506287,-9.497200012207031,-1.7274165153503418
1482297407177,0.7745242714881897,-9.513360023498535,-1.8638859987258911
1482297407361,0.5213374495506287,-9.547477722167969,-1.6561890840530396
1482297407541,0.47644615173339844,-9.535507202148438,-1.7794904708862305
1482297407722,0.585382342338562,-9.526528358459473,-1.7920600175857544
1482297407902,0.5291185975074768,-9.466673851013184,-1.8303672075271606
1482297408080,0.6368576288223267,-9.437344551086426,-1.8291701078414917
1482297408261,0.5141547918319702,-9.552865028381348,-1.6891093254089355
1482297408443,0.5704185366630554,-9.57321548461914,-1.8854337930679321
1482297408622,0.7996633648872375,-9.491812705993652,-1.6609774827957153
1482297408803,0.3705027103424072,-9.586383819580078,-1.7507599592208862
1482297408983,0.922366201877594,-9.492411613464355,-1.7573440074920654
1482297409163,0.2783259451389313,-9.54209041595459,-1.84233820438385
1482297409344,0.8242039084434509,-9.423578262329102,-1.799242615699768
1482297409524,0.4273650050163269,-9.493608474731445,-1.6508020162582397
1482297409704,0.3998316824436188,-9.469067573547363,-1.7812861204147339
1482297409882,0.6326677799224854,-9.474454879760742,-2.0416555404663086
1482297410060,0.3705027103424072,-9.589975357055664,-1.823184609413147
1482297410244,0.5410895943641663,-9.640851974487305,-2.0685901641845703
1482297410425,0.23104046285152435,-9.384672164916992,-2.0632033348083496
1482297410603,1.1869255304336548,-9.39365005493164,-1.8040310144424438
1482297410782,0.5159504413604736,-9.525331497192383,-1.558625340461731
1482297410962,0.912190854549408,-9.463082313537598,-1.6388310194015503
1482297411145,0.23403321206569672,-9.591172218322754,-1.7519570589065552
1482297411325,0.9876081943511963,-9.48343276977539,-1.886630892753601
1482297411506,0.3603273630142212,-9.522936820983887,-1.8555063009262085
1482297411686,0.7775170207023621,-9.412803649902344,-1.8309657573699951
1482297411866,0.5476736426353455,-9.526528358459473,-2.1380221843719482
1482297412046,0.46567222476005554,-9.55705451965332,-1.659181833267212
1482297412225,0.5943605899810791,-9.406219482421875,-1.9841946363449097
1482297412407,0.4411316514015198,-9.515155792236328,-2.100313425064087
1482297412585,0.7433996200561523,-9.5007905960083,-1.8160020112991333
1482297412767,0.44831427931785583,-9.489418029785156,-1.8237831592559814
1482297412952,0.5105634927749634,-9.549872398376465,-1.823184609413147
1482297413129,0.606930136680603,-9.4636812210083,-1.7184382677078247
1482297413306,0.3908534348011017,-9.503185272216797,-1.9847931861877441
1482297413487,0.7182605266571045,-9.542689323425293,-1.9422961473464966
1482297413668,0.5446808934211731,-9.482834815979004,-1.8171991109848022
1482297413845,0.7823054194450378,-9.525930404663086,-1.8483237028121948
1482297414028,0.46088382601737976,-9.580398559570313,-1.711255669593811
1482297414208,0.6278793811798096,-9.4636812210083,-1.9171570539474487
1482297414388,0.6386532783508301,-9.506776809692383,-1.698686122894287
1482297414568,0.5704185366630554,-9.46487808227539,-1.8818424940109253
1482297414749,0.6350619792938232,-9.55585765838623,-1.678335428237915
1482297414929,0.38127660751342773,-9.469666481018066,-1.8375498056411743
1482297415109,0.8990227580070496,-9.405022621154785,-1.8441338539123535
1482297415289,0.5141547918319702,-9.50617790222168,-1.6968904733657837
1482297415469,0.5835866928100586,-9.525331497192383,-1.844732403755188
1482297415647,0.67815762758255,-9.57979965209961,-2.0219032764434814
1482297415830,0.507570743560791,-9.485228538513184,-1.9578584432601929
1482297416008,0.7386112213134766,-9.50617790222168,-1.833359956741333
1482297416187,0.5764040350914001,-9.485827445983887,-1.8950105905532837
1482297416390,0.3321954905986786,-9.536105155944824,-1.7393875122070313
1482297416551,0.7110779285430908,-9.528923034667969,-1.9375077486038208
1482297416731,0.39564183354377747,-9.518747329711914,-1.7944542169570923
1482297416908,0.8708908557891846,-9.498994827270508,-1.7932571172714233
1482297417089,0.2753331959247589,-9.462483406066895,-1.878849744796753
1482297417270,0.33758243918418884,-9.543886184692383,-1.978209137916565
1482297417452,0.5716156363487244,-9.463082313537598,-1.988384485244751
1482297417632,0.48303020000457764,-9.431957244873047,-1.699883222579956
1482297417812,0.9876081943511963,-9.553462982177734,-1.643619418144226
1482297417992,0.28131869435310364,-9.584588050842285,-1.4879963397979736
1482297418172,0.6607996821403503,-9.570222854614258,-1.7609353065490723
1482297418352,0.5644330382347107,-9.527725219726563,-1.7483657598495483
1482297418532,0.35733461380004883,-9.551069259643555,-1.5538369417190552
1482297418712,0.4429273009300232,-9.52353572845459,-2.10210919380188
1482297418892,0.4082113802433014,-9.624092102050781,-1.590348482131958
1482297419068,0.05626374110579491,-9.694122314453125,-1.853710651397705
1482297419253,0.7218518257141113,-9.505578994750977,-1.8884265422821045
1482297419433,0.1801636815071106,-9.49001693725586,-1.6238672733306885
1482297419612,0.4016273319721222,-9.530718803405762,-1.810615062713623
1482297419793,0.41718965768814087,-9.607931137084961,-1.8076223134994507
1482297419972,0.14365209639072418,-9.533711433410645,-1.9901801347732544
1482297420148,0.5602431893348694,-9.50617790222168,-1.8579005002975464
1482297420328,0.1604115068912506,-9.581595420837402,-1.8429367542266846
1482297420508,0.6655880808830261,-9.494206428527832,-1.7423802614212036
1482297420691,0.2214636504650116,-9.530119895935059,-1.7411831617355347
1482297420874,0.545877993106842,-9.516353607177734,-1.6400281190872192
1482297421056,0.3992331326007843,-9.50617790222168,-2.050633668899536
1482297421235,0.37409400939941406,-9.515155792236328,-1.9470845460891724
1482297421411,0.5620388388633728,-9.41639518737793,-1.886630892753601
1482297421593,0.08259996026754379,-9.556455612182617,-1.746570110321045
1482297421773,0.7469909191131592,-9.535507202148438,-1.8052281141281128
1482297421955,0.6051344871520996,-9.511565208435059,-1.7998411655426025
1482297422130,0.2974795699119568,-9.612719535827637,-1.799242615699768
1482297422316,0.5871779918670654,-9.49121379852295,-1.6184803247451782
1482297422496,0.11791443079710007,-9.592369079589844,-1.6549919843673706
1482297422676,0.6769605278968811,-9.437344551086426,-2.008136749267578
1482297422856,0.29867666959762573,-9.512762069702148,-1.7531541585922241
1482297423036,0.4818331003189087,-9.486425399780273,-1.8112136125564575
1482297423212,0.29149407148361206,-9.566631317138672,-1.7818846702575684
1482297423396,0.4423287510871887,-9.559449195861816,-1.7369933128356934
1482297423576,0.5919663906097412,-9.59177017211914,-1.5909470319747925
1482297423757,0.547075092792511,-9.499593734741211,-1.7028759717941284
1482297423937,0.4405331015586853,-9.543288230895996,-1.7908629179000854
1482297424117,0.49799394607543945,-9.452308654785156,-1.643619418144226
1482297424297,0.27653029561042786,-9.515754699707031,-1.7938556671142578
1482297424478,0.14365209639072418,-9.602544784545898,-1.8531121015548706
1482297424656,0.6039373874664307,-9.510367393493652,-1.9674352407455444
1482297424838,0.37229835987091064,-9.593565940856934,-1.670554280281067
1482297425030,0.41359832882881165,-9.473258018493652,-1.7717092037200928
1482297425194,0.42616790533065796,-9.466673851013184,-1.6585832834243774
1482297425376,0.3645172119140625,-9.570222854614258,-1.7854759693145752
1482297425559,0.40940847992897034,-9.441534042358398,-1.9476830959320068
1482297425738,0.47644615173339844,-9.461286544799805,-1.777096152305603
1482297425918,0.46088382601737976,-9.496002197265625,-1.953070044517517
1482297426097,0.3902548849582672,-9.482834815979004,-1.8728642463684082
1482297426274,0.8152256608009338,-9.410409927368164,-1.890222191810608
1482297426455,0.35434186458587646,-9.511565208435059,-1.7663222551345825
1482297426638,1.0881646871566772,-9.552266120910645,-1.9674352407455444
1482297426818,0.3471592366695404,-9.38167953491211,-1.7447744607925415
1482297426998,0.6314706802368164,-9.473258018493652,-1.7980455160140991
1482297427176,0.8355764150619507,-9.436147689819336,-1.8411411046981812
1482297427361,0.536899745464325,-9.536105155944824,-1.8453309535980225
1482297427541,0.47165772318840027,-9.492411613464355,-1.7908629179000854
1482297427719,0.667982280254364,-9.501988410949707,-1.8716671466827393
1482297427901,0.8277952671051025,-9.41639518737793,-1.998559832572937
1482297428082,0.5363011956214905,-9.5408935546875,-1.800439715385437
1482297428257,0.4429273009300232,-9.49001693725586,-1.8956091403961182
1482297428442,0.702099621295929,-9.45111083984375,-1.898003339767456
1482297428621,0.5339069962501526,-9.586383819580078,-1.713649868965149
1482297428802,0.5680243372917175,-9.470264434814453,-1.86508309841156
1482297428982,0.9157821536064148,-9.427168846130371,-1.7956513166427612
1482297429162,0.3908534348011017,-9.606135368347168,-1.63344407081604
1482297429342,0.646434485912323,-9.485228538513184,-1.8393454551696777
1482297429522,0.8487445116043091,-9.460687637329102,-1.821987509727478
1482297429702,0.48602294921875,-9.487024307250977,-1.702277421951294
1482297429883,0.5267243981361389,-9.50498104095459,-1.9255367517471313
1482297430063,0.5841852426528931,-9.533112525939941,-1.775899052619934
1482297430243,0.497395396232605,-9.583391189575195,-1.8848352432250977
1482297430423,0.6494272351264954,-9.497797966003418,-1.677138328552246
1482297430601,0.6841431260108948,-9.43494987487793,-1.9405004978179932
1482297430783,0.5554547905921936,-9.537302017211914,-1.5316904783248901
1482297430964,0.6051344871520996,-9.533711433410645,-1.777694821357727
1482297431144,0.6308721303939819,-9.528324127197266,-1.835754156112671
1482297431323,0.4572925269603729,-9.496601104736328,-1.6071078777313232
1482297431504,0.7978677153587341,-9.502586364746094,-1.8058266639709473
1482297431684,0.5231330990791321,-9.510966300964355,-1.7172411680221558
1482297431864,0.6147112846374512,-9.55466079711914,-1.9255367517471313
1482297432047,0.6039373874664307,-9.50617790222168,-1.954267144203186
1482297432224,0.6799532771110535,-9.515754699707031,-1.9057846069335938
1482297432405,0.7493851184844971,-9.541492462158203,-2.079364061355591
1482297432584,0.8469488620758057,-9.369110107421875,-1.7741034030914307
1482297432763,0.5895721912384033,-9.553462982177734,-1.9069817066192627
1482297432945,0.8146271109580994,-9.496601104736328,-1.8339585065841675
1482297433126,0.800261914730072,-9.459490776062012,-1.7220295667648315
1482297433306,0.568622887134552,-9.479841232299805,-1.8842366933822632
1482297433486,0.6877344250679016,-9.525930404663086,-1.7387889623641968
1482297433666,0.39624038338661194,-9.583391189575195,-1.7896658182144165
1482297433846,0.8182184100151062,-9.511565208435059,-1.92134690284729
1482297434024,0.5554547905921936,-9.53849983215332,-1.778891921043396
1482297434206,0.5147533416748047,-9.521739959716797,-1.8812439441680908
1482297434387,0.6757634282112122,-9.459490776062012,-1.7920600175857544
1482297434567,0.4273650050163269,-9.444527626037598,-1.8088194131851196
1482297434747,0.5303156971931458,-9.509769439697266,-1.8638859987258911
1482297434927,0.35733461380004883,-9.462483406066895,-1.8896236419677734
1482297435113,0.36810851097106934,-9.566033363342285,-1.680729627609253
1482297435296,0.3274070918560028,-9.623494148254395,-1.5131354331970215
1482297435468,0.5327098965644836,-9.498994827270508,-1.8860323429107666
1482297435648,0.3495534360408783,-9.430161476135254,-1.8166005611419678
1482297435828,0.3292027413845062,-9.534908294677734,-1.8166005611419678
1482297436008,0.48063600063323975,-9.50857162475586,-1.9141643047332764
1482297436187,0.7218518257141113,-9.50498104095459,-1.6430208683013916
1482297436368,0.5494692921638489,-9.499593734741211,-2.124255418777466
1482297436549,1.0187327861785889,-9.449316024780273,-1.5544354915618896
1482297436728,0.4411316514015198,-9.530119895935059,-1.7956513166427612
1482297436909,0.6434416770935059,-9.457097053527832,-1.7806875705718994
1482297437089,0.49978959560394287,-9.609726905822754,-2.0853497982025146
1482297437269,0.3974374830722809,-9.673172950744629,-1.999756932258606
1482297437444,0.7098808288574219,-9.479841232299805,-1.6735470294952393
1482297437627,0.6314706802368164,-9.485228538513184,-1.7052701711654663
1482297437808,0.4495113790035248,-9.465476036071777,-1.742978811264038
1482297437990,0.4339490532875061,-9.588179588317871,-1.4502876996994019
1482297438166,0.42018240690231323,-9.481637001037598,-1.7860745191574097
1482297438346,0.5452794432640076,-9.560646057128906,-1.856104850769043
1482297438531,0.6500257849693298,-9.545681953430176,-1.7184382677078247
1482297438711,0.5608417391777039,-9.484031677246094,-1.755548357963562
1482297438892,0.3345896899700165,-9.567828178405762,-1.4107834100723267
1482297439072,0.36750996112823486,-9.564835548400879,-1.8225860595703125
1482297439252,0.42377370595932007,-9.552266120910645,-1.9273324012756348
1482297439432,0.558447539806366,-9.506776809692383,-1.8183962106704712
1482297439610,0.39863458275794983,-9.5408935546875,-1.7998411655426025
1482297439791,0.4800374507904053,-9.497200012207031,-1.7950527667999268
1482297439972,0.5536591410636902,-9.52473258972168,-1.8848352432250977
1482297440152,0.4794389009475708,-9.525331497192383,-1.800439715385437
1482297440332,0.7829039692878723,-9.604340553283691,-1.946485996246338
1482297440512,0.5656301379203796,-9.448118209838867,-1.9979612827301025
1482297440692,0.6853402256965637,-9.467870712280273,-1.731606364250183
1482297440873,0.639850378036499,-9.53849983215332,-1.8261773586273193
1482297441051,0.3944447338581085,-9.55585765838623,-2.027888774871826
1482297441231,0.40222588181495667,-9.50857162475586,-1.9518729448318481
1482297441409,0.6015431880950928,-9.446322441101074,-1.8806453943252563
1482297441589,0.3693056106567383,-9.44752025604248,-1.8824410438537598
1482297441774,0.30466216802597046,-9.49001693725586,-1.625662922859192
1482297441952,0.6380547285079956,-9.477447509765625,-1.876455545425415
1482297442134,0.4118026793003082,-9.489418029785156,-1.7747019529342651
1482297442314,0.6033388376235962,-9.566631317138672,-1.8465280532836914
1482297442492,0.375291109085083,-9.461885452270508,-2.0266916751861572
1482297442674,0.4345476031303406,-9.539097785949707,-1.6855180263519287
1482297442854,0.4429273009300232,-9.503783226013184,-2.0907366275787354
1482297443032,0.5829881429672241,-9.333795547485352,-1.7854759693145752
1482297443213,0.6602011322975159,-9.493608474731445,-1.7950527667999268
1482297443393,0.06703764945268631,-9.600150108337402,-1.7292121648788452
1482297443575,0.7344213724136353,-9.543886184692383,-2.030881643295288
1482297443755,0.46148237586021423,-9.487024307250977,-1.8088194131851196
1482297443935,0.4776432514190674,-9.502586364746094,-1.7142484188079834
1482297444116,0.4626794755458832,-9.527725219726563,-1.9734207391738892
1482297444293,0.46567222476005554,-9.585186958312988,-1.6837223768234253
1482297444472,0.6260837316513062,-9.515155792236328,-2.0183119773864746
1482297444656,0.524330198764801,-9.576208114624023,-1.821987509727478
1482297444836,0.6458359360694885,-9.541492462158203,-1.6226701736450195
1482297445016,0.5991489887237549,-9.49121379852295,-2.079962730407715
1482297445195,0.6482301354408264,-9.515155792236328,-1.6238672733306885
1482297445377,0.5877765417098999,-9.496601104736328,-1.8860323429107666
1482297445555,0.6530185341835022,-9.55466079711914,-1.7262194156646729
1482297445737,0.579995334148407,-9.482834815979004,-1.7334020137786865
1482297445916,0.5847837924957275,-9.442132949829102,-1.935113549232483
1482297446097,0.6362590789794922,-9.511565208435059,-1.5568296909332275
1482297446277,0.5141547918319702,-9.458293914794922,-1.9075802564620972
1482297446453,0.6362590789794922,-9.50498104095459,-1.6992846727371216
1482297446638,0.578798234462738,-9.49001693725586,-1.7268179655075073
1482297446817,0.656609833240509,-9.350554466247559,-1.8369512557983398
1482297446996,0.3232172429561615,-9.563638687133789,-1.5658079385757446
1482297447178,0.5578489899635315,-9.481039047241211,-1.9255367517471313
1482297447358,0.5099649429321289,-9.582193374633789,-1.7591396570205688
1482297447534,0.4967968463897705,-9.497797966003418,-1.5269020795822144
1482297447718,0.36750996112823486,-9.547477722167969,-1.913565754890442
1482297447905,0.6057330369949341,-9.565434455871582,-1.613093376159668
1482297448094,0.4016273319721222,-9.465476036071777,-2.166752576828003
1482297448259,0.5644330382347107,-9.427767753601074,-1.7603367567062378
1482297448435,-0.0011971008498221636,-9.55585765838623,-1.9596540927886963
1482297448620,0.8098387122154236,-9.561244010925293,-1.941697597503662
1482297448798,0.1322796493768692,-9.5624418258667,-1.9357120990753174
1482297448978,0.3627215623855591,-9.533112525939941,-2.1266496181488037
1482297449160,0.5153518915176392,-9.518747329711914,-1.941697597503662
1482297449342,0.33518823981285095,-9.482834815979004,-1.8944120407104492
1482297449519,0.7206547260284424,-9.474454879760742,-1.8728642463684082
1482297449702,-0.21607670187950134,-9.547477722167969,-1.6980875730514526
1482297449881,1.0342950820922852,-9.479243278503418,-1.8926163911819458
1482297450059,0.06404489278793335,-9.521739959716797,-1.8626888990402222
1482297450241,0.6643909811973572,-9.498396873474121,-1.8824410438537598
1482297450420,0.2735375463962555,-9.485827445983887,-1.9638439416885376
1482297450601,0.7439981698989868,-9.48343276977539,-1.9500772953033447
1482297450783,0.5321113467216492,-9.519346237182617,-1.9584569931030273
1482297450962,0.5374982953071594,-9.524134635925293,-1.9710265398025513
1482297451142,0.578798234462738,-9.469666481018066,-1.945288896560669
1482297451322,0.3926490843296051,-9.5007905960083,-2.0260932445526123
1482297451511,0.507570743560791,-9.453505516052246,-1.944091796875
1482297451683,0.6177040338516235,-9.524134635925293,-1.9728221893310547
1482297451860,0.47165772318840027,-9.496601104736328,-1.834557056427002
1482297452043,0.6637924313545227,-9.519346237182617,-1.9285295009613037
1482297452222,0.5117605924606323,-9.514557838439941,-1.810615062713623
1482297452403,0.7248445749282837,-9.484031677246094,-1.7471686601638794
1482297452583,0.6661866307258606,-9.485228538513184,-1.799242615699768
1482297452764,0.4776432514190674,-9.515155792236328,-1.7118542194366455
1482297452944,0.7511807680130005,-9.437344551086426,-1.7334020137786865
1482297453124,0.6003460884094238,-9.488221168518066,-1.6394295692443848
1482297453300,0.45489832758903503,-9.494206428527832,-1.646013617515564
1482297453484,0.6117185354232788,-9.48343276977539,-1.7507599592208862
1482297453660,0.46627077460289,-9.48343276977539,-1.7070658206939697
1482297453845,0.6649895310401917,-9.504382133483887,-1.9189527034759521
1482297454025,0.6440402865409851,-9.531316757202148,-1.9608511924743652
1482297454203,0.5578489899635315,-9.5624418258667,-1.801636815071106
1482297454385,0.5506663918495178,-9.576807022094727,-1.8453309535980225
1482297454561,0.7170634269714355,-9.481637001037598,-1.6735470294952393
1482297454745,0.585382342338562,-9.493009567260742,-1.501164436340332
1482297454926,0.44592007994651794,-9.474454879760742,-1.73519766330719
1482297455106,0.5632359385490417,-9.470264434814453,-1.8052281141281128
1482297455286,0.5728127360343933,-9.535507202148438,-1.623268723487854
1482297455466,0.4273650050163269,-9.531915664672852,-1.787870168685913
1482297455642,0.49619829654693604,-9.543886184692383,-1.7004817724227905
1482297455825,0.4794389009475708,-9.518148422241211,-1.7028759717941284
1482297456007,0.40043023228645325,-9.543886184692383,-1.7405846118927002
1482297456187,0.6344634294509888,-9.50857162475586,-1.8602946996688843
1482297456367,0.4339490532875061,-9.506776809692383,-1.7818846702575684
1482297456543,0.44173020124435425,-9.566033363342285,-1.9075802564620972
1482297456727,0.727837324142456,-9.50857162475586,-1.9375077486038208
1482297456908,0.6859387755393982,-9.405621528625488,-1.9087773561477661
1482297457088,0.48961424827575684,-9.492411613464355,-1.6831238269805908
1482297457267,0.5428852438926697,-9.469067573547363,-1.8507179021835327
1482297457448,0.5482721924781799,-9.512762069702148,-1.6496049165725708
1482297457628,0.5123591423034668,-9.485827445983887,-1.7531541585922241
1482297457808,0.45429977774620056,-9.570821762084961,-1.6962919235229492
1482297457988,0.6416460275650024,-9.499593734741211,-1.5442601442337036
1482297458169,0.41359832882881165,-9.48882007598877,-1.8830395936965942
1482297458349,0.641047477722168,-9.63067626953125,-1.580173134803772
1482297458529,0.46627077460289,-9.516353607177734,-1.868674397468567
1482297458709,0.578798234462738,-9.529520988464355,-1.8201918601989746
1482297458889,0.5542576909065247,-9.566631317138672,-1.7298107147216797
1482297459069,0.43993455171585083,-9.558850288391113,-1.9027918577194214
1482297459250,0.6206967830657959,-9.576208114624023,-1.7962498664855957
1482297459429,0.5829881429672241,-9.436745643615723,-1.7393875122070313
1482297459610,0.5811924338340759,-9.539097785949707,-1.6328455209732056
1482297459790,0.5321113467216492,-9.518747329711914,-1.7974469661712646
1482297459968,0.35733461380004883,-9.591172218322754,-1.6759412288665771
1482297460149,0.3489548861980438,-9.585784912109375,-1.73519766330719
1482297460328,0.3232172429561615,-9.517550468444824,-1.8154034614562988
1482297460512,0.6356605291366577,-9.52114200592041,-1.7591396570205688
1482297460685,0.45250412821769714,-9.561244010925293,-1.6549919843673706
1482297460872,0.24899697303771973,-9.582193374633789,-1.8034324645996094
1482297461052,0.518943190574646,-9.526528358459473,-1.7411831617355347
1482297461232,0.47884035110473633,-9.482834815979004,-1.8860323429107666
1482297461411,0.3705027103424072,-9.543886184692383,-1.5741876363754272
1482297461590,0.3172317147254944,-9.469666481018066,-1.8237831592559814
1482297461772,0.19931729137897491,-9.57321548461914,-1.9674352407455444
1482297461952,0.38067805767059326,-9.564237594604492,-1.734000563621521
1482297462131,0.15562310814857483,-9.567828178405762,-1.931522250175476
1482297462310,0.4225766062736511,-9.572616577148438,-1.4347254037857056
1482297462488,0.5901707410812378,-9.387664794921875,-1.5616180896759033
1482297462668,0.1496376097202301,-9.595361709594727,-1.3455413579940796
1482297462852,0.436343252658844,-9.5809965133667,-1.4891934394836426
1482297463033,0.5327098965644836,-9.61571216583252,-1.790264368057251
1482297463213,0.2753331959247589,-9.564835548400879,-1.3988122940063477
1482297463393,0.3447650372982025,-9.511565208435059,-1.653794765472412
1482297463572,0.43035775423049927,-9.481637001037598,-1.7172411680221558
1482297463754,0.1885433793067932,-9.422979354858398,-1.7417817115783691
1482297463932,0.6099228858947754,-9.478644371032715,-1.8656816482543945
1482297464114,0.38726213574409485,-9.543886184692383,-1.764526605606079
1482297464294,0.2735375463962555,-9.596558570861816,-1.9015947580337524
1482297464474,0.5351040959358215,-9.53969669342041,-1.9159599542617798
1482297464652,0.34835633635520935,-9.544485092163086,-1.7585411071777344
1482297464833,0.7374141216278076,-9.463082313537598,-2.013523578643799
1482297465015,0.4818331003189087,-9.50498104095459,-1.5867571830749512
1482297465195,0.6661866307258606,-9.495404243469238,-1.7549498081207275
1482297465375,0.37169981002807617,-9.584588050842285,-1.6944962739944458
1482297465553,0.33937808871269226,-9.558850288391113,-1.7693150043487549
1482297465735,0.5638344883918762,-9.596558570861816,-1.902193307876587
1482297465916,0.5883750915527344,-9.463082313537598,-1.835754156112671
1482297466096,0.5285200476646423,-9.586981773376465,-1.6615760326385498
1482297466276,0.3387795388698578,-9.685144424438477,-1.6837223768234253
1482297466454,0.568622887134552,-9.47146224975586,-1.7962498664855957
1482297466635,0.33937808871269226,-9.567828178405762,-1.7866730690002441
1482297466816,0.6500257849693298,-9.436147689819336,-1.8052281141281128
1482297466997,0.6260837316513062,-9.496601104736328,-1.7597382068634033
1482297467177,0.4531026780605316,-9.545681953430176,-1.8740613460540771
1482297467357,0.3866635859012604,-9.550470352172852,-1.844732403755188
1482297467537,0.4602852761745453,-9.534309387207031,-1.7106571197509766
1482297467713,0.243011474609375,-9.592369079589844,-2.0482394695281982
1482297467897,0.6224924325942993,-9.526528358459473,-1.6352397203445435
1482297468079,0.6470330357551575,-9.481637001037598,-1.7477672100067139
1482297468258,0.2687491476535797,-9.648633003234863,-1.6903064250946045
1482297468437,0.1975216418504715,-9.630077362060547,-1.7208324670791626
1482297468618,0.689530074596405,-9.57860279083252,-1.799242615699768
1482297468793,0.6536170840263367,-9.570222854614258,-1.8237831592559814
1482297468978,0.5285200476646423,-9.527127265930176,-1.7980455160140991
1482297469158,0.44352585077285767,-9.578003883361816,-1.8387469053268433
1482297469339,0.29149407148361206,-9.519944190979004,-1.8944120407104492
1482297469519,0.5392939448356628,-9.473258018493652,-1.7262194156646729
1482297469698,0.4686649739742279,-9.495404243469238,-1.7824832201004028
1482297469879,0.5632359385490417,-9.544485092163086,-1.7004817724227905
1482297470059,0.49140989780426025,-9.48462963104248,-1.8154034614562988
1482297470240,0.6063315868377686,-9.414599418640137,-1.6525976657867432
1482297470420,0.43694180250167847,-9.554061889648438,-1.657984733581543
1482297470596,0.5883750915527344,-9.44871711730957,-1.9003976583480835
1482297470775,0.38726213574409485,-9.443329811096191,-1.7280150651931763
1482297470956,0.5536591410636902,-9.468469619750977,-2.1080946922302246
1482297471136,0.5931634902954102,-9.551667213439941,-1.8794482946395874
1482297471317,0.5746083855628967,-9.5223388671875,-1.7782933712005615
1482297471498,0.6715735793113708,-9.504382133483887,-2.02848744392395
1482297471676,0.4602852761745453,-9.509170532226563,-1.775899052619934
1482297471857,0.5285200476646423,-9.560047149658203,-1.7717092037200928
1482297472037,0.4920084476470947,-9.498396873474121,-1.8830395936965942
1482297472217,0.5943605899810791,-9.525930404663086,-1.6663644313812256
1482297472397,0.45489832758903503,-9.584588050842285,-1.6316484212875366
1482297472578,0.4273650050163269,-9.57321548461914,-1.7423802614212036
1482297472757,0.4315548539161682,-9.528324127197266,-1.9105730056762695
1482297472938,0.46627077460289,-9.601346969604492,-1.754351258277893
1482297473118,0.7314286231994629,-9.513958930969238,-1.775899052619934
1482297473297,0.4213795065879822,-9.530119895935059,-1.6047136783599854
1482297473479,0.6613982319831848,-9.54209041595459,-1.5304933786392212
1482297473660,0.43993455171585083,-9.496601104736328,-1.920149803161621
1482297473839,0.4794389009475708,-9.556455612182617,-1.7274165153503418
1482297474019,0.646434485912323,-9.437943458557129,-1.7094600200653076
1482297474199,0.6889315247535706,-9.355941772460938,-2.075174331665039
1482297474379,0.4010287821292877,-9.577404975891113,-1.5161281824111938
1482297474564,0.46806642413139343,-9.57321548461914,-1.9823989868164063
1482297474744,0.6308721303939819,-9.430161476135254,-2.0823569297790527
1482297474924,0.3172317147254944,-9.586981773376465,-1.6675615310668945
1482297475103,0.6206967830657959,-9.453505516052246,-1.6148890256881714
1482297475282,0.24181437492370605,-9.646238327026367,-1.4185645580291748
1482297475464,0.6230909824371338,-9.50498104095459,-1.7118542194366455
1482297475644,0.34835633635520935,-9.474454879760742,-1.9189527034759521
1482297475825,0.5590460896492004,-9.49121379852295,-1.5765818357467651
1482297476003,0.5374982953071594,-9.459490776062012,-1.6478092670440674
1482297476185,0.4734533727169037,-9.636063575744629,-1.5364789962768555
1482297476365,0.5883750915527344,-9.59835433959961,-1.7549498081207275
1482297476545,0.5674257874488831,-9.554061889648438,-1.382651448249817
1482297476722,0.3280056416988373,-9.546280860900879,-1.8058266639709473
1482297476906,0.47225627303123474,-9.44871711730957,-1.6603789329528809
1482297477084,0.5291185975074768,-9.543886184692383,-1.6430208683013916
1482297477264,0.6991068720817566,-9.489418029785156,-2.0482394695281982
1482297477446,0.6967126727104187,-9.530718803405762,-1.854907751083374
1482297477627,0.47884035110473633,-9.455301284790039,-2.034472942352295
1482297477801,0.8164227604866028,-9.410409927368164,-2.1051018238067627
1482297477986,0.5943605899810791,-9.427168846130371,-2.0464439392089844
1482297478167,0.7344213724136353,-9.48762321472168,-1.997362732887268
1482297478347,0.7158663272857666,-9.55705451965332,-2.273893117904663
1482297478527,0.6512228846549988,-9.486425399780273,-1.9536685943603516
1482297478705,0.7547720670700073,-9.362525939941406,-2.214038133621216
1482297478883,0.5153518915176392,-9.481637001037598,-2.075174331665039
1482297479068,0.6260837316513062,-9.519944190979004,-2.0626046657562256
1482297479248,0.6937199234962463,-9.426570892333984,-2.033874273300171
1482297479428,0.4854243993759155,-9.481039047241211,-2.0171148777008057
1482297479608,0.5446808934211731,-9.445724487304688,-2.013523578643799
1482297479788,0.8882488012313843,-9.457097053527832,-2.1098902225494385
1482297479969,0.7134721279144287,-9.478644371032715,-1.922544002532959
1482297480143,0.5710170865058899,-9.467870712280273,-1.9249382019042969
1482297480328,0.8445546627044678,-9.458293914794922,-1.9692308902740479
1482297480508,0.7445967197418213,-9.4822359085083,-2.0470423698425293
1482297480689,0.6105214357376099,-9.416994094848633,-2.0476410388946533
1482297480865,0.7894880175590515,-9.427168846130371,-1.977012038230896
1482297481048,0.7284358739852905,-9.469666481018066,-2.0003554821014404
1482297481230,0.6422445774078369,-9.467870712280273,-2.0266916751861572
1482297481410,0.750582218170166,-9.41639518737793,-2.012925148010254
1482297481587,0.8583213090896606,-9.397241592407227,-1.8997989892959595
1482297481769,0.6769605278968811,-9.440337181091309,-1.920149803161621
1482297481951,0.6111199855804443,-9.46607494354248,-1.9261353015899658
1482297482132,0.7475894689559937,-9.428964614868164,-2.0147206783294678
1482297482308,0.8277952671051025,-9.476250648498535,-1.8596961498260498
1482297482492,0.6901286244392395,-9.440337181091309,-1.8794482946395874
1482297482669,0.6775590777397156,-9.492411613464355,-2.0649988651275635
1482297482847,0.8768763542175293,-9.403825759887695,-1.9207483530044556
1482297483029,0.7344213724136353,-9.47146224975586,-1.8938134908676147
1482297483212,0.7056909799575806,-9.543288230895996,-1.9189527034759521
1482297483392,0.7463923692703247,-9.446921348571777,-2.101510524749756
1482297483570,0.5117605924606323,-9.49001693725586,-1.9105730056762695
1482297483752,0.6554127335548401,-9.49121379852295,-1.9153614044189453
1482297483932,0.7200561761856079,-9.484031677246094,-1.9309237003326416
1482297484112,0.760757565498352,-9.44752025604248,-1.9919757843017578
1482297484291,0.6404489278793335,-9.496601104736328,-2.011129379272461
1482297484473,0.5213374495506287,-9.452308654785156,-1.9422961473464966
1482297484653,0.7475894689559937,-9.416994094848633,-1.9494787454605103
1482297484833,0.7870938181877136,-9.412205696105957,-2.0236990451812744
1482297485013,0.6518214344978333,-9.484031677246094,-1.8956091403961182
1482297485193,0.8289923667907715,-9.50617790222168,-2.0177135467529297
1482297485374,0.7912836670875549,-9.391854286193848,-2.0272903442382813
1482297485554,0.557250440120697,-9.519944190979004,-1.7926585674285889
1482297485734,0.5991489887237549,-9.498396873474121,-2.0272903442382813
1482297485913,0.42856210470199585,-9.533711433410645,-1.8507179021835327
1482297486094,0.7110779285430908,-9.507973670959473,-1.8154034614562988
1482297486269,0.7703344225883484,-9.411606788635254,-1.8309657573699951
1482297486449,0.4321534037590027,-9.497797966003418,-1.878849744796753
1482297486630,0.35015198588371277,-9.563039779663086,-1.8644845485687256
1482297486817,0.7038952708244324,-9.469666481018066,-2.049436569213867
1482297486995,0.707486629486084,-9.526528358459473,-1.8848352432250977
1482297487175,0.8248024582862854,-9.443928718566895,-1.8722656965255737
1482297487355,0.7535749673843384,-9.39784049987793,-1.802833914756775
1482297487535,0.4058171808719635,-9.427168846130371,-1.9399019479751587
1482297487716,0.8954314589500427,-9.424176216125488,-2.0590133666992188
1482297487896,0.7823054194450378,-9.475052833557129,-2.015319347381592
1482297488073,0.7122750282287598,-9.46607494354248,-1.8986018896102905
1482297488256,0.7846996188163757,-9.485827445983887,-1.8962076902389526
1482297488436,0.727837324142456,-9.427767753601074,-1.9345149993896484
1482297488617,0.6967126727104187,-9.473258018493652,-1.911171555519104
1482297488796,0.45010992884635925,-9.473855972290039,-1.8201918601989746
1482297488973,0.47584760189056396,-9.5007905960083,-1.8070237636566162
1482297489157,0.6823474764823914,-9.409811019897461,-1.9470845460891724
1482297489337,0.6901286244392395,-9.475052833557129,-1.8698714971542358
1482297489517,0.5931634902954102,-9.554061889648438,-2.0907366275787354
1482297489695,0.7332242727279663,-9.545681953430176,-1.9626468420028687
1482297489880,0.7356184720993042,-9.510966300964355,-1.8728642463684082
1482297490057,0.6003460884094238,-9.41519832611084,-1.8932149410247803
1482297490238,0.5285200476646423,-9.427168846130371,-1.9590555429458618
1482297490418,0.7015010714530945,-9.472060203552246,-1.7298107147216797
1482297490598,0.6332663297653198,-9.47146224975586,-2.0272903442382813
1482297490779,0.40222588181495667,-9.551069259643555,-2.01232647895813
1482297490956,0.5518634915351868,-9.515754699707031,-1.8513164520263672
1482297491139,0.761954665184021,-9.442731857299805,-1.7531541585922241
1482297491322,0.596754789352417,-9.423578262329102,-1.810615062713623
1482297491495,0.4812345504760742,-9.462483406066895,-1.809417963027954
1482297491676,0.5632359385490417,-9.463082313537598,-2.072780132293701
1482297491857,0.7110779285430908,-9.55585765838623,-1.8644845485687256
