timestamp,ax,ay,az
1481087871317,-6.71334171295166,-5.043984413146973,4.708197593688965
1481087871497,-6.491878032684326,-4.8937482833862305,5.013458251953125
1481087871684,-6.663661956787109,-5.171475887298584,4.4041337966918945
1481087871860,-7.1885905265808105,-3.843890905380249,2.9987375736236572
1481087872042,-3.7684733867645264,-8.92917537689209,0.7368155717849731
1481087872220,-5.009268283843994,-6.906673431396484,-0.47405192255973816
1481087872399,-5.8639984130859375,-7.228095054626465,1.2713210582733154
1481087872581,-6.136937618255615,-7.347805023193359,1.3640964031219482
1481087872759,-6.165069580078125,-7.547122478485107,1.326986312866211
1481087872943,-5.857414245605469,-7.6997528076171875,1.0420763492584229
1481087873120,-5.94061279296875,-7.394492149353027,1.4748282432556152
1481087873315,-6.281786918640137,-7.286752700805664,1.1468225717544556
1481087873483,-5.970540523529053,-7.328052997589111,1.9069817066192627
1481087873660,-6.09204626083374,-7.333439826965332,1.9692308902740479
1481087873840,-5.055356979370117,-6.251859188079834,2.123058319091797
1481087874023,-6.913856029510498,-8.109161376953125,2.3457190990448
1481087874201,-6.958747386932373,-7.303512096405029,1.358709454536438
1481087874380,-6.7510504722595215,-7.028777599334717,1.324592113494873
1481087874563,-6.450577735900879,-7.0593037605285645,1.5167267322540283
1481087874741,-6.589441776275635,-7.246650218963623,1.1893197298049927
1481087874923,-6.3733649253845215,-7.00244140625,1.303044319152832
1481087875105,-6.362590789794922,-6.916848659515381,1.2473790645599365
1481087875282,-6.606201171875,-7.110779285430908,0.7643488645553589
1481087875464,-6.511031627655029,-7.140108108520508,0.5422866940498352
1481087875649,-6.402095317840576,-7.226299285888672,0.4297592043876648
1481087875822,-6.423044681549072,-7.259818077087402,0.3693056106567383
1481087876006,-6.478111267089844,-7.284358501434326,0.4225766062736511
1481087876184,-6.390124320983887,-7.21672248840332,0.4471171796321869
1481087876366,-6.3500213623046875,-7.263409614562988,0.5662286877632141
1481087876547,-6.435015678405762,-7.207744121551514,0.7338228225708008
1481087876726,-6.443395137786865,-7.147889137268066,0.7625532150268555
1481087876908,-6.525396823883057,-7.22869348526001,0.7547720670700073
1481087877087,-6.42543888092041,-7.105391979217529,0.7721300721168518
1481087877263,-6.546346187591553,-7.1490864753723145,1.1827356815338135
1481087877448,-6.415862083435059,-7.196371555328369,1.1893197298049927
1481087877628,-6.579864978790283,-7.178415298461914,1.1953052282333374
1481087877804,-6.276998519897461,-6.799532890319824,1.1324573755264282
1481087877988,-6.729502201080322,-7.089829921722412,0.872686505317688
1481087878169,-6.069301128387451,-7.417236804962158,0.5764040350914001
1481087878345,-6.52719259262085,-7.219116687774658,0.5979518890380859
1481087878529,-6.5265936851501465,-7.357980251312256,0.22924481332302094
1481087878709,-6.424241542816162,-7.457339763641357,0.24839842319488525
1481087878885,-6.4595561027526855,-7.178415298461914,0.22744916379451752
1481087879070,-6.38114595413208,-7.32505989074707,0.23163901269435883
1481087879255,-6.276399612426758,-7.438186168670654,0.31783026456832886
1481087879430,-6.1949968338012695,-7.374141216278076,0.383670836687088
1481087879607,-6.291363716125488,-7.3681559562683105,0.31783026456832886
1481087879786,-6.180033206939697,-7.356184959411621,0.31364041566848755
1481087879969,-6.329071998596191,-7.335235595703125,0.406415730714798
1481087880145,-6.215347766876221,-7.380725383758545,0.42197805643081665
1481087880326,-6.165069580078125,-7.402871608734131,0.444722980260849
1481087880508,-6.250661849975586,-7.469310760498047,0.4704606235027313
1481087880690,-6.231508255004883,-7.383119583129883,0.45669397711753845
1481087880868,-6.311714172363281,-7.436390399932861,0.5159504413604736
1481087881052,-6.250661849975586,-7.3903021812438965,0.5386953949928284
1481087881232,-6.200982570648193,-7.3903021812438965,0.6590040326118469
1481087881407,-6.175843238830566,-7.329249858856201,0.5386953949928284
1481087881593,-6.174646377563477,-7.390900611877441,0.8445546627044678
1481087881771,-6.170456409454346,-7.351396083831787,0.899621307849884
1481087881953,-6.1752448081970215,-7.356783390045166,0.823006808757782
1481087882133,-6.1530985832214355,-7.3687543869018555,0.8535329103469849
1481087882308,-6.178237438201904,-7.396287441253662,0.9792284965515137
1481087882493,-6.189011573791504,-7.380126953125,1.0408791303634644
1481087882673,-6.156091213226318,-7.444770336151123,0.9163807034492493
1481087882848,-6.193201065063477,-7.378929615020752,0.945111095905304
1481087883032,-6.168062210083008,-7.383119583129883,0.9169792532920837
1481087883214,-6.185420036315918,-7.358579158782959,1.0672154426574707
1481087883392,-6.1267619132995605,-7.354987621307373,1.0462661981582642
1481087883574,-6.221931457519531,-7.3220672607421875,1.1079168319702148
1481087883751,-6.20038366317749,-7.173028469085693,1.170764684677124
1481087883935,-6.47092866897583,-7.111976146697998,0.9858125448226929
1481087884114,-6.094440460205078,-7.335235595703125,1.103128433227539
1481087884295,-6.464942932128906,-6.98628044128418,1.103128433227539
1481087884474,-6.449380874633789,-7.129932880401611,1.060032844543457
1481087884655,-6.445190906524658,-7.173028469085693,1.004966139793396
1481087884830,-6.461950302124023,-6.941389083862305,0.9217676520347595
1481087885015,-6.589441776275635,-7.115567684173584,0.9786299467086792
1481087885197,-6.501454830169678,-7.141903877258301,0.6590040326118469
1481087885371,-6.497264862060547,-7.144298076629639,0.6697779297828674
1481087885556,-6.472724437713623,-7.194576263427734,0.6973112225532532
1481087885736,-6.718728542327881,-6.922235488891602,0.5488707423210144
1481087885915,-6.249464988708496,-7.09222412109375,0.6111199855804443
1481087886096,-6.388927459716797,-7.370550155639648,0.9941922426223755
1481087886276,-6.4834980964660645,-7.226299285888672,0.9900023937225342
1481087886456,-6.558915615081787,-6.992864608764648,0.9181763529777527
1481087886636,-6.418854713439941,-7.056909561157227,1.0235211849212646
1481087886814,-6.521206855773926,-7.060500621795654,1.0743980407714844
1481087886997,-6.496666431427002,-7.12693977355957,0.9726444482803345
1481087887175,-6.417058944702148,-7.195174694061279,0.9050082564353943
1481087887353,-6.465541839599609,-7.1454949378967285,0.7338228225708008
1481087887536,-6.439205646514893,-7.150283336639404,0.851138710975647
1481087887718,-6.470330238342285,-7.219715118408203,0.8601169586181641
1481087887893,-6.254851818084717,-7.420229434967041,0.7284358739852905
1481087888078,-6.531980991363525,-7.034763336181641,0.8451532125473022
1481087888258,-6.103418827056885,-7.398681640625,0.760757565498352
1481087888438,-6.035782337188721,-7.504026889801025,0.9965864419937134
1481087888618,-6.183624267578125,-7.395090579986572,0.7451952695846558
1481087888798,-6.1088056564331055,-7.413046836853027,0.7350199222564697
1481087888975,-6.136937618255615,-7.454347133636475,0.8134300112724304
1481087889159,-6.026205539703369,-7.472901821136475,0.6123170852661133
1481087889339,-6.13633918762207,-7.416638374328613,0.5315127968788147
1481087889519,-6.12017822265625,-7.451354026794434,0.507570743560791
1481087889701,-6.138733386993408,-7.510610580444336,0.5997475385665894
1481087889875,-6.035183906555176,-7.507617950439453,0.524330198764801
1481087890058,-6.052541732788086,-7.491456985473633,0.5015852451324463
1481087890238,-5.912481307983398,-7.544129371643066,0.4315548539161682
1481087890415,-6.335057735443115,-7.2586212158203125,0.6189011335372925
1481087890602,-5.962160587310791,-7.544129371643066,0.3010708689689636
1481087890780,-6.066906929016113,-7.668628215789795,0.18974047899246216
1481087890959,-5.723339080810547,-7.708730697631836,0.4991910457611084
1481087891141,-5.727529048919678,-7.696161270141602,0.292691171169281
1481087891318,-6.178237438201904,-7.644087314605713,1.4425065517425537
1481087891496,-5.896320343017578,-7.438784599304199,1.1318588256835938
1481087891676,-6.365583896636963,-7.79252815246582,1.0259153842926025
1481087891857,-5.86699104309082,-7.614758491516113,0.3603273630142212
1481087892042,-6.005855083465576,-7.648277282714844,1.2156559228897095
1481087892223,-5.6209869384765625,-8.345588684082031,0.4183867573738098
1481087892397,-5.155913352966309,-7.913434982299805,0.5961562395095825
1481087892587,-5.437830448150635,-8.15764331817627,0.10773907601833344
1481087892758,-5.107430934906006,-8.437765121459961,0.44592007994651794
1481087892938,-4.906916618347168,-8.344989776611328,0.40043023228645325
1481087893123,-5.304952621459961,-8.990825653076172,0.8505401611328125
1481087893306,-5.6892218589782715,-9.615114212036133,0.4800374507904053
1481087893483,-4.237138271331787,-8.082226753234863,0.3627215623855591
1481087893663,-5.115810394287109,-9.229647636413574,0.8242039084434509
1481087893841,-3.6780924797058105,-8.960898399353027,0.39384618401527405
1481087894018,-3.4757823944091797,-8.845377922058105,0.19213469326496124
1481087894202,-3.356072187423706,-9.221267700195313,0.3693056106567383
1481087894379,-2.4660277366638184,-9.230246543884277,0.4770447015762329
1481087894564,-1.8177976608276367,-9.650428771972656,0.38726213574409485
1481087894744,-1.4203602075576782,-9.603741645812988,0.34177228808403015
1481087894920,-1.5556325912475586,-9.781511306762695,0.37169981002807617
1481087895103,-2.4881742000579834,-8.974664688110352,0.5015852451324463
1481087895279,-2.893991231918335,-9.330802917480469,0.5464765429496765
1481087895463,-2.9484593868255615,-9.089587211608887,-0.5105634927749634
1481087895643,-3.402759075164795,-9.000402450561523,0.4339490532875061
1481087895822,-3.7038300037384033,-9.05487060546875,1.2832920551300049
1481087896005,-3.242946147918701,-9.03870964050293,0.6703764796257019
1481087896185,-3.118447780609131,-9.202713012695313,-0.5147533416748047
1481087896366,-3.3315317630767822,-9.337985038757324,0.22505496442317963
1481087896546,-2.206855535507202,-9.131484985351563,0.6943184733390808
1481087896726,-2.3768436908721924,-9.136273384094238,0.579995334148407
1481087896902,-1.2988544702529907,-9.442132949829102,0.06703764945268631
1481087897086,-2.0266916751861572,-11.784260749816895,2.185906171798706
1481087897266,-2.852691411972046,-8.181585311889648,2.8568811416625977
1481087897443,-2.6001031398773193,-9.563638687133789,2.7299885749816895
1481087897627,-2.2152352333068848,-8.638877868652344,2.3343467712402344
1481087897804,-2.2445640563964844,-9.742605209350586,2.27209734916687
1481087897987,-2.9089550971984863,-10.923544883728027,1.2348095178604126
1481087898167,-5.0469770431518555,-9.073426246643066,-0.9900023937225342
1481087898342,-3.9193081855773926,-8.666411399841309,0.12629413604736328
1481087898528,-4.218583583831787,-8.741230010986328,0.38726213574409485
1481087898715,-4.425083160400391,-8.700529098510742,0.07781155407428741
1481087898887,-4.461595058441162,-8.529942512512207,0.16101007163524628
1481087899068,-4.3179426193237305,-8.67479133605957,0.10953472554683685
1481087899248,-4.471171855926514,-8.708909034729004,0.2867056429386139
1481087899424,-4.284423828125,-8.652645111083984,0.20709845423698425
1481087899609,-4.149750232696533,-8.735843658447266,0.23702596127986908
1481087899789,-4.0545806884765625,-8.796895980834961,0.4357447028160095
1481087899964,-4.166509628295898,-8.702324867248535,0.2849099934101105
1481087900149,-4.110844135284424,-8.708909034729004,0.40521863102912903
1481087900328,-3.7487213611602783,-8.871115684509277,0.18555063009262085
1481087900508,-3.847482204437256,-8.829216957092285,0.24181437492370605
1481087900690,-4.020462989807129,-8.863933563232422,0.3010708689689636
1481087900867,-3.8983588218688965,-8.820239067077637,0.31543606519699097
1481087901049,-3.8067808151245117,-8.795100212097168,0.3878606855869293
1481087901229,-3.801992416381836,-8.798690795898438,0.4537012279033661
1481087901406,-3.9665937423706055,-8.74721622467041,0.444722980260849
1481087901590,-3.6756980419158936,-8.852560997009277,0.5297171473503113
1481087901780,-3.9863457679748535,-8.777143478393555,0.47465047240257263
1481087901946,-4.189853191375732,-8.738836288452148,0.3597288131713867
1481087902129,-3.776254653930664,-8.875904083251953,0.33099839091300964
1481087902311,-4.001908302307129,-8.825626373291016,0.4513070285320282
1481087902487,-3.99532413482666,-8.78073501586914,0.6021417379379272
1481087902672,-4.545392036437988,-8.637681007385254,0.4315548539161682
1481087902852,-3.9612066745758057,-8.726266860961914,0.3315969407558441
1481087903033,-3.685275077819824,-8.816049575805664,0.52552729845047
1481087903213,-3.314772367477417,-8.705916404724121,0.3208230137825012
1481087903397,-3.4967315196990967,-9.084199905395508,0.21009120345115662
1481087903573,-3.512293815612793,-8.941145896911621,0.3130418658256531
1481087903753,-3.5709519386291504,-8.959102630615234,0.4100070297718048
1481087903928,-3.3429040908813477,-8.971074104309082,0.5620388388633728
1481087904112,-3.3446998596191406,-9.017760276794434,0.6572083830833435
1481087904293,-3.1926679611206055,-9.096769332885742,0.6290764808654785
1481087904468,-3.2321722507476807,-9.082404136657715,0.6584054827690125
1481087904653,-3.287837505340576,-9.018359184265137,0.6147112846374512
1481087904845,-3.315370798110962,-9.100958824157715,0.690727174282074
1481087905011,-3.290830135345459,-9.084199905395508,0.6021417379379272
1481087905194,-3.2166099548339844,-8.986037254333496,0.3776853084564209
1481087905372,-3.354276657104492,-9.331999778747559,0.5548562407493591
1481087905554,-3.3632547855377197,-8.842385292053223,0.3423708379268646
1481087905734,-3.313575267791748,-9.003395080566406,0.535702645778656
1481087905912,-3.493738889694214,-9.118915557861328,0.5428852438926697
1481087906095,-3.310582399368286,-9.086593627929688,0.4279635548591614
1481087906275,-3.49314022064209,-8.904036521911621,0.2819172441959381
1481087906450,-3.466804027557373,-9.220070838928223,0.5404910445213318
1481087906635,-3.1944637298583984,-8.7268648147583,0.43035775423049927
1481087906815,-3.6577415466308594,-9.300276756286621,0.32381579279899597
1481087906991,-3.5464112758636475,-8.989029884338379,0.517746090888977
1481087907174,-3.7283706665039063,-8.880094528198242,0.5129576921463013
1481087907354,-3.5889084339141846,-8.866327285766602,0.6530185341835022
1481087907536,-3.423708438873291,-9.009979248046875,0.6733692288398743
1481087907716,-3.5631706714630127,-8.890868186950684,0.5279214978218079
1481087907895,-3.7247793674468994,-8.917203903198242,0.6147112846374512
1481087908076,-3.73555326461792,-8.816049575805664,0.718859076499939
1481087908257,-3.9851486682891846,-8.832210540771484,0.7583633661270142
1481087908434,-3.7271735668182373,-8.819640159606934,1.1073182821273804
1481087908612,-3.514688014984131,-8.884882926940918,1.0851719379425049
1481087908797,-3.7684733867645264,-8.948927879333496,0.9768342971801758
1481087908973,-3.5296518802642822,-8.64007568359375,0.9600749015808105
1481087909155,-3.444657802581787,-8.807669639587402,1.324592113494873
1481087909337,-3.6074633598327637,-8.864531517028809,1.1647791862487793
1481087909513,-3.7816414833068848,-8.65623664855957,1.1252747774124146
1481087909698,-3.463212728500366,-8.725069999694824,1.413776159286499
1481087909878,-3.5907039642333984,-8.893860816955566,1.4245500564575195
1481087910059,-3.487753391265869,-8.696338653564453,1.2737152576446533
1481087910240,-3.6589386463165283,-8.456918716430664,0.8242039084434509
1481087910418,-3.8277299404144287,-8.557475090026855,0.6446388363838196
1481087910599,-3.5482068061828613,-9.491812705993652,0.5003881454467773
1481087910779,-3.827131509780884,-8.881291389465332,-0.1909375786781311
1481087910955,-3.307589530944824,-9.27453899383545,1.6083049774169922
1481087911138,-3.9013516902923584,-8.887276649475098,1.809417963027954
1481087911319,-3.0406360626220703,-8.944737434387207,1.6496049165725708
1481087911495,-3.0986955165863037,-8.974664688110352,1.8584990501403809
1481087911680,-3.1226375102996826,-8.948328971862793,1.3605051040649414
1481087911860,-3.1489737033843994,-8.942941665649414,1.3467384576797485
1481087912035,-3.202244758605957,-9.034520149230957,1.2641384601593018
1481087912220,-3.2632968425750732,-9.051279067993164,1.081580638885498
1481087912396,-3.205836057662964,-9.07641887664795,1.0181342363357544
1481087912579,-3.116652011871338,-9.079411506652832,1.0031704902648926
1481087912760,-3.0998926162719727,-9.067440032958984,0.9289502501487732
1481087912937,-3.0406360626220703,-9.17936897277832,0.7781155705451965
1481087913122,-3.0825347900390625,-9.066243171691895,0.8056488633155823
1481087913302,-3.109469413757324,-9.099164009094238,0.7769184708595276
1481087913477,-3.1938650608062744,-9.07641887664795,0.811634361743927
1481087913662,-3.176506996154785,-9.03511905670166,0.7739257216453552
1481087913842,-3.1651346683502197,-9.05367374420166,0.823006808757782
1481087914016,-3.2154128551483154,-9.047089576721191,0.8361749649047852
1481087914200,-3.19865345954895,-9.009381294250488,0.8672995567321777
1481087914380,-3.2375593185424805,-8.995016098022461,0.8972271084785461
1481087914558,-3.200449228286743,-9.05487060546875,0.9205705523490906
1481087914743,-3.2130186557769775,-9.055469512939453,0.9181763529777527
1481087914923,-3.2381577491760254,-9.05247688293457,0.8565256595611572
1481087915098,-3.044227361679077,-9.010578155517578,0.9115923047065735
1481087915283,-3.2980127334594727,-8.959701538085938,0.47465047240257263
1481087915458,-3.3674447536468506,-8.953716278076172,0.7439981698989868
1481087915643,-3.095104217529297,-9.178771018981934,0.7577648162841797
1481087915823,-3.2351651191711426,-9.09377670288086,0.5859808921813965
1481087915999,-3.338115692138672,-9.070432662963867,0.456095427274704
1481087916184,-3.1938650608062744,-9.165003776550293,0.8798691034317017
1481087916363,-3.4141316413879395,-9.054272651672363,0.706289529800415
1481087916540,-3.4308910369873047,-9.040505409240723,0.8236053586006165
1481087916724,-3.3051953315734863,-8.91301441192627,0.639850378036499
1481087916905,-3.530250310897827,-8.901641845703125,0.7320271730422974
1481087917079,-3.5930981636047363,-8.831012725830078,0.9361328482627869
1481087917265,-3.18249249458313,-9.03511905670166,2.0667946338653564
1481087917445,-3.1453824043273926,-8.869918823242188,2.029085874557495
1481087917625,-3.133411407470703,-8.627506256103516,2.008735179901123
1481087917805,-3.117250680923462,-8.876502990722656,2.0225019454956055
1481087917982,-3.2118215560913086,-8.871115684509277,2.0219032764434814
1481087918166,-3.4410665035247803,-8.729259490966797,2.101510524749756
1481087918346,-3.330933094024658,-8.721478462219238,2.0470423698425293
1481087918522,-3.3207578659057617,-8.665813446044922,2.0931308269500732
1481087918706,-3.269881010055542,-8.768763542175293,2.0871453285217285
1481087918886,-3.330933094024658,-8.810063362121582,2.163759708404541
1481087919062,-3.493738889694214,-8.770559310913086,2.1422119140625
1481087919247,-3.2363622188568115,-8.877100944519043,2.2804770469665527
1481087919423,-3.3285388946533203,-8.628104209899902,2.385223388671875
1481087919604,-3.5859155654907227,-8.419808387756348,2.8856115341186523
1481087919787,-3.228580951690674,-8.245630264282227,3.1202433109283447
1481087919967,-3.4823663234710693,-8.446743965148926,3.004723072052002
1481087920143,-3.758896589279175,-8.89026927947998,2.9059622287750244
1481087920326,-3.133411407470703,-8.322244644165039,2.9718029499053955
1481087920505,-2.764704465866089,-8.687959671020508,3.663128614425659
1481087920688,-3.2381577491760254,-8.160636901855469,3.2812533378601074
1481087920868,-3.3446998596191406,-8.358757019042969,3.375225782394409
1481087921044,-2.8838160037994385,-8.2312650680542,3.8115692138671875
1481087921228,-3.0352492332458496,-8.272565841674805,3.6146459579467773
1481087921408,-2.9927520751953125,-8.285135269165039,3.8756139278411865
1481087921584,-2.783858060836792,-8.53652572631836,2.9975404739379883
1481087921769,-3.6385879516601563,-8.06546688079834,2.1051018238067627
1481087921949,-3.708618402481079,-9.134477615356445,1.1827356815338135
1481087922129,-3.712209701538086,-8.659229278564453,0.9163807034492493
1481087922309,-3.7397429943084717,-8.838793754577637,0.12270283699035645
1481087922490,-4.416703701019287,-8.752004623413086,-0.1909375786781311
1481087922670,-4.332307815551758,-8.888473510742188,0.24480712413787842
1481087922850,-4.41849946975708,-8.646060943603516,-0.3627215623855591
1481087923026,-4.748898983001709,-8.708909034729004,-0.16998831927776337
1481087923205,-4.411316394805908,-8.504204750061035,0.25079262256622314
1481087923390,-4.458601951599121,-8.55268669128418,0.4381389021873474
1481087923566,-4.491522312164307,-8.504802703857422,0.0586579404771328
1481087923746,-4.153341293334961,-8.834604263305664,-0.019153613597154617
1481087923931,-4.359841346740723,-8.759186744689941,0.38067805767059326
1481087924107,-4.0096893310546875,-8.699930191040039,0.4513070285320282
1481087924291,-4.161721229553223,-8.638279914855957,0.48482584953308105
1481087924470,-4.1425676345825195,-8.56765079498291,0.5147533416748047
1481087924649,-4.0761284828186035,-8.759186744689941,0.6943184733390808
1481087924832,-4.0330328941345215,-8.577826499938965,0.7643488645553589
1481087925011,-3.9833531379699707,-8.7885160446167,0.760757565498352
1481087925191,-3.8941690921783447,-8.953716278076172,0.884058952331543
1481087925371,-3.8971617221832275,-8.851364135742188,0.8684966564178467
1481087925552,-4.156333923339844,-8.848370552062988,1.0115501880645752
1481087925733,-3.9396588802337646,-8.527547836303711,0.6655880808830261
1481087925912,-4.112041473388672,-8.617330551147461,0.4812345504760742
1481087926089,-3.9851486682891846,-8.779537200927734,0.5039794445037842
1481087926271,-3.9019501209259033,-8.919598579406738,0.5781996846199036
1481087926453,-3.9689879417419434,-8.862137794494629,0.5410895943641663
1481087926629,-3.9426517486572266,-8.78312873840332,0.5518634915351868
1481087926812,-4.014477729797363,-8.7298583984375,0.5183446407318115
1481087926994,-4.089895248413086,-8.81664752960205,0.5614402890205383
1481087927173,-4.071340084075928,-8.757989883422852,0.5560533404350281
1481087927354,-3.9468414783477783,-8.790311813354492,0.49320554733276367
1481087927534,-4.199429988861084,-8.701725959777832,0.5273229479789734
1481087927715,-4.038419723510742,-8.78731918334961,0.5566518902778625
1481087927895,-4.002506732940674,-8.789113998413086,0.5386953949928284
1481087928071,-3.978564739227295,-8.795698165893555,0.6105214357376099
1481087928255,-3.993528366088867,-8.768165588378906,0.5422866940498352
1481087928435,-4.043806552886963,-8.770559310913086,0.5536591410636902
1481087928611,-3.9821560382843018,-8.79809284210205,0.5434837937355042
1481087928795,-3.906738519668579,-8.786720275878906,0.5805938839912415
1481087928976,-4.000710964202881,-8.765172004699707,0.5925649404525757
1481087929152,-3.90554141998291,-8.821435928344727,0.6063315868377686
1481087929331,-4.012083530426025,-8.79928970336914,0.6087257862091064
1481087929516,-3.951629877090454,-8.829216957092285,0.629675030708313
1481087929696,-3.937863349914551,-8.778340339660645,0.6033388376235962
1481087929876,-3.993528366088867,-8.826224327087402,0.569819986820221
1481087930055,-3.994127035140991,-8.78073501586914,0.6021417379379272
1481087930256,-3.9689879417419434,-8.786720275878906,0.6320692300796509
1481087930417,-3.9264907836914063,-8.784924507141113,0.6171054840087891
1481087930593,-4.001908302307129,-8.797493934631348,0.6356605291366577
1481087930777,-3.9707834720611572,-8.760982513427734,0.5919663906097412
1481087930957,-3.9390604496002197,-8.791508674621582,0.6416460275650024
1481087931134,-3.9438488483428955,-8.776544570922852,0.5979518890380859
1481087931318,-4.004302501678467,-8.768165588378906,0.6308721303939819
1481087931496,-3.9677908420562744,-8.761581420898438,0.6422445774078369
1481087931674,-3.9845502376556396,-8.770559310913086,0.6697779297828674
1481087931859,-4.019864559173584,-8.793902397155762,0.6769605278968811
1481087932038,-4.0096893310546875,-8.734646797180176,0.7038952708244324
1481087932218,-3.957615375518799,-8.753201484680176,0.6961141228675842
1481087932398,-3.9432501792907715,-8.769362449645996,0.7230489253997803
1481087932577,-3.931877851486206,-8.790909767150879,0.7356184720993042
1481087932758,-3.9234981536865234,-8.76457405090332,0.7571662664413452
1481087932937,-3.9187095165252686,-8.754997253417969,0.7422025203704834
1481087933115,-3.8983588218688965,-8.818443298339844,0.7852981686592102
1481087933297,-3.9444472789764404,-8.737040519714355,0.7559691667556763
1481087933479,-3.974374771118164,-8.768763542175293,0.7918822169303894
1481087933655,-3.973776340484619,-8.799888610839844,0.7667431235313416
1481087933840,-3.911526918411255,-8.759785652160645,0.7775170207023621
1481087934020,-3.998316764831543,-8.765172004699707,0.7643488645553589
1481087934196,-3.980360269546509,-8.775946617126465,0.7835025191307068
1481087934379,-4.003703594207764,-8.71609115600586,0.7326257228851318
1481087934561,-3.9270894527435303,-8.76337718963623,0.6841431260108948
1481087934739,-4.069544315338135,-8.812458038330078,0.6811503767967224
1481087934922,-4.055179119110107,-8.753201484680176,0.7410054206848145
1481087935098,-4.019266128540039,-8.739435195922852,0.7098808288574219
1481087935278,-4.003703594207764,-8.737040519714355,0.7350199222564697
1481087935459,-4.005499362945557,-8.755595207214355,0.6775590777397156
1481087935638,-4.065354347229004,-8.782530784606934,0.7212532758712769
1481087935822,-4.012083530426025,-8.753201484680176,0.7050924301147461
1481087936003,-4.035427093505859,-8.706514358520508,0.7469909191131592
1481087936178,-4.028842926025391,-8.7298583984375,0.6913257241249084
1481087936361,-3.993528366088867,-8.723274230957031,0.7092822790145874
1481087936543,-4.000710964202881,-8.7484130859375,0.6967126727104187
1481087936721,-3.9486372470855713,-8.754997253417969,0.7242460250854492
1481087936903,-3.97916316986084,-8.701127052307129,0.6763619780540466
1481087937083,-3.951629877090454,-8.769960403442383,0.8062474131584167
1481087937263,-3.9815573692321777,-8.7484130859375,0.8457517623901367
1481087937443,-4.037821292877197,-8.746018409729004,0.8816647529602051
1481087937631,-4.10366153717041,-8.71369743347168,0.8954314589500427
1481087937803,-4.0300397872924805,-8.707711219787598,0.9331400990486145
1481087937984,-4.072536945343018,-8.700529098510742,0.9319429993629456
1481087938160,-4.027645587921143,-8.685564994812012,0.960673451423645
1481087938345,-4.043806552886963,-8.716690063476563,0.9139865040779114
1481087938524,-4.018068790435791,-8.706514358520508,0.8331822156906128
1481087938700,-4.045003890991211,-8.740632057189941,0.8307880163192749
1481087938884,-4.0078935623168945,-8.710704803466797,0.8271966576576233
1481087939065,-4.0527849197387695,-8.719682693481445,0.8822633028030396
1481087939243,-4.014477729797363,-8.789113998413086,0.8942343592643738
1481087939425,-3.9887399673461914,-8.713098526000977,0.9139865040779114
1481087939605,-4.061763286590576,-8.723274230957031,0.9307458996772766
1481087939786,-4.010886192321777,-8.672396659851074,0.9319429993629456
1481087939966,-4.05817174911499,-8.686761856079102,0.9367313981056213
1481087940140,-4.04081392288208,-8.71728801727295,0.9487023949623108
1481087940321,-4.039616584777832,-8.702922821044922,0.8972271084785461
1481087940504,-4.06894588470459,-8.73344898223877,0.8559271097183228
1481087940684,-4.025850296020508,-8.686163902282715,0.9103952050209045
1481087940867,-4.0749311447143555,-8.718485832214355,0.8978256583213806
1481087941047,-4.067150115966797,-8.750208854675293,0.8601169586181641
1481087941223,-4.043806552886963,-8.739435195922852,0.8200140595436096
1481087941404,-4.04081392288208,-8.712499618530273,0.8301894664764404
1481087941586,-4.031835556030273,-8.737040519714355,0.8373720645904541
1481087941763,-4.0300397872924805,-8.73225212097168,0.8086416125297546
1481087941946,-3.9905357360839844,-8.69095230102539,0.8289923667907715
1481087942128,-4.052186489105225,-8.69214916229248,0.838569164276123
1481087942308,-4.093486309051514,-8.686163902282715,0.8972271084785461
1481087942488,-4.094683647155762,-8.695740699768066,0.8589198589324951
1481087942668,-4.091690540313721,-8.691550254821777,0.7793126702308655
1481087942848,-4.131195068359375,-8.721478462219238,0.8493430614471436
1481087943029,-4.155137062072754,-8.669404029846191,0.7990648150444031
1481087943204,-4.093486309051514,-8.67718505859375,0.8355764150619507
1481087943389,-4.112639904022217,-8.71609115600586,0.8649053573608398
1481087943569,-4.073734283447266,-8.702324867248535,0.7457938194274902
1481087943745,-4.060565948486328,-8.754997253417969,0.9133879542350769
1481087943929,-4.062960147857666,-8.734646797180176,0.8804676532745361
1481087944110,-4.153939723968506,-8.650849342346191,0.9510966539382935
1481087944289,-3.8283286094665527,-8.688557624816895,0.9804255962371826
1481087944468,-3.9641995429992676,-8.73105525970459,1.22642982006073
1481087944650,-3.998915433883667,-8.715493202209473,1.290474772453308
1481087944830,-3.8726212978363037,-8.720879554748535,1.2713210582733154
1481087945010,-4.026448726654053,-8.665813446044922,1.3425486087799072
1481087945189,-4.104260444641113,-8.62391471862793,1.2779051065444946
1481087945366,-4.378994941711426,-8.628703117370605,1.1001356840133667
1481087945551,-4.168305397033691,-8.60236644744873,1.1635819673538208
1481087945726,-4.157531261444092,-8.691550254821777,1.0444705486297607
1481087945912,-4.14915132522583,-8.649053573608398,1.0468647480010986
1481087946092,-4.206612586975098,-8.587403297424316,1.148618221282959
1481087946267,-4.125209331512451,-8.585607528686523,1.1647791862487793
1481087946450,-4.169502258300781,-8.650250434875488,1.0235211849212646
1481087946633,-4.255693435668945,-8.664615631103516,1.1528080701828003
1481087946811,-4.28322696685791,-8.60775375366211,1.1791443824768066
1481087946993,-4.195240020751953,-8.565855026245117,1.1444283723831177
1481087947172,-4.151545524597168,-8.592191696166992,1.1097124814987183
1481087947354,-4.151545524597168,-8.613739013671875,1.0977414846420288
1481087947532,-4.167108058929443,-8.708909034729004,1.0749965906143188
1481087947708,-4.05817174911499,-8.669404029846191,1.2653355598449707
1481087947893,-4.5854949951171875,-8.577826499938965,1.0672154426574707
1481087948073,-4.173692226409912,-8.596381187438965,0.961870551109314
1481087948249,-4.061763286590576,-8.631096839904785,1.0594342947006226
1481087948434,-4.10246467590332,-8.613739013671875,0.921169102191925
1481087948614,-4.2544965744018555,-8.610147476196289,0.8307880163192749
1481087948789,-4.138976097106934,-8.617929458618164,0.9343371987342834
1481087948973,-4.080318450927734,-8.679579734802246,0.8505401611328125
1481087949154,-4.228758811950684,-8.599373817443848,0.9319429993629456
1481087949332,-4.28322696685791,-8.455721855163574,1.083974838256836
1481087949515,-3.93367338180542,-8.717886924743652,1.0606313943862915
1481087949694,-3.930082082748413,-8.737040519714355,1.0336965322494507
1481087949875,-4.087501049041748,-8.696338653564453,1.0755951404571533
1481087950053,-3.845088005065918,-8.734646797180176,1.0001777410507202
1481087950231,-3.866635799407959,-8.762778282165527,0.9522937536239624
1481087950413,-4.037222385406494,-8.7268648147583,0.9726444482803345
1481087950590,-3.9456443786621094,-8.752602577209473,0.9846154451370239
1481087950771,-3.8109705448150635,-8.78432559967041,0.9900023937225342
1481087950954,-3.8732197284698486,-8.78193187713623,1.0450690984725952
1481087951136,-3.9689879417419434,-8.707711219787598,1.049857497215271
1481087951312,-3.977966070175171,-8.718485832214355,1.0851719379425049
1481087951496,-3.931279182434082,-8.73105525970459,1.1342530250549316
1481087951676,-4.000710964202881,-8.712499618530273,1.191115379333496
1481087951857,-3.8780081272125244,-8.681973457336426,1.2330138683319092
1481087952037,-3.9139211177825928,-8.684368133544922,1.2443863153457642
1481087952214,-3.999513864517212,-8.610746383666992,1.303044319152832
1481087952398,-3.9887399673461914,-8.644265174865723,1.316810965538025
1481087952577,-4.003105163574219,-8.58261489868164,1.3215993642807007
1481087952754,-4.123414039611816,-8.683769226074219,1.2629413604736328
1481087952939,-4.195838451385498,-8.58919906616211,1.2234370708465576
1481087953118,-4.123414039611816,-8.649652481079102,1.094150185585022
1481087953293,-4.031835556030273,-8.655038833618164,1.1534066200256348
1481087953477,-4.092887878417969,-8.645462036132813,1.0857704877853394
1481087953653,-4.1156325340271,-8.6897554397583,1.0911574363708496
1481087953834,-4.117428302764893,-8.68017864227295,1.0396820306777954
1481087954019,-4.14915132522583,-8.662221908569336,1.0672154426574707
1481087954199,-4.1431660652160645,-8.683171272277832,1.0360907316207886
1481087954378,-4.117428302764893,-8.635287284851074,1.025316834449768
1481087954559,-4.062960147857666,-8.649652481079102,0.9894038438796997
1481087954743,-4.1395745277404785,-8.67359447479248,1.0043675899505615
1481087954920,-4.14795446395874,-8.67598819732666,0.9750386476516724
1481087955100,-4.0761284828186035,-8.667608261108398,0.9062053561210632
1481087955291,-4.109647274017334,-8.628703117370605,1.0809820890426636
1481087955460,-4.19344425201416,-8.868721961975098,1.314416766166687
1481087955640,-3.971980571746826,-8.683769226074219,1.224035620689392
1481087955816,-3.977367639541626,-8.765172004699707,1.2156559228897095
1481087956001,-3.866635799407959,-8.498817443847656,1.3557167053222656
1481087956181,-3.9175124168395996,-8.743624687194824,1.2791022062301636
1481087956358,-4.0569748878479,-8.593388557434082,1.2348095178604126
1481087956542,-4.483142852783203,-8.4108304977417,0.6949170231819153
1481087956721,-5.0918684005737305,-8.356961250305176,0.9828197956085205
1481087956902,-4.365228176116943,-8.529343605041504,1.5436615943908691
1481087957080,-5.07570743560791,-8.074444770812988,1.0019733905792236
1481087957258,-3.8977603912353516,-8.221688270568848,1.6154875755310059
1481087957442,-2.4444799423217773,-8.292916297912598,2.852092742919922
1481087957620,-2.7317841053009033,-8.828619003295898,2.672527551651001
1481087957798,-2.9867665767669678,-8.260594367980957,2.589329242706299
1481087957979,-3.052008628845215,-9.023147583007813,2.7006595134735107
1481087958163,-3.512293815612793,-8.324040412902832,2.431910276412964
1481087958338,-3.4775779247283936,-8.684368133544922,1.4969745874404907
1481087958523,-4.594472885131836,-8.125920295715332,0.17717093229293823
1481087958703,-4.179079055786133,-8.509591102600098,0.8834604024887085
1481087958882,-4.598064422607422,-8.671798706054688,0.1538274586200714
1481087959063,-5.146336555480957,-8.78731918334961,0.5003881454467773
1481087959244,-4.042609691619873,-8.85435676574707,0.7535749673843384
1481087959424,-3.492541790008545,-8.99860668182373,1.3832499980926514
1481087959604,-3.42490553855896,-8.920196533203125,1.0324994325637817
1481087959786,-3.423708438873291,-8.909422874450684,1.3509283065795898
1481087959964,-3.377021551132202,-8.895057678222656,1.447893500328064
1481087960144,-3.3500866889953613,-8.907029151916504,1.6178817749023438
1481087960320,-3.4614171981811523,-8.827422142028809,1.670554280281067
1481087960505,-3.442263603210449,-8.771756172180176,1.7908629179000854
1481087960685,-3.3746273517608643,-8.853158950805664,1.578976035118103
1481087960860,-3.466804027557373,-8.84058952331543,1.6023194789886475
1481087961045,-3.4368765354156494,-8.873510360717773,1.4927847385406494
1481087961225,-3.551798105239868,-8.91540813446045,1.4730325937271118
1481087961404,-3.317166566848755,-8.828020095825195,1.2473790645599365
1481087961586,-3.4763808250427246,-8.954314231872559,1.4472949504852295
1481087961766,-3.4386723041534424,-8.917203903198242,1.4449007511138916
1481087961946,-3.3423056602478027,-8.96389102935791,1.4634557962417603
1481087962126,-3.1980550289154053,-8.918999671936035,1.416170358657837
1481087962306,-3.2309751510620117,-8.885480880737305,1.5580267906188965
1481087962484,-3.250727415084839,-8.867524147033691,1.5466543436050415
1481087962667,-3.1052796840667725,-9.00399398803711,1.7381904125213623
1481087962843,-3.448249101638794,-8.74960994720459,1.512536883354187
1481087963027,-3.508702516555786,-8.434173583984375,0.8188169598579407
1481087963207,-3.207631826400757,-8.881291389465332,1.291671872138977
1481087963383,-3.28963303565979,-8.999804496765137,1.2964602708816528
1481087963567,-3.3033998012542725,-9.03870964050293,1.3210008144378662
1481087963748,-3.317166566848755,-9.023147583007813,1.5622166395187378
1481087963928,-3.446453332901001,-8.981847763061523,1.460463047027588
1481087964108,-3.60028076171875,-8.920196533203125,1.2629413604736328
1481087964288,-3.6607344150543213,-8.832210540771484,1.3760673999786377
1481087964470,-3.886387825012207,-8.762778282165527,0.7870938181877136
1481087964648,-3.759495258331299,-8.60655689239502,1.513733983039856
1481087964824,-3.465606927871704,-8.525154113769531,2.184709072113037
1481087965008,-3.7666778564453125,-8.683171272277832,2.5749640464782715
1481087965187,-3.4093432426452637,-8.038532257080078,2.9939491748809814
1481087965364,-2.6647465229034424,-8.431779861450195,3.113659381866455
1481087965549,-3.1908724308013916,-9.020753860473633,1.688510775566101
1481087965735,-3.711611270904541,-8.51916790008545,2.013523578643799
1481087965905,-3.466205596923828,-8.745420455932617,2.6150667667388916
1481087966090,-3.248931646347046,-8.564059257507324,2.5905263423919678
1481087966270,-3.643376350402832,-8.340800285339355,2.829347848892212
1481087966449,-3.3506853580474854,-8.547898292541504,2.5504233837127686
1481087966630,-3.8121676445007324,-8.612542152404785,2.296638011932373
1481087966811,-3.4596214294433594,-8.742427825927734,1.9410990476608276
1481087966988,-3.600879430770874,-8.587403297424316,2.103306293487549
1481087967171,-3.8367083072662354,-8.736441612243652,2.491166830062866
1481087967349,-3.6810851097106934,-8.699332237243652,2.2248120307922363
1481087967531,-3.6792895793914795,-8.593388557434082,2.182314872741699
1481087967712,-3.688267707824707,-8.507795333862305,2.2164323329925537
1481087967887,-3.6158430576324463,-8.531139373779297,2.3529016971588135
1481087968070,-3.55479097366333,-8.563461303710938,2.381632089614868
1481087968253,-3.5715503692626953,-8.596980094909668,2.3307554721832275
1481087968427,-3.5697548389434814,-8.676587104797363,2.233790159225464
1481087968613,-3.62302565574646,-8.58919906616211,2.296039342880249
1481087968788,-3.6607344150543213,-8.557475090026855,2.366668462753296
1481087968972,-3.6170401573181152,-8.589797019958496,2.3780407905578613
1481087969153,-3.4841620922088623,-8.677783966064453,2.5935189723968506
1481087969332,-3.5422213077545166,-8.60116958618164,2.6599581241607666
1481087969511,-3.640982151031494,-8.49941635131836,2.5989060401916504
1481087969693,-3.4638113975524902,-8.297704696655273,2.7772738933563232
1481087969873,-3.782240152359009,-8.204330444335938,2.7730841636657715
1481087970053,-3.7457284927368164,-8.527547836303711,2.1290438175201416
1481087970232,-3.3273417949676514,-8.815450668334961,2.1128830909729004
1481087970409,-3.3686418533325195,-8.955511093139648,2.454056739807129
1481087970594,-3.269881010055542,-8.744223594665527,1.9422961473464966
1481087970774,-2.7473464012145996,-8.948328971862793,2.1954829692840576
1481087970950,-2.6844985485076904,-8.85555362701416,2.035670042037964
1481087971133,-3.0561983585357666,-8.92917537689209,2.051830768585205
1481087971314,-2.8431146144866943,-8.918401718139648,1.902193307876587
1481087971492,-2.7096378803253174,-9.043498039245605,1.7705121040344238
1481087971675,-2.6150667667388916,-9.197325706481934,1.7208324670791626
1481087971859,-2.6665420532226563,-9.004592895507813,1.5939397811889648
1481087972035,-2.7449522018432617,-9.189544677734375,1.5634137392044067
1481087972215,-2.633023262023926,-9.118317604064941,1.3706804513931274
1481087972393,-2.5091233253479004,-9.155426979064941,1.3096283674240112
1481087972576,-2.473809003829956,-9.181164741516113,1.2791022062301636
1481087972756,-2.3726539611816406,-8.94533634185791,1.5430630445480347
1481087972932,-2.6437971591949463,-9.077615737915039,1.2533645629882813
1481087973116,-2.672527551651001,-9.153631210327148,1.2773065567016602
1481087973295,-2.691082715988159,-9.091382026672363,1.2018892765045166
1481087973472,-2.610278367996216,-9.229647636413574,1.1552022695541382
1481087973657,-2.6222493648529053,-9.27334213256836,1.184531331062317
1481087973837,-2.7317841053009033,-9.094375610351563,1.37906014919281
1481087974016,-2.8227639198303223,-9.112930297851563,1.6274585723876953
1481087974197,-2.7952303886413574,-8.89445972442627,1.8507179021835327
1481087974379,-3.0538041591644287,-8.880094528198242,2.0841526985168457
1481087974558,-3.5637693405151367,-8.614935874938965,2.161964178085327
1481087974738,-3.073556423187256,-8.62630844116211,2.3110032081604004
1481087974915,-2.6024973392486572,-9.03631591796875,1.7854759693145752
1481087975097,-3.069965124130249,-9.06983470916748,1.0097545385360718
1481087975278,-3.4985272884368896,-8.640673637390137,1.7926585674285889
1481087975454,-3.289034605026245,-8.829815864562988,1.7148469686508179
1481087975637,-3.5410242080688477,-8.826224327087402,1.8076223134994507
1481087975819,-3.5619735717773438,-8.767566680908203,1.6639702320098877
1481087975994,-3.492541790008545,-8.829216957092285,1.722628116607666
1481087976179,-3.7487213611602783,-8.672995567321777,1.766920804977417
1481087976359,-3.690661907196045,-8.730456352233887,1.6992846727371216
1481087976537,-3.47039532661438,-8.78073501586914,1.6083049774169922
1481087976720,-3.5266590118408203,-8.917203903198242,1.7794904708862305
1481087976898,-3.3189620971679688,-8.862735748291016,1.7884687185287476
1481087977078,-3.4793736934661865,-8.738237380981445,1.5095441341400146
1481087977260,-3.333327293395996,-8.856152534484863,1.6376339197158813
1481087977436,-3.5745432376861572,-8.761581420898438,1.8453309535980225
1481087977620,-3.5260605812072754,-8.659229278564453,1.5382746458053589
1481087977801,-3.3273417949676514,-8.900444984436035,1.8213889598846436
1481087977975,-3.4973301887512207,-8.808267593383789,2.0937294960021973
1481087978159,-3.5386300086975098,-8.738836288452148,2.1535844802856445
1481087978342,-3.5727474689483643,-8.60116958618164,2.0649988651275635
1481087978517,-3.5930981636047363,-8.56765079498291,2.214038133621216
1481087978702,-3.600879430770874,-8.556877136230469,2.1380221843719482
1481087978878,-3.5476083755493164,-8.603564262390137,2.0644004344940186
1481087979061,-3.642179250717163,-8.590993881225586,1.7711106538772583
1481087979243,-3.598485231399536,-8.633491516113281,2.1368250846862793
1481087979420,-3.6493618488311768,-8.546701431274414,2.126051187515259
1481087979601,-3.649960517883301,-8.53413200378418,2.2894554138183594
1481087979782,-3.7032315731048584,-8.58919906616211,2.2691047191619873
1481087979958,-3.664325714111328,-8.601768493652344,2.251148223876953
1481087980143,-3.603872060775757,-8.55029296875,2.2373814582824707
1481087980321,-3.714005470275879,-8.55029296875,2.1146786212921143
1481087980497,-3.6343982219696045,-8.617929458618164,2.316390037536621
1481087980683,-3.619434356689453,-8.614935874938965,2.3535003662109375
1481087980863,-3.5691561698913574,-8.633491516113281,2.541445016860962
1481087981039,-3.640383720397949,-8.542511940002441,2.3720552921295166
1481087981223,-3.6733038425445557,-8.547300338745117,2.5701754093170166
1481087981402,-3.602076530456543,-8.590993881225586,2.3924059867858887
1481087981583,-3.5284547805786133,-8.644265174865723,2.3307554721832275
1481087981764,-3.694851875305176,-8.579023361206055,2.4420857429504395
1481087981944,-3.5643677711486816,-8.548497200012207,2.384026288986206
1481087982125,-3.73016619682312,-8.494627952575684,1.6980875730514526
1481087982305,-3.622427225112915,-8.531139373779297,2.2643163204193115
1481087982480,-3.598485231399536,-8.577227592468262,2.3918075561523438
1481087982664,-3.621230125427246,-8.543708801269531,2.3475148677825928
1481087982842,-3.5859155654907227,-8.53652572631836,2.410961151123047
1481087983021,-3.5924997329711914,-8.5903959274292,2.3457190990448
1481087983203,-3.690661907196045,-8.53293514251709,2.3283610343933105
1481087983386,-3.554192304611206,-8.573636054992676,2.455253839492798
1481087983566,-3.6134488582611084,-8.56884765625,2.4438812732696533
1481087983746,-3.646967649459839,-8.53652572631836,2.2475569248199463
1481087983928,-3.6110546588897705,-8.470087051391602,2.3744494915008545
1481087984105,-3.6146459579467773,-8.622118949890137,2.3517045974731445
1481087984285,-3.624222755432129,-8.622118949890137,2.296039342880249
1481087984467,-3.643376350402832,-8.585607528686523,2.3361423015594482
1481087984646,-3.5194764137268066,-8.713098526000977,2.2427685260772705
1481087984825,-3.507505416870117,-8.620922088623047,2.2577321529388428
1481087985003,-3.558382272720337,-8.654440879821777,2.182913303375244
1481087985187,-3.4638113975524902,-8.712499618530273,1.9979612827301025
1481087985366,-3.426102638244629,-8.718485832214355,2.0919337272644043
1481087985543,-3.5476083755493164,-8.68017864227295,2.1559786796569824
1481087985728,-3.4835634231567383,-8.621520042419434,2.121262788772583
1481087985908,-3.491943120956421,-8.7083101272583,2.117671489715576
1481087986087,-3.595492362976074,-8.623315811157227,2.077568531036377
1481087986268,-3.4530375003814697,-8.73225212097168,2.0392613410949707
1481087986448,-3.5440170764923096,-8.677783966064453,2.101510524749756
1481087986627,-3.55479097366333,-8.686163902282715,2.1344308853149414
1481087986809,-3.4584243297576904,-8.668806076049805,2.055422067642212
1481087986986,-3.5703532695770264,-8.693944931030273,2.1487960815429688
1481087987169,-3.530250310897827,-8.659229278564453,2.036268472671509
1481087987349,-3.5667619705200195,-8.6897554397583,2.103306293487549
1481087987525,-3.532644510269165,-8.7083101272583,2.1362264156341553
1481087987710,-3.5667619705200195,-8.704718589782715,2.0703859329223633
1481087987888,-3.5200750827789307,-8.663418769836426,2.070984363555908
1481087988065,-3.5230677127838135,-8.681973457336426,2.0931308269500732
1481087988250,-3.5434184074401855,-8.7669677734375,2.1045033931732178
1481087988430,-3.555389642715454,-8.65982723236084,1.9913772344589233
1481087988608,-3.4865562915802,-8.67718505859375,2.1924901008605957
1481087988791,-3.490147590637207,-8.668806076049805,2.094327926635742
1481087988969,-3.5176808834075928,-8.715493202209473,2.144606113433838
1481087989152,-3.5398271083831787,-8.685564994812012,2.1380221843719482
1481087989332,-3.5733461380004883,-8.705916404724121,2.1110873222351074
1481087989507,-3.6176388263702393,-8.666411399841309,2.140416383743286
1481087989689,-3.603872060775757,-8.701127052307129,2.075772762298584
1481087989874,-3.578732967376709,-8.646659851074219,2.1535844802856445
1481087990047,-3.533243179321289,-8.605359077453613,2.121861219406128
1481087990232,-3.578134536743164,-8.61852741241455,2.072181463241577
1481087990411,-3.50930118560791,-8.653243064880371,2.231395959854126
1481087990588,-3.5170822143554688,-8.654440879821777,2.168548107147217
1481087990773,-3.5452141761779785,-8.680776596069336,2.1942858695983887
1481087990955,-3.491943120956421,-8.652046203613281,2.2254104614257813
1481087991133,-3.535038709640503,-8.655038833618164,2.2846670150756836
1481087991313,-3.490147590637207,-8.646060943603516,2.292448043823242
1481087991490,-3.530250310897827,-8.609549522399902,2.2637176513671875
1481087991672,-3.3854012489318848,-8.543109893798828,2.360084295272827
1481087991853,-3.352480888366699,-8.701725959777832,2.2415714263916016
1481087992029,-3.530250310897827,-8.727463722229004,2.144606113433838
1481087992212,-3.445854902267456,-8.710105895996094,2.0644004344940186
1481087992394,-3.445854902267456,-8.715493202209473,2.0626046657562256
1481087992570,-3.3668460845947266,-8.85675048828125,1.9578584432601929
1481087992753,-3.2375593185424805,-8.804078102111816,2.163161277770996
1481087992933,-3.251924514770508,-8.734646797180176,1.9506758451461792
1481087993114,-3.2782607078552246,-8.858546257019043,1.8860323429107666
1481087993295,-3.5703532695770264,-8.7298583984375,1.9776105880737305
1481087993474,-3.3488895893096924,-8.874707221984863,1.5753847360610962
1481087993653,-3.450044631958008,-8.784924507141113,1.823184609413147
1481087993835,-3.4865562915802,-8.786121368408203,1.8411411046981812
1481087994011,-3.4985272884368896,-8.78193187713623,1.7501614093780518
1481087994196,-3.3051953315734863,-8.882488250732422,1.6484078168869019
1481087994376,-3.360262155532837,-8.861538887023926,1.6394295692443848
1481087994555,-3.400364875793457,-8.873510360717773,1.5185223817825317
1481087994736,-3.4763808250427246,-8.834005355834961,1.5747861862182617
1481087994914,-3.5637693405151367,-8.719083786010742,1.4077905416488647
1481087995092,-3.6589386463165283,-9.03511905670166,1.4975731372833252
1481087995277,-3.6326024532318115,-8.917802810668945,1.0785878896713257
1481087995457,-3.694851875305176,-8.796297073364258,0.8457517623901367
1481087995636,-3.733159065246582,-8.853158950805664,0.8445546627044678
1481087995816,-3.793612480163574,-8.856152534484863,0.8487445116043091
1481087995996,-3.9384617805480957,-8.712499618530273,0.8517372608184814
1481087996177,-4.21080207824707,-8.766369819641113,0.6697779297828674
1481087996357,-4.129399299621582,-8.29471206665039,0.13706804811954498
1481087996539,-3.980360269546509,-8.607154846191406,1.071405291557312
1481087996718,-4.727949619293213,-8.229470252990723,1.3389573097229004
1481087996898,-4.373009204864502,-8.667608261108398,1.5280991792678833
1481087997074,-4.69024133682251,-8.360552787780762,0.829590916633606
1481087997259,-4.667496204376221,-8.49283218383789,0.7649474143981934
1481087997437,-3.383605480194092,-8.765172004699707,1.6514005661010742
1481087997614,-3.5697548389434814,-8.7484130859375,1.238999366760254
1481087997799,-3.559579372406006,-8.908226013183594,0.9271546006202698
1481087997979,-3.2854433059692383,-9.024344444274902,0.8631097078323364
1481087998155,-3.9480385780334473,-8.877100944519043,0.6631938815116882
1481087998339,-3.8289270401000977,-8.821435928344727,0.6584054827690125
1481087998520,-3.838503837585449,-8.806472778320313,0.6266822814941406
1481087998700,-3.5907039642333984,-8.918401718139648,0.751779317855835
1481087998880,-3.6343982219696045,-8.875904083251953,0.7481880187988281
1481087999060,-3.6577415466308594,-8.87829875946045,0.7086837291717529
1481087999235,-3.688267707824707,-8.927379608154297,0.7092822790145874
1481087999420,-3.7451300621032715,-8.851962089538574,0.7463923692703247
1481087999596,-3.686472177505493,-8.87410831451416,0.7924807667732239
1481087999781,-3.7158010005950928,-8.865130424499512,0.7463923692703247
1481087999961,-3.6942532062530518,-8.815450668334961,0.7320271730422974
1481088000135,-3.627215623855591,-8.966285705566406,0.6985083222389221
1481088000316,-3.536834478378296,-8.988431930541992,0.6009446382522583
1481088000497,-3.5200750827789307,-8.897452354431152,0.729034423828125
1481088000680,-3.6535518169403076,-8.949525833129883,0.8900445103645325
1481088000863,-3.685275077819824,-8.853757858276367,0.6272808313369751
1481088001042,-3.773261785507202,-8.815450668334961,0.7296329736709595
1481088001223,-3.469796895980835,-8.99740982055664,0.9953893423080444
1481088001400,-3.4165258407592773,-8.916007041931152,0.9097966551780701
1481088001583,-3.514089584350586,-8.89146614074707,0.8780734539031982
1481088001763,-3.5260605812072754,-8.917802810668945,0.9295487999916077
1481088001943,-3.596689462661743,-8.866327285766602,0.8966285586357117
1481088002118,-3.6709096431732178,-8.951920509338379,0.8595184087753296
1481088002298,-3.555389642715454,-8.967482566833496,0.8212111592292786
1481088002483,-3.426701068878174,-9.008782386779785,0.8158242106437683
1481088002662,-3.604470729827881,-8.893261909484863,0.7451952695846558
1481088002844,-3.6349966526031494,-8.850765228271484,0.8379706144332886
1481088003020,-3.554192304611206,-8.862137794494629,0.7990648150444031
1481088003204,-3.644573450088501,-8.832210540771484,0.7433996200561523
1481088003384,-3.6798880100250244,-8.848370552062988,0.70090252161026
1481088003563,-3.6098575592041016,-8.889671325683594,0.7547720670700073
1481088003745,-3.6583402156829834,-8.890868186950684,0.7182605266571045
1481088003924,-3.776853084564209,-8.83819580078125,0.7727286219596863
1481088004102,-3.6756980419158936,-8.939350128173828,0.718859076499939
1481088004285,-3.688267707824707,-8.926182746887207,0.7122750282287598
1481088004464,-3.3931822776794434,-9.017760276794434,0.3232172429561615
1481088004664,-3.3195607662200928,-9.039907455444336,0.38905778527259827
1481088004826,-3.5643677711486816,-8.983044624328613,0.5554547905921936
1481088005006,-3.4751837253570557,-8.958504676818848,0.5398924946784973
1481088005180,-3.425503969192505,-9.012971878051758,0.5063736438751221
1481088005361,-3.358466386795044,-9.043498039245605,0.36990416049957275
1481088005546,-3.4620156288146973,-9.018359184265137,0.4578910768032074
1481088005726,-3.4392707347869873,-9.024943351745605,0.5081692934036255
1481088005906,-3.6140475273132324,-8.924386978149414,0.6302735805511475
1481088006085,-3.6762967109680176,-8.944138526916504,0.7092822790145874
1481088006266,-3.330933094024658,-8.959701538085938,0.9528923034667969
1481088006447,-3.779845952987671,-8.714295387268066,0.9642647504806519
1481088006624,-4.075530052185059,-8.775946617126465,0.8864531517028809
1481088006808,-4.168305397033691,-8.822632789611816,0.8864531517028809
1481088006987,-4.199429988861084,-8.60655689239502,1.1294646263122559
1481088007163,-3.9671921730041504,-8.701127052307129,1.1516109704971313
1481088007348,-4.14915132522583,-8.716690063476563,1.138442873954773
1481088007528,-4.019266128540039,-8.685564994812012,1.1468225717544556
1481088007704,-3.932476282119751,-8.7083101272583,1.2216414213180542
1481088007888,-3.8504748344421387,-8.796895980834961,1.113303780555725
1481088008068,-4.270058631896973,-8.7298583984375,0.8092401623725891
1481088008248,-3.978564739227295,-8.801684379577637,0.7445967197418213
1481088008428,-3.73016619682312,-8.823830604553223,0.7499836683273315
1481088008606,-3.8313212394714355,-8.771756172180176,0.8451532125473022
1481088008789,-3.755903959274292,-8.784924507141113,0.6949170231819153
1481088008969,-3.7726633548736572,-8.845976829528809,0.6925228238105774
1481088009146,-3.7463271617889404,-8.828020095825195,0.7625532150268555
1481088009329,-3.824138641357422,-8.80467700958252,0.6607996821403503
1481088009510,-3.863642930984497,-8.846575736999512,0.6829460263252258
1481088009685,-3.906140089035034,-8.809465408325195,0.6613982319831848
1481088009870,-3.9169139862060547,-8.825027465820313,0.6057330369949341
1481088010048,-3.81994891166687,-8.805274963378906,0.5979518890380859
1481088010228,-3.9456443786621094,-8.82203483581543,0.6440402865409851
1481088010409,-3.9408559799194336,-8.819042205810547,0.5704185366630554
1481088010588,-3.909731388092041,-8.78193187713623,0.5919663906097412
1481088010771,-3.863642930984497,-8.822632789611816,0.5979518890380859
1481088010952,-3.8815994262695313,-8.813055992126465,0.6596025824546814
1481088011126,-3.8923733234405518,-8.81784439086914,0.5620388388633728
1481088011313,-3.863044500350952,-8.823830604553223,0.5614402890205383
1481088011492,-3.840898036956787,-8.831012725830078,0.6021417379379272
1481088011667,-3.868431329727173,-8.803479194641113,0.6278793811798096
1481088011853,-3.870227098464966,-8.802881240844727,0.6356605291366577
1481088012033,-3.8379054069519043,-8.82203483581543,0.6937199234962463
1481088012208,-3.863642930984497,-8.78073501586914,0.7535749673843384
1481088012394,-3.955819845199585,-8.790909767150879,0.7739257216453552
1481088012572,-3.9462430477142334,-8.746617317199707,0.7589619159698486
1481088012753,-4.036025524139404,-8.762778282165527,0.9648633003234863
1481088012933,-3.8157589435577393,-8.678980827331543,0.9965864419937134
1481088013112,-3.8738183975219727,-8.802282333374023,0.871489405632019
1481088013293,-3.272873640060425,-8.893261909484863,0.67815762758255
1481088013473,-4.496310710906982,-8.617330551147461,0.3292027413845062
1481088013653,-3.750516891479492,-8.587403297424316,1.1456254720687866
1481088013834,-4.884171485900879,-8.698134422302246,1.3940238952636719
1481088014014,-2.8658595085144043,-8.872312545776367,2.536058187484741
1481088014189,-3.7193922996520996,-8.42040729522705,2.1942858695983887
1481088014374,-3.6984431743621826,-8.822632789611816,1.9189527034759521
1481088014554,-3.7026329040527344,-8.598775863647461,2.1589713096618652
1481088014729,-3.579331636428833,-8.696937561035156,2.408566951751709
1481088014915,-3.558382272720337,-7.8781208992004395,2.5037364959716797
1481088015095,-3.1980550289154053,-8.169614791870117,2.0159177780151367
1481088015274,-3.8265328407287598,-8.61852741241455,2.409764051437378
1481088015455,-3.6709096431732178,-8.486846923828125,2.4821887016296387
1481088015635,-3.7618894577026367,-8.23006820678711,2.4654293060302734
1481088015816,-3.5021185874938965,-8.24503231048584,2.9035680294036865
1481088015996,-3.8540661334991455,-7.51779317855835,2.782062292098999
1481088016172,-2.981379747390747,-9.371503829956055,2.1775264739990234
1481088016353,-4.021660327911377,-8.055890083312988,2.9328970909118652
1481088016536,-4.897339344024658,-8.324040412902832,3.708618402481079
1481088016712,-3.487753391265869,-7.1885905265808105,4.875791549682617
1481088016897,-3.5703532695770264,-6.567295074462891,5.537189960479736
1481088017077,-3.3470940589904785,-6.599617004394531,5.160701751708984
1481088017253,-3.536834478378296,-8.087613105773926,4.566341400146484
1481088017435,-3.7205893993377686,-8.051700592041016,4.188655853271484
1481088017617,-3.6158430576324463,-7.688380241394043,3.8582561016082764
1481088017798,-3.914519786834717,-7.7643961906433105,3.7481226921081543
1481088017978,-3.7618894577026367,-8.182184219360352,3.560776472091675
1481088018156,-3.957016944885254,-8.055291175842285,3.094505786895752
1481088018338,-4.165910720825195,-8.110358238220215,3.0436289310455322
1481088018517,-4.159327030181885,-8.15644645690918,2.8119897842407227
1481088018698,-4.271854400634766,-8.03194808959961,2.8802247047424316
1481088018878,-4.417900562286377,-8.169015884399414,2.9071593284606934
1481088019059,-4.266467571258545,-7.981669902801514,3.074753522872925
1481088019235,-4.198232650756836,-8.000225067138672,3.1286230087280273
1481088019417,-4.121618270874023,-8.286332130432129,2.9538464546203613
1481088019599,-3.134010076522827,-7.6117658615112305,3.6541502475738525
1481088019775,-3.5230677127838135,-7.84998893737793,3.090315818786621
1481088019959,-3.7487213611602783,-8.028955459594727,0.9403226971626282
1481088020138,-3.3530795574188232,-8.859743118286133,0.5985504388809204
1481088020345,-4.198232650756836,-8.590993881225586,0.608127236366272
1481088020499,-3.803189516067505,-8.978256225585938,0.7924807667732239
1481088020678,-3.994127035140991,-8.81784439086914,0.5566518902778625
1481088020860,-4.336497783660889,-8.900444984436035,0.9493009448051453
1481088021040,-4.078522682189941,-8.646060943603516,0.6757634282112122
1481088021216,-4.0096893310546875,-8.60236644744873,0.43933600187301636
1481088021398,-4.4741644859313965,-8.604162216186523,0.5309142470359802
1481088021580,-3.886387825012207,-8.595782279968262,0.060453593730926514
1481088021756,-3.8989574909210205,-8.56884765625,0.20769700407981873
1481088021941,-3.936067581176758,-8.591592788696289,0.16819266974925995
1481088022122,-4.195240020751953,-8.636484146118164,0.5273229479789734
1481088022297,-4.503493309020996,-8.595782279968262,0.45190557837486267
1481088022482,-4.7620673179626465,-8.584410667419434,0.679354727268219
1481088022663,-4.381987571716309,-8.308478355407715,0.4225766062736511
1481088022842,-4.211400985717773,-8.595782279968262,0.9163807034492493
1481088023023,-3.5206735134124756,-8.29471206665039,-0.2214636504650116
1481088023203,-4.748300552368164,-8.901042938232422,0.7960720658302307
1481088023383,-4.462791919708252,-8.56645393371582,1.5322890281677246
1481088023566,-4.399345397949219,-8.620323181152344,1.3982137441635132
1481088023738,-4.259284973144531,-8.343194007873535,1.1240776777267456
1481088023923,-3.951031446456909,-8.786121368408203,2.299630641937256
1481088024103,-4.101866245269775,-8.22228717803955,2.8113913536071777
1481088024279,-3.7056257724761963,-8.172008514404297,2.5061306953430176
1481088024463,-3.78104305267334,-8.584410667419434,2.6557681560516357
1481088024644,-4.089895248413086,-8.342596054077148,2.0434510707855225
1481088024818,-4.365826606750488,-8.83939266204834,1.3491326570510864
1481088025004,-4.10246467590332,-8.503605842590332,1.732803463935852
1481088025183,-3.9013516902923584,-8.573038101196289,1.5203180313110352
1481088025364,-3.7696704864501953,-8.513781547546387,1.4191631078720093
1481088025545,-3.8941690921783447,-8.652046203613281,1.567603588104248
1481088025722,-3.9474401473999023,-8.69214916229248,1.403002142906189
1481088025905,-3.7205893993377686,-8.624512672424316,1.279700756072998
1481088026085,-3.8780081272125244,-8.921992301940918,1.2826935052871704
1481088026261,-3.7702691555023193,-9.152434349060059,1.3126211166381836
1481088026444,-3.870227098464966,-8.609549522399902,1.016338586807251
1481088026622,-4.127603530883789,-8.701127052307129,0.7990648150444031
1481088026801,-3.8821980953216553,-9.19552993774414,1.0259153842926025
1481088026986,-4.100668907165527,-8.588001251220703,0.1586158573627472
1481088027166,-3.7918169498443604,-8.200140953063965,0.8667010068893433
1481088027346,-4.0078935623168945,-8.887276649475098,0.45190557837486267
1481088027526,-4.066551685333252,-8.879495620727539,0.46327802538871765
1481088027707,-4.170100688934326,-8.490437507629395,0.5632359385490417
1481088027887,-4.068347454071045,-8.671199798583984,0.7667431235313416
1481088028067,-4.264671802520752,-8.507197380065918,0.507570743560791
1481088028249,-4.036623954772949,-8.712499618530273,0.7362170219421387
1481088028427,-4.228758811950684,-8.777143478393555,0.9487023949623108
1481088028604,-4.177882194519043,-8.625710487365723,0.9552865028381348
1481088028795,-4.201225280761719,-8.658031463623047,0.8888474106788635
1481088028968,-4.354454517364502,-8.635287284851074,0.921169102191925
1481088029148,-4.173692226409912,-8.614935874938965,0.8786720037460327
1481088029323,-4.086902141571045,-8.619126319885254,0.9481038451194763
1481088029508,-4.167706489562988,-8.649652481079102,0.9199720025062561
1481088029688,-4.058770656585693,-8.622118949890137,0.9379284977912903
1481088029864,-4.262876033782959,-8.528146743774414,0.5949591398239136
1481088030049,-4.294000625610352,-8.707711219787598,0.579995334148407
1481088030225,-4.307767391204834,-9.00399398803711,0.579995334148407
1481088030406,-4.189853191375732,-8.273163795471191,0.7930793166160583
1481088030588,-3.7247793674468994,-7.850587368011475,0.3513490855693817
1481088030767,-3.7834372520446777,-8.759785652160645,0.4596867263317108
1481088030950,-3.9384617805480957,-9.433155059814453,0.25019407272338867
1481088031130,-3.60566782951355,-8.728062629699707,0.961870551109314
1481088031305,-3.8313212394714355,-8.60116958618164,0.8948329091072083
1481088031490,-3.8301241397857666,-8.729259490966797,1.1019313335418701
1481088031670,-3.8097734451293945,-8.789712905883789,1.304241418838501
1481088031846,-3.640982151031494,-8.705317497253418,1.1450269222259521
1481088032031,-3.6900634765625,-8.811261177062988,1.0576386451721191
1481088032211,-3.84269380569458,-8.715493202209473,1.1013327836990356
1481088032389,-3.840898036956787,-8.671199798583984,1.0546458959579468
1481088032568,-3.555389642715454,-8.85555362701416,1.1971008777618408
1481088032749,-3.664325714111328,-8.827422142028809,1.18094003200531
1481088032931,-3.560776472091675,-8.971672058105469,1.1318588256835938
1481088033112,-3.5847184658050537,-8.90762710571289,1.911171555519104
1481088033287,-3.9019501209259033,-8.365341186523438,3.492541790008545
1481088033472,-3.5033156871795654,-8.146869659423828,3.6978445053100586
1481088033653,-3.251325845718384,-7.9858598709106445,3.861248731613159
1481088033828,-3.383007049560547,-9.492411613464355,3.511096715927124
1481088034012,-3.2632968425750732,-8.96389102935791,2.2858641147613525
1481088034190,-3.639785051345825,-8.561066627502441,1.9171570539474487
1481088034368,-3.666719913482666,-8.739435195922852,1.5179238319396973
1481088034550,-3.6990416049957275,-9.046490669250488,1.2892776727676392
1481088034733,-3.268683910369873,-8.78731918334961,1.1905168294906616
1481088034912,-3.929483652114868,-8.864531517028809,1.646013617515564
1481088035093,-3.7481226921081543,-8.969876289367676,1.5723919868469238
1481088035272,-3.6942532062530518,-8.875904083251953,1.334767460823059
1481088035453,-3.8343141078948975,-8.914810180664063,1.50355863571167
1481088035630,-3.7708675861358643,-8.884284019470215,1.7753005027770996
1481088035809,-3.9612066745758057,-8.714295387268066,1.7016788721084595
1481088035994,-4.253897666931152,-8.659229278564453,1.6352397203445435
1481088036174,-4.197634220123291,-8.621520042419434,1.5556325912475586
1481088036350,-3.8971617221832275,-9.074623107910156,1.7070658206939697
1481088036535,-3.776853084564209,-8.804078102111816,1.6310498714447021
1481088036715,-3.3674447536468506,-8.577826499938965,1.9578584432601929
1481088036890,-3.736750364303589,-8.658031463623047,2.3708581924438477
1481088037075,-3.5218706130981445,-8.556877136230469,2.4372973442077637
1481088037258,-3.688866376876831,-8.379706382751465,2.539649486541748
1481088037436,-3.7235822677612305,-8.451532363891602,2.363675594329834
1481088037616,-3.223194122314453,-8.677783966064453,2.4612393379211426
1481088037794,-3.7666778564453125,-8.550890922546387,2.560598611831665
1481088037974,-3.928286552429199,-8.443750381469727,2.4827871322631836
1481088038156,-3.823540210723877,-8.464699745178223,2.473809003829956
1481088038333,-3.8959646224975586,-8.395866394042969,2.3930046558380127
1481088038517,-4.015674591064453,-8.24503231048584,2.6874914169311523
1481088038696,-3.8588545322418213,-8.221688270568848,2.964620351791382
1481088038872,-3.821146011352539,-8.285733222961426,3.1489737033843994
1481088039055,-4.191050052642822,-8.24742603302002,2.6342203617095947
1481088039237,-4.261679172515869,-8.275558471679688,2.5767595767974854
1481088039414,-4.214393615722656,-8.275558471679688,3.005321741104126
1481088039597,-4.0863037109375,-7.958924770355225,2.914940595626831
1481088039778,-3.819350242614746,-8.224082946777344,2.852691411972046
1481088039957,-4.062361717224121,-8.039131164550781,3.0322563648223877
1481088040138,-4.059967517852783,-8.169614791870117,2.695272445678711
1481088040317,-4.171298027038574,-8.144475936889648,2.6850972175598145
1481088040498,-4.1425676345825195,-8.237849235534668,2.475006103515625
1481088040679,-4.0779242515563965,-8.356961250305176,2.448071241378784
1481088040855,-4.185064792633057,-8.305485725402832,2.4881742000579834
1481088041038,-4.101267337799072,-8.316858291625977,2.4600422382354736
1481088041219,-4.107851505279541,-8.246828079223633,2.4893712997436523
1481088041395,-4.113238334655762,-8.289923667907715,2.5007436275482178
1481088041579,-4.173093795776367,-8.29471206665039,2.4845829010009766
1481088041759,-4.050989151000977,-8.397662162780762,2.499546527862549
1481088041936,-4.1192240715026855,-8.397064208984375,2.1966800689697266
1481088042120,-4.107851505279541,-8.431779861450195,2.1984755992889404
1481088042298,-4.146757125854492,-8.344989776611328,2.22660756111145
1481088042480,-4.033631324768066,-8.616731643676758,2.6827030181884766
1481088042660,-4.271854400634766,-8.464101791381836,3.641580820083618
1481088042844,-3.1052796840667725,-7.976283073425293,3.3740286827087402
1481088043021,-3.5745432376861572,-8.737040519714355,2.9652187824249268
1481088043201,-3.8522706031799316,-8.901641845703125,2.8161797523498535
1481088043376,-3.248333215713501,-8.813654899597168,1.9518729448318481
1481088043562,-3.9187095165252686,-8.58620548248291,1.876455545425415
1481088043741,-4.10366153717041,-8.672396659851074,1.3210008144378662
1481088043917,-3.975571870803833,-8.626907348632813,0.8756792545318604
1481088044102,-4.348468780517578,-8.443750381469727,0.7703344225883484
1481088044283,-4.647744178771973,-8.50061321258545,0.608127236366272
1481088044460,-4.632181644439697,-8.44195556640625,0.801459014415741
1481088044643,-4.602852821350098,-8.435371398925781,0.5895721912384033
1481088044822,-4.664503574371338,-8.418611526489258,0.6847416758537292
1481088044999,-4.575918197631836,-8.443750381469727,0.6242880821228027
1481088045183,-4.823718070983887,-8.432378768920898,0.5734112858772278
1481088045364,-4.474762916564941,-8.447341918945313,0.5129576921463013
1481088045543,-4.080916881561279,-8.708909034729004,0.707486629486084
1481088045723,-3.891774892807007,-8.803479194641113,0.8319851160049438
1481088045899,-3.759495258331299,-8.772953987121582,0.9540894031524658
1481088046082,-3.8319199085235596,-8.849568367004395,1.0983400344848633
1481088046263,-4.157531261444092,-8.511985778808594,0.9900023937225342
1481088046439,-4.006696701049805,-8.65863037109375,1.070208191871643
1481088046624,-3.9827544689178467,-8.668806076049805,1.0779893398284912
1481088046804,-3.8804023265838623,-8.702324867248535,1.1127052307128906
1481088046983,-3.8792052268981934,-8.734047889709473,0.9157821536064148
1481088047164,-4.112639904022217,-8.865130424499512,1.0845733880996704
1481088047345,-3.862445831298828,-8.78193187713623,0.8774749040603638
1481088047525,-3.933074951171875,-8.707113265991211,0.8391677141189575
1481088047704,-3.911526918411255,-8.736441612243652,0.8062474131584167
1481088047903,-3.9606082439422607,-8.762778282165527,0.7769184708595276
1481088048064,-4.045602321624756,-8.777143478393555,0.7272387742996216
1481088048245,-4.067150115966797,-8.74960994720459,0.7565677165985107
1481088048421,-3.907337188720703,-8.58919906616211,0.7757213711738586
1481088048604,-3.9396588802337646,-8.756194114685059,0.9487023949623108
1481088048805,-3.952826976776123,-8.838793754577637,0.9630676507949829
1481088048963,-4.22277307510376,-8.720281600952148,0.7326257228851318
1481088049144,-4.040215492248535,-8.70950698852539,1.1222820281982422
1481088049323,-3.8073792457580566,-8.829216957092285,0.8906430602073669
1481088049507,-3.914519786834717,-8.756793022155762,0.6937199234962463
1481088049687,-3.9851486682891846,-8.789712905883789,0.9798270463943481
1481088049863,-3.889380693435669,-8.79928970336914,0.8529343605041504
1481088050046,-3.846883535385132,-8.798690795898438,0.8858546018600464
1481088050225,-3.8145618438720703,-8.842984199523926,0.838569164276123
1481088050408,-3.777451753616333,-8.829216957092285,0.7864952683448792
1481088050583,-3.779845952987671,-8.867524147033691,0.8343793153762817
1481088050768,-3.5919010639190674,-9.027935981750488,0.8559271097183228
1481088050943,-3.4530375003814697,-8.923788070678711,0.6871358752250671
1481088051126,-3.7924153804779053,-8.833407402038574,0.8140285611152649
1481088051308,-3.8325183391571045,-8.863933563232422,1.0223240852355957
1481088051484,-3.4123358726501465,-8.884284019470215,0.9151836037635803
1481088051666,-3.5907039642333984,-8.875904083251953,0.9403226971626282
1481088051849,-3.538031578063965,-8.865130424499512,0.9840168952941895
1481088052027,-3.537432909011841,-8.881889343261719,1.0666168928146362
1481088052209,-3.5494039058685303,-8.869918823242188,1.028908133506775
1481088052389,-3.4524388313293457,-8.940547943115234,0.9929951429367065
1481088052569,-3.494337320327759,-8.929773330688477,1.0067617893218994
1481088052750,-3.493738889694214,-8.9249849319458,1.0767922401428223
1481088052930,-3.534440279006958,-8.882488250732422,1.0947487354278564
1481088053110,-3.509899616241455,-8.901042938232422,1.1228805780410767
1481088053290,-3.5727474689483643,-8.893860816955566,1.2072762250900269
1481088053466,-3.646369218826294,-8.904036521911621,1.3419500589370728
1481088053650,-3.623624324798584,-8.844779968261719,1.2270283699035645
1481088053826,-3.667318344116211,-8.736441612243652,1.1677719354629517
1481088054006,-3.667318344116211,-8.760982513427734,1.095347285270691
1481088054191,-3.7217864990234375,-8.791508674621582,1.5783774852752686
1481088054369,-3.640982151031494,-8.831012725830078,1.4664485454559326
1481088054550,-3.5200750827789307,-8.826823234558105,1.3389573097229004
1481088054730,-3.6122517585754395,-8.81664752960205,1.2509703636169434
1481088054907,-3.554192304611206,-8.817246437072754,1.0833762884140015
1481088055092,-3.53204607963562,-8.91421127319336,1.1899182796478271
1481088055273,-3.555389642715454,-8.920196533203125,1.1186907291412354
1481088055456,-3.50930118560791,-8.857349395751953,1.0480618476867676
1481088055633,-3.5673606395721436,-8.898050308227539,1.1605892181396484
1481088055813,-3.5883097648620605,-8.867524147033691,1.2587515115737915
1481088055988,-3.6361937522888184,-8.795698165893555,1.3425486087799072
1481088056173,-3.6176388263702393,-8.793304443359375,1.390432596206665
1481088056352,-3.667917013168335,-8.786121368408203,1.4903905391693115
1481088056528,-3.640383720397949,-8.741828918457031,1.455674648284912
1481088056713,-3.776254653930664,-8.694543838500977,1.3317747116088867
1481088056893,-3.889979124069214,-8.78193187713623,1.370081901550293
1481088057072,-3.6978445053100586,-8.371326446533203,-0.20111294090747833
1481088057253,-4.128202438354492,-8.653841972351074,1.1276689767837524
1481088057433,-4.117428302764893,-8.663418769836426,1.0696096420288086
1481088057614,-4.013280391693115,-8.736441612243652,1.9147628545761108
1481088057794,-4.144961833953857,-8.659229278564453,1.0462661981582642
1481088057971,-4.2742486000061035,-8.588600158691406,0.8224082589149475
1481088058154,-3.8815994262695313,-8.802282333374023,1.2964602708816528
1481088058335,-4.201225280761719,-8.596980094909668,0.34656068682670593
1481088058510,-4.0084919929504395,-8.758588790893555,1.1222820281982422
1481088058693,-4.037821292877197,-8.7669677734375,0.8200140595436096
1481088058875,-4.2760443687438965,-8.702324867248535,0.6045359373092651
1481088059051,-3.99532413482666,-8.714295387268066,0.46567222476005554
1481088059234,-4.079719543457031,-8.735244750976563,0.6236895322799683
1481088059416,-4.43705415725708,-8.433575630187988,0.30526071786880493
1481088059594,-4.559757232666016,-8.561665534973145,0.6236895322799683
1481088059776,-4.490923881530762,-8.5903959274292,0.5817909836769104
1481088059959,-4.837484359741211,-8.339603424072266,-0.04429273307323456
1481088060131,-4.098873138427734,-8.845377922058105,0.8188169598579407
1481088060311,-4.140173435211182,-8.49402904510498,0.6189011335372925
1481088060491,-4.185064792633057,-8.670601844787598,0.9594763517379761
1481088060674,-3.995922565460205,-8.702922821044922,0.9858125448226929
1481088060857,-3.910329818725586,-8.789113998413086,0.993593692779541
1481088061034,-3.976170539855957,-8.884882926940918,1.6645687818527222
1481088061219,-3.9827544689178467,-8.815450668334961,2.0470423698425293
