,timestamp,ax,ay,az
0,0.0,4.120440483093262,9.226724624633787,-1.916650891304016
1,100.0,4.120440483093262,9.226724624633787,-1.916650891304016
2,200.0,4.120440483093262,9.226724624633787,-1.916650891304016
3,300.0,3.426522016525269,3.0460631847381587,-7.855636119842528
4,400.0,3.426522016525269,3.0460631847381587,-7.855636119842528
5,500.0,2.6703903675079346,3.383451223373413,-8.209774017333983
6,600.0,2.6703903675079346,3.383451223373413,-8.209774017333983
7,700.0,2.3976082801818848,2.754138946533203,-7.5469627380371085
8,800.0,2.3976082801818848,2.754138946533203,-7.5469627380371085
9,900.0,2.3976082801818848,2.754138946533203,-7.5469627380371085
10,1000.0,6.474977493286133,2.400001049041748,-6.118447780609131
11,1100.0,6.474977493286133,2.400001049041748,-6.118447780609131
12,1200.0,8.98265552520752,2.2683956623077397,-1.8520447015762331
13,1300.0,8.98265552520752,2.2683956623077397,-1.8520447015762331
14,1400.0,8.762516975402832,1.94297194480896,-3.2518460750579834
15,1500.0,8.762516975402832,1.94297194480896,-3.2518460750579834
16,1600.0,8.762516975402832,1.94297194480896,-3.2518460750579834
17,1700.0,9.159724235534668,1.9334007501602173,-3.500699520111084
18,1800.0,9.159724235534668,1.9334007501602173,-3.500699520111084
19,1900.0,11.284551620483398,2.069791555404663,-1.246660590171814
20,2000.0,11.284551620483398,2.069791555404663,-1.246660590171814
21,2100.0,11.284551620483398,2.069791555404663,-1.246660590171814
22,2200.0,7.7048888206481925,1.6989041566848757,-0.4019941985607147
23,2300.0,7.7048888206481925,1.6989041566848757,-0.4019941985607147
24,2400.0,13.892727851867676,1.3591231107711792,-2.541177749633789
25,2500.0,13.892727851867676,1.3591231107711792,-2.541177749633789
26,2600.0,8.532805442810059,1.093519926071167,-2.249253273010254
27,2700.0,8.532805442810059,1.093519926071167,-2.249253273010254
28,2800.0,8.532805442810059,1.093519926071167,-2.249253273010254
29,2900.0,10.40877914428711,1.5242280960083008,-3.35713005065918
30,3000.0,10.40877914428711,1.5242280960083008,-3.35713005065918
31,3100.0,10.040283203125,2.541177749633789,-1.1748759746551514
32,3200.0,10.040283203125,2.541177749633789,-1.1748759746551514
33,3300.0,8.886943817138672,0.7537391781806946,-1.3328022956848145
34,3400.0,8.886943817138672,0.7537391781806946,-1.3328022956848145
35,3500.0,8.886943817138672,0.7537391781806946,-1.3328022956848145
36,3600.0,6.537191867828369,1.8783657550811768,-2.4670000076293945
37,3700.0,6.537191867828369,1.8783657550811768,-2.4670000076293945
38,3800.0,8.518448829650879,1.9453648328781128,-2.687139749526977
39,3900.0,8.518448829650879,1.9453648328781128,-2.687139749526977
40,4000.0,8.518448829650879,1.9453648328781128,-2.687139749526977
41,4100.0,10.509278297424316,1.4931212663650513,-3.0460631847381587
42,4200.0,10.509278297424316,1.4931212663650513,-3.0460631847381587
43,4300.0,10.762916564941406,2.421536445617676,-1.3495519161224363
44,4400.0,10.762916564941406,2.421536445617676,-1.3495519161224363
45,4500.0,8.518448829650879,1.2131611108779907,-1.0241280794143677
46,4600.0,8.518448829650879,1.2131611108779907,-1.0241280794143677
47,4700.0,8.518448829650879,1.2131611108779907,-1.0241280794143677
48,4800.0,7.948956489562987,1.495514154434204,-2.4813570976257324
49,4900.0,7.948956489562987,1.495514154434204,-2.4813570976257324
50,5000.0,8.70508861541748,1.3280165195465088,-2.569891452789306
51,5100.0,8.70508861541748,1.3280165195465088,-2.569891452789306
52,5200.0,10.389636039733887,1.7682960033416748,-3.1178479194641118
53,5300.0,10.389636039733887,1.7682960033416748,-3.1178479194641118
54,5400.0,10.389636039733887,1.7682960033416748,-3.1178479194641118
55,5500.0,10.112068176269533,2.5507488250732417,-1.871187210083008
56,5600.0,10.112068176269533,2.5507488250732417,-1.871187210083008
57,5700.0,9.504291534423828,1.308874011039734,-1.043270707130432
58,5800.0,9.504291534423828,1.308874011039734,-1.043270707130432
59,5900.0,10.514062881469727,1.3998013734817505,-0.916451096534729
60,6000.0,10.514062881469727,1.3998013734817505,-0.916451096534729
61,6100.0,10.514062881469727,1.3998013734817505,-0.916451096534729
62,6200.0,9.489934921264648,1.5433706045150757,-2.25403904914856
63,6300.0,9.489934921264648,1.5433706045150757,-2.25403904914856
64,6400.0,9.30329418182373,1.5242280960083008,-3.2662029266357417
65,6500.0,9.30329418182373,1.5242280960083008,-3.2662029266357417
66,6600.0,11.322836875915527,0.9260223507881165,-3.6370904445648193
67,6700.0,11.322836875915527,0.9260223507881165,-3.6370904445648193
68,6800.0,11.322836875915527,0.9260223507881165,-3.6370904445648193
69,6900.0,10.561919212341307,2.4047868251800537,-1.3663017749786377
70,7000.0,10.561919212341307,2.4047868251800537,-1.3663017749786377
71,7100.0,9.69093132019043,1.3423734903335571,-1.2370892763137815
72,7200.0,9.69093132019043,1.3423734903335571,-1.2370892763137815
73,7300.0,8.283952713012695,1.2035897970199585,-2.09850549697876
74,7400.0,8.283952713012695,1.2035897970199585,-2.09850549697876
75,7500.0,8.283952713012695,1.2035897970199585,-2.09850549697876
76,7600.0,9.408578872680664,2.524427890777588,-3.3403804302215576
77,7700.0,9.408578872680664,2.524427890777588,-3.3403804302215576
78,7800.0,12.208181381225586,2.6057839393615723,-4.254438400268556
79,7900.0,12.208181381225586,2.6057839393615723,-4.254438400268556
80,8000.0,10.193424224853516,2.7014968395233154,-1.3351951837539673
81,8100.0,10.193424224853516,2.7014968395233154,-1.3351951837539673
82,8200.0,10.193424224853516,2.7014968395233154,-1.3351951837539673
83,8300.0,8.733802795410156,1.442872166633606,-1.325623631477356
84,8400.0,8.733802795410156,1.442872166633606,-1.325623631477356
85,8500.0,7.733603000640869,0.8398807048797607,-2.0099709033966064
86,8600.0,7.733603000640869,0.8398807048797607,-2.0099709033966064
87,8700.0,8.791230201721191,1.184447169303894,-2.8737800121307373
88,8800.0,8.791230201721191,1.184447169303894,-2.8737800121307373
89,8900.0,10.07378387451172,2.2133607864379883,-3.929014682769776
90,9000.0,10.07378387451172,2.2133607864379883,-3.929014682769776
91,9100.0,10.547561645507812,2.833101987838745,-2.242074966430664
92,9200.0,10.547561645507812,2.833101987838745,-2.242074966430664
93,9300.0,10.547561645507812,2.833101987838745,-2.242074966430664
94,9400.0,8.638089179992676,1.6965112686157229,-0.7465606331825256
95,9500.0,8.638089179992676,1.6965112686157229,-0.7465606331825256
96,9600.0,11.035696983337402,1.373480200767517,-1.6103696823120115
97,9700.0,11.035696983337402,1.373480200767517,-1.6103696823120115
98,9800.0,11.035696983337402,1.373480200767517,-1.6103696823120115
99,9900.0,10.604989051818848,0.8374879360198975,-2.8713872432708736
100,10000.0,10.604989051818848,0.8374879360198975,-2.8713872432708736
101,10100.0,9.762716293334961,1.7682960033416748,-3.383451223373413
102,10200.0,9.762716293334961,1.7682960033416748,-3.383451223373413
103,10300.0,13.117453575134276,2.9264223575592037,-3.5246279239654537
104,10400.0,13.117453575134276,2.9264223575592037,-3.5246279239654537
105,10500.0,11.57168960571289,1.0145567655563354,-1.373480200767517
106,10600.0,11.57168960571289,1.0145567655563354,-1.373480200767517
107,10700.0,11.57168960571289,1.0145567655563354,-1.373480200767517
108,10800.0,7.719245910644531,1.1533405780792236,-1.1389836072921753
109,10900.0,7.719245910644531,1.1533405780792236,-1.1389836072921753
110,11000.0,7.255037784576416,0.8159525394439697,-2.806780815124512
111,11100.0,7.255037784576416,0.8159525394439697,-2.806780815124512
112,11200.0,7.255037784576416,0.8159525394439697,-2.806780815124512
113,11300.0,9.250652313232422,2.5555346012115483,-2.337787628173828
114,11400.0,9.250652313232422,2.5555346012115483,-2.337787628173828
115,11500.0,10.121639251708984,2.0434706211090092,-3.390629768371582
116,11600.0,10.121639251708984,2.0434706211090092,-3.390629768371582
117,11700.0,10.796415328979492,1.674975872039795,-1.6079767942428589
118,11800.0,10.796415328979492,1.674975872039795,-1.6079767942428589
119,11900.0,8.599804878234862,1.56251323223114,-1.0504491329193115
120,12000.0,8.599804878234862,1.56251323223114,-1.0504491329193115
121,12100.0,8.963513374328613,1.4500504732131958,-1.459621787071228
122,12200.0,8.963513374328613,1.4500504732131958,-1.459621787071228
123,12300.0,8.963513374328613,1.4500504732131958,-1.459621787071228
124,12400.0,9.958927154541016,1.938186287879944,-2.232503652572632
125,12500.0,9.958927154541016,1.938186287879944,-2.232503652572632
126,12600.0,8.628519058227539,2.3712873458862305,-3.1489543914794917
127,12700.0,8.628519058227539,2.3712873458862305,-3.1489543914794917
128,12800.0,8.628519058227539,2.3712873458862305,-3.1489543914794917
129,12900.0,11.643473625183105,2.610569477081299,-3.3714869022369385
130,13000.0,11.643473625183105,2.610569477081299,-3.3714869022369385
131,13100.0,9.762716293334961,1.3495519161224363,-1.6725829839706419
132,13200.0,9.762716293334961,1.3495519161224363,-1.6725829839706419
133,13300.0,9.63828945159912,1.5218352079391482,-1.430907964706421
134,13400.0,9.63828945159912,1.5218352079391482,-1.430907964706421
135,13500.0,7.513463020324707,1.1748759746551514,-2.0817556381225586
136,13600.0,7.513463020324707,1.1748759746551514,-2.0817556381225586
137,13700.0,7.513463020324707,1.1748759746551514,-2.0817556381225586
138,13800.0,8.508876800537111,2.1128623485565186,-2.321038007736206
139,13900.0,8.508876800537111,2.1128623485565186,-2.321038007736206
140,14000.0,10.164710998535156,1.5433706045150757,-3.2662029266357417
141,14100.0,10.164710998535156,1.5433706045150757,-3.2662029266357417
142,14200.0,10.978270530700684,2.517249345779419,-1.4141581058502195
143,14300.0,10.978270530700684,2.517249345779419,-1.4141581058502195
144,14400.0,10.978270530700684,2.517249345779419,-1.4141581058502195
145,14500.0,8.968299865722656,1.37587308883667,-0.7800601720809937
146,14600.0,8.968299865722656,1.37587308883667,-0.7800601720809937
147,14700.0,8.341379165649414,1.84965181350708,-2.8283162117004395
148,14800.0,8.341379165649414,1.84965181350708,-2.8283162117004395
149,14900.0,8.796016693115233,1.7443678379058838,-2.4095723628997803
150,15000.0,8.796016693115233,1.7443678379058838,-2.4095723628997803
151,15100.0,8.796016693115233,1.7443678379058838,-2.4095723628997803
152,15200.0,10.04985523223877,1.3232309818267822,-3.5341989994049072
153,15300.0,10.04985523223877,1.3232309818267822,-3.5341989994049072
154,15400.0,10.64806079864502,2.8737800121307373,-1.117448091506958
155,15500.0,10.64806079864502,2.8737800121307373,-1.117448091506958
156,15600.0,10.64806079864502,2.8737800121307373,-1.117448091506958
157,15700.0,9.107083320617676,1.4763716459274292,-0.42831525206565857
158,15800.0,9.107083320617676,1.4763716459274292,-0.42831525206565857
159,15900.0,8.547162055969237,1.6319050788879397,-2.3712873458862305
160,16000.0,8.547162055969237,1.6319050788879397,-2.3712873458862305
161,16100.0,8.896513938903809,1.3495519161224363,-3.273381233215332
162,16200.0,8.896513938903809,1.3495519161224363,-3.273381233215332
163,16300.0,9.528220176696776,1.2825528383255005,-3.3762726783752437
164,16400.0,9.528220176696776,1.2825528383255005,-3.3762726783752437
165,16500.0,9.528220176696776,1.2825528383255005,-3.3762726783752437
166,16600.0,8.260024070739746,2.4502503871917725,-0.4043869972229004
167,16700.0,8.260024070739746,2.4502503871917725,-0.4043869972229004
168,16800.0,8.757731437683105,1.8233308792114256,-0.5670989155769348
169,16900.0,8.757731437683105,1.8233308792114256,-0.5670989155769348
170,17000.0,8.757731437683105,1.8233308792114256,-0.5670989155769348
171,17100.0,14.050655364990234,1.294516921043396,-1.7706886529922483
172,17200.0,14.050655364990234,1.294516921043396,-1.7706886529922483
173,17300.0,8.724230766296388,0.5479563474655151,-2.785245418548584
174,17400.0,8.724230766296388,0.5479563474655151,-2.785245418548584
175,17500.0,9.992427825927734,1.124626636505127,-3.522234916687012
176,17600.0,9.992427825927734,1.124626636505127,-3.522234916687012
177,17700.0,9.992427825927734,1.124626636505127,-3.522234916687012
178,17800.0,9.7005033493042,2.3473589420318604,-1.5409778356552124
179,17900.0,9.7005033493042,2.3473589420318604,-1.5409778356552124
180,18000.0,9.7005033493042,2.3473589420318604,-1.5409778356552124
181,18100.0,8.772088050842285,1.4524433612823486,-0.7082754969596863
182,18200.0,8.772088050842285,1.4524433612823486,-0.7082754969596863
183,18300.0,13.26580810546875,1.514656662940979,-1.7204395532608032
184,18400.0,13.26580810546875,1.514656662940979,-1.7204395532608032
185,18500.0,8.61894702911377,0.8853443264961243,-3.177668571472168
186,18600.0,8.61894702911377,0.8853443264961243,-3.177668571472168
187,18700.0,9.734003067016602,1.8400806188583372,-3.400200843811035
188,18800.0,9.734003067016602,1.8400806188583372,-3.400200843811035
189,18900.0,9.734003067016602,1.8400806188583372,-3.400200843811035
190,19000.0,10.02592658996582,2.0650060176849365,-1.4620146751403809
191,19100.0,10.02592658996582,2.0650060176849365,-1.4620146751403809
192,19200.0,9.131011009216307,1.5409778356552124,-0.7657032012939453
193,19300.0,9.131011009216307,1.5409778356552124,-0.7657032012939453
194,19400.0,9.131011009216307,1.5409778356552124,-0.7657032012939453
195,19500.0,12.390035629272461,1.641476273536682,-2.0458633899688716
196,19600.0,12.390035629272461,1.641476273536682,-2.0458633899688716
197,19700.0,8.853443145751953,1.588834285736084,-3.0149567127227783
198,19800.0,8.853443145751953,1.588834285736084,-3.0149567127227783
199,19900.0,10.006784439086914,1.1892328262329102,-3.335594892501831
200,20000.0,10.006784439086914,1.1892328262329102,-3.335594892501831
201,20100.0,10.059426307678224,2.47896409034729,-1.6989041566848757
202,20200.0,10.059426307678224,2.47896409034729,-1.6989041566848757
203,20300.0,10.059426307678224,2.47896409034729,-1.6989041566848757
204,20400.0,8.877371788024902,1.3974084854125977,-1.1150553226470947
205,20500.0,8.877371788024902,1.3974084854125977,-1.1150553226470947
206,20600.0,8.877371788024902,1.3974084854125977,-1.1150553226470947
207,20700.0,11.490333557128904,1.5074783563613892,-1.093519926071167
208,20800.0,11.490333557128904,1.5074783563613892,-1.093519926071167
209,20900.0,10.121639251708984,0.9547362923622132,-2.3497519493103027
210,21000.0,10.121639251708984,0.9547362923622132,-2.3497519493103027
211,21100.0,9.020941734313963,1.1126624345779421,-3.4719858169555664
212,21200.0,9.020941734313963,1.1126624345779421,-3.4719858169555664
213,21300.0,9.844072341918944,1.797009825706482,-3.3308091163635254
214,21400.0,9.844072341918944,1.797009825706482,-3.3308091163635254
215,21500.0,10.140782356262207,1.6007983684539795,-1.1030912399291992
216,21600.0,10.140782356262207,1.6007983684539795,-1.1030912399291992
217,21700.0,8.695517539978027,1.244267821311951,-1.7730815410614014
218,21800.0,8.695517539978027,1.244267821311951,-1.7730815410614014
219,21900.0,8.695517539978027,1.244267821311951,-1.7730815410614014
220,22000.0,6.106483459472656,1.3232309818267822,-2.567498683929444
221,22100.0,6.106483459472656,1.3232309818267822,-2.567498683929444
222,22200.0,6.106483459472656,1.3232309818267822,-2.567498683929444
223,22300.0,7.604390144348144,1.5361920595169067,-2.2827527523040767
224,22400.0,7.604390144348144,1.5361920595169067,-2.2827527523040767
225,22500.0,9.489934921264648,1.6701902151107788,-2.8666017055511475
226,22600.0,9.489934921264648,1.6701902151107788,-2.8666017055511475
227,22700.0,10.384849548339844,2.455036163330078,-2.230110645294189
228,22800.0,10.384849548339844,2.455036163330078,-2.230110645294189
229,22900.0,8.82951545715332,1.3974084854125977,-2.3066811561584477
230,23000.0,8.82951545715332,1.3974084854125977,-2.3066811561584477
231,23100.0,8.82951545715332,1.3974084854125977,-2.3066811561584477
232,23200.0,11.753543853759766,1.4500504732131958,-2.3258235454559326
233,23300.0,11.753543853759766,1.4500504732131958,-2.3258235454559326
234,23400.0,8.408378601074219,1.0289137363433838,-1.959721684455872
235,23500.0,8.408378601074219,1.0289137363433838,-1.959721684455872
236,23600.0,8.652446746826174,1.887937068939209,-4.587040901184082
237,23700.0,8.652446746826174,1.887937068939209,-4.587040901184082
238,23800.0,8.652446746826174,1.887937068939209,-4.587040901184082
239,23900.0,10.332208633422852,0.5766702890396118,0.2632104754447937
240,24000.0,10.332208633422852,0.5766702890396118,0.2632104754447937
241,24100.0,9.365508079528807,0.607776939868927,-0.9284151792526244
242,24200.0,9.365508079528807,0.607776939868927,-0.9284151792526244
243,24300.0,8.992227554321289,1.526620864868164,-1.6199408769607544
244,24400.0,8.992227554321289,1.526620864868164,-1.6199408769607544
245,24500.0,9.757929801940918,2.179861307144165,-0.07896314561367035
246,24600.0,9.757929801940918,2.179861307144165,-0.07896314561367035
247,24700.0,9.757929801940918,2.179861307144165,-0.07896314561367035
248,24800.0,10.016355514526367,2.313859462738037,-1.1629117727279663
249,24900.0,10.016355514526367,2.313859462738037,-1.1629117727279663
250,25000.0,9.399007797241213,0.4019941985607147,-4.2759737968444815
251,25100.0,9.399007797241213,0.4019941985607147,-4.2759737968444815
252,25200.0,9.399007797241213,0.4019941985607147,-4.2759737968444815
253,25300.0,13.830514907836914,1.246660590171814,-3.2662029266357417
254,25400.0,13.830514907836914,1.246660590171814,-3.2662029266357417
255,25500.0,8.312665939331055,1.4404792785644531,-1.356730580329895
256,25600.0,8.312665939331055,1.4404792785644531,-1.356730580329895
257,25700.0,9.949356079101562,1.3591231107711792,-1.8305093050003047
258,25800.0,9.949356079101562,1.3591231107711792,-1.8305093050003047
259,25900.0,9.949356079101562,1.3591231107711792,-1.8305093050003047
260,26000.0,9.255437850952148,2.0147566795349117,-1.88075852394104
261,26100.0,9.255437850952148,2.0147566795349117,-1.88075852394104
262,26200.0,8.733802795410156,2.455036163330078,-2.3545374870300293
263,26300.0,8.733802795410156,2.455036163330078,-2.3545374870300293
264,26400.0,8.733802795410156,2.455036163330078,-2.3545374870300293
265,26500.0,13.868800163269045,2.0195422172546387,-3.5844480991363525
266,26600.0,13.868800163269045,2.0195422172546387,-3.5844480991363525
267,26700.0,9.016156196594238,1.239482045173645,-1.9262222051620483
268,26800.0,9.016156196594238,1.239482045173645,-1.9262222051620483
269,26900.0,9.40379238128662,1.2753744125366209,-1.5768700838088991
270,27000.0,9.40379238128662,1.2753744125366209,-1.5768700838088991
271,27100.0,9.40379238128662,1.2753744125366209,-1.5768700838088991
272,27200.0,8.322237014770508,1.6055840253829956,-1.8305093050003047
273,27300.0,8.322237014770508,1.6055840253829956,-1.8305093050003047
274,27400.0,9.221939086914062,2.462214469909668,-2.63449764251709
275,27500.0,9.221939086914062,2.462214469909668,-2.63449764251709
276,27600.0,14.543575286865234,1.9740787744522093,-3.8907296657562256
277,27700.0,14.543575286865234,1.9740787744522093,-3.8907296657562256
278,27800.0,9.71485996246338,1.325623631477356,-1.4189438819885254
279,27900.0,9.71485996246338,1.325623631477356,-1.4189438819885254
280,28000.0,9.71485996246338,1.325623631477356,-1.4189438819885254
281,28100.0,9.236295700073242,1.2801601886749268,-1.1868400573730469
282,28200.0,9.236295700073242,1.2801601886749268,-1.1868400573730469
283,28300.0,10.040283203125,0.818345308303833,-1.7754744291305542
284,28400.0,10.040283203125,0.818345308303833,-1.7754744291305542
285,28500.0,10.040283203125,0.818345308303833,-1.7754744291305542
286,28600.0,9.111868858337402,2.227717876434326,-2.596212387084961
287,28700.0,9.111868858337402,2.227717876434326,-2.596212387084961
288,28800.0,7.508677005767822,2.1655044555664062,-1.8664016723632808
289,28900.0,7.508677005767822,2.1655044555664062,-1.8664016723632808
290,29000.0,8.695517539978027,1.0983055830001829,-1.6151552200317385
291,29100.0,8.695517539978027,1.0983055830001829,-1.6151552200317385
292,29200.0,8.695517539978027,1.0983055830001829,-1.6151552200317385
293,29300.0,7.010970115661621,0.8973084688186646,-1.3830513954162598
294,29400.0,7.010970115661621,0.8973084688186646,-1.3830513954162598
295,29500.0,5.651846885681152,2.227717876434326,-1.2227323055267334
296,29600.0,5.651846885681152,2.227717876434326,-1.2227323055267334
297,29700.0,12.820744514465332,2.8713872432708736,-2.335394859313965
298,29800.0,12.820744514465332,2.8713872432708736,-2.335394859313965
299,29900.0,12.820744514465332,2.8713872432708736,-2.335394859313965
300,30000.0,6.537191867828369,1.7347965240478516,-0.5216353535652161
301,30100.0,6.537191867828369,1.7347965240478516,-0.5216353535652161
302,30200.0,11.021341323852539,0.7393822073936462,-0.4378865361213684
303,30300.0,11.021341323852539,0.7393822073936462,-0.4378865361213684
304,30400.0,8.327022552490233,0.34217363595962524,-1.2562319040298462
305,30500.0,8.327022552490233,0.34217363595962524,-1.2562319040298462
306,30600.0,8.327022552490233,0.34217363595962524,-1.2562319040298462
307,30700.0,10.198209762573242,2.242074966430664,-4.192224979400635
308,30800.0,10.198209762573242,2.242074966430664,-4.192224979400635
309,30900.0,9.523433685302734,1.5912269353866575,-1.5098710060119631
310,31000.0,9.523433685302734,1.5912269353866575,-1.5098710060119631
311,31100.0,7.795816421508789,1.959721684455872,-1.062413215637207
312,31200.0,7.795816421508789,1.959721684455872,-1.062413215637207
313,31300.0,11.614761352539062,1.356730580329895,-0.8805587291717529
314,31400.0,11.614761352539062,1.356730580329895,-0.8805587291717529
315,31500.0,11.614761352539062,1.356730580329895,-0.8805587291717529
316,31600.0,7.75753116607666,0.6436693072319031,-2.0889341831207275
317,31700.0,7.75753116607666,0.6436693072319031,-2.0889341831207275
318,31800.0,9.4660062789917,2.395215511322021,-3.828516006469727
319,31900.0,9.4660062789917,2.395215511322021,-3.828516006469727
320,32000.0,10.681561470031738,2.4646072387695312,-1.526620864868164
321,32100.0,10.681561470031738,2.4646072387695312,-1.526620864868164
322,32200.0,8.446663856506348,1.7204395532608032,-1.5170495510101318
323,32300.0,8.446663856506348,1.7204395532608032,-1.5170495510101318
324,32400.0,11.542977333068848,1.7084753513336182,-0.4235295951366425
325,32500.0,11.542977333068848,1.7084753513336182,-0.4235295951366425
326,32600.0,11.542977333068848,1.7084753513336182,-0.4235295951366425
327,32700.0,7.838886737823486,0.06460621207952501,-2.524427890777588
328,32800.0,7.838886737823486,0.06460621207952501,-2.524427890777588
329,32900.0,9.863215446472168,0.9284151792526244,-3.833301782608032
330,33000.0,9.863215446472168,0.9284151792526244,-3.833301782608032
331,33100.0,10.016355514526367,2.0554347038269043,-1.3878371715545654
332,33200.0,10.016355514526367,2.0554347038269043,-1.3878371715545654
333,33300.0,10.016355514526367,2.0554347038269043,-1.3878371715545654
334,33400.0,8.647661209106445,1.9621145725250244,-1.0671988725662231
335,33500.0,8.647661209106445,1.9621145725250244,-1.0671988725662231
336,33600.0,9.121439933776855,1.722832441329956,-2.9623143672943115
337,33700.0,9.121439933776855,1.722832441329956,-2.9623143672943115
338,33800.0,7.551748275756836,0.7130610942840576,-2.830709218978882
339,33900.0,7.551748275756836,0.7130610942840576,-2.830709218978882
340,34000.0,7.551748275756836,0.7130610942840576,-2.830709218978882
341,34100.0,9.853643417358398,2.6775684356689453,-4.398008346557616
342,34200.0,9.853643417358398,2.6775684356689453,-4.398008346557616
343,34300.0,9.81535816192627,2.426322221755981,-2.560320377349853
344,34400.0,9.81535816192627,2.426322221755981,-2.560320377349853
345,34500.0,9.767501831054688,0.8853443264961243,-1.7347965240478516
346,34600.0,9.767501831054688,0.8853443264961243,-1.7347965240478516
347,34700.0,9.67657470703125,-0.007178467698395251,-0.6101697683334351
348,34800.0,9.67657470703125,-0.007178467698395251,-0.6101697683334351
349,34900.0,9.67657470703125,-0.007178467698395251,-0.6101697683334351
350,35000.0,10.083355903625488,0.9236294627189636,-2.44067907333374
351,35100.0,10.083355903625488,0.9236294627189636,-2.44067907333374
352,35200.0,9.4660062789917,1.6319050788879397,-4.9435715675354
353,35300.0,9.4660062789917,1.6319050788879397,-4.9435715675354
354,35400.0,9.561718940734863,1.9046868085861208,-3.9122648239135738
355,35500.0,9.561718940734863,1.9046868085861208,-3.9122648239135738
356,35600.0,10.470992088317873,1.3040882349014282,-2.060220241546631
357,35700.0,10.470992088317873,1.3040882349014282,-2.060220241546631
358,35800.0,10.470992088317873,1.3040882349014282,-2.060220241546631
359,35900.0,8.848658561706543,0.9427721500396729,-1.4787644147872925
360,36000.0,8.848658561706543,0.9427721500396729,-1.4787644147872925
361,36100.0,9.954142570495604,0.9475577473640442,-1.6941183805465698
362,36200.0,9.954142570495604,0.9475577473640442,-1.6941183805465698
363,36300.0,9.954142570495604,0.9475577473640442,-1.6941183805465698
364,36400.0,9.231510162353516,1.9860427379608157,-1.8831514120101929
365,36500.0,9.231510162353516,1.9860427379608157,-1.8831514120101929
366,36600.0,8.585447311401367,1.2011969089508057,-3.775874137878418
367,36700.0,8.585447311401367,1.2011969089508057,-3.775874137878418
368,36800.0,8.585447311401367,1.2011969089508057,-3.775874137878418
369,36900.0,13.280166625976562,1.6223337650299072,-2.455036163330078
370,37000.0,13.280166625976562,1.6223337650299072,-2.455036163330078
371,37100.0,8.528019905090332,1.3998013734817505,-0.5599204897880554
372,37200.0,8.528019905090332,1.3998013734817505,-0.5599204897880554
373,37300.0,9.877571105957033,1.4404792785644531,-1.0145567655563354
374,37400.0,9.877571105957033,1.4404792785644531,-1.0145567655563354
375,37500.0,9.77707290649414,1.392622709274292,-1.916650891304016
376,37600.0,9.77707290649414,1.392622709274292,-1.916650891304016
377,37700.0,8.695517539978027,1.179661512374878,-3.5700912475585938
378,37800.0,8.695517539978027,1.179661512374878,-3.5700912475585938
379,37900.0,11.653045654296875,2.244467735290528,-3.565305471420288
380,38000.0,11.653045654296875,2.244467735290528,-3.565305471420288
381,38100.0,10.045069694519043,1.3878371715545654,-0.8949156999588013
382,38200.0,10.045069694519043,1.3878371715545654,-0.8949156999588013
383,38300.0,10.045069694519043,1.3878371715545654,-0.8949156999588013
384,38400.0,10.313065528869627,0.9954141974449158,-0.7776673436164856
385,38500.0,10.313065528869627,0.9954141974449158,-0.7776673436164856
386,38600.0,9.355937004089355,0.10049854964017868,-1.2538390159606934
387,38700.0,9.355937004089355,0.10049854964017868,-1.2538390159606934
388,38800.0,9.355937004089355,0.10049854964017868,-1.2538390159606934
389,38900.0,9.561718940734863,0.5000999569892883,-4.2041893005371085
390,39000.0,9.561718940734863,0.5000999569892883,-4.2041893005371085
391,39100.0,9.934999465942383,2.4693927764892583,-1.1437692642211914
392,39200.0,9.934999465942383,2.4693927764892583,-1.1437692642211914
393,39300.0,9.332008361816406,1.5672988891601562,-0.818345308303833
394,39400.0,9.332008361816406,1.5672988891601562,-0.818345308303833
395,39500.0,9.332008361816406,1.5672988891601562,-0.818345308303833
396,39600.0,12.772887229919435,1.3495519161224363,-1.1700903177261353
397,39700.0,12.772887229919435,1.3495519161224363,-1.1700903177261353
398,39800.0,9.255437850952148,0.5144568681716919,-2.620140790939331
399,39900.0,9.255437850952148,0.5144568681716919,-2.620140790939331
400,40000.0,9.255437850952148,0.5144568681716919,-2.620140790939331
401,40100.0,9.57607650756836,0.9212367534637452,-3.6753754615783687
402,40200.0,9.57607650756836,0.9212367534637452,-3.6753754615783687
403,40300.0,9.757929801940918,2.6847469806671143,-1.2299107313156128
404,40400.0,9.757929801940918,2.6847469806671143,-1.2299107313156128
405,40500.0,8.456235885620117,1.6103696823120115,-0.8374879360198975
406,40600.0,8.456235885620117,1.6103696823120115,-0.8374879360198975
407,40700.0,8.456235885620117,1.6103696823120115,-0.8374879360198975
408,40800.0,11.720046043395994,1.131805181503296,-0.8039883971214294
409,40900.0,11.720046043395994,1.131805181503296,-0.8039883971214294
410,41000.0,8.638089179992676,0.3661018908023834,-2.1032910346984863
411,41100.0,8.638089179992676,0.3661018908023834,-2.1032910346984863
412,41200.0,8.638089179992676,0.3661018908023834,-2.1032910346984863
413,41300.0,10.068997383117676,1.1437692642211914,-3.905086755752564
414,41400.0,10.068997383117676,1.1437692642211914,-3.905086755752564
415,41500.0,9.31765079498291,2.337787628173828,-1.0193424224853516
416,41600.0,9.31765079498291,2.337787628173828,-1.0193424224853516
417,41700.0,8.738588333129883,1.5553346872329712,-0.8255237936973572
418,41800.0,8.738588333129883,1.5553346872329712,-0.8255237936973572
419,41900.0,8.738588333129883,1.5553346872329712,-0.8255237936973572
420,42000.0,11.657832145690918,0.9092726111412048,-1.3639088869094849
421,42100.0,11.657832145690918,0.9092726111412048,-1.3639088869094849
422,42200.0,10.336994171142578,0.4187439680099487,-2.021935224533081
423,42300.0,10.336994171142578,0.4187439680099487,-2.021935224533081
424,42400.0,10.336994171142578,0.4187439680099487,-2.021935224533081
425,42500.0,8.087740898132324,-0.15314064919948578,-2.9479575157165527
426,42600.0,8.087740898132324,-0.15314064919948578,-2.9479575157165527
427,42700.0,9.260223388671877,1.3663017749786377,-2.050648927688598
428,42800.0,9.260223388671877,1.3663017749786377,-2.050648927688598
429,42900.0,8.451449394226074,1.7371891736984253,-1.8185452222824097
430,43000.0,8.451449394226074,1.7371891736984253,-1.8185452222824097
431,43100.0,9.973284721374512,0.7130610942840576,-1.2825528383255005
432,43200.0,9.973284721374512,0.7130610942840576,-1.2825528383255005
433,43300.0,9.973284721374512,0.7130610942840576,-1.2825528383255005
434,43400.0,8.685946464538574,-0.5240281224250793,-1.2323036193847656
435,43500.0,8.685946464538574,-0.5240281224250793,-1.2323036193847656
436,43600.0,8.987441062927246,1.7012970447540283,-2.1726830005645748
437,43700.0,8.987441062927246,1.7012970447540283,-2.1726830005645748
438,43800.0,11.581260681152346,1.8783657550811768,-3.957728624343872
439,43900.0,11.581260681152346,1.8783657550811768,-3.957728624343872
440,44000.0,11.581260681152346,1.8783657550811768,-3.957728624343872
441,44100.0,9.06879711151123,1.0600204467773438,-1.5601203441619873
442,44200.0,9.06879711151123,1.0600204467773438,-1.5601203441619873
443,44300.0,10.131211280822754,1.124626636505127,-1.5098710060119631
444,44400.0,10.131211280822754,1.124626636505127,-1.5098710060119631
445,44500.0,8.647661209106445,0.8470591902732849,-2.0027925968170166
446,44600.0,8.647661209106445,0.8470591902732849,-2.0027925968170166
447,44700.0,8.647661209106445,0.8470591902732849,-2.0027925968170166
448,44800.0,9.221939086914062,1.7539390325546265,-2.6081764698028564
449,44900.0,9.221939086914062,1.7539390325546265,-2.6081764698028564
450,45000.0,11.729616165161133,1.9932212829589844,-3.34995174407959
451,45100.0,11.729616165161133,1.9932212829589844,-3.34995174407959
452,45200.0,11.729616165161133,1.9932212829589844,-3.34995174407959
453,45300.0,9.934999465942383,2.033899307250977,-1.5409778356552124
454,45400.0,9.934999465942383,2.033899307250977,-1.5409778356552124
455,45500.0,9.542576789855957,1.244267821311951,-2.0961124897003174
456,45600.0,9.542576789855957,1.244267821311951,-2.0961124897003174
457,45700.0,8.216952323913574,1.1102697849273682,-1.8520447015762331
458,45800.0,8.216952323913574,1.1102697849273682,-1.8520447015762331
459,45900.0,8.532805442810059,1.9142580032348635,-2.2707886695861816
460,46000.0,8.532805442810059,1.9142580032348635,-2.2707886695861816
461,46100.0,8.532805442810059,1.9142580032348635,-2.2707886695861816
462,46200.0,12.112468719482422,1.6845470666885376,-3.945764780044556
463,46300.0,12.112468719482422,1.6845470666885376,-3.945764780044556
464,46400.0,9.140583038330078,1.727617859840393,-1.706082463264465
465,46500.0,9.140583038330078,1.727617859840393,-1.706082463264465
466,46600.0,11.303693771362305,1.2035897970199585,-1.7252250909805298
467,46700.0,11.303693771362305,1.2035897970199585,-1.7252250909805298
468,46800.0,11.303693771362305,1.2035897970199585,-1.7252250909805298
469,46900.0,7.5661048889160165,0.4259224236011505,-1.9142580032348635
470,47000.0,7.5661048889160165,0.4259224236011505,-1.9142580032348635
471,47100.0,8.60459041595459,1.9860427379608157,-1.978864312171936
472,47200.0,8.60459041595459,1.9860427379608157,-1.978864312171936
473,47300.0,12.921241760253904,2.203789472579956,-4.520041942596436
474,47400.0,12.921241760253904,2.203789472579956,-4.520041942596436
475,47500.0,8.987441062927246,2.304288148880005,-0.9762716889381408
476,47600.0,8.987441062927246,2.304288148880005,-0.9762716889381408
477,47700.0,8.987441062927246,2.304288148880005,-0.9762716889381408
478,47800.0,10.121639251708984,1.3040882349014282,-1.1485549211502075
479,47900.0,10.121639251708984,1.3040882349014282,-1.1485549211502075
480,48000.0,7.551748275756836,0.8135597109794617,-1.9334007501602173
481,48100.0,7.551748275756836,0.8135597109794617,-1.9334007501602173
482,48200.0,8.934800148010254,1.84965181350708,-1.7467604875564575
483,48300.0,8.934800148010254,1.84965181350708,-1.7467604875564575
484,48400.0,8.934800148010254,1.84965181350708,-1.7467604875564575
485,48500.0,10.15992546081543,0.8709874749183655,-2.63449764251709
486,48600.0,10.15992546081543,0.8709874749183655,-2.63449764251709
487,48700.0,10.341779708862305,2.6608188152313232,-1.0959126949310305
488,48800.0,10.341779708862305,2.6608188152313232,-1.0959126949310305
489,48900.0,9.293723106384276,0.9643075466156006,-1.3160523176193235
490,49000.0,9.293723106384276,0.9643075466156006,-1.3160523176193235
491,49100.0,7.944170951843263,0.5934200286865234,-2.124826431274414
492,49200.0,7.944170951843263,0.5934200286865234,-2.124826431274414
493,49300.0,8.38444995880127,0.9954141974449158,-2.2755744457244877
494,49400.0,8.38444995880127,0.9954141974449158,-2.2755744457244877
495,49500.0,8.38444995880127,0.9954141974449158,-2.2755744457244877
496,49600.0,10.576275825500488,0.7872385978698729,-3.541377305984497
497,49700.0,10.576275825500488,0.7872385978698729,-3.541377305984497
498,49800.0,10.77727222442627,3.177668571472168,-1.6677974462509155
499,49900.0,10.77727222442627,3.177668571472168,-1.6677974462509155
500,50000.0,9.169296264648438,1.2777673006057741,-0.9116654396057128
501,50100.0,9.169296264648438,1.2777673006057741,-0.9116654396057128
502,50200.0,13.514662742614744,0.763310432434082,-1.2993026971817017
503,50300.0,13.514662742614744,0.763310432434082,-1.2993026971817017
504,50400.0,13.514662742614744,0.763310432434082,-1.2993026971817017
505,50500.0,8.532805442810059,0.3158525824546814,-2.1343977451324463
506,50600.0,8.532805442810059,0.3158525824546814,-2.1343977451324463
507,50700.0,9.824929237365724,1.5385849475860596,-3.5294132232666016
508,50800.0,9.824929237365724,1.5385849475860596,-3.5294132232666016
509,50900.0,9.044869422912598,3.1585259437561035,-1.4021940231323242
510,51000.0,9.044869422912598,3.1585259437561035,-1.4021940231323242
511,51100.0,8.901299476623535,1.514656662940979,-0.7752745151519775
512,51200.0,8.901299476623535,1.514656662940979,-0.7752745151519775
513,51300.0,8.901299476623535,1.514656662940979,-0.7752745151519775
514,51400.0,13.098311424255373,1.2610174417495728,-1.124626636505127
515,51500.0,13.098311424255373,1.2610174417495728,-1.124626636505127
516,51600.0,7.767102241516112,1.289731502532959,-1.8831514120101929
517,51700.0,7.767102241516112,1.289731502532959,-1.8831514120101929
518,51800.0,7.767102241516112,1.289731502532959,-1.8831514120101929
519,51900.0,10.327423095703123,0.8327022790908813,-3.864408254623413
520,52000.0,10.327423095703123,0.8327022790908813,-3.864408254623413
521,52100.0,9.370293617248537,2.4335007667541504,-1.7778673171997068
522,52200.0,9.370293617248537,2.4335007667541504,-1.7778673171997068
523,52300.0,8.896513938903809,1.4763716459274292,-1.0743772983551023
524,52400.0,8.896513938903809,1.4763716459274292,-1.0743772983551023
525,52500.0,9.030512809753418,1.3423734903335571,-1.2179466485977173
526,52600.0,9.030512809753418,1.3423734903335571,-1.2179466485977173
527,52700.0,9.030512809753418,1.3423734903335571,-1.2179466485977173
528,52800.0,8.695517539978027,1.1533405780792236,-1.5409778356552124
529,52900.0,8.695517539978027,1.1533405780792236,-1.5409778356552124
530,53000.0,9.63828945159912,1.6247265338897705,-4.211367607116698
531,53100.0,9.63828945159912,1.6247265338897705,-4.211367607116698
532,53200.0,8.408378601074219,2.589033842086792,-1.1700903177261353
533,53300.0,8.408378601074219,2.589033842086792,-1.1700903177261353
534,53400.0,8.408378601074219,2.589033842086792,-1.1700903177261353
535,53500.0,8.638089179992676,1.0456634759902954,-1.856830358505249
536,53600.0,8.638089179992676,1.0456634759902954,-1.856830358505249
537,53700.0,10.346564292907717,1.4572290182113647,-1.6486548185348509
538,53800.0,10.346564292907717,1.4572290182113647,-1.6486548185348509
539,53900.0,8.939584732055664,1.428515076637268,-1.6079767942428589
540,54000.0,8.939584732055664,1.428515076637268,-1.6079767942428589
541,54100.0,9.121439933776855,2.1343977451324463,-2.730210542678833
542,54200.0,9.121439933776855,2.1343977451324463,-2.730210542678833
543,54300.0,9.121439933776855,2.1343977451324463,-2.730210542678833
544,54400.0,13.227523803710938,1.938186287879944,-4.089334011077882
545,54500.0,13.227523803710938,1.938186287879944,-4.089334011077882
546,54600.0,8.776873588562013,1.8999011516571045,-1.6845470666885376
547,54700.0,8.776873588562013,1.8999011516571045,-1.6845470666885376
548,54800.0,9.80100154876709,1.3232309818267822,-1.3351951837539673
549,54900.0,9.80100154876709,1.3232309818267822,-1.3351951837539673
550,55000.0,9.80100154876709,1.3232309818267822,-1.3351951837539673
551,55100.0,9.772287368774414,1.2346963882446291,-1.8472589254379272
552,55200.0,9.772287368774414,1.2346963882446291,-1.8472589254379272
553,55300.0,9.116654396057127,1.34476637840271,-3.426522016525269
554,55400.0,9.116654396057127,1.34476637840271,-3.426522016525269
555,55500.0,13.146167755126953,1.7874385118484497,-3.811766624450684
556,55600.0,13.146167755126953,1.7874385118484497,-3.811766624450684
557,55700.0,13.146167755126953,1.7874385118484497,-3.811766624450684
558,55800.0,9.542576789855957,1.6534404754638672,-1.5098710060119631
559,55900.0,9.542576789855957,1.6534404754638672,-1.5098710060119631
560,56000.0,10.74855899810791,1.459621787071228,-1.179661512374878
561,56100.0,10.74855899810791,1.459621787071228,-1.179661512374878
562,56200.0,8.236095428466799,0.7130610942840576,-1.7898313999176023
563,56300.0,8.236095428466799,0.7130610942840576,-1.7898313999176023
564,56400.0,8.236095428466799,0.7130610942840576,-1.7898313999176023
565,56500.0,8.901299476623535,1.7874385118484497,-2.431107759475708
566,56600.0,8.901299476623535,1.7874385118484497,-2.431107759475708
567,56700.0,13.686945915222168,2.648854732513428,-3.1992037296295166
568,56800.0,13.686945915222168,2.648854732513428,-3.1992037296295166
569,56900.0,13.686945915222168,2.648854732513428,-3.1992037296295166
570,57000.0,9.34157943725586,1.6965112686157229,-1.3375877141952517
571,57100.0,9.34157943725586,1.6965112686157229,-1.3375877141952517
572,57200.0,10.322636604309082,1.411765456199646,-1.356730580329895
573,57300.0,10.322636604309082,1.411765456199646,-1.356730580329895
574,57400.0,6.355337142944336,1.2035897970199585,-2.0171494483947754
575,57500.0,6.355337142944336,1.2035897970199585,-2.0171494483947754
576,57600.0,8.078168869018555,2.0362920761108403,-2.0434706211090092
577,57700.0,8.078168869018555,2.0362920761108403,-2.0434706211090092
578,57800.0,8.078168869018555,2.0362920761108403,-2.0434706211090092
579,57900.0,10.384849548339844,1.34476637840271,-2.7326035499572754
580,58000.0,10.384849548339844,1.34476637840271,-2.7326035499572754
581,58100.0,10.279565811157227,2.0123636722564697,-1.0695916414260864
582,58200.0,10.279565811157227,2.0123636722564697,-1.0695916414260864
583,58300.0,10.279565811157227,2.0123636722564697,-1.0695916414260864
584,58400.0,9.556933403015137,1.1653046607971191,-0.9882357716560364
585,58500.0,9.556933403015137,1.1653046607971191,-0.9882357716560364
586,58600.0,6.369694232940674,1.043270707130432,-2.266003131866455
587,58700.0,6.369694232940674,1.043270707130432,-2.266003131866455
588,58800.0,8.575876235961914,1.3950155973434448,-2.47896409034729
589,58900.0,8.575876235961914,1.3950155973434448,-2.47896409034729
590,59000.0,9.98285675048828,0.6269195079803467,-3.1250264644622803
591,59100.0,9.98285675048828,0.6269195079803467,-3.1250264644622803
592,59200.0,9.98285675048828,0.6269195079803467,-3.1250264644622803
593,59300.0,10.126425743103027,2.289931058883667,-2.400001049041748
594,59400.0,10.126425743103027,2.289931058883667,-2.400001049041748
595,59500.0,9.078369140625,1.4859429597854614,-1.442872166633606
596,59600.0,9.078369140625,1.4859429597854614,-1.442872166633606
597,59700.0,10.380064964294434,1.557727575302124,-2.1439690589904785
598,59800.0,10.380064964294434,1.557727575302124,-2.1439690589904785
599,59900.0,9.284152030944824,0.5264209508895874,-2.0554347038269043
600,60000.0,9.284152030944824,0.5264209508895874,-2.0554347038269043
601,60100.0,9.848857879638672,1.6295121908187866,-3.4241292476654053
602,60200.0,9.848857879638672,1.6295121908187866,-3.4241292476654053
603,60300.0,9.848857879638672,1.6295121908187866,-3.4241292476654053
604,60400.0,10.07378387451172,2.344966173171997,-3.192025184631348
605,60500.0,10.07378387451172,2.344966173171997,-3.192025184631348
606,60600.0,9.442078590393066,1.6534404754638672,-1.514656662940979
607,60700.0,9.442078590393066,1.6534404754638672,-1.514656662940979
608,60800.0,9.083154678344727,0.8398807048797607,-1.129412293434143
609,60900.0,9.083154678344727,0.8398807048797607,-1.129412293434143
610,61000.0,9.083154678344727,0.8398807048797607,-1.129412293434143
611,61100.0,9.614361763000488,1.0193424224853516,-1.1413763761520386
612,61200.0,9.614361763000488,1.0193424224853516,-1.1413763761520386
613,61300.0,9.461220741271973,2.1343977451324463,-2.957528829574585
614,61400.0,9.461220741271973,2.1343977451324463,-2.957528829574585
615,61500.0,9.461220741271973,2.1343977451324463,-2.957528829574585
616,61600.0,9.681360244750977,2.6560330390930176,-3.005385160446167
617,61700.0,9.681360244750977,2.6560330390930176,-3.005385160446167
618,61800.0,9.681360244750977,1.3423734903335571,-1.7156537771224976
619,61900.0,9.681360244750977,1.3423734903335571,-1.7156537771224976
620,62000.0,9.150154113769533,1.2083754539489746,-1.0911270380020142
621,62100.0,9.150154113769533,1.2083754539489746,-1.0911270380020142
622,62200.0,9.150154113769533,1.2083754539489746,-1.0911270380020142
623,62300.0,9.327221870422363,1.0336993932724001,-1.6151552200317385
624,62400.0,9.327221870422363,1.0336993932724001,-1.6151552200317385
625,62500.0,9.231510162353516,2.380858421325684,-1.8759729862213133
626,62600.0,9.231510162353516,2.380858421325684,-1.8759729862213133
627,62700.0,13.940585136413574,1.107876896858215,-3.3978083133697514
628,62800.0,13.940585136413574,1.107876896858215,-3.3978083133697514
629,62900.0,9.81057357788086,2.227717876434326,-0.4761717021465302
630,63000.0,9.81057357788086,2.227717876434326,-0.4761717021465302
631,63100.0,9.81057357788086,2.227717876434326,-0.4761717021465302
632,63200.0,9.705288887023926,1.0719845294952393,-1.2705888748168943
633,63300.0,9.705288887023926,1.0719845294952393,-1.2705888748168943
634,63400.0,6.819544315338135,1.160519003868103,-1.9453648328781128
635,63500.0,6.819544315338135,1.160519003868103,-1.9453648328781128
636,63600.0,8.628519058227539,1.6677974462509155,-2.234896183013916
637,63700.0,8.628519058227539,1.6677974462509155,-2.234896183013916
638,63800.0,8.628519058227539,1.6677974462509155,-2.234896183013916
639,63900.0,14.816357612609865,1.497907042503357,-3.864408254623413
640,64000.0,14.816357612609865,1.497907042503357,-3.864408254623413
641,64100.0,10.112068176269533,2.0123636722564697,-1.3830513954162598
642,64200.0,10.112068176269533,2.0123636722564697,-1.3830513954162598
643,64300.0,10.112068176269533,2.0123636722564697,-1.3830513954162598
644,64400.0,9.475577354431152,1.6127625703811646,-1.0289137363433838
645,64500.0,9.475577354431152,1.6127625703811646,-1.0289137363433838
646,64600.0,7.269395351409912,1.6199408769607544,-2.878565788269043
647,64700.0,7.269395351409912,1.6199408769607544,-2.878565788269043
648,64800.0,8.149953842163086,4.074976921081543,-0.4450649619102478
649,64900.0,8.149953842163086,4.074976921081543,-0.4450649619102478
650,65000.0,8.149953842163086,4.074976921081543,-0.4450649619102478
651,65100.0,10.80120086669922,1.241874933242798,-2.6153552532196045
652,65200.0,10.80120086669922,1.241874933242798,-2.6153552532196045
653,65300.0,11.054840087890623,2.4717857837677,-0.916451096534729
654,65400.0,11.054840087890623,2.4717857837677,-0.916451096534729
655,65500.0,11.054840087890623,2.4717857837677,-0.916451096534729
656,65600.0,8.772088050842285,1.0360921621322632,-0.9308080077171326
657,65700.0,8.772088050842285,1.0360921621322632,-0.9308080077171326
658,65800.0,11.308479309082033,1.4380863904953003,-1.2227323055267334
659,65900.0,11.308479309082033,1.4380863904953003,-1.2227323055267334
660,66000.0,9.437292098999023,1.1772687435150146,-3.002992391586304
661,66100.0,9.437292098999023,1.1772687435150146,-3.002992391586304
662,66200.0,9.437292098999023,1.1772687435150146,-3.002992391586304
663,66300.0,9.80100154876709,0.6795615553855896,-3.8548374176025386
664,66400.0,9.80100154876709,0.6795615553855896,-3.8548374176025386
665,66500.0,8.877371788024902,1.6079767942428589,-1.1868400573730469
666,66600.0,8.877371788024902,1.6079767942428589,-1.1868400573730469
667,66700.0,8.877371788024902,1.6079767942428589,-1.1868400573730469
668,66800.0,8.025527954101562,1.6127625703811646,-0.8781659603118896
669,66900.0,8.025527954101562,1.6127625703811646,-0.8781659603118896
670,67000.0,11.327622413635256,1.1653046607971191,-1.2346963882446291
671,67100.0,11.327622413635256,1.1653046607971191,-1.2346963882446291
672,67200.0,9.442078590393066,0.6891329884529114,-2.062613010406494
673,67300.0,9.442078590393066,0.6891329884529114,-2.062613010406494
674,67400.0,9.09272575378418,1.641476273536682,-3.273381233215332
675,67500.0,9.09272575378418,1.641476273536682,-3.273381233215332
676,67600.0,9.09272575378418,1.641476273536682,-3.273381233215332
677,67700.0,12.614960670471193,2.337787628173828,-3.369094133377075
678,67800.0,12.614960670471193,2.337787628173828,-3.369094133377075
679,67900.0,9.652647018432617,0.8159525394439697,-2.108076810836792
680,68000.0,9.652647018432617,0.8159525394439697,-2.108076810836792
681,68100.0,9.652647018432617,0.8159525394439697,-2.108076810836792
682,68200.0,9.384650230407717,1.1700903177261353,-1.6055840253829956
683,68300.0,9.384650230407717,1.1700903177261353,-1.6055840253829956
684,68400.0,8.580661773681639,1.459621787071228,-1.813759446144104
685,68500.0,8.580661773681639,1.459621787071228,-1.813759446144104
686,68600.0,8.973085403442383,1.4404792785644531,-2.9766712188720703
687,68700.0,8.973085403442383,1.4404792785644531,-2.9766712188720703
688,68800.0,10.217352867126463,1.428515076637268,-3.3930225372314453
689,68900.0,10.217352867126463,1.428515076637268,-3.3930225372314453
690,69000.0,10.217352867126463,1.428515076637268,-3.3930225372314453
691,69100.0,11.370694160461426,1.6319050788879397,-1.3710873126983645
692,69200.0,11.370694160461426,1.6319050788879397,-1.3710873126983645
693,69300.0,8.657232284545897,1.5649060010910034,-0.26560330390930176
694,69400.0,8.657232284545897,1.5649060010910034,-0.26560330390930176
695,69500.0,9.743573188781738,1.1533405780792236,-1.3040882349014282
696,69600.0,9.743573188781738,1.1533405780792236,-1.3040882349014282
697,69700.0,11.059626579284668,0.8518448472023009,-2.455036163330078
698,69800.0,11.059626579284668,0.8518448472023009,-2.455036163330078
699,69900.0,11.059626579284668,0.8518448472023009,-2.455036163330078
700,70000.0,9.499505043029783,2.108076810836792,-3.002992391586304
701,70100.0,9.499505043029783,2.108076810836792,-3.002992391586304
702,70200.0,12.351749420166016,1.7467604875564575,-1.4883356094360352
703,70300.0,12.351749420166016,1.7467604875564575,-1.4883356094360352
704,70400.0,10.011569023132324,1.6199408769607544,-0.28235307335853577
705,70500.0,10.011569023132324,1.6199408769607544,-0.28235307335853577
706,70600.0,9.145368576049805,1.4476575851440432,-0.9260223507881165
707,70700.0,9.145368576049805,1.4476575851440432,-0.9260223507881165
708,70800.0,9.145368576049805,1.4476575851440432,-0.9260223507881165
709,70900.0,9.30329418182373,1.428515076637268,-2.799602746963501
710,71000.0,9.30329418182373,1.428515076637268,-2.799602746963501
711,71100.0,8.685946464538574,1.3519448041915894,-2.579463005065918
712,71200.0,8.685946464538574,1.3519448041915894,-2.579463005065918
713,71300.0,9.145368576049805,1.155733346939087,-3.617947816848755
714,71400.0,9.145368576049805,1.155733346939087,-3.617947816848755
715,71500.0,9.111868858337402,2.5555346012115483,-1.5170495510101318
716,71600.0,9.111868858337402,2.5555346012115483,-1.5170495510101318
717,71700.0,9.111868858337402,2.5555346012115483,-1.5170495510101318
718,71800.0,8.882158279418945,1.4380863904953003,-0.8997013568878174
719,71900.0,8.882158279418945,1.4380863904953003,-0.8997013568878174
720,72000.0,9.432506561279297,1.3519448041915894,-0.8781659603118896
721,72100.0,9.432506561279297,1.3519448041915894,-0.8781659603118896
722,72200.0,9.533005714416504,0.8757730722427368,-1.6773687601089478
723,72300.0,9.533005714416504,0.8757730722427368,-1.6773687601089478
724,72400.0,9.533005714416504,0.8757730722427368,-1.6773687601089478
725,72500.0,9.408578872680664,1.6965112686157229,-2.7589242458343506
726,72600.0,9.408578872680664,1.6965112686157229,-2.7589242458343506
727,72700.0,9.408578872680664,1.6965112686157229,-2.7589242458343506
728,72800.0,13.122239112854006,1.954936146736145,-2.749353408813477
729,72900.0,13.122239112854006,1.954936146736145,-2.749353408813477
730,73000.0,11.155338287353516,1.782652735710144,-0.7226324081420898
731,73100.0,11.155338287353516,1.782652735710144,-0.7226324081420898
732,73200.0,8.992227554321289,1.3782659769058228,-0.662811815738678
733,73300.0,8.992227554321289,1.3782659769058228,-0.662811815738678
734,73400.0,7.049255847930907,1.8233308792114256,-2.2995026111602783
735,73500.0,7.049255847930907,1.8233308792114256,-2.2995026111602783
736,73600.0,9.74835968017578,0.605384111404419,-3.0221347808837886
737,73700.0,9.74835968017578,0.605384111404419,-3.0221347808837886
738,73800.0,9.74835968017578,0.605384111404419,-3.0221347808837886
739,73900.0,9.595218658447266,0.9954141974449158,-3.4073793888092037
740,74000.0,9.595218658447266,0.9954141974449158,-3.4073793888092037
741,74100.0,9.93978500366211,2.411965131759644,-2.007578134536743
742,74200.0,9.93978500366211,2.411965131759644,-2.007578134536743
743,74300.0,9.504291534423828,1.5744771957397459,-0.9619146585464478
744,74400.0,9.504291534423828,1.5744771957397459,-0.9619146585464478
745,74500.0,9.504291534423828,1.5744771957397459,-0.9619146585464478
746,74600.0,9.619147300720217,1.4715858697891235,-0.9379864931106568
747,74700.0,9.619147300720217,1.4715858697891235,-0.9379864931106568
748,74800.0,8.71944522857666,1.983649969100952,-1.2610174417495728
749,74900.0,8.71944522857666,1.983649969100952,-1.2610174417495728
750,75000.0,8.551947593688965,2.502892255783081,-2.517249345779419
751,75100.0,8.551947593688965,2.502892255783081,-2.517249345779419
752,75200.0,10.346564292907717,1.6319050788879397,-1.9884356260299685
753,75300.0,10.346564292907717,1.6319050788879397,-1.9884356260299685
754,75400.0,10.346564292907717,1.6319050788879397,-1.9884356260299685
755,75500.0,8.504091262817383,1.8640089035034182,-0.007178467698395251
756,75600.0,8.504091262817383,1.8640089035034182,-0.007178467698395251
757,75700.0,9.437292098999023,2.033899307250977,-0.2991028428077698
758,75800.0,9.437292098999023,2.033899307250977,-0.2991028428077698
759,75900.0,9.437292098999023,2.033899307250977,-0.2991028428077698
760,76000.0,10.84427261352539,1.06480610370636,-1.1868400573730469
761,76100.0,10.84427261352539,1.06480610370636,-1.1868400573730469
762,76200.0,10.126425743103027,0.4713860750198364,-2.177468776702881
763,76300.0,10.126425743103027,0.4713860750198364,-2.177468776702881
764,76400.0,9.772287368774414,1.2490534782409668,-3.06999135017395
765,76500.0,9.772287368774414,1.2490534782409668,-3.06999135017395
766,76600.0,12.471391677856445,1.969292998313904,-1.940579175949097
767,76700.0,12.471391677856445,1.969292998313904,-1.940579175949097
768,76800.0,11.303693771362305,2.4047868251800537,-0.6005984544754028
769,76900.0,11.303693771362305,2.4047868251800537,-0.6005984544754028
770,77000.0,11.303693771362305,2.4047868251800537,-0.6005984544754028
771,77100.0,8.681159973144531,1.3950155973434448,-0.5455635190010071
772,77200.0,8.681159973144531,1.3950155973434448,-0.5455635190010071
773,77300.0,8.681159973144531,1.3950155973434448,-0.5455635190010071
774,77400.0,12.409178733825685,1.380658507347107,-2.730210542678833
775,77500.0,12.409178733825685,1.380658507347107,-2.730210542678833
776,77600.0,8.690732002258299,1.998006820678711,-2.739781856536865
777,77700.0,8.690732002258299,1.998006820678711,-2.739781856536865
778,77800.0,10.116853713989258,1.3519448041915894,-3.5246279239654537
779,77900.0,10.116853713989258,1.3519448041915894,-3.5246279239654537
780,78000.0,8.403593063354492,2.0362920761108403,-1.2490534782409668
781,78100.0,8.403593063354492,2.0362920761108403,-1.2490534782409668
782,78200.0,8.403593063354492,2.0362920761108403,-1.2490534782409668
783,78300.0,7.862814903259277,1.3710873126983645,-0.9978070855140686
784,78400.0,7.862814903259277,1.3710873126983645,-0.9978070855140686
785,78500.0,7.862814903259277,1.3710873126983645,-0.9978070855140686
786,78600.0,10.284351348876953,1.227518081665039,-0.7561319470405579
787,78700.0,10.284351348876953,1.227518081665039,-0.7561319470405579
788,78800.0,9.38943576812744,0.17228324711322784,-2.806780815124512
789,78900.0,9.38943576812744,0.17228324711322784,-2.806780815124512
790,79000.0,9.011369705200195,0.9188438653945924,-3.6299118995666495
791,79100.0,9.011369705200195,0.9188438653945924,-3.6299118995666495
792,79200.0,9.011369705200195,0.9188438653945924,-3.6299118995666495
793,79300.0,7.752745151519775,2.423929214477539,-1.4548362493515017
794,79400.0,7.752745151519775,2.423929214477539,-1.4548362493515017
795,79500.0,8.891729354858398,1.2969098091125488,-1.529013752937317
796,79600.0,8.891729354858398,1.2969098091125488,-1.529013752937317
797,79700.0,9.55214786529541,1.392622709274292,-0.8997013568878174
798,79800.0,9.55214786529541,1.392622709274292,-0.8997013568878174
799,79900.0,9.55214786529541,1.392622709274292,-0.8997013568878174
800,80000.0,10.274779319763184,1.0360921621322632,-1.7204395532608032
801,80100.0,10.274779319763184,1.0360921621322632,-1.7204395532608032
802,80200.0,9.379864692687988,1.9262222051620483,-2.8139593601226807
803,80300.0,9.379864692687988,1.9262222051620483,-2.8139593601226807
804,80400.0,10.782057762145996,1.34476637840271,-2.682354211807251
805,80500.0,10.782057762145996,1.34476637840271,-2.682354211807251
806,80600.0,10.782057762145996,1.34476637840271,-2.682354211807251
807,80700.0,10.877771377563477,2.093719720840454,0.5503491759300232
808,80800.0,10.877771377563477,2.093719720840454,0.5503491759300232
809,80900.0,8.848658561706543,1.3902300596237185,-0.607776939868927
810,81000.0,8.848658561706543,1.3902300596237185,-0.607776939868927
811,81100.0,8.848658561706543,1.3902300596237185,-0.607776939868927
812,81200.0,8.327022552490233,1.921436548233032,-2.553141593933105
813,81300.0,8.327022552490233,1.921436548233032,-2.553141593933105
814,81400.0,8.762516975402832,1.8233308792114256,-1.9573287963867188
815,81500.0,8.762516975402832,1.8233308792114256,-1.9573287963867188
816,81600.0,10.054640769958496,0.6795615553855896,-3.969692707061768
817,81700.0,10.054640769958496,0.6795615553855896,-3.969692707061768
818,81800.0,8.925228118896484,2.3306093215942383,-1.8472589254379272
819,81900.0,8.925228118896484,2.3306093215942383,-1.8472589254379272
820,82000.0,11.279767036437988,1.529013752937317,-0.5288137793540955
821,82100.0,11.279767036437988,1.529013752937317,-0.5288137793540955
822,82200.0,11.279767036437988,1.529013752937317,-0.5288137793540955
823,82300.0,9.107083320617676,1.2131611108779907,-1.0121639966964722
824,82400.0,9.107083320617676,1.2131611108779907,-1.0121639966964722
825,82500.0,5.982056617736816,1.3519448041915894,-2.3330020904541016
826,82600.0,5.982056617736816,1.3519448041915894,-2.3330020904541016
827,82700.0,5.982056617736816,1.3519448041915894,-2.3330020904541016
828,82800.0,9.705288887023926,2.648854732513428,-2.53399920463562
829,82900.0,9.705288887023926,2.648854732513428,-2.53399920463562
830,83000.0,9.848857879638672,0.3613162040710449,-3.744767427444458
831,83100.0,9.848857879638672,0.3613162040710449,-3.744767427444458
832,83200.0,9.413363456726074,0.6771688461303711,-1.6390833854675293
833,83300.0,9.413363456726074,0.6771688461303711,-1.6390833854675293
834,83400.0,7.594818592071532,0.6412764191627502,-2.0243279933929443
835,83500.0,7.594818592071532,0.6412764191627502,-2.0243279933929443
836,83600.0,7.594818592071532,0.6412764191627502,-2.0243279933929443
837,83700.0,9.437292098999023,0.3661018908023834,-3.079562902450561
838,83800.0,9.437292098999023,0.3661018908023834,-3.079562902450561
839,83900.0,9.207581520080566,0.0813559740781784,-2.6081764698028564
840,84000.0,9.207581520080566,0.0813559740781784,-2.6081764698028564
841,84100.0,9.083154678344727,0.00957129057496786,-5.4795637130737305
842,84200.0,9.083154678344727,0.00957129057496786,-5.4795637130737305
843,84300.0,9.083154678344727,0.00957129057496786,-5.4795637130737305
844,84400.0,11.595619201660154,0.6173481941223145,-3.5605196952819824
845,84500.0,11.595619201660154,0.6173481941223145,-3.5605196952819824
846,84600.0,9.15493869781494,1.1509476900100708,-2.366501569747925
847,84700.0,9.15493869781494,1.1509476900100708,-2.366501569747925
848,84800.0,8.939584732055664,1.7252250909805298,-2.617748022079468
849,84900.0,8.939584732055664,1.7252250909805298,-2.617748022079468
850,85000.0,8.939584732055664,1.7252250909805298,-2.617748022079468
851,85100.0,12.935599327087402,0.17946170270442965,-3.5437703132629395
852,85200.0,12.935599327087402,0.17946170270442965,-3.5437703132629395
853,85300.0,8.159524917602539,0.5240281224250793,-3.500699520111084
854,85400.0,8.159524917602539,0.5240281224250793,-3.500699520111084
855,85500.0,9.628718376159668,0.1698903888463974,-3.1250264644622803
856,85600.0,9.628718376159668,0.1698903888463974,-3.1250264644622803
857,85700.0,9.628718376159668,0.1698903888463974,-3.1250264644622803
858,85800.0,8.968299865722656,1.1198409795761108,-1.3399806022644043
859,85900.0,8.968299865722656,1.1198409795761108,-1.3399806022644043
860,86000.0,8.049454689025879,1.3112668991088867,-1.6055840253829956
861,86100.0,8.049454689025879,1.3112668991088867,-1.6055840253829956
862,86200.0,10.394421577453613,0.3038884699344635,-2.364108800888061
863,86300.0,10.394421577453613,0.3038884699344635,-2.364108800888061
864,86400.0,10.394421577453613,0.3038884699344635,-2.364108800888061
865,86500.0,8.116454124450684,0.19142580032348636,-1.8640089035034182
866,86600.0,8.116454124450684,0.19142580032348636,-1.8640089035034182
867,86700.0,9.035298347473145,0.3110669553279877,-3.328416109085083
868,86800.0,9.035298347473145,0.3110669553279877,-3.328416109085083
869,86900.0,9.762716293334961,0.3732803165912628,-3.4097721576690674
870,87000.0,9.762716293334961,0.3732803165912628,-3.4097721576690674
871,87100.0,9.762716293334961,0.3732803165912628,-3.4097721576690674
872,87200.0,9.494720458984377,0.8949156999588013,-1.7012970447540283
873,87300.0,9.494720458984377,0.8949156999588013,-1.7012970447540283
874,87400.0,8.973085403442383,0.7872385978698729,-1.7850456237792969
875,87500.0,8.973085403442383,0.7872385978698729,-1.7850456237792969
876,87600.0,10.14556884765625,1.0360921621322632,-3.129812002182007
877,87700.0,10.14556884765625,1.0360921621322632,-3.129812002182007
878,87800.0,8.997013092041016,0.9427721500396729,-3.053241729736328
879,87900.0,8.997013092041016,0.9427721500396729,-3.053241729736328
880,88000.0,8.997013092041016,0.9427721500396729,-3.053241729736328
881,88100.0,9.74835968017578,-0.3708875179290772,-2.5052852630615234
882,88200.0,9.74835968017578,-0.3708875179290772,-2.5052852630615234
883,88300.0,9.633503913879396,1.2921242713928225,-1.983649969100952
884,88400.0,9.633503913879396,1.2921242713928225,-1.983649969100952
885,88500.0,8.580661773681639,1.1629117727279663,-2.031506299972534
886,88600.0,8.580661773681639,1.1629117727279663,-2.031506299972534
887,88700.0,8.580661773681639,1.1629117727279663,-2.031506299972534
888,88800.0,10.15992546081543,0.7824530005455017,-1.5553346872329712
889,88900.0,10.15992546081543,0.7824530005455017,-1.5553346872329712
890,89000.0,10.241281509399414,-0.15553347766399386,-2.0865414142608643
891,89100.0,10.241281509399414,-0.15553347766399386,-2.0865414142608643
892,89200.0,8.657232284545897,0.8231310248374939,-2.579463005065918
893,89300.0,8.657232284545897,0.8231310248374939,-2.579463005065918
894,89400.0,9.781858444213867,1.241874933242798,-3.45045018196106
895,89500.0,9.781858444213867,1.241874933242798,-3.45045018196106
896,89600.0,12.189038276672365,2.6847469806671143,-2.768495798110962
897,89700.0,12.189038276672365,2.6847469806671143,-2.768495798110962
898,89800.0,12.189038276672365,2.6847469806671143,-2.768495798110962
899,89900.0,9.06401252746582,1.155733346939087,-1.0767701864242554
900,90000.0,9.06401252746582,1.155733346939087,-1.0767701864242554
901,90100.0,11.480762481689453,0.8039883971214294,-1.6079767942428589
902,90200.0,11.480762481689453,0.8039883971214294,-1.6079767942428589
903,90300.0,11.480762481689453,0.8039883971214294,-1.6079767942428589
904,90400.0,8.441878318786621,0.82791668176651,-2.3306093215942383
905,90500.0,8.441878318786621,0.82791668176651,-2.3306093215942383
906,90600.0,9.858428955078123,1.191625714302063,-3.421736478805542
907,90700.0,9.858428955078123,1.191625714302063,-3.421736478805542
908,90800.0,8.915657043457031,1.7204395532608032,-2.2612173557281494
909,90900.0,8.915657043457031,1.7204395532608032,-2.2612173557281494
910,91000.0,8.915657043457031,1.7204395532608032,-2.2612173557281494
911,91100.0,8.930014610290527,1.3998013734817505,-1.179661512374878
912,91200.0,8.930014610290527,1.3998013734817505,-1.179661512374878
913,91300.0,10.332208633422852,0.8662018179893494,-0.9954141974449158
914,91400.0,10.332208633422852,0.8662018179893494,-0.9954141974449158
915,91500.0,10.332208633422852,0.8662018179893494,-0.9954141974449158
916,91600.0,10.619346618652344,0.07896314561367035,-2.5842485427856445
917,91700.0,10.619346618652344,0.07896314561367035,-2.5842485427856445
918,91800.0,9.681360244750977,1.1102697849273682,-3.184847116470337
919,91900.0,9.681360244750977,1.1102697849273682,-3.184847116470337
920,92000.0,12.978670120239258,1.6342979669570925,-3.881158351898194
921,92100.0,12.978670120239258,1.6342979669570925,-3.881158351898194
922,92200.0,10.15035343170166,0.9786643981933594,-1.5720844268798828
923,92300.0,10.15035343170166,0.9786643981933594,-1.5720844268798828
924,92400.0,10.15035343170166,0.9786643981933594,-1.5720844268798828
925,92500.0,9.001798629760742,1.0241280794143677,-1.2658032178878784
926,92600.0,9.001798629760742,1.0241280794143677,-1.2658032178878784
927,92700.0,6.819544315338135,0.6508477926254272,-2.3880369663238525
928,92800.0,6.819544315338135,0.6508477926254272,-2.3880369663238525
929,92900.0,6.819544315338135,0.6508477926254272,-2.3880369663238525
930,93000.0,8.767301559448242,1.6247265338897705,-2.524427890777588
931,93100.0,8.767301559448242,1.6247265338897705,-2.524427890777588
932,93200.0,10.092925071716307,1.2705888748168943,-3.3858442306518555
933,93300.0,10.092925071716307,1.2705888748168943,-3.3858442306518555
934,93400.0,10.092925071716307,1.2705888748168943,-3.3858442306518555
935,93500.0,11.318050384521484,2.0099709033966064,-2.0027925968170166
936,93600.0,11.318050384521484,2.0099709033966064,-2.0027925968170166
937,93700.0,9.834501266479492,0.5096712112426758,-1.7252250909805298
938,93800.0,9.834501266479492,0.5096712112426758,-1.7252250909805298
939,93900.0,7.570890426635742,0.3230310678482056,-3.5820553302764893
940,94000.0,7.570890426635742,0.3230310678482056,-3.5820553302764893
941,94100.0,7.570890426635742,0.3230310678482056,-3.5820553302764893
942,94200.0,8.078168869018555,1.8209381103515625,-2.289931058883667
943,94300.0,8.078168869018555,1.8209381103515625,-2.289931058883667
944,94400.0,10.155139923095703,1.2083754539489746,-3.500699520111084
945,94500.0,10.155139923095703,1.2083754539489746,-3.500699520111084
946,94600.0,10.882556915283203,2.438286304473877,-2.2205395698547363
947,94700.0,10.882556915283203,2.438286304473877,-2.2205395698547363
948,94800.0,10.882556915283203,2.438286304473877,-2.2205395698547363
949,94900.0,8.633303642272951,1.2777673006057741,-0.7561319470405579
950,95000.0,8.633303642272951,1.2777673006057741,-0.7561319470405579
951,95100.0,12.16989517211914,0.4546363055706024,-2.084148406982422
952,95200.0,12.16989517211914,0.4546363055706024,-2.084148406982422
953,95300.0,12.16989517211914,0.4546363055706024,-2.084148406982422
954,95400.0,9.968499183654783,0.18424734473228452,-2.596212387084961
955,95500.0,9.968499183654783,0.18424734473228452,-2.596212387084961
956,95600.0,9.221939086914062,0.916451096534729,-3.9218363761901855
957,95700.0,9.221939086914062,0.916451096534729,-3.9218363761901855
958,95800.0,9.585646629333496,1.7563319206237793,-2.6943180561065674
959,95900.0,9.585646629333496,1.7563319206237793,-2.6943180561065674
960,96000.0,9.585646629333496,1.7563319206237793,-2.6943180561065674
961,96100.0,9.30329418182373,0.8805587291717529,-1.6151552200317385
962,96200.0,9.30329418182373,0.8805587291717529,-1.6151552200317385
963,96300.0,8.532805442810059,1.0097711086273191,-1.4069796800613403
964,96400.0,8.532805442810059,1.0097711086273191,-1.4069796800613403
965,96500.0,9.135796546936037,1.2562319040298462,-3.0269205570220947
966,96600.0,9.135796546936037,1.2562319040298462,-3.0269205570220947
967,96700.0,9.135796546936037,1.2562319040298462,-3.0269205570220947
968,96800.0,8.609375953674316,2.7589242458343506,-1.7730815410614014
969,96900.0,8.609375953674316,2.7589242458343506,-1.7730815410614014
970,97000.0,9.954142570495604,1.294516921043396,-3.426522016525269
971,97100.0,9.954142570495604,1.294516921043396,-3.426522016525269
972,97200.0,8.97787094116211,1.6582260131835938,-1.8951154947280884
973,97300.0,8.97787094116211,1.6582260131835938,-1.8951154947280884
974,97400.0,8.97787094116211,1.6582260131835938,-1.8951154947280884
975,97500.0,8.374878883361816,2.124826431274414,-0.3182453811168671
976,97600.0,8.374878883361816,2.124826431274414,-0.3182453811168671
977,97700.0,12.715458869934082,1.373480200767517,-2.244467735290528
978,97800.0,12.715458869934082,1.373480200767517,-2.244467735290528
979,97900.0,12.715458869934082,1.373480200767517,-2.244467735290528
980,98000.0,10.470992088317873,-0.23688943684101105,-3.3978083133697514
981,98100.0,10.470992088317873,-0.23688943684101105,-3.3978083133697514
982,98200.0,8.260024070739746,-0.04785645008087158,-4.955535888671875
983,98300.0,8.260024070739746,-0.04785645008087158,-4.955535888671875
984,98400.0,11.428120613098145,2.1583259105682373,-2.8043880462646484
985,98500.0,11.428120613098145,2.1583259105682373,-2.8043880462646484
986,98600.0,11.428120613098145,2.1583259105682373,-2.8043880462646484
987,98700.0,8.791230201721191,1.1102697849273682,-1.4380863904953003
988,98800.0,8.791230201721191,1.1102697849273682,-1.4380863904953003
989,98900.0,9.437292098999023,1.2921242713928225,-1.5457634925842283
990,99000.0,9.437292098999023,1.2921242713928225,-1.5457634925842283
991,99100.0,9.69093132019043,2.1032910346984863,-3.3308091163635254
992,99200.0,9.69093132019043,2.1032910346984863,-3.3308091163635254
993,99300.0,9.69093132019043,2.1032910346984863,-3.3308091163635254
994,99400.0,8.288737297058105,1.146162033081055,-3.168097257614136
995,99500.0,8.288737297058105,1.146162033081055,-3.168097257614136
996,99600.0,8.997013092041016,1.1270195245742798,-2.8666017055511475
997,99700.0,8.997013092041016,1.1270195245742798,-2.8666017055511475
998,99800.0,11.27019500732422,1.871187210083008,-4.302295207977295
999,99900.0,11.27019500732422,1.871187210083008,-4.302295207977295
1000,100000.0,9.595218658447266,1.3830513954162598,-2.1702899932861333
1001,100100.0,9.595218658447266,1.3830513954162598,-2.1702899932861333
1002,100200.0,9.595218658447266,1.3830513954162598,-2.1702899932861333
1003,100300.0,10.174281120300293,1.1892328262329102,-1.6941183805465698
1004,100400.0,10.174281120300293,1.1892328262329102,-1.6941183805465698
1005,100500.0,7.814958095550537,0.82791668176651,-1.5457634925842283
1006,100600.0,7.814958095550537,0.82791668176651,-1.5457634925842283
1007,100700.0,7.709674835205077,1.887937068939209,-1.4883356094360352
1008,100800.0,7.709674835205077,1.887937068939209,-1.4883356094360352
1009,100900.0,10.992627143859863,1.1413763761520386,-3.562912940979004
1010,101000.0,10.992627143859863,1.1413763761520386,-3.562912940979004
1011,101100.0,9.360722541809082,2.3258235454559326,-2.2205395698547363
1012,101200.0,9.360722541809082,2.3258235454559326,-2.2205395698547363
1013,101300.0,9.360722541809082,2.3258235454559326,-2.2205395698547363
1014,101400.0,9.121439933776855,1.34476637840271,-1.1222338676452637
1015,101500.0,9.121439933776855,1.34476637840271,-1.1222338676452637
1016,101600.0,10.269994735717773,1.2801601886749268,-1.227518081665039
1017,101700.0,10.269994735717773,1.2801601886749268,-1.227518081665039
1018,101800.0,10.269994735717773,1.2801601886749268,-1.227518081665039
1019,101900.0,10.916057586669922,1.423729419708252,-1.643869161605835
1020,102000.0,10.916057586669922,1.423729419708252,-1.643869161605835
1021,102100.0,10.021141052246094,1.5050854682922363,-2.6799612045288086
1022,102200.0,10.021141052246094,1.5050854682922363,-2.6799612045288086
1023,102300.0,14.208581924438475,2.1535403728485107,-3.0987055301666264
1024,102400.0,14.208581924438475,2.1535403728485107,-3.0987055301666264
1025,102500.0,11.638689994812012,1.6606187820434568,-1.5218352079391482
1026,102600.0,11.638689994812012,1.6606187820434568,-1.5218352079391482
1027,102700.0,8.413164138793945,0.9667003750801086,-0.9786643981933594
1028,102800.0,8.413164138793945,0.9667003750801086,-0.9786643981933594
1029,102900.0,8.413164138793945,0.9667003750801086,-0.9786643981933594
1030,103000.0,10.983055114746094,1.0671988725662231,-1.9070796966552732
1031,103100.0,10.983055114746094,1.0671988725662231,-1.9070796966552732
1032,103200.0,10.389636039733887,0.4809573292732239,-2.610569477081299
1033,103300.0,10.389636039733887,0.4809573292732239,-2.610569477081299
1034,103400.0,10.389636039733887,0.4809573292732239,-2.610569477081299
1035,103500.0,9.643074989318848,1.239482045173645,-3.5700912475585938
1036,103600.0,9.643074989318848,1.239482045173645,-3.5700912475585938
1037,103700.0,8.346165657043457,1.3950155973434448,-2.47896409034729
1038,103800.0,8.346165657043457,1.3950155973434448,-2.47896409034729
1039,103900.0,8.446663856506348,0.6388836503028871,-1.361515998840332
1040,104000.0,8.446663856506348,0.6388836503028871,-1.361515998840332
1041,104100.0,8.446663856506348,0.6388836503028871,-1.361515998840332
1042,104200.0,9.863215446472168,1.155733346939087,-1.6869399547576904
1043,104300.0,9.863215446472168,1.155733346939087,-1.6869399547576904
1044,104400.0,8.839086532592773,1.0384850502014158,-1.5122638940811155
1045,104500.0,8.839086532592773,1.0384850502014158,-1.5122638940811155
1046,104600.0,8.585447311401367,2.2133607864379883,-1.921436548233032
1047,104700.0,8.585447311401367,2.2133607864379883,-1.921436548233032
1048,104800.0,8.585447311401367,2.2133607864379883,-1.921436548233032
1049,104900.0,9.71485996246338,1.8089739084243772,-3.1489543914794917
1050,105000.0,9.71485996246338,1.8089739084243772,-3.1489543914794917
1051,105100.0,9.796216011047363,2.048256158828736,-1.5672988891601562
1052,105200.0,9.796216011047363,2.048256158828736,-1.5672988891601562
1053,105300.0,8.700303077697754,1.5218352079391482,-0.8327022790908813
1054,105400.0,8.700303077697754,1.5218352079391482,-0.8327022790908813
1055,105500.0,10.786844253540039,1.0719845294952393,-1.2705888748168943
1056,105600.0,10.786844253540039,1.0719845294952393,-1.2705888748168943
1057,105700.0,10.786844253540039,1.0719845294952393,-1.2705888748168943
1058,105800.0,10.322636604309082,1.107876896858215,-1.94297194480896
1059,105900.0,10.322636604309082,1.107876896858215,-1.94297194480896
1060,106000.0,9.533005714416504,1.380658507347107,-3.538984537124634
1061,106100.0,9.533005714416504,1.380658507347107,-3.538984537124634
1062,106200.0,9.533005714416504,1.380658507347107,-3.538984537124634
1063,106300.0,10.705488204956056,2.1439690589904785,-2.617748022079468
1064,106400.0,10.705488204956056,2.1439690589904785,-2.617748022079468
1065,106500.0,9.681360244750977,1.6486548185348509,-1.2490534782409668
1066,106600.0,9.681360244750977,1.6486548185348509,-1.2490534782409668
1067,106700.0,9.145368576049805,0.9786643981933594,-1.1748759746551514
1068,106800.0,9.145368576049805,0.9786643981933594,-1.1748759746551514
1069,106900.0,8.135597229003906,0.8135597109794617,-1.2634103298187256
1070,107000.0,8.135597229003906,0.8135597109794617,-1.2634103298187256
1071,107100.0,8.135597229003906,0.8135597109794617,-1.2634103298187256
1072,107200.0,9.60478973388672,1.2346963882446291,-2.390429735183716
1073,107300.0,9.60478973388672,1.2346963882446291,-2.390429735183716
1074,107400.0,9.738788604736328,0.8494520783424377,-2.96949315071106
1075,107500.0,9.738788604736328,0.8494520783424377,-2.96949315071106
1076,107600.0,9.738788604736328,0.8494520783424377,-2.96949315071106
1077,107700.0,11.34676456451416,2.2205395698547363,-1.5098710060119631
1078,107800.0,11.34676456451416,2.2205395698547363,-1.5098710060119631
1079,107900.0,8.968299865722656,0.6819544434547424,-1.6079767942428589
1080,108000.0,8.968299865722656,0.6819544434547424,-1.6079767942428589
1081,108100.0,7.188039302825928,1.7802598476409912,-2.5555346012115483
1082,108200.0,7.188039302825928,1.7802598476409912,-2.5555346012115483
1083,108300.0,7.188039302825928,1.7802598476409912,-2.5555346012115483
1084,108400.0,9.260223388671877,0.5982056856155396,-2.5866410732269287
1085,108500.0,9.260223388671877,0.5982056856155396,-2.5866410732269287
1086,108600.0,11.140981674194336,0.8925228118896484,-4.201796531677246
1087,108700.0,11.140981674194336,0.8925228118896484,-4.201796531677246
1088,108800.0,11.140981674194336,0.8925228118896484,-4.201796531677246
1089,108900.0,10.705488204956056,2.502892255783081,-1.373480200767517
1090,109000.0,10.705488204956056,2.502892255783081,-1.373480200767517
1091,109100.0,8.551947593688965,1.3519448041915894,-0.4953142702579498
1092,109200.0,8.551947593688965,1.3519448041915894,-0.4953142702579498
1093,109300.0,8.551947593688965,1.3519448041915894,-0.4953142702579498
1094,109400.0,11.035696983337402,1.5122638940811155,-1.8209381103515625
1095,109500.0,11.035696983337402,1.5122638940811155,-1.8209381103515625
1096,109600.0,9.31765079498291,0.5551348924636841,-2.9934213161468506
1097,109700.0,9.31765079498291,0.5551348924636841,-2.9934213161468506
1098,109800.0,9.3128662109375,0.8087739944458008,-3.742374420166016
1099,109900.0,9.3128662109375,0.8087739944458008,-3.742374420166016
1100,110000.0,7.953742504119872,1.730010747909546,-1.2825528383255005
1101,110100.0,7.953742504119872,1.730010747909546,-1.2825528383255005
1102,110200.0,7.953742504119872,1.730010747909546,-1.2825528383255005
1103,110300.0,8.49452018737793,1.7635102272033691,-1.1509476900100708
1104,110400.0,8.49452018737793,1.7635102272033691,-1.1509476900100708
1105,110500.0,9.796216011047363,1.043270707130432,-1.124626636505127
1106,110600.0,9.796216011047363,1.043270707130432,-1.124626636505127
1107,110700.0,9.509077072143556,0.7154539823532104,-2.050648927688598
1108,110800.0,9.509077072143556,0.7154539823532104,-2.050648927688598
1109,110900.0,9.236295700073242,1.5720844268798828,-3.3068809509277344
1110,111000.0,9.236295700073242,1.5720844268798828,-3.3068809509277344
1111,111100.0,9.236295700073242,1.5720844268798828,-3.3068809509277344
1112,111200.0,9.724431037902832,2.2468602657318115,-3.0436704158782963
1113,111300.0,9.724431037902832,2.2468602657318115,-3.0436704158782963
1114,111400.0,8.614161491394043,1.6486548185348509,-1.4500504732131958
1115,111500.0,8.614161491394043,1.6486548185348509,-1.4500504732131958
1116,111600.0,8.614161491394043,1.6486548185348509,-1.4500504732131958
1117,111700.0,9.55214786529541,1.2921242713928225,-1.1629117727279663
1118,111800.0,9.55214786529541,1.2921242713928225,-1.1629117727279663
1119,111900.0,8.508876800537111,1.1030912399291992,-1.7084753513336182
1120,112000.0,8.508876800537111,1.1030912399291992,-1.7084753513336182
1121,112100.0,8.82951545715332,1.9956141710281368,-3.103491306304932
1122,112200.0,8.82951545715332,1.9956141710281368,-3.103491306304932
1123,112300.0,11.308479309082033,2.1439690589904785,-3.3786656856536865
1124,112400.0,11.308479309082033,2.1439690589904785,-3.3786656856536865
1125,112500.0,9.087940216064453,1.4931212663650513,-1.0839486122131348
1126,112600.0,9.087940216064453,1.4931212663650513,-1.0839486122131348
1127,112700.0,9.087940216064453,1.4931212663650513,-1.0839486122131348
1128,112800.0,10.40877914428711,1.129412293434143,-1.2777673006057741
1129,112900.0,10.40877914428711,1.129412293434143,-1.2777673006057741
1130,113000.0,8.044669151306152,1.2777673006057741,-1.964507341384888
1131,113100.0,8.044669151306152,1.2777673006057741,-1.964507341384888
1132,113200.0,8.647661209106445,1.9669002294540403,-2.337787628173828
1133,113300.0,8.647661209106445,1.9669002294540403,-2.337787628173828
1134,113400.0,8.647661209106445,1.9669002294540403,-2.337787628173828
1135,113500.0,11.389835357666016,1.4404792785644531,-2.715853452682495
1136,113600.0,11.389835357666016,1.4404792785644531,-2.715853452682495
1137,113700.0,9.973284721374512,1.9453648328781128,-0.6652047038078308
1138,113800.0,9.973284721374512,1.9453648328781128,-0.6652047038078308
1139,113900.0,9.920641899108887,1.1150553226470947,-1.0959126949310305
1140,114000.0,9.920641899108887,1.1150553226470947,-1.0959126949310305
1141,114100.0,5.7619171142578125,1.5601203441619873,-1.8927226066589355
1142,114200.0,5.7619171142578125,1.5601203441619873,-1.8927226066589355
1143,114300.0,5.7619171142578125,1.5601203441619873,-1.8927226066589355
1144,114400.0,8.968299865722656,1.3830513954162598,-2.830709218978882
1145,114500.0,8.968299865722656,1.3830513954162598,-2.830709218978882
1146,114600.0,10.403992652893066,0.5455635190010071,-3.830909013748169
1147,114700.0,10.403992652893066,0.5455635190010071,-3.830909013748169
1148,114800.0,10.77727222442627,2.935993194580078,-1.3854442834854126
1149,114900.0,10.77727222442627,2.935993194580078,-1.3854442834854126
1150,115000.0,10.77727222442627,2.935993194580078,-1.3854442834854126
1151,115100.0,8.633303642272951,1.2562319040298462,-0.696311354637146
1152,115200.0,8.633303642272951,1.2562319040298462,-0.696311354637146
1153,115300.0,10.600205421447754,1.0408778190612793,-1.6582260131835938
1154,115400.0,10.600205421447754,1.0408778190612793,-1.6582260131835938
1155,115500.0,8.791230201721191,1.7802598476409912,-2.4598214626312256
1156,115600.0,8.791230201721191,1.7802598476409912,-2.4598214626312256
1157,115700.0,10.887343406677246,1.1198409795761108,-3.615554809570313
1158,115800.0,10.887343406677246,1.1198409795761108,-3.615554809570313
1159,115900.0,10.887343406677246,1.1198409795761108,-3.615554809570313
1160,116000.0,11.882757186889648,2.5746772289276123,-1.2658032178878784
1161,116100.0,11.882757186889648,2.5746772289276123,-1.2658032178878784
1162,116200.0,9.044869422912598,1.5744771957397459,-0.23688943684101105
1163,116300.0,9.044869422912598,1.5744771957397459,-0.23688943684101105
1164,116400.0,10.782057762145996,1.1748759746551514,-0.9212367534637452
1165,116500.0,10.782057762145996,1.1748759746551514,-0.9212367534637452
1166,116600.0,10.782057762145996,1.1748759746551514,-0.9212367534637452
1167,116700.0,9.035298347473145,0.2488535493612289,-3.0173492431640625
1168,116800.0,9.035298347473145,0.2488535493612289,-3.0173492431640625
1169,116900.0,10.437491416931152,1.3543376922607422,-4.072584152221681
1170,117000.0,10.437491416931152,1.3543376922607422,-4.072584152221681
1171,117100.0,8.197811126708983,1.9046868085861208,-0.8901299238204956
1172,117200.0,8.197811126708983,1.9046868085861208,-0.8901299238204956
1173,117300.0,8.992227554321289,1.423729419708252,-0.7441678047180176
1174,117400.0,8.992227554321289,1.423729419708252,-0.7441678047180176
1175,117500.0,8.992227554321289,1.423729419708252,-0.7441678047180176
1176,117600.0,9.461220741271973,1.37587308883667,-1.7156537771224976
1177,117700.0,9.461220741271973,1.37587308883667,-1.7156537771224976
1178,117800.0,8.71944522857666,1.804188132286072,-1.710868239402771
1179,117900.0,8.71944522857666,1.804188132286072,-1.710868239402771
1180,118000.0,8.71944522857666,1.804188132286072,-1.710868239402771
1181,118100.0,9.06879711151123,1.797009825706482,-3.1728827953338623
1182,118200.0,9.06879711151123,1.797009825706482,-3.1728827953338623
1183,118300.0,11.557332992553713,2.234896183013916,-2.7948169708251958
1184,118400.0,11.557332992553713,2.234896183013916,-2.7948169708251958
1185,118500.0,9.140583038330078,1.6917256116867063,-1.210768222808838
1186,118600.0,9.140583038330078,1.6917256116867063,-1.210768222808838
1187,118700.0,10.131211280822754,1.227518081665039,-1.3902300596237185
1188,118800.0,10.131211280822754,1.227518081665039,-1.3902300596237185
1189,118900.0,7.781459331512451,1.5936198234558103,-1.935793399810791
1190,119000.0,7.781459331512451,1.5936198234558103,-1.935793399810791
1191,119100.0,7.781459331512451,1.5936198234558103,-1.935793399810791
1192,119200.0,8.537590980529785,1.7371891736984253,-2.5124638080596924
1193,119300.0,8.537590980529785,1.7371891736984253,-2.5124638080596924
1194,119400.0,10.241281509399414,0.9619146585464478,-3.1489543914794917
1195,119500.0,10.241281509399414,0.9619146585464478,-3.1489543914794917
1196,119600.0,10.241281509399414,0.9619146585464478,-3.1489543914794917
1197,119700.0,10.738987922668457,2.770888566970825,-1.2323036193847656
1198,119800.0,10.738987922668457,2.770888566970825,-1.2323036193847656
1199,119900.0,9.020941734313963,1.2179466485977173,-1.0217353105545044
1200,120000.0,9.020941734313963,1.2179466485977173,-1.0217353105545044
1201,120100.0,11.897113800048828,1.2131611108779907,-1.1030912399291992
1202,120200.0,11.897113800048828,1.2131611108779907,-1.1030912399291992
1203,120300.0,8.590232849121094,0.5264209508895874,-2.9216365814208984
1204,120400.0,8.590232849121094,0.5264209508895874,-2.9216365814208984
1205,120500.0,10.03549861907959,0.5623133182525635,-3.962514162063599
1206,120600.0,10.03549861907959,0.5623133182525635,-3.962514162063599
1207,120700.0,10.03549861907959,0.5623133182525635,-3.962514162063599
1208,120800.0,10.475777626037598,2.483749866485596,-1.9286150932312007
1209,120900.0,10.475777626037598,2.483749866485596,-1.9286150932312007
1210,121000.0,8.97787094116211,1.1509476900100708,-0.9882357716560364
1211,121100.0,8.97787094116211,1.1509476900100708,-0.9882357716560364
1212,121200.0,10.07378387451172,0.8638089299201965,-1.0504491329193115
1213,121300.0,10.07378387451172,0.8638089299201965,-1.0504491329193115
1214,121400.0,10.07378387451172,0.8638089299201965,-1.0504491329193115
1215,121500.0,8.98265552520752,0.7154539823532104,-2.1415762901306152
1216,121600.0,8.98265552520752,0.7154539823532104,-2.1415762901306152
1217,121700.0,9.044869422912598,1.8544375896453855,-3.294916868209839
1218,121800.0,9.044869422912598,1.8544375896453855,-3.294916868209839
1219,121900.0,13.557732582092285,1.306481122970581,-3.4983065128326416
1220,122000.0,13.557732582092285,1.306481122970581,-3.4983065128326416
1221,122100.0,9.049654960632324,1.239482045173645,-1.5385849475860596
1222,122200.0,9.049654960632324,1.239482045173645,-1.5385849475860596
1223,122300.0,9.973284721374512,1.392622709274292,-1.1150553226470947
1224,122400.0,9.973284721374512,1.392622709274292,-1.1150553226470947
1225,122500.0,9.973284721374512,1.392622709274292,-1.1150553226470947
1226,122600.0,8.504091262817383,1.1892328262329102,-2.4813570976257324
1227,122700.0,8.504091262817383,1.1892328262329102,-2.4813570976257324
1228,122800.0,8.767301559448242,1.9525433778762815,-2.715853452682495
1229,122900.0,8.767301559448242,1.9525433778762815,-2.715853452682495
1230,123000.0,12.725030899047852,1.6606187820434568,-2.754138946533203
1231,123100.0,12.725030899047852,1.6606187820434568,-2.754138946533203
1232,123200.0,10.987841606140137,1.9501504898071291,-1.3280165195465088
1233,123300.0,10.987841606140137,1.9501504898071291,-1.3280165195465088
1234,123400.0,10.987841606140137,1.9501504898071291,-1.3280165195465088
1235,123500.0,8.403593063354492,1.00259268283844,-0.8997013568878174
1236,123600.0,8.403593063354492,1.00259268283844,-0.8997013568878174
1237,123700.0,12.150753021240234,1.1700903177261353,-0.784845769405365
1238,123800.0,12.150753021240234,1.1700903177261353,-0.784845769405365
1239,123900.0,9.140583038330078,1.1629117727279663,-2.603391170501709
1240,124000.0,9.140583038330078,1.1629117727279663,-2.603391170501709
1241,124100.0,10.542776107788086,0.696311354637146,-4.0941195487976065
1242,124200.0,10.542776107788086,0.696311354637146,-4.0941195487976065
1243,124300.0,10.542776107788086,0.696311354637146,-4.0941195487976065
1244,124400.0,11.260623931884766,2.806780815124512,-0.9882357716560364
1245,124500.0,11.260623931884766,2.806780815124512,-0.9882357716560364
1246,124600.0,8.346165657043457,1.1485549211502075,-0.20338992774486545
1247,124700.0,8.346165657043457,1.1485549211502075,-0.20338992774486545
1248,124800.0,8.346165657043457,1.1485549211502075,-0.20338992774486545
1249,124900.0,12.136396408081055,0.5886343717575073,-1.7491532564163208
1250,125000.0,12.136396408081055,0.5886343717575073,-1.7491532564163208
1251,125100.0,8.580661773681639,2.2396819591522217,-2.6057839393615723
1252,125200.0,8.580661773681639,2.2396819591522217,-2.6057839393615723
1253,125300.0,11.313264846801758,1.9740787744522093,-3.4289150238037114
1254,125400.0,11.313264846801758,1.9740787744522093,-3.4289150238037114
1255,125500.0,10.963912963867188,1.935793399810791,-3.1441688537597656
1256,125600.0,10.963912963867188,1.935793399810791,-3.1441688537597656
1257,125700.0,10.963912963867188,1.935793399810791,-3.1441688537597656
1258,125800.0,9.772287368774414,1.3375877141952517,-1.00259268283844
1259,125900.0,9.772287368774414,1.3375877141952517,-1.00259268283844
1260,126000.0,9.772287368774414,1.3375877141952517,-1.00259268283844
1261,126100.0,7.183253765106201,0.6771688461303711,-1.9932212829589844
1262,126200.0,7.183253765106201,0.6771688461303711,-1.9932212829589844
1263,126300.0,8.834300994873047,1.1940184831619265,-2.565105676651001
1264,126400.0,8.834300994873047,1.1940184831619265,-2.565105676651001
1265,126500.0,13.543376922607422,1.6342979669570925,-3.050848960876465
1266,126600.0,13.543376922607422,1.6342979669570925,-3.050848960876465
1267,126700.0,10.308279991149902,2.1128623485565186,-1.4715858697891235
1268,126800.0,10.308279991149902,2.1128623485565186,-1.4715858697891235
1269,126900.0,10.308279991149902,2.1128623485565186,-1.4715858697891235
1270,127000.0,9.025726318359377,0.9044869542121888,-1.4213367700576782
1271,127100.0,9.025726318359377,0.9044869542121888,-1.4213367700576782
1272,127200.0,6.130411148071289,1.246660590171814,-2.1032910346984863
1273,127300.0,6.130411148071289,1.246660590171814,-2.1032910346984863
1274,127400.0,6.130411148071289,1.246660590171814,-2.1032910346984863
1275,127500.0,8.379664421081543,1.5337992906570437,-2.414358139038086
1276,127600.0,8.379664421081543,1.5337992906570437,-2.414358139038086
1277,127700.0,12.55274772644043,2.368894338607788,-2.51007080078125
1278,127800.0,12.55274772644043,2.368894338607788,-2.51007080078125
1279,127900.0,10.470992088317873,2.8402805328369136,-0.7369893789291382
1280,128000.0,10.470992088317873,2.8402805328369136,-0.7369893789291382
1281,128100.0,9.523433685302734,1.0791629552841189,-0.9667003750801086
1282,128200.0,9.523433685302734,1.0791629552841189,-0.9667003750801086
1283,128300.0,12.01675510406494,1.2610174417495728,-1.1389836072921753
1284,128400.0,12.01675510406494,1.2610174417495728,-1.1389836072921753
1285,128500.0,12.01675510406494,1.2610174417495728,-1.1389836072921753
1286,128600.0,9.528220176696776,0.7609176039695741,-2.2061824798583984
1287,128700.0,9.528220176696776,0.7609176039695741,-2.2061824798583984
1288,128800.0,9.67657470703125,0.6173481941223145,-3.79262375831604
1289,128900.0,9.67657470703125,0.6173481941223145,-3.79262375831604
1290,129000.0,9.241080284118652,2.7014968395233154,-1.2681961059570312
1291,129100.0,9.241080284118652,2.7014968395233154,-1.2681961059570312
1292,129200.0,8.70508861541748,1.2562319040298462,-0.969093143939972
1293,129300.0,8.70508861541748,1.2562319040298462,-0.969093143939972
1294,129400.0,8.70508861541748,1.2562319040298462,-0.969093143939972
1295,129500.0,12.289536476135256,0.8709874749183655,-0.4689932465553284
1296,129600.0,12.289536476135256,0.8709874749183655,-0.4689932465553284
1297,129700.0,9.327221870422363,-0.04785645008087158,-1.9573287963867188
1298,129800.0,9.327221870422363,-0.04785645008087158,-1.9573287963867188
1299,129900.0,9.327221870422363,-0.04785645008087158,-1.9573287963867188
1300,130000.0,9.083154678344727,0.9284151792526244,-3.445664882659912
1301,130100.0,9.083154678344727,0.9284151792526244,-3.445664882659912
1302,130200.0,9.260223388671877,2.522034883499145,-0.9188438653945924
1303,130300.0,9.260223388671877,2.522034883499145,-0.9188438653945924
1304,130400.0,9.475577354431152,1.4715858697891235,-0.8590233325958252
1305,130500.0,9.475577354431152,1.4715858697891235,-0.8590233325958252
1306,130600.0,9.475577354431152,1.4715858697891235,-0.8590233325958252
1307,130700.0,11.676974296569824,1.2346963882446291,-0.5479563474655151
1308,130800.0,11.676974296569824,1.2346963882446291,-0.5479563474655151
1309,130900.0,9.456435203552246,0.5120640397071838,-3.1489543914794917
1310,131000.0,9.456435203552246,0.5120640397071838,-3.1489543914794917
1311,131100.0,9.456435203552246,0.5120640397071838,-3.1489543914794917
1312,131200.0,9.274580955505373,0.794417142868042,-4.0414772033691415
1313,131300.0,9.274580955505373,0.794417142868042,-4.0414772033691415
1314,131400.0,11.045268058776855,2.0673987865448002,-2.691925525665283
1315,131500.0,11.045268058776855,2.0673987865448002,-2.691925525665283
1316,131600.0,9.399007797241213,0.9236294627189636,-1.9477576017379759
1317,131700.0,9.399007797241213,0.9236294627189636,-1.9477576017379759
1318,131800.0,10.250852584838867,1.0001999139785769,-1.34476637840271
1319,131900.0,10.250852584838867,1.0001999139785769,-1.34476637840271
1320,132000.0,6.967899799346924,1.4500504732131958,-1.9525433778762815
1321,132100.0,6.967899799346924,1.4500504732131958,-1.9525433778762815
1322,132200.0,6.967899799346924,1.4500504732131958,-1.9525433778762815
1323,132300.0,8.891729354858398,2.65842604637146,-2.67278265953064
1324,132400.0,8.891729354858398,2.65842604637146,-2.67278265953064
1325,132500.0,12.011969566345215,2.232503652572632,-2.3018953800201416
1326,132600.0,12.011969566345215,2.232503652572632,-2.3018953800201416
1327,132700.0,10.552348136901855,2.423929214477539,-0.9260223507881165
1328,132800.0,10.552348136901855,2.423929214477539,-0.9260223507881165
1329,132900.0,10.552348136901855,2.423929214477539,-0.9260223507881165
1330,133000.0,8.848658561706543,1.289731502532959,-1.093519926071167
1331,133100.0,8.848658561706543,1.289731502532959,-1.093519926071167
1332,133200.0,12.198609352111815,1.4763716459274292,-1.4811571836471558
1333,133300.0,12.198609352111815,1.4763716459274292,-1.4811571836471558
1334,133400.0,9.710074424743652,0.2679961323738098,-2.53399920463562
1335,133500.0,9.710074424743652,0.2679961323738098,-2.53399920463562
1336,133600.0,9.408578872680664,0.8901299238204956,-3.594019651412964
1337,133700.0,9.408578872680664,0.8901299238204956,-3.594019651412964
1338,133800.0,9.408578872680664,0.8901299238204956,-3.594019651412964
1339,133900.0,8.264809608459473,0.5862415432929993,-1.0001999139785769
1340,134000.0,8.264809608459473,0.5862415432929993,-1.0001999139785769
1341,134100.0,9.250652313232422,2.203789472579956,-1.1629117727279663
1342,134200.0,9.250652313232422,2.203789472579956,-1.1629117727279663
1343,134300.0,9.250652313232422,2.203789472579956,-1.1629117727279663
1344,134400.0,10.064212799072266,0.9451649785041808,-1.6079767942428589
1345,134500.0,10.064212799072266,0.9451649785041808,-1.6079767942428589
1346,134600.0,8.126025199890138,1.2753744125366209,-1.7874385118484497
1347,134700.0,8.126025199890138,1.2753744125366209,-1.7874385118484497
1348,134800.0,9.279366493225098,2.2061824798583984,-2.562713146209717
1349,134900.0,9.279366493225098,2.2061824798583984,-2.562713146209717
1350,135000.0,9.279366493225098,2.2061824798583984,-2.562713146209717
1351,135100.0,11.600403785705565,1.9334007501602173,-2.25403904914856
1352,135200.0,11.600403785705565,1.9334007501602173,-2.25403904914856
1353,135300.0,10.805987358093262,2.416750907897949,-0.6125625967979431
1354,135400.0,10.805987358093262,2.416750907897949,-0.6125625967979431
1355,135500.0,8.38444995880127,1.1940184831619265,-0.9332008361816406
1356,135600.0,8.38444995880127,1.1940184831619265,-0.9332008361816406
1357,135700.0,8.38444995880127,1.1940184831619265,-0.9332008361816406
1358,135800.0,12.892528533935547,1.2370892763137815,-1.6845470666885376
1359,135900.0,12.892528533935547,1.2370892763137815,-1.6845470666885376
1360,136000.0,9.580862045288086,0.397208571434021,-2.062613010406494
1361,136100.0,9.580862045288086,0.397208571434021,-2.062613010406494
1362,136200.0,8.920442581176758,1.1150553226470947,-3.062812805175781
1363,136300.0,8.920442581176758,1.1150553226470947,-3.062812805175781
1364,136400.0,8.920442581176758,1.1150553226470947,-3.062812805175781
1365,136500.0,9.442078590393066,2.0793628692626958,-2.3617160320281982
1366,136600.0,9.442078590393066,2.0793628692626958,-2.3617160320281982
1367,136700.0,9.174081802368164,1.832902193069458,-1.3351951837539673
1368,136800.0,9.174081802368164,1.832902193069458,-1.3351951837539673
1369,136900.0,9.31765079498291,1.2873386144638062,-1.392622709274292
1370,137000.0,9.31765079498291,1.2873386144638062,-1.392622709274292
1371,137100.0,9.31765079498291,1.2873386144638062,-1.392622709274292
1372,137200.0,6.111269474029541,1.3375877141952517,-2.230110645294189
1373,137300.0,6.111269474029541,1.3375877141952517,-2.230110645294189
1374,137400.0,8.255237579345701,1.871187210083008,-1.921436548233032
1375,137500.0,8.255237579345701,1.871187210083008,-1.921436548233032
1376,137600.0,10.85384464263916,1.5672988891601562,-2.9048867225646973
1377,137700.0,10.85384464263916,1.5672988891601562,-2.9048867225646973
1378,137800.0,10.85384464263916,1.5672988891601562,-2.9048867225646973
1379,137900.0,9.757929801940918,2.6153552532196045,-1.373480200767517
1380,138000.0,9.757929801940918,2.6153552532196045,-1.373480200767517
1381,138100.0,8.48016357421875,1.6989041566848757,-0.5072783827781677
1382,138200.0,8.48016357421875,1.6989041566848757,-0.5072783827781677
1383,138300.0,12.902100563049315,1.031306505203247,-1.4452648162841797
1384,138400.0,12.902100563049315,1.031306505203247,-1.4452648162841797
1385,138500.0,12.902100563049315,1.031306505203247,-1.4452648162841797
1386,138600.0,9.571290969848633,0.3182453811168671,-2.3712873458862305
1387,138700.0,9.571290969848633,0.3182453811168671,-2.3712873458862305
1388,138800.0,8.590232849121094,1.1198409795761108,-3.3068809509277344
1389,138900.0,8.590232849121094,1.1198409795761108,-3.3068809509277344
1390,139000.0,8.590232849121094,1.1198409795761108,-3.3068809509277344
1391,139100.0,9.74835968017578,2.3473589420318604,-2.426322221755981
1392,139200.0,9.74835968017578,2.3473589420318604,-2.426322221755981
1393,139300.0,10.336994171142578,1.7252250909805298,-1.0671988725662231
1394,139400.0,10.336994171142578,1.7252250909805298,-1.0671988725662231
1395,139500.0,8.60459041595459,1.2658032178878784,-1.1222338676452637
1396,139600.0,8.60459041595459,1.2658032178878784,-1.1222338676452637
1397,139700.0,9.633503913879396,2.2253248691558842,-2.5004994869232178
1398,139800.0,9.633503913879396,2.2253248691558842,-2.5004994869232178
1399,139900.0,10.600205421447754,0.7872385978698729,-2.2229323387146
1400,140000.0,10.600205421447754,0.7872385978698729,-2.2229323387146
1401,140100.0,8.695517539978027,1.0983055830001829,-3.304487943649292
1402,140200.0,8.695517539978027,1.0983055830001829,-3.304487943649292
1403,140300.0,11.557332992553713,2.416750907897949,-2.6249265670776367
1404,140400.0,11.557332992553713,2.416750907897949,-2.6249265670776367
1405,140500.0,11.557332992553713,2.416750907897949,-2.6249265670776367
1406,140600.0,10.030712127685547,1.3878371715545654,-1.1629117727279663
1407,140700.0,10.030712127685547,1.3878371715545654,-1.1629117727279663
1408,140800.0,8.48016357421875,1.2251251935958862,-1.0336993932724001
1409,140900.0,8.48016357421875,1.2251251935958862,-1.0336993932724001
1410,141000.0,8.48016357421875,1.2251251935958862,-1.0336993932724001
1411,141100.0,7.3363938331604,1.978864312171936,-2.8977081775665283
1412,141200.0,7.3363938331604,1.978864312171936,-2.8977081775665283
1413,141300.0,9.107083320617676,2.3066811561584477,-2.4693927764892583
1414,141400.0,9.107083320617676,2.3066811561584477,-2.4693927764892583
1415,141500.0,10.188638687133787,1.2227323055267334,-3.469593048095703
1416,141600.0,10.188638687133787,1.2227323055267334,-3.469593048095703
1417,141700.0,8.504091262817383,1.8903299570083616,-0.9284151792526244
1418,141800.0,8.504091262817383,1.8903299570083616,-0.9284151792526244
1419,141900.0,8.269595146179201,1.550549030303955,-0.6819544434547424
1420,142000.0,8.269595146179201,1.550549030303955,-0.6819544434547424
1421,142100.0,8.269595146179201,1.550549030303955,-0.6819544434547424
1422,142200.0,9.31765079498291,1.34476637840271,-1.0600204467773438
1423,142300.0,9.31765079498291,1.34476637840271,-1.0600204467773438
1424,142400.0,10.121639251708984,1.241874933242798,-2.4287149906158447
1425,142500.0,10.121639251708984,1.241874933242798,-2.4287149906158447
1426,142600.0,8.164310455322267,2.65842604637146,-1.7204395532608032
1427,142700.0,8.164310455322267,2.65842604637146,-1.7204395532608032
1428,142800.0,8.164310455322267,2.65842604637146,-1.7204395532608032
1429,142900.0,10.442277908325195,1.7084753513336182,-2.5986053943634038
1430,143000.0,10.442277908325195,1.7084753513336182,-2.5986053943634038
1431,143100.0,10.877771377563477,2.108076810836792,-0.7920243144035339
1432,143200.0,10.877771377563477,2.108076810836792,-0.7920243144035339
1433,143300.0,8.111669540405272,1.4763716459274292,-0.2440679222345352
1434,143400.0,8.111669540405272,1.4763716459274292,-0.2440679222345352
1435,143500.0,8.111669540405272,1.4763716459274292,-0.2440679222345352
1436,143600.0,13.194024085998535,1.0456634759902954,-1.641476273536682
1437,143700.0,13.194024085998535,1.0456634759902954,-1.641476273536682
1438,143800.0,11.365907669067385,0.794417142868042,-1.8281164169311523
1439,143900.0,11.365907669067385,0.794417142868042,-1.8281164169311523
1440,144000.0,11.365907669067385,0.794417142868042,-1.8281164169311523
1441,144100.0,8.853443145751953,0.8590233325958252,-3.69930362701416
1442,144200.0,8.853443145751953,0.8590233325958252,-3.69930362701416
1443,144300.0,10.954340934753418,1.9716858863830569,-2.366501569747925
1444,144400.0,10.954340934753418,1.9716858863830569,-2.366501569747925
1445,144500.0,9.183652877807617,1.210768222808838,-1.0193424224853516
1446,144600.0,9.183652877807617,1.210768222808838,-1.0193424224853516
1447,144700.0,9.183652877807617,1.210768222808838,-1.0193424224853516
1448,144800.0,8.877371788024902,1.057627558708191,-1.66301167011261
1449,144900.0,8.877371788024902,1.057627558708191,-1.66301167011261
1450,145000.0,6.470191955566406,1.8305093050003047,-2.6799612045288086
1451,145100.0,6.470191955566406,1.8305093050003047,-2.6799612045288086
1452,145200.0,6.470191955566406,1.8305093050003047,-2.6799612045288086
1453,145300.0,8.059026718139647,1.7994027137756348,-2.132004976272583
1454,145400.0,8.059026718139647,1.7994027137756348,-2.132004976272583
1455,145500.0,10.140782356262207,2.2372891902923584,-2.8594231605529785
1456,145600.0,10.140782356262207,2.2372891902923584,-2.8594231605529785
1457,145700.0,8.772088050842285,1.9453648328781128,-1.4189438819885254
1458,145800.0,8.772088050842285,1.9453648328781128,-1.4189438819885254
1459,145900.0,8.432307243347168,1.5098710060119631,-0.8063812851905823
1460,146000.0,8.432307243347168,1.5098710060119631,-0.8063812851905823
1461,146100.0,8.432307243347168,1.5098710060119631,-0.8063812851905823
1462,146200.0,9.418149948120117,1.2705888748168943,-0.9092726111412048
1463,146300.0,9.418149948120117,1.2705888748168943,-0.9092726111412048
1464,146400.0,11.49512004852295,1.1653046607971191,-1.5314064025878906
1465,146500.0,11.49512004852295,1.1653046607971191,-1.5314064025878906
1466,146600.0,11.49512004852295,1.1653046607971191,-1.5314064025878906
1467,146700.0,9.255437850952148,1.741974949836731,-2.900100946426392
1468,146800.0,9.255437850952148,1.741974949836731,-2.900100946426392
1469,146900.0,12.43310546875,1.706082463264465,-2.589033842086792
1470,147000.0,12.43310546875,1.706082463264465,-2.589033842086792
1471,147100.0,11.418549537658693,1.9716858863830569,-0.6005984544754028
1472,147200.0,11.418549537658693,1.9716858863830569,-0.6005984544754028
1473,147300.0,11.418549537658693,1.9716858863830569,-0.6005984544754028
1474,147400.0,8.437092781066895,1.0360921621322632,-0.9762716889381408
1475,147500.0,8.437092781066895,1.0360921621322632,-0.9762716889381408
1476,147600.0,12.303894996643065,1.5098710060119631,-1.6725829839706419
1477,147700.0,12.303894996643065,1.5098710060119631,-1.6725829839706419
1478,147800.0,12.303894996643065,1.5098710060119631,-1.6725829839706419
1479,147900.0,10.17906665802002,1.0863415002822876,-2.603391170501709
1480,148000.0,10.17906665802002,1.0863415002822876,-2.603391170501709
1481,148100.0,9.174081802368164,0.607776939868927,-3.8524444103240967
1482,148200.0,9.174081802368164,0.607776939868927,-3.8524444103240967
1483,148300.0,10.365707397460938,1.7850456237792969,-1.868794322013855
1484,148400.0,10.365707397460938,1.7850456237792969,-1.868794322013855
1485,148500.0,10.365707397460938,1.7850456237792969,-1.868794322013855
1486,148600.0,8.628519058227539,0.9595218896865844,-0.9236294627189636
1487,148700.0,8.628519058227539,0.9595218896865844,-0.9236294627189636
1488,148800.0,9.566505432128906,1.155733346939087,-1.4093725681304932
1489,148900.0,9.566505432128906,1.155733346939087,-1.4093725681304932
1490,149000.0,9.566505432128906,1.155733346939087,-1.4093725681304932
1491,149100.0,9.781858444213867,0.5383850932121277,-1.3471590280532837
1492,149200.0,9.781858444213867,0.5383850932121277,-1.3471590280532837
1493,149300.0,8.729016304016112,3.31884503364563,-1.3998013734817505
1494,149400.0,8.729016304016112,3.31884503364563,-1.3998013734817505
1495,149500.0,10.772488594055176,2.0889341831207275,-2.4047868251800537
1496,149600.0,10.772488594055176,2.0889341831207275,-2.4047868251800537
1497,149700.0,10.772488594055176,2.0889341831207275,-2.4047868251800537
1498,149800.0,11.217552185058594,1.9860427379608157,-0.6317051649093628
1499,149900.0,11.217552185058594,1.9860427379608157,-0.6317051649093628
1500,150000.0,8.011170387268066,1.804188132286072,-0.2416750937700272
1501,150100.0,8.011170387268066,1.804188132286072,-0.2416750937700272
1502,150200.0,12.547962188720705,1.2370892763137815,-1.8113667964935305
1503,150300.0,12.547962188720705,1.2370892763137815,-1.8113667964935305
1504,150400.0,12.547962188720705,1.2370892763137815,-1.8113667964935305
1505,150500.0,10.552348136901855,1.998006820678711,-1.1150553226470947
1506,150600.0,10.552348136901855,1.998006820678711,-1.1150553226470947
1507,150700.0,9.375079154968262,1.0863415002822876,-3.268595933914185
1508,150800.0,9.375079154968262,1.0863415002822876,-3.268595933914185
1509,150900.0,13.55294704437256,1.7922240495681765,-3.206382274627685
1510,151000.0,13.55294704437256,1.7922240495681765,-3.206382274627685
1511,151100.0,10.983055114746094,2.108076810836792,-0.7130610942840576
1512,151200.0,10.983055114746094,2.108076810836792,-0.7130610942840576
1513,151300.0,8.968299865722656,1.37587308883667,-0.7393822073936462
1514,151400.0,8.968299865722656,1.37587308883667,-0.7393822073936462
1515,151500.0,12.44267749786377,0.9619146585464478,-1.3351951837539673
1516,151600.0,12.44267749786377,0.9619146585464478,-1.3351951837539673
1517,151700.0,12.44267749786377,0.9619146585464478,-1.3351951837539673
1518,151800.0,10.614561080932617,-0.0406779870390892,-2.6249265670776367
1519,151900.0,10.614561080932617,-0.0406779870390892,-2.6249265670776367
1520,152000.0,8.757731437683105,1.832902193069458,-2.8187451362609863
1521,152100.0,8.757731437683105,1.832902193069458,-2.8187451362609863
1522,152200.0,13.42852020263672,1.7443678379058838,-3.3714869022369385
1523,152300.0,13.42852020263672,1.7443678379058838,-3.3714869022369385
1524,152400.0,11.227123260498047,1.3854442834854126,-1.66301167011261
1525,152500.0,11.227123260498047,1.3854442834854126,-1.66301167011261
1526,152600.0,11.227123260498047,1.3854442834854126,-1.66301167011261
1527,152700.0,8.197811126708983,1.0456634759902954,-1.8281164169311523
1528,152800.0,8.197811126708983,1.0456634759902954,-1.8281164169311523
1529,152900.0,6.216552734375,1.2490534782409668,-2.746960401535034
1530,153000.0,6.216552734375,1.2490534782409668,-2.746960401535034
1531,153100.0,6.216552734375,1.2490534782409668,-2.746960401535034
1532,153200.0,8.293522834777832,2.3066811561584477,-2.438286304473877
1533,153300.0,8.293522834777832,2.3066811561584477,-2.438286304473877
1534,153400.0,9.853643417358398,1.5122638940811155,-3.1704900264739986
1535,153500.0,9.853643417358398,1.5122638940811155,-3.1704900264739986
1536,153600.0,10.466205596923828,2.3976082801818848,-1.0600204467773438
1537,153700.0,10.466205596923828,2.3976082801818848,-1.0600204467773438
1538,153800.0,10.466205596923828,2.3976082801818848,-1.0600204467773438
1539,153900.0,8.963513374328613,1.1676974296569824,-1.1341978311538696
1540,154000.0,8.963513374328613,1.1676974296569824,-1.1341978311538696
1541,154100.0,11.619546890258787,0.7609176039695741,-2.3784656524658203
1542,154200.0,11.619546890258787,0.7609176039695741,-2.3784656524658203
1543,154300.0,11.619546890258787,0.7609176039695741,-2.3784656524658203
1544,154400.0,9.51386260986328,1.0408778190612793,-2.648854732513428
1545,154500.0,9.51386260986328,1.0408778190612793,-2.648854732513428
1546,154600.0,9.399007797241213,0.9092726111412048,-3.8237307071685787
1547,154700.0,9.399007797241213,0.9092726111412048,-3.8237307071685787
1548,154800.0,7.99681282043457,1.7324036359786987,-1.7706886529922483
1549,154900.0,7.99681282043457,1.7324036359786987,-1.7706886529922483
1550,155000.0,7.99681282043457,1.7324036359786987,-1.7706886529922483
1551,155100.0,8.638089179992676,0.9116654396057128,-1.4141581058502195
1552,155200.0,8.638089179992676,0.9116654396057128,-1.4141581058502195
1553,155300.0,8.925228118896484,1.3232309818267822,-1.4763716459274292
1554,155400.0,8.925228118896484,1.3232309818267822,-1.4763716459274292
1555,155500.0,8.925228118896484,1.3232309818267822,-1.4763716459274292
1556,155600.0,10.432705879211426,1.3519448041915894,-1.3902300596237185
1557,155700.0,10.432705879211426,1.3519448041915894,-1.3902300596237185
1558,155800.0,9.346364974975586,0.9762716889381408,-2.9623143672943115
1559,155900.0,9.346364974975586,0.9762716889381408,-2.9623143672943115
1560,156000.0,10.360921859741213,1.8305093050003047,-1.6390833854675293
1561,156100.0,10.360921859741213,1.8305093050003047,-1.6390833854675293
1562,156200.0,11.026127815246582,2.053041696548462,-0.5288137793540955
1563,156300.0,11.026127815246582,2.053041696548462,-0.5288137793540955
1564,156400.0,11.026127815246582,2.053041696548462,-0.5288137793540955
1565,156500.0,9.049654960632324,1.2370892763137815,-0.9451649785041808
1566,156600.0,9.049654960632324,1.2370892763137815,-0.9451649785041808
1567,156700.0,11.145767211914062,1.3184452056884766,-1.6582260131835938
1568,156800.0,11.145767211914062,1.3184452056884766,-1.6582260131835938
1569,156900.0,10.360921859741213,0.3661018908023834,-3.0149567127227783
1570,157000.0,10.360921859741213,0.3661018908023834,-3.0149567127227783
1571,157100.0,10.360921859741213,0.3661018908023834,-3.0149567127227783
1572,157200.0,8.98265552520752,0.5288137793540955,-3.5509488582611084
1573,157300.0,8.98265552520752,0.5288137793540955,-3.5509488582611084
1574,157400.0,9.973284721374512,1.8664016723632808,-1.7324036359786987
1575,157500.0,9.973284721374512,1.8664016723632808,-1.7324036359786987
1576,157600.0,8.264809608459473,1.5529417991638184,-0.6915256977081299
1577,157700.0,8.264809608459473,1.5529417991638184,-0.6915256977081299
1578,157800.0,8.264809608459473,1.5529417991638184,-0.6915256977081299
1579,157900.0,9.499505043029783,1.3902300596237185,-1.2729815244674685
1580,158000.0,9.499505043029783,1.3902300596237185,-1.2729815244674685
1581,158100.0,9.63828945159912,2.7014968395233154,-2.1056838035583496
1582,158200.0,9.63828945159912,2.7014968395233154,-2.1056838035583496
1583,158300.0,9.63828945159912,2.7014968395233154,-2.1056838035583496
1584,158400.0,8.95394229888916,2.0745770931243896,-2.483749866485596
1585,158500.0,8.95394229888916,2.0745770931243896,-2.483749866485596
1586,158600.0,13.529020309448242,2.2827527523040767,-2.366501569747925
1587,158700.0,13.529020309448242,2.2827527523040767,-2.366501569747925
1588,158800.0,10.571491241455078,1.8281164169311523,-0.38045880198478704
1589,158900.0,10.571491241455078,1.8281164169311523,-0.38045880198478704
1590,159000.0,8.422735214233397,1.244267821311951,-0.5647061467170715
1591,159100.0,8.422735214233397,1.244267821311951,-0.5647061467170715
1592,159200.0,12.284751892089846,1.1437692642211914,-1.0911270380020142
1593,159300.0,12.284751892089846,1.1437692642211914,-1.0911270380020142
1594,159400.0,12.284751892089846,1.1437692642211914,-1.0911270380020142
1595,159500.0,11.538190841674805,0.26560330390930176,-2.6799612045288086
1596,159600.0,11.538190841674805,0.26560330390930176,-2.6799612045288086
1597,159700.0,9.035298347473145,1.380658507347107,-3.304487943649292
1598,159800.0,9.035298347473145,1.380658507347107,-3.304487943649292
1599,159900.0,12.332609176635742,2.1750757694244385,-2.543570280075073
1600,160000.0,12.332609176635742,2.1750757694244385,-2.543570280075073
1601,160100.0,12.332609176635742,2.1750757694244385,-2.543570280075073
1602,160200.0,10.030712127685547,1.7491532564163208,-0.6436693072319031
1603,160300.0,10.030712127685547,1.7491532564163208,-0.6436693072319031
1604,160400.0,8.992227554321289,1.3280165195465088,-0.7752745151519775
1605,160500.0,8.992227554321289,1.3280165195465088,-0.7752745151519775
1606,160600.0,7.441678524017334,1.7204395532608032,-2.383251428604126
1607,160700.0,7.441678524017334,1.7204395532608032,-2.383251428604126
1608,160800.0,8.944371223449707,2.407179594039917,-2.682354211807251
1609,160900.0,8.944371223449707,2.407179594039917,-2.682354211807251
1610,161000.0,8.944371223449707,2.407179594039917,-2.682354211807251
1611,161100.0,10.250852584838867,1.6342979669570925,-2.8737800121307373
1612,161200.0,10.250852584838867,1.6342979669570925,-2.8737800121307373
1613,161300.0,10.447062492370604,1.9501504898071291,-0.9236294627189636
1614,161400.0,10.447062492370604,1.9501504898071291,-0.9236294627189636
1615,161500.0,7.977671146392822,1.6510475873947144,-0.5599204897880554
1616,161600.0,7.977671146392822,1.6510475873947144,-0.5599204897880554
1617,161700.0,7.977671146392822,1.6510475873947144,-0.5599204897880554
1618,161800.0,10.274779319763184,0.9906285405158995,-0.9738788008689879
1619,161900.0,10.274779319763184,0.9906285405158995,-0.9738788008689879
1620,162000.0,10.84427261352539,0.6867401003837585,-1.964507341384888
1621,162100.0,10.84427261352539,0.6867401003837585,-1.964507341384888
1622,162200.0,9.049654960632324,0.8135597109794617,-3.684947013854981
1623,162300.0,9.049654960632324,0.8135597109794617,-3.684947013854981
1624,162400.0,13.4763765335083,1.978864312171936,-2.682354211807251
1625,162500.0,13.4763765335083,1.978864312171936,-2.682354211807251
1626,162600.0,13.4763765335083,1.978864312171936,-2.682354211807251
1627,162700.0,10.619346618652344,1.8951154947280884,-0.5647061467170715
1628,162800.0,10.619346618652344,1.8951154947280884,-0.5647061467170715
1629,162900.0,8.767301559448242,0.9978070855140686,-1.3351951837539673
1630,163000.0,8.767301559448242,0.9978070855140686,-1.3351951837539673
1631,163100.0,8.767301559448242,0.9978070855140686,-1.3351951837539673
1632,163200.0,6.963113307952881,0.9930213689804076,-2.610569477081299
1633,163300.0,6.963113307952881,0.9930213689804076,-2.610569477081299
1634,163400.0,8.968299865722656,2.1750757694244385,-2.3401806354522705
1635,163500.0,8.968299865722656,2.1750757694244385,-2.3401806354522705
1636,163600.0,8.968299865722656,2.1750757694244385,-2.3401806354522705
1637,163700.0,9.647860527038574,1.3998013734817505,-3.13220477104187
1638,163800.0,9.647860527038574,1.3998013734817505,-3.13220477104187
1639,163900.0,11.274980545043945,2.1607186794281006,-1.0719845294952393
1640,164000.0,11.274980545043945,2.1607186794281006,-1.0719845294952393
1641,164100.0,11.274980545043945,2.1607186794281006,-1.0719845294952393
1642,164200.0,8.073383331298826,-0.0526420958340168,-1.184447169303894
1643,164300.0,8.073383331298826,-0.0526420958340168,-1.184447169303894
1644,164400.0,8.097311973571777,0.031106693670153618,-3.873979806900024
1645,164500.0,8.097311973571777,0.031106693670153618,-3.873979806900024
1646,164600.0,8.738588333129883,2.026720762252808,-3.0939197540283203
1647,164700.0,8.738588333129883,2.026720762252808,-3.0939197540283203
1648,164800.0,8.738588333129883,2.026720762252808,-3.0939197540283203
1649,164900.0,9.379864692687988,1.954936146736145,-3.1968109607696533
1650,165000.0,9.379864692687988,1.954936146736145,-3.1968109607696533
1651,165100.0,11.648260116577148,3.1585259437561035,-0.2105683833360672
1652,165200.0,11.648260116577148,3.1585259437561035,-0.2105683833360672
1653,165300.0,9.556933403015137,0.6460621356964111,-0.5024927258491516
1654,165400.0,9.556933403015137,0.6460621356964111,-0.5024927258491516
1655,165500.0,9.556933403015137,0.6460621356964111,-0.5024927258491516
1656,165600.0,12.227323532104492,0.19621144235134125,-1.6103696823120115
1657,165700.0,12.227323532104492,0.19621144235134125,-1.6103696823120115
1658,165800.0,8.561518669128418,1.4476575851440432,-2.531606435775757
1659,165900.0,8.561518669128418,1.4476575851440432,-2.531606435775757
1660,166000.0,10.193424224853516,1.0911270380020142,-3.649054527282715
1661,166100.0,10.193424224853516,1.0911270380020142,-3.649054527282715
1662,166200.0,10.193424224853516,1.0911270380020142,-3.649054527282715
1663,166300.0,8.484949111938478,1.7778673171997068,-1.6606187820434568
1664,166400.0,8.484949111938478,1.7778673171997068,-1.6606187820434568
1665,166500.0,9.31765079498291,1.4356936216354368,-1.0863415002822876
1666,166600.0,9.31765079498291,1.4356936216354368,-1.0863415002822876
1667,166700.0,9.31765079498291,1.4356936216354368,-1.0863415002822876
1668,166800.0,9.504291534423828,0.6652047038078308,-0.6221339106559753
1669,166900.0,9.504291534423828,0.6652047038078308,-0.6221339106559753
1670,167000.0,11.44247817993164,0.7010970115661621,-1.8185452222824097
1671,167100.0,11.44247817993164,0.7010970115661621,-1.8185452222824097
1672,167200.0,9.221939086914062,1.1676974296569824,-3.3930225372314453
1673,167300.0,9.221939086914062,1.1676974296569824,-3.3930225372314453
1674,167400.0,12.696316719055176,1.8735800981521609,-2.8211379051208496
1675,167500.0,12.696316719055176,1.8735800981521609,-2.8211379051208496
1676,167600.0,12.696316719055176,1.8735800981521609,-2.8211379051208496
1677,167700.0,10.80120086669922,2.0554347038269043,-0.7657032012939453
1678,167800.0,10.80120086669922,2.0554347038269043,-0.7657032012939453
1679,167900.0,8.781659126281737,1.4500504732131958,-0.6843472719192505
1680,168000.0,8.781659126281737,1.4500504732131958,-0.6843472719192505
1681,168100.0,12.75853157043457,0.8733802437782288,-1.062413215637207
1682,168200.0,12.75853157043457,0.8733802437782288,-1.062413215637207
1683,168300.0,10.432705879211426,0.3924228847026825,-2.567498683929444
1684,168400.0,10.432705879211426,0.3924228847026825,-2.567498683929444
1685,168500.0,10.432705879211426,0.3924228847026825,-2.567498683929444
1686,168600.0,8.408378601074219,0.94037926197052,-4.488935470581055
1687,168700.0,8.408378601074219,0.94037926197052,-4.488935470581055
1688,168800.0,13.438091278076172,2.108076810836792,-3.177668571472168
1689,168900.0,13.438091278076172,2.108076810836792,-3.177668571472168
1690,169000.0,9.743573188781738,1.2658032178878784,-1.4380863904953003
1691,169100.0,9.743573188781738,1.2658032178878784,-1.4380863904953003
1692,169200.0,9.547362327575684,1.0217353105545044,-1.5529417991638184
1693,169300.0,9.547362327575684,1.0217353105545044,-1.5529417991638184
1694,169400.0,6.781259536743164,1.519442439079285,-1.9956141710281368
1695,169500.0,6.781259536743164,1.519442439079285,-1.9956141710281368
1696,169600.0,9.470791816711426,2.514856576919556,-2.65842604637146
1697,169700.0,9.470791816711426,2.514856576919556,-2.65842604637146
1698,169800.0,10.504491806030273,0.5694918036460876,-3.7830524444580083
1699,169900.0,10.504491806030273,0.5694918036460876,-3.7830524444580083
1700,170000.0,10.504491806030273,0.5694918036460876,-3.7830524444580083
1701,170100.0,9.92542839050293,1.6151552200317385,-1.289731502532959
1702,170200.0,9.92542839050293,1.6151552200317385,-1.289731502532959
1703,170300.0,8.068597793579103,1.7347965240478516,-1.7180466651916504
1704,170400.0,8.068597793579103,1.7347965240478516,-1.7180466651916504
1705,170500.0,8.068597793579103,1.7347965240478516,-1.7180466651916504
1706,170600.0,10.671989440917967,1.4572290182113647,-0.8925228118896484
1707,170700.0,10.671989440917967,1.4572290182113647,-0.8925228118896484
1708,170800.0,10.729416847229004,0.8063812851905823,-2.2468602657318115
1709,170900.0,10.729416847229004,0.8063812851905823,-2.2468602657318115
1710,171000.0,8.82951545715332,0.9308080077171326,-3.9792640209198
1711,171100.0,8.82951545715332,0.9308080077171326,-3.9792640209198
1712,171200.0,11.499905586242676,1.8735800981521609,-3.053241729736328
1713,171300.0,11.499905586242676,1.8735800981521609,-3.053241729736328
1714,171400.0,9.96371364593506,1.4213367700576782,-1.4189438819885254
1715,171500.0,9.96371364593506,1.4213367700576782,-1.4189438819885254
1716,171600.0,9.96371364593506,1.4213367700576782,-1.4189438819885254
1717,171700.0,9.17886734008789,1.2538390159606934,-1.5984054803848269
1718,171800.0,9.17886734008789,1.2538390159606934,-1.5984054803848269
1719,171900.0,5.8959150314331055,1.8400806188583372,-2.706282377243042
1720,172000.0,5.8959150314331055,1.8400806188583372,-2.706282377243042
1721,172100.0,5.8959150314331055,1.8400806188583372,-2.706282377243042
1722,172200.0,8.681159973144531,2.2229323387146,-2.462214469909668
1723,172300.0,8.681159973144531,2.2229323387146,-2.462214469909668
1724,172400.0,10.518847465515137,1.1389836072921753,-3.4121649265289307
1725,172500.0,10.518847465515137,1.1389836072921753,-3.4121649265289307
1726,172600.0,10.360921859741213,2.5076780319213867,-1.0097711086273191
1727,172700.0,10.360921859741213,2.5076780319213867,-1.0097711086273191
1728,172800.0,8.585447311401367,1.5050854682922363,-0.7010970115661621
1729,172900.0,8.585447311401367,1.5050854682922363,-0.7010970115661621
1730,173000.0,8.585447311401367,1.5050854682922363,-0.7010970115661621
