,timestamp,ax,ay,az
0,0.0,0.6302735805511475,-9.29069995880127,2.45285964012146
1,50.0,0.6302735805511475,-9.29069995880127,2.45285964012146
2,100.0,0.6302735805511475,-9.29069995880127,2.45285964012146
3,150.0,0.6302735805511475,-9.29069995880127,2.45285964012146
4,200.0,0.5781996846199036,-9.222464561462402,2.4672248363494877
5,250.0,0.5781996846199036,-9.222464561462402,2.4672248363494877
6,300.0,0.5781996846199036,-9.222464561462402,2.4672248363494877
7,350.0,0.5781996846199036,-9.222464561462402,2.4672248363494877
8,400.0,0.5722141861915588,-10.537480354309082,2.5498247146606445
9,450.0,0.5722141861915588,-10.537480354309082,2.5498247146606445
10,500.0,0.5722141861915588,-10.537480354309082,2.5498247146606445
11,550.0,0.9151836037635804,-9.189544677734377,1.8806453943252563
12,600.0,0.9151836037635804,-9.189544677734377,1.8806453943252563
13,650.0,0.9151836037635804,-9.189544677734377,1.8806453943252563
14,700.0,0.9151836037635804,-9.189544677734377,1.8806453943252563
15,750.0,0.18315643072128296,-9.264363288879396,2.28406834602356
16,800.0,0.18315643072128296,-9.264363288879396,2.28406834602356
17,850.0,0.18315643072128296,-9.264363288879396,2.28406834602356
18,900.0,0.11671733111143112,-9.220070838928224,2.406771183013916
19,950.0,0.11671733111143112,-9.220070838928224,2.406771183013916
20,1000.0,0.11671733111143112,-9.220070838928224,2.406771183013916
21,1050.0,0.11671733111143112,-9.220070838928224,2.406771183013916
22,1100.0,0.7433996200561523,-9.08838939666748,2.880823135375977
23,1150.0,0.7433996200561523,-9.08838939666748,2.880823135375977
24,1200.0,0.7433996200561523,-9.08838939666748,2.880823135375977
25,1250.0,0.7433996200561523,-9.08838939666748,2.880823135375977
26,1300.0,1.8112136125564573,-8.818443298339844,1.981800436973572
27,1350.0,1.8112136125564573,-8.818443298339844,1.981800436973572
28,1400.0,1.8112136125564573,-8.818443298339844,1.981800436973572
29,1450.0,-0.4997895956039429,-9.807249069213867,-0.811634361743927
30,1500.0,-0.4997895956039429,-9.807249069213867,-0.811634361743927
31,1550.0,-0.4997895956039429,-9.807249069213867,-0.811634361743927
32,1600.0,-0.4997895956039429,-9.807249069213867,-0.811634361743927
33,1650.0,-0.5213374495506287,-9.81024169921875,-0.07900865375995636
34,1700.0,-0.5213374495506287,-9.81024169921875,-0.07900865375995636
35,1750.0,-0.5213374495506287,-9.81024169921875,-0.07900865375995636
36,1800.0,0.8990227580070496,-9.048885345458984,0.304063618183136
37,1850.0,0.8990227580070496,-9.048885345458984,0.304063618183136
38,1900.0,0.8990227580070496,-9.048885345458984,0.304063618183136
39,1950.0,0.8990227580070496,-9.048885345458984,0.304063618183136
40,1000.0,0.11671733111143112,-9.220070838928224,2.406771183013916
41,1050.0,0.11671733111143112,-9.220070838928224,2.406771183013916
42,1100.0,0.7433996200561523,-9.08838939666748,2.880823135375977
43,1150.0,0.7433996200561523,-9.08838939666748,2.880823135375977
44,1200.0,0.7433996200561523,-9.08838939666748,2.880823135375977
45,1250.0,0.7433996200561523,-9.08838939666748,2.880823135375977
46,1300.0,1.8112136125564573,-8.818443298339844,1.981800436973572
47,1350.0,1.8112136125564573,-8.818443298339844,1.981800436973572
48,1400.0,1.8112136125564573,-8.818443298339844,1.981800436973572
49,1450.0,-0.4997895956039429,-9.807249069213867,-0.811634361743927
50,1500.0,-0.4997895956039429,-9.807249069213867,-0.811634361743927
51,1550.0,-0.4997895956039429,-9.807249069213867,-0.811634361743927
52,1600.0,-0.4997895956039429,-9.807249069213867,-0.811634361743927
53,1650.0,-0.5213374495506287,-9.81024169921875,-0.07900865375995636
54,1700.0,-0.5213374495506287,-9.81024169921875,-0.07900865375995636
55,1750.0,-0.5213374495506287,-9.81024169921875,-0.07900865375995636
56,1800.0,0.8990227580070496,-9.048885345458984,0.304063618183136
57,1850.0,0.8990227580070496,-9.048885345458984,0.304063618183136
58,1900.0,0.8990227580070496,-9.048885345458984,0.304063618183136
59,1950.0,0.8990227580070496,-9.048885345458984,0.304063618183136
60,2000.0,-1.0887632369995115,-9.926959037780762,2.205658197402954
61,2050.0,-1.0887632369995115,-9.926959037780762,2.205658197402954
62,2100.0,-1.0887632369995115,-9.926959037780762,2.205658197402954
63,2150.0,-0.6386532783508301,-8.539519309997559,2.78625226020813
64,2200.0,-0.6386532783508301,-8.539519309997559,2.78625226020813
65,2250.0,-0.6386532783508301,-8.539519309997559,2.78625226020813
66,2300.0,-0.6386532783508301,-8.539519309997559,2.78625226020813
67,2350.0,-0.25079262256622314,-10.301651000976564,0.8277952671051025
68,2400.0,-0.25079262256622314,-10.301651000976564,0.8277952671051025
69,2450.0,-0.25079262256622314,-10.301651000976564,0.8277952671051025
70,2500.0,-0.25079262256622314,-10.301651000976564,0.8277952671051025
71,2550.0,-2.1057004928588867,-9.794678688049316,0.8637082576751709
72,2600.0,-2.1057004928588867,-9.794678688049316,0.8637082576751709
73,2650.0,-2.1057004928588867,-9.794678688049316,0.8637082576751709
74,2700.0,0.2603694200515747,-9.560047149658203,1.498770236968994
75,2750.0,0.2603694200515747,-9.560047149658203,1.498770236968994
76,2800.0,0.2603694200515747,-9.560047149658203,1.498770236968994
77,2850.0,0.2603694200515747,-9.560047149658203,1.498770236968994
78,2900.0,-0.9307458996772766,-9.640253067016602,1.0983400344848633
79,2950.0,-0.9307458996772766,-9.640253067016602,1.0983400344848633
80,2000.0,-1.0887632369995115,-9.926959037780762,2.205658197402954
81,2050.0,-1.0887632369995115,-9.926959037780762,2.205658197402954
82,2100.0,-1.0887632369995115,-9.926959037780762,2.205658197402954
83,2150.0,-0.6386532783508301,-8.539519309997559,2.78625226020813
84,2200.0,-0.6386532783508301,-8.539519309997559,2.78625226020813
85,2250.0,-0.6386532783508301,-8.539519309997559,2.78625226020813
86,2300.0,-0.6386532783508301,-8.539519309997559,2.78625226020813
87,2350.0,-0.25079262256622314,-10.301651000976564,0.8277952671051025
88,2400.0,-0.25079262256622314,-10.301651000976564,0.8277952671051025
89,2450.0,-0.25079262256622314,-10.301651000976564,0.8277952671051025
90,2500.0,-0.25079262256622314,-10.301651000976564,0.8277952671051025
91,2550.0,-2.1057004928588867,-9.794678688049316,0.8637082576751709
92,2600.0,-2.1057004928588867,-9.794678688049316,0.8637082576751709
93,2650.0,-2.1057004928588867,-9.794678688049316,0.8637082576751709
94,2700.0,0.2603694200515747,-9.560047149658203,1.498770236968994
95,2750.0,0.2603694200515747,-9.560047149658203,1.498770236968994
96,2800.0,0.2603694200515747,-9.560047149658203,1.498770236968994
97,2850.0,0.2603694200515747,-9.560047149658203,1.498770236968994
98,2900.0,-0.9307458996772766,-9.640253067016602,1.0983400344848633
99,2950.0,-0.9307458996772766,-9.640253067016602,1.0983400344848633
100,3000.0,-0.9307458996772766,-9.640253067016602,1.0983400344848633
101,3050.0,-0.9307458996772766,-9.640253067016602,1.0983400344848633
102,3100.0,0.6703764796257019,-10.922348022460938,2.663549423217773
103,3150.0,0.6703764796257019,-10.922348022460938,2.663549423217773
104,3200.0,0.6703764796257019,-10.922348022460938,2.663549423217773
105,3250.0,0.9421183466911316,-9.61571216583252,2.6443958282470703
106,3300.0,0.9421183466911316,-9.61571216583252,2.6443958282470703
107,3350.0,0.9421183466911316,-9.61571216583252,2.6443958282470703
108,3400.0,0.9421183466911316,-9.61571216583252,2.6443958282470703
109,3450.0,0.4531026780605316,-8.160037994384767,2.571372509002685
110,3500.0,0.4531026780605316,-8.160037994384767,2.571372509002685
111,3550.0,0.4531026780605316,-8.160037994384767,2.571372509002685
112,3600.0,0.2855085432529449,-8.24383544921875,2.9927520751953125
113,3650.0,0.2855085432529449,-8.24383544921875,2.9927520751953125
114,3700.0,0.2855085432529449,-8.24383544921875,2.9927520751953125
115,3750.0,0.2855085432529449,-8.24383544921875,2.9927520751953125
116,3800.0,-1.0642226934432983,-8.059481620788574,3.1483752727508545
117,3850.0,-1.0642226934432983,-8.059481620788574,3.1483752727508545
118,3900.0,-1.0642226934432983,-8.059481620788574,3.1483752727508545
119,3950.0,-1.0642226934432983,-8.059481620788574,3.1483752727508545
120,3000.0,-0.9307458996772766,-9.640253067016602,1.0983400344848633
121,3050.0,-0.9307458996772766,-9.640253067016602,1.0983400344848633
122,3100.0,0.6703764796257019,-10.922348022460938,2.663549423217773
123,3150.0,0.6703764796257019,-10.922348022460938,2.663549423217773
124,3200.0,0.6703764796257019,-10.922348022460938,2.663549423217773
125,3250.0,0.9421183466911316,-9.61571216583252,2.6443958282470703
126,3300.0,0.9421183466911316,-9.61571216583252,2.6443958282470703
127,3350.0,0.9421183466911316,-9.61571216583252,2.6443958282470703
128,3400.0,0.9421183466911316,-9.61571216583252,2.6443958282470703
129,3450.0,0.4531026780605316,-8.160037994384767,2.571372509002685
130,3500.0,0.4531026780605316,-8.160037994384767,2.571372509002685
131,3550.0,0.4531026780605316,-8.160037994384767,2.571372509002685
132,3600.0,0.2855085432529449,-8.24383544921875,2.9927520751953125
133,3650.0,0.2855085432529449,-8.24383544921875,2.9927520751953125
134,3700.0,0.2855085432529449,-8.24383544921875,2.9927520751953125
135,3750.0,0.2855085432529449,-8.24383544921875,2.9927520751953125
136,3800.0,-1.0642226934432983,-8.059481620788574,3.1483752727508545
137,3850.0,-1.0642226934432983,-8.059481620788574,3.1483752727508545
138,3900.0,-1.0642226934432983,-8.059481620788574,3.1483752727508545
139,3950.0,-1.0642226934432983,-8.059481620788574,3.1483752727508545
140,4000.0,0.839766263961792,-9.093177795410156,1.655590534210205
141,4050.0,0.839766263961792,-9.093177795410156,1.655590534210205
142,4100.0,0.839766263961792,-9.093177795410156,1.655590534210205
143,4150.0,-0.24181437492370605,-9.211690902709961,1.5292962789535522
144,4200.0,-0.24181437492370605,-9.211690902709961,1.5292962789535522
145,4250.0,-0.24181437492370605,-9.211690902709961,1.5292962789535522
146,4300.0,-0.24181437492370605,-9.211690902709961,1.5292962789535522
147,4350.0,-0.1191115379333496,-9.618106842041016,0.4938040971755981
148,4400.0,-0.1191115379333496,-9.618106842041016,0.4938040971755981
149,4450.0,-0.1191115379333496,-9.618106842041016,0.4938040971755981
150,4500.0,-0.3052607178688049,-9.635464668273926,1.3096283674240112
151,4550.0,-0.3052607178688049,-9.635464668273926,1.3096283674240112
152,4600.0,-0.3052607178688049,-9.635464668273926,1.3096283674240112
153,4650.0,-0.3052607178688049,-9.635464668273926,1.3096283674240112
154,4700.0,-1.644816517829895,-9.869498252868652,-2.683301448822021
155,4750.0,-1.644816517829895,-9.869498252868652,-2.683301448822021
156,4800.0,-1.644816517829895,-9.869498252868652,-2.683301448822021
157,4850.0,-1.644816517829895,-9.869498252868652,-2.683301448822021
158,4900.0,-0.28311434388160706,-9.251194953918457,2.076371431350708
159,4950.0,-0.28311434388160706,-9.251194953918457,2.076371431350708
160,4000.0,0.839766263961792,-9.093177795410156,1.655590534210205
161,4050.0,0.839766263961792,-9.093177795410156,1.655590534210205
162,4100.0,0.839766263961792,-9.093177795410156,1.655590534210205
163,4150.0,-0.24181437492370605,-9.211690902709961,1.5292962789535522
164,4200.0,-0.24181437492370605,-9.211690902709961,1.5292962789535522
165,4250.0,-0.24181437492370605,-9.211690902709961,1.5292962789535522
166,4300.0,-0.24181437492370605,-9.211690902709961,1.5292962789535522
167,4350.0,-0.1191115379333496,-9.618106842041016,0.4938040971755981
168,4400.0,-0.1191115379333496,-9.618106842041016,0.4938040971755981
169,4450.0,-0.1191115379333496,-9.618106842041016,0.4938040971755981
170,4500.0,-0.3052607178688049,-9.635464668273926,1.3096283674240112
171,4550.0,-0.3052607178688049,-9.635464668273926,1.3096283674240112
172,4600.0,-0.3052607178688049,-9.635464668273926,1.3096283674240112
173,4650.0,-0.3052607178688049,-9.635464668273926,1.3096283674240112
174,4700.0,-1.644816517829895,-9.869498252868652,-2.683301448822021
175,4750.0,-1.644816517829895,-9.869498252868652,-2.683301448822021
176,4800.0,-1.644816517829895,-9.869498252868652,-2.683301448822021
177,4850.0,-1.644816517829895,-9.869498252868652,-2.683301448822021
178,4900.0,-0.28311434388160706,-9.251194953918457,2.076371431350708
179,4950.0,-0.28311434388160706,-9.251194953918457,2.076371431350708
180,5000.0,-0.28311434388160706,-9.251194953918457,2.076371431350708
181,5050.0,1.6992846727371216,-7.9852614402771,2.316390037536621
182,5100.0,1.6992846727371216,-7.9852614402771,2.316390037536621
183,5150.0,1.6992846727371216,-7.9852614402771,2.316390037536621
184,5200.0,1.6992846727371216,-7.9852614402771,2.316390037536621
185,5250.0,0.9361328482627868,-8.177395820617676,3.7020344734191895
186,5300.0,0.9361328482627868,-8.177395820617676,3.7020344734191895
187,5350.0,0.9361328482627868,-8.177395820617676,3.7020344734191895
188,5400.0,1.095347285270691,-9.870096206665039,2.6449942588806152
189,5450.0,1.095347285270691,-9.870096206665039,2.6449942588806152
190,5500.0,1.095347285270691,-9.870096206665039,2.6449942588806152
191,5550.0,1.095347285270691,-9.870096206665039,2.6449942588806152
192,5600.0,1.007360339164734,-9.206902503967283,2.2661118507385254
193,5650.0,1.007360339164734,-9.206902503967283,2.2661118507385254
194,5700.0,1.007360339164734,-9.206902503967283,2.2661118507385254
195,5750.0,1.007360339164734,-9.206902503967283,2.2661118507385254
196,5800.0,0.690727174282074,-9.160215377807617,0.2801215946674347
197,5850.0,0.690727174282074,-9.160215377807617,0.2801215946674347
198,5900.0,0.690727174282074,-9.160215377807617,0.2801215946674347
199,5950.0,-1.741183161735535,-9.84615421295166,0.5817909836769104
200,5000.0,-0.28311434388160706,-9.251194953918457,2.076371431350708
201,5050.0,1.6992846727371216,-7.9852614402771,2.316390037536621
202,5100.0,1.6992846727371216,-7.9852614402771,2.316390037536621
203,5150.0,1.6992846727371216,-7.9852614402771,2.316390037536621
204,5200.0,1.6992846727371216,-7.9852614402771,2.316390037536621
205,5250.0,0.9361328482627868,-8.177395820617676,3.7020344734191895
206,5300.0,0.9361328482627868,-8.177395820617676,3.7020344734191895
207,5350.0,0.9361328482627868,-8.177395820617676,3.7020344734191895
208,5400.0,1.095347285270691,-9.870096206665039,2.6449942588806152
209,5450.0,1.095347285270691,-9.870096206665039,2.6449942588806152
210,5500.0,1.095347285270691,-9.870096206665039,2.6449942588806152
211,5550.0,1.095347285270691,-9.870096206665039,2.6449942588806152
212,5600.0,1.007360339164734,-9.206902503967283,2.2661118507385254
213,5650.0,1.007360339164734,-9.206902503967283,2.2661118507385254
214,5700.0,1.007360339164734,-9.206902503967283,2.2661118507385254
215,5750.0,1.007360339164734,-9.206902503967283,2.2661118507385254
216,5800.0,0.690727174282074,-9.160215377807617,0.2801215946674347
217,5850.0,0.690727174282074,-9.160215377807617,0.2801215946674347
218,5900.0,0.690727174282074,-9.160215377807617,0.2801215946674347
219,5950.0,-1.741183161735535,-9.84615421295166,0.5817909836769104
220,6000.0,-1.741183161735535,-9.84615421295166,0.5817909836769104
221,6050.0,-1.741183161735535,-9.84615421295166,0.5817909836769104
222,6100.0,-1.741183161735535,-9.84615421295166,0.5817909836769104
223,6150.0,0.35733461380004883,-9.959878921508787,0.09816227108240128
224,6200.0,0.35733461380004883,-9.959878921508787,0.09816227108240128
225,6250.0,0.35733461380004883,-9.959878921508787,0.09816227108240128
226,6300.0,0.14425064623355865,-9.33199977874756,0.04189852997660637
227,6350.0,0.14425064623355865,-9.33199977874756,0.04189852997660637
228,6400.0,0.14425064623355865,-9.33199977874756,0.04189852997660637
229,6450.0,0.14425064623355865,-9.33199977874756,0.04189852997660637
230,6500.0,-1.6352397203445437,-9.561842918395996,0.9421183466911316
231,6550.0,-1.6352397203445437,-9.561842918395996,0.9421183466911316
232,6600.0,-1.6352397203445437,-9.561842918395996,0.9421183466911316
233,6650.0,-1.6352397203445437,-9.561842918395996,0.9421183466911316
234,6700.0,0.2537853717803955,-9.418789863586426,-0.2537853717803955
235,6750.0,0.2537853717803955,-9.418789863586426,-0.2537853717803955
236,6800.0,0.2537853717803955,-9.418789863586426,-0.2537853717803955
237,6850.0,0.8158242106437683,-12.124835968017578,3.06876802444458
238,6900.0,0.8158242106437683,-12.124835968017578,3.06876802444458
239,6950.0,0.8158242106437683,-12.124835968017578,3.06876802444458
240,6000.0,-1.741183161735535,-9.84615421295166,0.5817909836769104
241,6050.0,-1.741183161735535,-9.84615421295166,0.5817909836769104
242,6100.0,-1.741183161735535,-9.84615421295166,0.5817909836769104
243,6150.0,0.35733461380004883,-9.959878921508787,0.09816227108240128
244,6200.0,0.35733461380004883,-9.959878921508787,0.09816227108240128
245,6250.0,0.35733461380004883,-9.959878921508787,0.09816227108240128
246,6300.0,0.14425064623355865,-9.33199977874756,0.04189852997660637
247,6350.0,0.14425064623355865,-9.33199977874756,0.04189852997660637
248,6400.0,0.14425064623355865,-9.33199977874756,0.04189852997660637
249,6450.0,0.14425064623355865,-9.33199977874756,0.04189852997660637
250,6500.0,-1.6352397203445437,-9.561842918395996,0.9421183466911316
251,6550.0,-1.6352397203445437,-9.561842918395996,0.9421183466911316
252,6600.0,-1.6352397203445437,-9.561842918395996,0.9421183466911316
253,6650.0,-1.6352397203445437,-9.561842918395996,0.9421183466911316
254,6700.0,0.2537853717803955,-9.418789863586426,-0.2537853717803955
255,6750.0,0.2537853717803955,-9.418789863586426,-0.2537853717803955
256,6800.0,0.2537853717803955,-9.418789863586426,-0.2537853717803955
257,6850.0,0.8158242106437683,-12.124835968017578,3.06876802444458
258,6900.0,0.8158242106437683,-12.124835968017578,3.06876802444458
259,6950.0,0.8158242106437683,-12.124835968017578,3.06876802444458
260,7000.0,0.8158242106437683,-12.124835968017578,3.06876802444458
261,7050.0,1.2677297592163086,-7.985859870910644,3.5296518802642822
262,7100.0,1.2677297592163086,-7.985859870910644,3.5296518802642822
263,7150.0,1.2677297592163086,-7.985859870910644,3.5296518802642822
264,7200.0,0.4614823758602142,-7.493851184844972,2.032677173614502
265,7250.0,0.4614823758602142,-7.493851184844972,2.032677173614502
266,7300.0,0.4614823758602142,-7.493851184844972,2.032677173614502
267,7350.0,0.4614823758602142,-7.493851184844972,2.032677173614502
268,7400.0,0.5997475385665894,-8.892065048217773,1.391629695892334
269,7450.0,0.5997475385665894,-8.892065048217773,1.391629695892334
270,7500.0,0.5997475385665894,-8.892065048217773,1.391629695892334
271,7550.0,0.5997475385665894,-8.892065048217773,1.391629695892334
272,7600.0,1.0672154426574707,-9.305065155029297,0.09696517139673233
273,7650.0,1.0672154426574707,-9.305065155029297,0.09696517139673233
274,7700.0,1.0672154426574707,-9.305065155029297,0.09696517139673233
275,7750.0,1.0995371341705322,-9.880870819091797,1.4814122915267944
276,7800.0,1.0995371341705322,-9.880870819091797,1.4814122915267944
277,7850.0,1.0995371341705322,-9.880870819091797,1.4814122915267944
278,7900.0,1.0995371341705322,-9.880870819091797,1.4814122915267944
279,7950.0,-1.1971008777618408,-9.617507934570312,-0.14844051003456116
280,7000.0,0.8158242106437683,-12.124835968017578,3.06876802444458
281,7050.0,1.2677297592163086,-7.985859870910644,3.5296518802642822
282,7100.0,1.2677297592163086,-7.985859870910644,3.5296518802642822
283,7150.0,1.2677297592163086,-7.985859870910644,3.5296518802642822
284,7200.0,0.4614823758602142,-7.493851184844972,2.032677173614502
285,7250.0,0.4614823758602142,-7.493851184844972,2.032677173614502
286,7300.0,0.4614823758602142,-7.493851184844972,2.032677173614502
287,7350.0,0.4614823758602142,-7.493851184844972,2.032677173614502
288,7400.0,0.5997475385665894,-8.892065048217773,1.391629695892334
289,7450.0,0.5997475385665894,-8.892065048217773,1.391629695892334
290,7500.0,0.5997475385665894,-8.892065048217773,1.391629695892334
291,7550.0,0.5997475385665894,-8.892065048217773,1.391629695892334
292,7600.0,1.0672154426574707,-9.305065155029297,0.09696517139673233
293,7650.0,1.0672154426574707,-9.305065155029297,0.09696517139673233
294,7700.0,1.0672154426574707,-9.305065155029297,0.09696517139673233
295,7750.0,1.0995371341705322,-9.880870819091797,1.4814122915267944
296,7800.0,1.0995371341705322,-9.880870819091797,1.4814122915267944
297,7850.0,1.0995371341705322,-9.880870819091797,1.4814122915267944
298,7900.0,1.0995371341705322,-9.880870819091797,1.4814122915267944
299,7950.0,-1.1971008777618408,-9.617507934570312,-0.14844051003456116
300,8000.0,-1.1971008777618408,-9.617507934570312,-0.14844051003456116
301,8050.0,-1.1971008777618408,-9.617507934570312,-0.14844051003456116
302,8100.0,-1.1971008777618408,-9.617507934570312,-0.14844051003456116
303,8150.0,-1.0696096420288086,-9.710882186889648,1.0031704902648926
304,8200.0,-1.0696096420288086,-9.710882186889648,1.0031704902648926
305,8250.0,-1.0696096420288086,-9.710882186889648,1.0031704902648926
306,8300.0,-0.5213374495506287,-9.478046417236328,1.0175356864929201
307,8350.0,-0.5213374495506287,-9.478046417236328,1.0175356864929201
308,8400.0,-0.5213374495506287,-9.478046417236328,1.0175356864929201
309,8450.0,-0.5213374495506287,-9.478046417236328,1.0175356864929201
310,8500.0,-0.639850378036499,-9.517550468444824,-0.3477577865123749
311,8550.0,-0.639850378036499,-9.517550468444824,-0.3477577865123749
312,8600.0,-0.639850378036499,-9.517550468444824,-0.3477577865123749
313,8650.0,1.816600561141968,-10.291476249694824,1.45806884765625
314,8700.0,1.816600561141968,-10.291476249694824,1.45806884765625
315,8750.0,1.816600561141968,-10.291476249694824,1.45806884765625
316,8800.0,1.816600561141968,-10.291476249694824,1.45806884765625
317,8850.0,0.7876923680305481,-11.239580154418944,1.8453309535980225
318,8900.0,0.7876923680305481,-11.239580154418944,1.8453309535980225
319,8950.0,0.7876923680305481,-11.239580154418944,1.8453309535980225
320,8000.0,-1.1971008777618408,-9.617507934570312,-0.14844051003456116
321,8050.0,-1.1971008777618408,-9.617507934570312,-0.14844051003456116
322,8100.0,-1.1971008777618408,-9.617507934570312,-0.14844051003456116
323,8150.0,-1.0696096420288086,-9.710882186889648,1.0031704902648926
324,8200.0,-1.0696096420288086,-9.710882186889648,1.0031704902648926
325,8250.0,-1.0696096420288086,-9.710882186889648,1.0031704902648926
326,8300.0,-0.5213374495506287,-9.478046417236328,1.0175356864929201
327,8350.0,-0.5213374495506287,-9.478046417236328,1.0175356864929201
328,8400.0,-0.5213374495506287,-9.478046417236328,1.0175356864929201
329,8450.0,-0.5213374495506287,-9.478046417236328,1.0175356864929201
330,8500.0,-0.639850378036499,-9.517550468444824,-0.3477577865123749
331,8550.0,-0.639850378036499,-9.517550468444824,-0.3477577865123749
332,8600.0,-0.639850378036499,-9.517550468444824,-0.3477577865123749
333,8650.0,1.816600561141968,-10.291476249694824,1.45806884765625
334,8700.0,1.816600561141968,-10.291476249694824,1.45806884765625
335,8750.0,1.816600561141968,-10.291476249694824,1.45806884765625
336,8800.0,1.816600561141968,-10.291476249694824,1.45806884765625
337,8850.0,0.7876923680305481,-11.239580154418944,1.8453309535980225
338,8900.0,0.7876923680305481,-11.239580154418944,1.8453309535980225
339,8950.0,0.7876923680305481,-11.239580154418944,1.8453309535980225
340,9000.0,0.7876923680305481,-11.239580154418944,1.8453309535980225
341,9050.0,0.1999158412218094,-6.18182897567749,1.4784195423126218
342,9100.0,0.1999158412218094,-6.18182897567749,1.4784195423126218
343,9150.0,0.1999158412218094,-6.18182897567749,1.4784195423126218
344,9200.0,-0.6063315868377686,-10.823587417602539,5.2241482734680185
345,9250.0,-0.6063315868377686,-10.823587417602539,5.2241482734680185
346,9300.0,-0.6063315868377686,-10.823587417602539,5.2241482734680185
347,9350.0,-0.6063315868377686,-10.823587417602539,5.2241482734680185
348,9400.0,-0.20769700407981875,-8.345588684082031,0.3166331648826599
349,9450.0,-0.20769700407981875,-8.345588684082031,0.3166331648826599
350,9500.0,-0.20769700407981875,-8.345588684082031,0.3166331648826599
351,9550.0,0.17657238245010376,-9.799467086791992,1.0235211849212646
352,9600.0,0.17657238245010376,-9.799467086791992,1.0235211849212646
353,9650.0,0.17657238245010376,-9.799467086791992,1.0235211849212646
354,9700.0,0.17657238245010376,-9.799467086791992,1.0235211849212646
355,9750.0,2.3457190990448,-9.41100788116455,-0.8008604645729065
356,9800.0,2.3457190990448,-9.41100788116455,-0.8008604645729065
357,9850.0,2.3457190990448,-9.41100788116455,-0.8008604645729065
358,9900.0,2.3457190990448,-9.41100788116455,-0.8008604645729065
359,9950.0,-0.6099228858947754,-10.004770278930664,-1.2084733247756958
360,9000.0,0.7876923680305481,-11.239580154418944,1.8453309535980225
361,9050.0,0.1999158412218094,-6.18182897567749,1.4784195423126218
362,9100.0,0.1999158412218094,-6.18182897567749,1.4784195423126218
363,9150.0,0.1999158412218094,-6.18182897567749,1.4784195423126218
364,9200.0,-0.6063315868377686,-10.823587417602539,5.2241482734680185
365,9250.0,-0.6063315868377686,-10.823587417602539,5.2241482734680185
366,9300.0,-0.6063315868377686,-10.823587417602539,5.2241482734680185
367,9350.0,-0.6063315868377686,-10.823587417602539,5.2241482734680185
368,9400.0,-0.20769700407981875,-8.345588684082031,0.3166331648826599
369,9450.0,-0.20769700407981875,-8.345588684082031,0.3166331648826599
370,9500.0,-0.20769700407981875,-8.345588684082031,0.3166331648826599
371,9550.0,0.17657238245010376,-9.799467086791992,1.0235211849212646
372,9600.0,0.17657238245010376,-9.799467086791992,1.0235211849212646
373,9650.0,0.17657238245010376,-9.799467086791992,1.0235211849212646
374,9700.0,0.17657238245010376,-9.799467086791992,1.0235211849212646
375,9750.0,2.3457190990448,-9.41100788116455,-0.8008604645729065
376,9800.0,2.3457190990448,-9.41100788116455,-0.8008604645729065
377,9850.0,2.3457190990448,-9.41100788116455,-0.8008604645729065
378,9900.0,2.3457190990448,-9.41100788116455,-0.8008604645729065
379,9950.0,-0.6099228858947754,-10.004770278930664,-1.2084733247756958
380,10000.0,-0.6099228858947754,-10.004770278930664,-1.2084733247756958
381,10050.0,-0.6099228858947754,-10.004770278930664,-1.2084733247756958
382,10100.0,1.6723499298095703,-9.882665634155273,0.2256535142660141
383,10150.0,1.6723499298095703,-9.882665634155273,0.2256535142660141
384,10200.0,1.6723499298095703,-9.882665634155273,0.2256535142660141
385,10250.0,1.6723499298095703,-9.882665634155273,0.2256535142660141
386,10300.0,-2.3594858646392822,-10.068216323852539,1.7040730714797974
387,10350.0,-2.3594858646392822,-10.068216323852539,1.7040730714797974
388,10400.0,-2.3594858646392822,-10.068216323852539,1.7040730714797974
389,10450.0,1.2791022062301636,-8.173206329345701,2.6030957698822017
390,10500.0,1.2791022062301636,-8.173206329345701,2.6030957698822017
391,10550.0,1.2791022062301636,-8.173206329345701,2.6030957698822017
392,10600.0,1.2791022062301636,-8.173206329345701,2.6030957698822017
393,10650.0,3.9665937423706055,-9.841365814208984,4.548384666442871
394,10700.0,3.9665937423706055,-9.841365814208984,4.548384666442871
395,10750.0,3.9665937423706055,-9.841365814208984,4.548384666442871
396,10800.0,3.9665937423706055,-9.841365814208984,4.548384666442871
397,10850.0,0.6739677786827087,-8.716091156005861,-0.8553285598754883
398,10900.0,0.6739677786827087,-8.716091156005861,-0.8553285598754883
399,10950.0,0.6739677786827087,-8.716091156005861,-0.8553285598754883
400,10000.0,-0.6099228858947754,-10.004770278930664,-1.2084733247756958
401,10050.0,-0.6099228858947754,-10.004770278930664,-1.2084733247756958
402,10100.0,1.6723499298095703,-9.882665634155273,0.2256535142660141
403,10150.0,1.6723499298095703,-9.882665634155273,0.2256535142660141
404,10200.0,1.6723499298095703,-9.882665634155273,0.2256535142660141
405,10250.0,1.6723499298095703,-9.882665634155273,0.2256535142660141
406,10300.0,-2.3594858646392822,-10.068216323852539,1.7040730714797974
407,10350.0,-2.3594858646392822,-10.068216323852539,1.7040730714797974
408,10400.0,-2.3594858646392822,-10.068216323852539,1.7040730714797974
409,10450.0,1.2791022062301636,-8.173206329345701,2.6030957698822017
410,10500.0,1.2791022062301636,-8.173206329345701,2.6030957698822017
411,10550.0,1.2791022062301636,-8.173206329345701,2.6030957698822017
412,10600.0,1.2791022062301636,-8.173206329345701,2.6030957698822017
413,10650.0,3.9665937423706055,-9.841365814208984,4.548384666442871
414,10700.0,3.9665937423706055,-9.841365814208984,4.548384666442871
415,10750.0,3.9665937423706055,-9.841365814208984,4.548384666442871
416,10800.0,3.9665937423706055,-9.841365814208984,4.548384666442871
417,10850.0,0.6739677786827087,-8.716091156005861,-0.8553285598754883
418,10900.0,0.6739677786827087,-8.716091156005861,-0.8553285598754883
419,10950.0,0.6739677786827087,-8.716091156005861,-0.8553285598754883
420,11000.0,-0.629675030708313,-9.581595420837402,-0.788889467716217
421,11050.0,-0.629675030708313,-9.581595420837402,-0.788889467716217
422,11100.0,-0.629675030708313,-9.581595420837402,-0.788889467716217
423,11150.0,-0.629675030708313,-9.581595420837402,-0.788889467716217
424,11200.0,1.201290726661682,-10.117298126220703,-0.11432313174009325
425,11250.0,1.201290726661682,-10.117298126220703,-0.11432313174009325
426,11300.0,1.201290726661682,-10.117298126220703,-0.11432313174009325
427,11350.0,1.7298107147216797,-9.472060203552246,0.4333505034446716
428,11400.0,1.7298107147216797,-9.472060203552246,0.4333505034446716
429,11450.0,1.7298107147216797,-9.472060203552246,0.4333505034446716
430,11500.0,1.7298107147216797,-9.472060203552246,0.4333505034446716
431,11550.0,1.7627309560775757,-8.681973457336426,1.1013327836990356
432,11600.0,1.7627309560775757,-8.681973457336426,1.1013327836990356
433,11650.0,1.7627309560775757,-8.681973457336426,1.1013327836990356
434,11700.0,1.7627309560775757,-8.681973457336426,1.1013327836990356
435,11750.0,2.939481019973755,-9.50737476348877,0.8068459630012512
436,11800.0,2.939481019973755,-9.50737476348877,0.8068459630012512
437,11850.0,2.939481019973755,-9.50737476348877,0.8068459630012512
438,11900.0,2.32297420501709,-9.964069366455078,2.0590133666992188
439,11950.0,2.32297420501709,-9.964069366455078,2.0590133666992188
440,11000.0,-0.629675030708313,-9.581595420837402,-0.788889467716217
441,11050.0,-0.629675030708313,-9.581595420837402,-0.788889467716217
442,11100.0,-0.629675030708313,-9.581595420837402,-0.788889467716217
443,11150.0,-0.629675030708313,-9.581595420837402,-0.788889467716217
444,11200.0,1.201290726661682,-10.117298126220703,-0.11432313174009325
445,11250.0,1.201290726661682,-10.117298126220703,-0.11432313174009325
446,11300.0,1.201290726661682,-10.117298126220703,-0.11432313174009325
447,11350.0,1.7298107147216797,-9.472060203552246,0.4333505034446716
448,11400.0,1.7298107147216797,-9.472060203552246,0.4333505034446716
449,11450.0,1.7298107147216797,-9.472060203552246,0.4333505034446716
450,11500.0,1.7298107147216797,-9.472060203552246,0.4333505034446716
451,11550.0,1.7627309560775757,-8.681973457336426,1.1013327836990356
452,11600.0,1.7627309560775757,-8.681973457336426,1.1013327836990356
453,11650.0,1.7627309560775757,-8.681973457336426,1.1013327836990356
454,11700.0,1.7627309560775757,-8.681973457336426,1.1013327836990356
455,11750.0,2.939481019973755,-9.50737476348877,0.8068459630012512
456,11800.0,2.939481019973755,-9.50737476348877,0.8068459630012512
457,11850.0,2.939481019973755,-9.50737476348877,0.8068459630012512
458,11900.0,2.32297420501709,-9.964069366455078,2.0590133666992188
459,11950.0,2.32297420501709,-9.964069366455078,2.0590133666992188
460,12000.0,2.32297420501709,-9.964069366455078,2.0590133666992188
461,12050.0,2.32297420501709,-9.964069366455078,2.0590133666992188
462,12100.0,1.4431051015853882,-10.45547866821289,1.0893617868423462
463,12150.0,1.4431051015853882,-10.45547866821289,1.0893617868423462
464,12200.0,1.4431051015853882,-10.45547866821289,1.0893617868423462
465,12250.0,0.5895721912384033,-8.904036521911621,1.1522095203399658
466,12300.0,0.5895721912384033,-8.904036521911621,1.1522095203399658
467,12350.0,0.5895721912384033,-8.904036521911621,1.1522095203399658
468,12400.0,0.5895721912384033,-8.904036521911621,1.1522095203399658
469,12450.0,0.7362170219421387,-9.203909873962402,0.5422866940498352
470,12500.0,0.7362170219421387,-9.203909873962402,0.5422866940498352
471,12550.0,0.7362170219421387,-9.203909873962402,0.5422866940498352
472,12600.0,0.7362170219421387,-9.203909873962402,0.5422866940498352
473,12650.0,0.3561375141143799,-9.747393608093262,0.08798690885305405
474,12700.0,0.3561375141143799,-9.747393608093262,0.08798690885305405
475,12750.0,0.3561375141143799,-9.747393608093262,0.08798690885305405
476,12800.0,0.18076223134994507,-9.48462963104248,-0.3794809579849243
477,12850.0,0.18076223134994507,-9.48462963104248,-0.3794809579849243
478,12900.0,0.18076223134994507,-9.48462963104248,-0.3794809579849243
479,12950.0,0.18076223134994507,-9.48462963104248,-0.3794809579849243
480,12000.0,2.32297420501709,-9.964069366455078,2.0590133666992188
481,12050.0,2.32297420501709,-9.964069366455078,2.0590133666992188
482,12100.0,1.4431051015853882,-10.45547866821289,1.0893617868423462
483,12150.0,1.4431051015853882,-10.45547866821289,1.0893617868423462
484,12200.0,1.4431051015853882,-10.45547866821289,1.0893617868423462
485,12250.0,0.5895721912384033,-8.904036521911621,1.1522095203399658
486,12300.0,0.5895721912384033,-8.904036521911621,1.1522095203399658
487,12350.0,0.5895721912384033,-8.904036521911621,1.1522095203399658
488,12400.0,0.5895721912384033,-8.904036521911621,1.1522095203399658
489,12450.0,0.7362170219421387,-9.203909873962402,0.5422866940498352
490,12500.0,0.7362170219421387,-9.203909873962402,0.5422866940498352
491,12550.0,0.7362170219421387,-9.203909873962402,0.5422866940498352
492,12600.0,0.7362170219421387,-9.203909873962402,0.5422866940498352
493,12650.0,0.3561375141143799,-9.747393608093262,0.08798690885305405
494,12700.0,0.3561375141143799,-9.747393608093262,0.08798690885305405
495,12750.0,0.3561375141143799,-9.747393608093262,0.08798690885305405
496,12800.0,0.18076223134994507,-9.48462963104248,-0.3794809579849243
497,12850.0,0.18076223134994507,-9.48462963104248,-0.3794809579849243
498,12900.0,0.18076223134994507,-9.48462963104248,-0.3794809579849243
499,12950.0,0.18076223134994507,-9.48462963104248,-0.3794809579849243
500,13000.0,1.1139023303985596,-10.152013778686523,2.5923218727111816
501,13050.0,1.1139023303985596,-10.152013778686523,2.5923218727111816
502,13100.0,1.1139023303985596,-10.152013778686523,2.5923218727111816
503,13150.0,0.679354727268219,-8.134899139404299,1.9871873855590818
504,13200.0,0.679354727268219,-8.134899139404299,1.9871873855590818
505,13250.0,0.679354727268219,-8.134899139404299,1.9871873855590818
506,13300.0,0.679354727268219,-8.134899139404299,1.9871873855590818
507,13350.0,0.518943190574646,-9.080608367919922,1.358709454536438
508,13400.0,0.518943190574646,-9.080608367919922,1.358709454536438
509,13450.0,0.518943190574646,-9.080608367919922,1.358709454536438
510,13500.0,0.518943190574646,-9.080608367919922,1.358709454536438
511,13550.0,1.1905168294906616,-9.5223388671875,1.1366472244262695
512,13600.0,1.1905168294906616,-9.5223388671875,1.1366472244262695
513,13650.0,1.1905168294906616,-9.5223388671875,1.1366472244262695
514,13700.0,1.060032844543457,-10.434529304504396,-0.1538274586200714
515,13750.0,1.060032844543457,-10.434529304504396,-0.1538274586200714
516,13800.0,1.060032844543457,-10.434529304504396,-0.1538274586200714
517,13850.0,1.060032844543457,-10.434529304504396,-0.1538274586200714
518,13900.0,0.5746083855628967,-9.521739959716797,0.3429693877696991
519,13950.0,0.5746083855628967,-9.521739959716797,0.3429693877696991
520,13000.0,1.1139023303985596,-10.152013778686523,2.5923218727111816
521,13050.0,1.1139023303985596,-10.152013778686523,2.5923218727111816
522,13100.0,1.1139023303985596,-10.152013778686523,2.5923218727111816
523,13150.0,0.679354727268219,-8.134899139404299,1.9871873855590818
524,13200.0,0.679354727268219,-8.134899139404299,1.9871873855590818
525,13250.0,0.679354727268219,-8.134899139404299,1.9871873855590818
526,13300.0,0.679354727268219,-8.134899139404299,1.9871873855590818
527,13350.0,0.518943190574646,-9.080608367919922,1.358709454536438
528,13400.0,0.518943190574646,-9.080608367919922,1.358709454536438
529,13450.0,0.518943190574646,-9.080608367919922,1.358709454536438
530,13500.0,0.518943190574646,-9.080608367919922,1.358709454536438
531,13550.0,1.1905168294906616,-9.5223388671875,1.1366472244262695
532,13600.0,1.1905168294906616,-9.5223388671875,1.1366472244262695
533,13650.0,1.1905168294906616,-9.5223388671875,1.1366472244262695
534,13700.0,1.060032844543457,-10.434529304504396,-0.1538274586200714
535,13750.0,1.060032844543457,-10.434529304504396,-0.1538274586200714
536,13800.0,1.060032844543457,-10.434529304504396,-0.1538274586200714
537,13850.0,1.060032844543457,-10.434529304504396,-0.1538274586200714
538,13900.0,0.5746083855628967,-9.521739959716797,0.3429693877696991
539,13950.0,0.5746083855628967,-9.521739959716797,0.3429693877696991
540,14000.0,0.5746083855628967,-9.521739959716797,0.3429693877696991
541,14050.0,0.2454056739807129,-9.596558570861816,0.4884171485900879
542,14100.0,0.2454056739807129,-9.596558570861816,0.4884171485900879
543,14150.0,0.2454056739807129,-9.596558570861816,0.4884171485900879
544,14200.0,0.2454056739807129,-9.596558570861816,0.4884171485900879
545,14250.0,0.3896563351154328,-9.619902610778807,0.5033808946609497
546,14300.0,0.3896563351154328,-9.619902610778807,0.5033808946609497
547,14350.0,0.3896563351154328,-9.619902610778807,0.5033808946609497
548,14400.0,0.3896563351154328,-9.619902610778807,0.5033808946609497
549,14450.0,0.23762452602386475,-9.65222454071045,0.09457096457481384
550,14500.0,0.23762452602386475,-9.65222454071045,0.09457096457481384
551,14550.0,0.23762452602386475,-9.65222454071045,0.09457096457481384
552,14600.0,0.729034423828125,-9.403825759887695,-0.12928688526153564
553,14650.0,0.729034423828125,-9.403825759887695,-0.12928688526153564
554,14700.0,0.729034423828125,-9.403825759887695,-0.12928688526153564
555,14750.0,0.729034423828125,-9.403825759887695,-0.12928688526153564
556,14800.0,0.05327098816633225,-9.631275177001953,0.4513070285320282
557,14850.0,0.05327098816633225,-9.631275177001953,0.4513070285320282
558,14900.0,0.05327098816633225,-9.631275177001953,0.4513070285320282
559,14950.0,0.8888474106788635,-9.646238327026367,-0.2932897210121155
560,14000.0,0.5746083855628967,-9.521739959716797,0.3429693877696991
561,14050.0,0.2454056739807129,-9.596558570861816,0.4884171485900879
562,14100.0,0.2454056739807129,-9.596558570861816,0.4884171485900879
563,14150.0,0.2454056739807129,-9.596558570861816,0.4884171485900879
564,14200.0,0.2454056739807129,-9.596558570861816,0.4884171485900879
565,14250.0,0.3896563351154328,-9.619902610778807,0.5033808946609497
566,14300.0,0.3896563351154328,-9.619902610778807,0.5033808946609497
567,14350.0,0.3896563351154328,-9.619902610778807,0.5033808946609497
568,14400.0,0.3896563351154328,-9.619902610778807,0.5033808946609497
569,14450.0,0.23762452602386475,-9.65222454071045,0.09457096457481384
570,14500.0,0.23762452602386475,-9.65222454071045,0.09457096457481384
571,14550.0,0.23762452602386475,-9.65222454071045,0.09457096457481384
572,14600.0,0.729034423828125,-9.403825759887695,-0.12928688526153564
573,14650.0,0.729034423828125,-9.403825759887695,-0.12928688526153564
574,14700.0,0.729034423828125,-9.403825759887695,-0.12928688526153564
575,14750.0,0.729034423828125,-9.403825759887695,-0.12928688526153564
576,14800.0,0.05327098816633225,-9.631275177001953,0.4513070285320282
577,14850.0,0.05327098816633225,-9.631275177001953,0.4513070285320282
578,14900.0,0.05327098816633225,-9.631275177001953,0.4513070285320282
579,14950.0,0.8888474106788635,-9.646238327026367,-0.2932897210121155
580,15000.0,0.8888474106788635,-9.646238327026367,-0.2932897210121155
581,15050.0,0.8888474106788635,-9.646238327026367,-0.2932897210121155
582,15100.0,0.8888474106788635,-9.646238327026367,-0.2932897210121155
583,15150.0,0.18136078119277954,-9.661202430725098,0.008978256024420261
584,15200.0,0.18136078119277954,-9.661202430725098,0.008978256024420261
585,15250.0,0.18136078119277954,-9.661202430725098,0.008978256024420261
586,15300.0,0.18136078119277954,-9.661202430725098,0.008978256024420261
587,15350.0,-0.5111620426177979,-10.038887977600098,-0.12629413604736328
588,15400.0,-0.5111620426177979,-10.038887977600098,-0.12629413604736328
589,15450.0,-0.5111620426177979,-10.038887977600098,-0.12629413604736328
590,15500.0,0.2717418968677521,-9.718064308166504,-0.058059390634298325
591,15550.0,0.2717418968677521,-9.718064308166504,-0.058059390634298325
592,15600.0,0.2717418968677521,-9.718064308166504,-0.058059390634298325
593,15650.0,0.2717418968677521,-9.718064308166504,-0.058059390634298325
594,15700.0,-0.2412158250808716,-9.74440097808838,-0.12449848651885985
595,15750.0,-0.2412158250808716,-9.74440097808838,-0.12449848651885985
596,15800.0,-0.2412158250808716,-9.74440097808838,-0.12449848651885985
597,15850.0,0.010175357572734356,-9.242217063903807,-0.16879121959209442
598,15900.0,0.010175357572734356,-9.242217063903807,-0.16879121959209442
599,15950.0,0.010175357572734356,-9.242217063903807,-0.16879121959209442
600,15000.0,0.8888474106788635,-9.646238327026367,-0.2932897210121155
601,15050.0,0.8888474106788635,-9.646238327026367,-0.2932897210121155
602,15100.0,0.8888474106788635,-9.646238327026367,-0.2932897210121155
603,15150.0,0.18136078119277954,-9.661202430725098,0.008978256024420261
604,15200.0,0.18136078119277954,-9.661202430725098,0.008978256024420261
605,15250.0,0.18136078119277954,-9.661202430725098,0.008978256024420261
606,15300.0,0.18136078119277954,-9.661202430725098,0.008978256024420261
607,15350.0,-0.5111620426177979,-10.038887977600098,-0.12629413604736328
608,15400.0,-0.5111620426177979,-10.038887977600098,-0.12629413604736328
609,15450.0,-0.5111620426177979,-10.038887977600098,-0.12629413604736328
610,15500.0,0.2717418968677521,-9.718064308166504,-0.058059390634298325
611,15550.0,0.2717418968677521,-9.718064308166504,-0.058059390634298325
612,15600.0,0.2717418968677521,-9.718064308166504,-0.058059390634298325
613,15650.0,0.2717418968677521,-9.718064308166504,-0.058059390634298325
614,15700.0,-0.2412158250808716,-9.74440097808838,-0.12449848651885985
615,15750.0,-0.2412158250808716,-9.74440097808838,-0.12449848651885985
616,15800.0,-0.2412158250808716,-9.74440097808838,-0.12449848651885985
617,15850.0,0.010175357572734356,-9.242217063903807,-0.16879121959209442
618,15900.0,0.010175357572734356,-9.242217063903807,-0.16879121959209442
619,15950.0,0.010175357572734356,-9.242217063903807,-0.16879121959209442
620,16000.0,0.010175357572734356,-9.242217063903807,-0.16879121959209442
621,16050.0,-0.14185644686222074,-9.668384552001953,1.9853917360305784
622,16100.0,-0.14185644686222074,-9.668384552001953,1.9853917360305784
623,16150.0,-0.14185644686222074,-9.668384552001953,1.9853917360305784
624,16200.0,-0.14185644686222074,-9.668384552001953,1.9853917360305784
625,16250.0,-0.09935937076807022,-10.809222221374512,3.4302923679351807
626,16300.0,-0.09935937076807022,-10.809222221374512,3.4302923679351807
627,16350.0,-0.09935937076807022,-10.809222221374512,3.4302923679351807
628,16400.0,-0.6254851818084717,-7.845798969268799,3.3129765987396236
629,16450.0,-0.6254851818084717,-7.845798969268799,3.3129765987396236
630,16500.0,-0.6254851818084717,-7.845798969268799,3.3129765987396236
631,16550.0,-0.6254851818084717,-7.845798969268799,3.3129765987396236
632,16600.0,-0.1993172913789749,-8.635885238647461,2.5450363159179688
633,16650.0,-0.1993172913789749,-8.635885238647461,2.5450363159179688
634,16700.0,-0.1993172913789749,-8.635885238647461,2.5450363159179688
635,16750.0,0.24181437492370605,-9.697115898132324,2.223016262054444
636,16800.0,0.24181437492370605,-9.697115898132324,2.223016262054444
637,16850.0,0.24181437492370605,-9.697115898132324,2.223016262054444
638,16900.0,0.24181437492370605,-9.697115898132324,2.223016262054444
639,16950.0,0.6458359360694885,-9.360730171203613,1.5723919868469238
640,16000.0,0.010175357572734356,-9.242217063903807,-0.16879121959209442
641,16050.0,-0.14185644686222074,-9.668384552001953,1.9853917360305784
642,16100.0,-0.14185644686222074,-9.668384552001953,1.9853917360305784
643,16150.0,-0.14185644686222074,-9.668384552001953,1.9853917360305784
644,16200.0,-0.14185644686222074,-9.668384552001953,1.9853917360305784
645,16250.0,-0.09935937076807022,-10.809222221374512,3.4302923679351807
646,16300.0,-0.09935937076807022,-10.809222221374512,3.4302923679351807
647,16350.0,-0.09935937076807022,-10.809222221374512,3.4302923679351807
648,16400.0,-0.6254851818084717,-7.845798969268799,3.3129765987396236
649,16450.0,-0.6254851818084717,-7.845798969268799,3.3129765987396236
650,16500.0,-0.6254851818084717,-7.845798969268799,3.3129765987396236
651,16550.0,-0.6254851818084717,-7.845798969268799,3.3129765987396236
652,16600.0,-0.1993172913789749,-8.635885238647461,2.5450363159179688
653,16650.0,-0.1993172913789749,-8.635885238647461,2.5450363159179688
654,16700.0,-0.1993172913789749,-8.635885238647461,2.5450363159179688
655,16750.0,0.24181437492370605,-9.697115898132324,2.223016262054444
656,16800.0,0.24181437492370605,-9.697115898132324,2.223016262054444
657,16850.0,0.24181437492370605,-9.697115898132324,2.223016262054444
658,16900.0,0.24181437492370605,-9.697115898132324,2.223016262054444
659,16950.0,0.6458359360694885,-9.360730171203613,1.5723919868469238
660,17000.0,0.6458359360694885,-9.360730171203613,1.5723919868469238
661,17050.0,0.6458359360694885,-9.360730171203613,1.5723919868469238
662,17100.0,0.6458359360694885,-9.360730171203613,1.5723919868469238
663,17150.0,-0.38367083668708796,-9.827000617980957,-0.2890998423099518
664,17200.0,-0.38367083668708796,-9.827000617980957,-0.2890998423099518
665,17250.0,-0.38367083668708796,-9.827000617980957,-0.2890998423099518
666,17300.0,-1.490989089012146,-10.574590682983398,1.913565754890442
667,17350.0,-1.490989089012146,-10.574590682983398,1.913565754890442
668,17400.0,-1.490989089012146,-10.574590682983398,1.913565754890442
669,17450.0,-1.490989089012146,-10.574590682983398,1.913565754890442
670,17500.0,-1.0905588865280151,-11.146804809570312,5.081094741821289
671,17550.0,-1.0905588865280151,-11.146804809570312,5.081094741821289
672,17600.0,-1.0905588865280151,-11.146804809570312,5.081094741821289
673,17650.0,0.5099649429321289,-9.227252960205078,0.406415730714798
674,17700.0,0.5099649429321289,-9.227252960205078,0.406415730714798
675,17750.0,0.5099649429321289,-9.227252960205078,0.406415730714798
676,17800.0,0.5099649429321289,-9.227252960205078,0.406415730714798
677,17850.0,-1.9823989868164065,-9.29069995880127,0.6739677786827087
678,17900.0,-1.9823989868164065,-9.29069995880127,0.6739677786827087
679,17950.0,-1.9823989868164065,-9.29069995880127,0.6739677786827087
680,17000.0,0.6458359360694885,-9.360730171203613,1.5723919868469238
681,17050.0,0.6458359360694885,-9.360730171203613,1.5723919868469238
682,17100.0,0.6458359360694885,-9.360730171203613,1.5723919868469238
683,17150.0,-0.38367083668708796,-9.827000617980957,-0.2890998423099518
684,17200.0,-0.38367083668708796,-9.827000617980957,-0.2890998423099518
685,17250.0,-0.38367083668708796,-9.827000617980957,-0.2890998423099518
686,17300.0,-1.490989089012146,-10.574590682983398,1.913565754890442
687,17350.0,-1.490989089012146,-10.574590682983398,1.913565754890442
688,17400.0,-1.490989089012146,-10.574590682983398,1.913565754890442
689,17450.0,-1.490989089012146,-10.574590682983398,1.913565754890442
690,17500.0,-1.0905588865280151,-11.146804809570312,5.081094741821289
691,17550.0,-1.0905588865280151,-11.146804809570312,5.081094741821289
692,17600.0,-1.0905588865280151,-11.146804809570312,5.081094741821289
693,17650.0,0.5099649429321289,-9.227252960205078,0.406415730714798
694,17700.0,0.5099649429321289,-9.227252960205078,0.406415730714798
695,17750.0,0.5099649429321289,-9.227252960205078,0.406415730714798
696,17800.0,0.5099649429321289,-9.227252960205078,0.406415730714798
697,17850.0,-1.9823989868164065,-9.29069995880127,0.6739677786827087
698,17900.0,-1.9823989868164065,-9.29069995880127,0.6739677786827087
699,17950.0,-1.9823989868164065,-9.29069995880127,0.6739677786827087
700,18000.0,-1.9823989868164065,-9.29069995880127,0.6739677786827087
701,18050.0,2.3780407905578613,-9.599552154541016,0.8589198589324951
702,18100.0,2.3780407905578613,-9.599552154541016,0.8589198589324951
703,18150.0,2.3780407905578613,-9.599552154541016,0.8589198589324951
704,18200.0,-0.6871358752250671,-9.985616683959961,-0.6350619792938232
705,18250.0,-0.6871358752250671,-9.985616683959961,-0.6350619792938232
706,18300.0,-0.6871358752250671,-9.985616683959961,-0.6350619792938232
707,18350.0,-0.6871358752250671,-9.985616683959961,-0.6350619792938232
708,18400.0,-2.5911247730255127,-8.954913139343262,0.7583633661270142
709,18450.0,-2.5911247730255127,-8.954913139343262,0.7583633661270142
710,18500.0,-2.5911247730255127,-8.954913139343262,0.7583633661270142
711,18550.0,-2.5911247730255127,-8.954913139343262,0.7583633661270142
712,18600.0,-0.4955997467041016,-10.994174003601074,2.8353333473205566
713,18650.0,-0.4955997467041016,-10.994174003601074,2.8353333473205566
714,18700.0,-0.4955997467041016,-10.994174003601074,2.8353333473205566
715,18750.0,-0.585382342338562,-7.728483200073242,2.1374235153198238
716,18800.0,-0.585382342338562,-7.728483200073242,2.1374235153198238
717,18850.0,-0.585382342338562,-7.728483200073242,2.1374235153198238
718,18900.0,-0.585382342338562,-7.728483200073242,2.1374235153198238
719,18950.0,-0.10833762586116792,-9.473258018493652,2.09133529663086
720,18000.0,-1.9823989868164065,-9.29069995880127,0.6739677786827087
721,18050.0,2.3780407905578613,-9.599552154541016,0.8589198589324951
722,18100.0,2.3780407905578613,-9.599552154541016,0.8589198589324951
723,18150.0,2.3780407905578613,-9.599552154541016,0.8589198589324951
724,18200.0,-0.6871358752250671,-9.985616683959961,-0.6350619792938232
725,18250.0,-0.6871358752250671,-9.985616683959961,-0.6350619792938232
726,18300.0,-0.6871358752250671,-9.985616683959961,-0.6350619792938232
727,18350.0,-0.6871358752250671,-9.985616683959961,-0.6350619792938232
728,18400.0,-2.5911247730255127,-8.954913139343262,0.7583633661270142
729,18450.0,-2.5911247730255127,-8.954913139343262,0.7583633661270142
730,18500.0,-2.5911247730255127,-8.954913139343262,0.7583633661270142
731,18550.0,-2.5911247730255127,-8.954913139343262,0.7583633661270142
732,18600.0,-0.4955997467041016,-10.994174003601074,2.8353333473205566
733,18650.0,-0.4955997467041016,-10.994174003601074,2.8353333473205566
734,18700.0,-0.4955997467041016,-10.994174003601074,2.8353333473205566
735,18750.0,-0.585382342338562,-7.728483200073242,2.1374235153198238
736,18800.0,-0.585382342338562,-7.728483200073242,2.1374235153198238
737,18850.0,-0.585382342338562,-7.728483200073242,2.1374235153198238
738,18900.0,-0.585382342338562,-7.728483200073242,2.1374235153198238
739,18950.0,-0.10833762586116792,-9.473258018493652,2.09133529663086
740,19000.0,-0.10833762586116792,-9.473258018493652,2.09133529663086
741,19050.0,-0.10833762586116792,-9.473258018493652,2.09133529663086
742,19100.0,0.7745242714881897,-9.717466354370117,2.1344308853149414
743,19150.0,0.7745242714881897,-9.717466354370117,2.1344308853149414
744,19200.0,0.7745242714881897,-9.717466354370117,2.1344308853149414
745,19250.0,0.7745242714881897,-9.717466354370117,2.1344308853149414
746,19300.0,1.292868971824646,-9.385271072387695,1.895010590553284
747,19350.0,1.292868971824646,-9.385271072387695,1.895010590553284
748,19400.0,1.292868971824646,-9.385271072387695,1.895010590553284
749,19450.0,1.292868971824646,-9.385271072387695,1.895010590553284
750,19500.0,0.8864531517028809,-10.46086597442627,0.9271546006202698
751,19550.0,0.8864531517028809,-10.46086597442627,0.9271546006202698
752,19600.0,0.8864531517028809,-10.46086597442627,0.9271546006202698
753,19650.0,0.7422025203704834,-9.188347816467283,0.3232172429561615
754,19700.0,0.7422025203704834,-9.188347816467283,0.3232172429561615
755,19750.0,0.7422025203704834,-9.188347816467283,0.3232172429561615
756,19800.0,0.7422025203704834,-9.188347816467283,0.3232172429561615
757,19850.0,-1.1779472827911377,-10.482413291931152,1.300650119781494
758,19900.0,-1.1779472827911377,-10.482413291931152,1.300650119781494
759,19950.0,-1.1779472827911377,-10.482413291931152,1.300650119781494
760,19000.0,-0.10833762586116792,-9.473258018493652,2.09133529663086
761,19050.0,-0.10833762586116792,-9.473258018493652,2.09133529663086
762,19100.0,0.7745242714881897,-9.717466354370117,2.1344308853149414
763,19150.0,0.7745242714881897,-9.717466354370117,2.1344308853149414
764,19200.0,0.7745242714881897,-9.717466354370117,2.1344308853149414
765,19250.0,0.7745242714881897,-9.717466354370117,2.1344308853149414
766,19300.0,1.292868971824646,-9.385271072387695,1.895010590553284
767,19350.0,1.292868971824646,-9.385271072387695,1.895010590553284
768,19400.0,1.292868971824646,-9.385271072387695,1.895010590553284
769,19450.0,1.292868971824646,-9.385271072387695,1.895010590553284
770,19500.0,0.8864531517028809,-10.46086597442627,0.9271546006202698
771,19550.0,0.8864531517028809,-10.46086597442627,0.9271546006202698
772,19600.0,0.8864531517028809,-10.46086597442627,0.9271546006202698
773,19650.0,0.7422025203704834,-9.188347816467283,0.3232172429561615
774,19700.0,0.7422025203704834,-9.188347816467283,0.3232172429561615
775,19750.0,0.7422025203704834,-9.188347816467283,0.3232172429561615
776,19800.0,0.7422025203704834,-9.188347816467283,0.3232172429561615
777,19850.0,-1.1779472827911377,-10.482413291931152,1.300650119781494
778,19900.0,-1.1779472827911377,-10.482413291931152,1.300650119781494
779,19950.0,-1.1779472827911377,-10.482413291931152,1.300650119781494
780,20000.0,0.3417722880840301,-9.572616577148438,0.8463503122329712
781,20050.0,0.3417722880840301,-9.572616577148438,0.8463503122329712
782,20100.0,0.3417722880840301,-9.572616577148438,0.8463503122329712
783,20150.0,0.3417722880840301,-9.572616577148438,0.8463503122329712
784,20200.0,-0.03112462162971497,-9.6803560256958,-1.0342950820922852
785,20250.0,-0.03112462162971497,-9.6803560256958,-1.0342950820922852
786,20300.0,-0.03112462162971497,-9.6803560256958,-1.0342950820922852
787,20350.0,-0.03112462162971497,-9.6803560256958,-1.0342950820922852
788,20400.0,0.20889410376548767,-9.657610893249512,-0.7535749673843384
789,20450.0,0.20889410376548767,-9.657610893249512,-0.7535749673843384
790,20500.0,0.20889410376548767,-9.657610893249512,-0.7535749673843384
791,20550.0,0.9684545993804932,-9.283516883850098,-0.4596867263317108
792,20600.0,0.9684545993804932,-9.283516883850098,-0.4596867263317108
793,20650.0,0.9684545993804932,-9.283516883850098,-0.4596867263317108
794,20700.0,0.9684545993804932,-9.283516883850098,-0.4596867263317108
795,20750.0,3.581127166748047,-8.696937561035156,-0.09217676520347597
796,20800.0,3.581127166748047,-8.696937561035156,-0.09217676520347597
797,20850.0,3.581127166748047,-8.696937561035156,-0.09217676520347597
798,20900.0,0.6745663285255432,-8.33481502532959,2.7988216876983643
799,20950.0,0.6745663285255432,-8.33481502532959,2.7988216876983643
800,20000.0,0.3417722880840301,-9.572616577148438,0.8463503122329712
801,20050.0,0.3417722880840301,-9.572616577148438,0.8463503122329712
802,20100.0,0.3417722880840301,-9.572616577148438,0.8463503122329712
803,20150.0,0.3417722880840301,-9.572616577148438,0.8463503122329712
804,20200.0,-0.03112462162971497,-9.6803560256958,-1.0342950820922852
805,20250.0,-0.03112462162971497,-9.6803560256958,-1.0342950820922852
806,20300.0,-0.03112462162971497,-9.6803560256958,-1.0342950820922852
807,20350.0,-0.03112462162971497,-9.6803560256958,-1.0342950820922852
808,20400.0,0.20889410376548767,-9.657610893249512,-0.7535749673843384
809,20450.0,0.20889410376548767,-9.657610893249512,-0.7535749673843384
810,20500.0,0.20889410376548767,-9.657610893249512,-0.7535749673843384
811,20550.0,0.9684545993804932,-9.283516883850098,-0.4596867263317108
812,20600.0,0.9684545993804932,-9.283516883850098,-0.4596867263317108
813,20650.0,0.9684545993804932,-9.283516883850098,-0.4596867263317108
814,20700.0,0.9684545993804932,-9.283516883850098,-0.4596867263317108
815,20750.0,3.581127166748047,-8.696937561035156,-0.09217676520347597
816,20800.0,3.581127166748047,-8.696937561035156,-0.09217676520347597
817,20850.0,3.581127166748047,-8.696937561035156,-0.09217676520347597
818,20900.0,0.6745663285255432,-8.33481502532959,2.7988216876983643
819,20950.0,0.6745663285255432,-8.33481502532959,2.7988216876983643
820,21000.0,0.6745663285255432,-8.33481502532959,2.7988216876983643
821,21050.0,0.6745663285255432,-8.33481502532959,2.7988216876983643
822,21100.0,1.747767210006714,-10.867281913757324,1.804031014442444
823,21150.0,1.747767210006714,-10.867281913757324,1.804031014442444
824,21200.0,1.747767210006714,-10.867281913757324,1.804031014442444
825,21250.0,1.747767210006714,-10.867281913757324,1.804031014442444
826,21300.0,1.1971008777618408,-9.729436874389648,-1.731606364250183
827,21350.0,1.1971008777618408,-9.729436874389648,-1.731606364250183
828,21400.0,1.1971008777618408,-9.729436874389648,-1.731606364250183
829,21450.0,-0.4225766062736511,-10.11669921875,-0.7194576263427734
830,21500.0,-0.4225766062736511,-10.11669921875,-0.7194576263427734
831,21550.0,-0.4225766062736511,-10.11669921875,-0.7194576263427734
832,21600.0,-0.4225766062736511,-10.11669921875,-0.7194576263427734
833,21650.0,-0.639850378036499,-9.435548782348633,-0.15023615956306458
834,21700.0,-0.639850378036499,-9.435548782348633,-0.15023615956306458
835,21750.0,-0.639850378036499,-9.435548782348633,-0.15023615956306458
836,21800.0,0.4836287498474121,-9.638457298278807,0.18136078119277954
837,21850.0,0.4836287498474121,-9.638457298278807,0.18136078119277954
838,21900.0,0.4836287498474121,-9.638457298278807,0.18136078119277954
839,21950.0,0.4836287498474121,-9.638457298278807,0.18136078119277954
840,21000.0,0.6745663285255432,-8.33481502532959,2.7988216876983643
841,21050.0,0.6745663285255432,-8.33481502532959,2.7988216876983643
842,21100.0,1.747767210006714,-10.867281913757324,1.804031014442444
843,21150.0,1.747767210006714,-10.867281913757324,1.804031014442444
844,21200.0,1.747767210006714,-10.867281913757324,1.804031014442444
845,21250.0,1.747767210006714,-10.867281913757324,1.804031014442444
846,21300.0,1.1971008777618408,-9.729436874389648,-1.731606364250183
847,21350.0,1.1971008777618408,-9.729436874389648,-1.731606364250183
848,21400.0,1.1971008777618408,-9.729436874389648,-1.731606364250183
849,21450.0,-0.4225766062736511,-10.11669921875,-0.7194576263427734
850,21500.0,-0.4225766062736511,-10.11669921875,-0.7194576263427734
851,21550.0,-0.4225766062736511,-10.11669921875,-0.7194576263427734
852,21600.0,-0.4225766062736511,-10.11669921875,-0.7194576263427734
853,21650.0,-0.639850378036499,-9.435548782348633,-0.15023615956306458
854,21700.0,-0.639850378036499,-9.435548782348633,-0.15023615956306458
855,21750.0,-0.639850378036499,-9.435548782348633,-0.15023615956306458
856,21800.0,0.4836287498474121,-9.638457298278807,0.18136078119277954
857,21850.0,0.4836287498474121,-9.638457298278807,0.18136078119277954
858,21900.0,0.4836287498474121,-9.638457298278807,0.18136078119277954
859,21950.0,0.4836287498474121,-9.638457298278807,0.18136078119277954
860,22000.0,0.9205705523490906,-9.331400871276855,-0.06703764945268631
861,22050.0,0.9205705523490906,-9.331400871276855,-0.06703764945268631
862,22100.0,0.9205705523490906,-9.331400871276855,-0.06703764945268631
863,22150.0,0.9205705523490906,-9.331400871276855,-0.06703764945268631
864,22200.0,0.7122750282287598,-9.554061889648438,0.2064998894929886
865,22250.0,0.7122750282287598,-9.554061889648438,0.2064998894929886
866,22300.0,0.7122750282287598,-9.554061889648438,0.2064998894929886
867,22350.0,-0.4135983288288117,-9.980828285217283,0.20889410376548767
868,22400.0,-0.4135983288288117,-9.980828285217283,0.20889410376548767
869,22450.0,-0.4135983288288117,-9.980828285217283,0.20889410376548767
870,22500.0,-0.4135983288288117,-9.980828285217283,0.20889410376548767
871,22550.0,0.6368576288223267,-9.72824001312256,-0.08918401598930359
872,22600.0,0.6368576288223267,-9.72824001312256,-0.08918401598930359
873,22650.0,0.6368576288223267,-9.72824001312256,-0.08918401598930359
874,22700.0,0.4219780564308167,-9.596558570861816,-0.11611878126859665
875,22750.0,0.4219780564308167,-9.596558570861816,-0.11611878126859665
876,22800.0,0.4219780564308167,-9.596558570861816,-0.11611878126859665
877,22850.0,0.4219780564308167,-9.596558570861816,-0.11611878126859665
878,22900.0,-0.5548562407493591,-9.909601211547852,0.6667851805686951
879,22950.0,-0.5548562407493591,-9.909601211547852,0.6667851805686951
880,22000.0,0.9205705523490906,-9.331400871276855,-0.06703764945268631
881,22050.0,0.9205705523490906,-9.331400871276855,-0.06703764945268631
882,22100.0,0.9205705523490906,-9.331400871276855,-0.06703764945268631
883,22150.0,0.9205705523490906,-9.331400871276855,-0.06703764945268631
884,22200.0,0.7122750282287598,-9.554061889648438,0.2064998894929886
885,22250.0,0.7122750282287598,-9.554061889648438,0.2064998894929886
886,22300.0,0.7122750282287598,-9.554061889648438,0.2064998894929886
887,22350.0,-0.4135983288288117,-9.980828285217283,0.20889410376548767
888,22400.0,-0.4135983288288117,-9.980828285217283,0.20889410376548767
889,22450.0,-0.4135983288288117,-9.980828285217283,0.20889410376548767
890,22500.0,-0.4135983288288117,-9.980828285217283,0.20889410376548767
891,22550.0,0.6368576288223267,-9.72824001312256,-0.08918401598930359
892,22600.0,0.6368576288223267,-9.72824001312256,-0.08918401598930359
893,22650.0,0.6368576288223267,-9.72824001312256,-0.08918401598930359
894,22700.0,0.4219780564308167,-9.596558570861816,-0.11611878126859665
895,22750.0,0.4219780564308167,-9.596558570861816,-0.11611878126859665
896,22800.0,0.4219780564308167,-9.596558570861816,-0.11611878126859665
897,22850.0,0.4219780564308167,-9.596558570861816,-0.11611878126859665
898,22900.0,-0.5548562407493591,-9.909601211547852,0.6667851805686951
899,22950.0,-0.5548562407493591,-9.909601211547852,0.6667851805686951
900,23000.0,-0.5548562407493591,-9.909601211547852,0.6667851805686951
901,23050.0,-0.5548562407493591,-9.909601211547852,0.6667851805686951
902,23100.0,0.20889410376548767,-8.053496360778809,1.999756932258606
903,23150.0,0.20889410376548767,-8.053496360778809,1.999756932258606
904,23200.0,0.20889410376548767,-8.053496360778809,1.999756932258606
905,23250.0,-2.4355015754699707,-8.309077262878418,2.6348190307617188
906,23300.0,-2.4355015754699707,-8.309077262878418,2.6348190307617188
907,23350.0,-2.4355015754699707,-8.309077262878418,2.6348190307617188
908,23400.0,-2.4355015754699707,-8.309077262878418,2.6348190307617188
909,23450.0,0.4620809257030487,-9.201516151428224,1.27191960811615
910,23500.0,0.4620809257030487,-9.201516151428224,1.27191960811615
911,23550.0,0.4620809257030487,-9.201516151428224,1.27191960811615
912,23600.0,-0.2567781209945679,-9.589376449584961,0.4997895956039429
913,23650.0,-0.2567781209945679,-9.589376449584961,0.4997895956039429
914,23700.0,-0.2567781209945679,-9.589376449584961,0.4997895956039429
915,23750.0,-0.2567781209945679,-9.589376449584961,0.4997895956039429
916,23800.0,-0.6015431880950928,-10.437521934509276,3.60028076171875
917,23850.0,-0.6015431880950928,-10.437521934509276,3.60028076171875
918,23900.0,-0.6015431880950928,-10.437521934509276,3.60028076171875
919,23950.0,-0.6015431880950928,-10.437521934509276,3.60028076171875
920,23000.0,-0.5548562407493591,-9.909601211547852,0.6667851805686951
921,23050.0,-0.5548562407493591,-9.909601211547852,0.6667851805686951
922,23100.0,0.20889410376548767,-8.053496360778809,1.999756932258606
923,23150.0,0.20889410376548767,-8.053496360778809,1.999756932258606
924,23200.0,0.20889410376548767,-8.053496360778809,1.999756932258606
925,23250.0,-2.4355015754699707,-8.309077262878418,2.6348190307617188
926,23300.0,-2.4355015754699707,-8.309077262878418,2.6348190307617188
927,23350.0,-2.4355015754699707,-8.309077262878418,2.6348190307617188
928,23400.0,-2.4355015754699707,-8.309077262878418,2.6348190307617188
929,23450.0,0.4620809257030487,-9.201516151428224,1.27191960811615
930,23500.0,0.4620809257030487,-9.201516151428224,1.27191960811615
931,23550.0,0.4620809257030487,-9.201516151428224,1.27191960811615
932,23600.0,-0.2567781209945679,-9.589376449584961,0.4997895956039429
933,23650.0,-0.2567781209945679,-9.589376449584961,0.4997895956039429
934,23700.0,-0.2567781209945679,-9.589376449584961,0.4997895956039429
935,23750.0,-0.2567781209945679,-9.589376449584961,0.4997895956039429
936,23800.0,-0.6015431880950928,-10.437521934509276,3.60028076171875
937,23850.0,-0.6015431880950928,-10.437521934509276,3.60028076171875
938,23900.0,-0.6015431880950928,-10.437521934509276,3.60028076171875
939,23950.0,-0.6015431880950928,-10.437521934509276,3.60028076171875
940,24000.0,0.18195933103561399,-7.238868713378906,3.297414302825928
941,24050.0,0.18195933103561399,-7.238868713378906,3.297414302825928
942,24100.0,0.18195933103561399,-7.238868713378906,3.297414302825928
943,24150.0,0.6775590777397156,-11.631629943847654,3.4368765354156494
944,24200.0,0.6775590777397156,-11.631629943847654,3.4368765354156494
945,24250.0,0.6775590777397156,-11.631629943847654,3.4368765354156494
946,24300.0,0.6775590777397156,-11.631629943847654,3.4368765354156494
947,24350.0,-0.5734112858772278,-10.963647842407227,0.6871358752250671
948,24400.0,-0.5734112858772278,-10.963647842407227,0.6871358752250671
949,24450.0,-0.5734112858772278,-10.963647842407227,0.6871358752250671
950,24500.0,-2.9346926212310787,-11.529876708984375,2.3762452602386475
951,24550.0,-2.9346926212310787,-11.529876708984375,2.3762452602386475
952,24600.0,-2.9346926212310787,-11.529876708984375,2.3762452602386475
953,24650.0,-2.9346926212310787,-11.529876708984375,2.3762452602386475
954,24700.0,-1.4748282432556152,-10.837353706359863,2.473210334777832
955,24750.0,-1.4748282432556152,-10.837353706359863,2.473210334777832
956,24800.0,-1.4748282432556152,-10.837353706359863,2.473210334777832
957,24850.0,-1.4748282432556152,-10.837353706359863,2.473210334777832
958,24900.0,0.6356605291366577,-10.019734382629396,17.505804061889652
959,24950.0,0.6356605291366577,-10.019734382629396,17.505804061889652
960,24000.0,0.18195933103561399,-7.238868713378906,3.297414302825928
961,24050.0,0.18195933103561399,-7.238868713378906,3.297414302825928
962,24100.0,0.18195933103561399,-7.238868713378906,3.297414302825928
963,24150.0,0.6775590777397156,-11.631629943847654,3.4368765354156494
964,24200.0,0.6775590777397156,-11.631629943847654,3.4368765354156494
965,24250.0,0.6775590777397156,-11.631629943847654,3.4368765354156494
966,24300.0,0.6775590777397156,-11.631629943847654,3.4368765354156494
967,24350.0,-0.5734112858772278,-10.963647842407227,0.6871358752250671
968,24400.0,-0.5734112858772278,-10.963647842407227,0.6871358752250671
969,24450.0,-0.5734112858772278,-10.963647842407227,0.6871358752250671
970,24500.0,-2.9346926212310787,-11.529876708984375,2.3762452602386475
971,24550.0,-2.9346926212310787,-11.529876708984375,2.3762452602386475
972,24600.0,-2.9346926212310787,-11.529876708984375,2.3762452602386475
973,24650.0,-2.9346926212310787,-11.529876708984375,2.3762452602386475
974,24700.0,-1.4748282432556152,-10.837353706359863,2.473210334777832
975,24750.0,-1.4748282432556152,-10.837353706359863,2.473210334777832
976,24800.0,-1.4748282432556152,-10.837353706359863,2.473210334777832
977,24850.0,-1.4748282432556152,-10.837353706359863,2.473210334777832
978,24900.0,0.6356605291366577,-10.019734382629396,17.505804061889652
979,24950.0,0.6356605291366577,-10.019734382629396,17.505804061889652
980,25000.0,0.6356605291366577,-10.019734382629396,17.505804061889652
981,25050.0,-2.097320795059204,-9.856928825378418,0.0011971008498221636
982,25100.0,-2.097320795059204,-9.856928825378418,0.0011971008498221636
983,25150.0,-2.097320795059204,-9.856928825378418,0.0011971008498221636
984,25200.0,-2.097320795059204,-9.856928825378418,0.0011971008498221636
985,25250.0,0.3363853394985199,-9.745597839355467,-1.1869255304336548
986,25300.0,0.3363853394985199,-9.745597839355467,-1.1869255304336548
987,25350.0,0.3363853394985199,-9.745597839355467,-1.1869255304336548
988,25400.0,-0.5015852451324463,-12.144588470458984,3.469796895980835
989,25450.0,-0.5015852451324463,-12.144588470458984,3.469796895980835
990,25500.0,-0.5015852451324463,-12.144588470458984,3.469796895980835
991,25550.0,-0.5015852451324463,-12.144588470458984,3.469796895980835
992,25600.0,0.3519476354122162,-7.76020622253418,2.748543500900269
993,25650.0,0.3519476354122162,-7.76020622253418,2.748543500900269
994,25700.0,0.3519476354122162,-7.76020622253418,2.748543500900269
995,25750.0,0.3519476354122162,-7.76020622253418,2.748543500900269
996,25800.0,-0.08619125932455063,-9.502586364746094,2.45824670791626
997,25850.0,-0.08619125932455063,-9.502586364746094,2.45824670791626
998,25900.0,-0.08619125932455063,-9.502586364746094,2.45824670791626
999,25950.0,2.3307554721832275,-11.287464141845705,1.8608932495117188
1000,25000.0,0.6356605291366577,-10.019734382629396,17.505804061889652
1001,25050.0,-2.097320795059204,-9.856928825378418,0.0011971008498221636
1002,25100.0,-2.097320795059204,-9.856928825378418,0.0011971008498221636
1003,25150.0,-2.097320795059204,-9.856928825378418,0.0011971008498221636
1004,25200.0,-2.097320795059204,-9.856928825378418,0.0011971008498221636
1005,25250.0,0.3363853394985199,-9.745597839355467,-1.1869255304336548
1006,25300.0,0.3363853394985199,-9.745597839355467,-1.1869255304336548
1007,25350.0,0.3363853394985199,-9.745597839355467,-1.1869255304336548
1008,25400.0,-0.5015852451324463,-12.144588470458984,3.469796895980835
1009,25450.0,-0.5015852451324463,-12.144588470458984,3.469796895980835
1010,25500.0,-0.5015852451324463,-12.144588470458984,3.469796895980835
1011,25550.0,-0.5015852451324463,-12.144588470458984,3.469796895980835
1012,25600.0,0.3519476354122162,-7.76020622253418,2.748543500900269
1013,25650.0,0.3519476354122162,-7.76020622253418,2.748543500900269
1014,25700.0,0.3519476354122162,-7.76020622253418,2.748543500900269
1015,25750.0,0.3519476354122162,-7.76020622253418,2.748543500900269
1016,25800.0,-0.08619125932455063,-9.502586364746094,2.45824670791626
1017,25850.0,-0.08619125932455063,-9.502586364746094,2.45824670791626
1018,25900.0,-0.08619125932455063,-9.502586364746094,2.45824670791626
1019,25950.0,2.3307554721832275,-11.287464141845705,1.8608932495117188
1020,26000.0,2.3307554721832275,-11.287464141845705,1.8608932495117188
1021,26050.0,2.3307554721832275,-11.287464141845705,1.8608932495117188
1022,26100.0,2.3307554721832275,-11.287464141845705,1.8608932495117188
1023,26150.0,-0.1777694821357727,-10.381258964538574,2.0386626720428467
1024,26200.0,-0.1777694821357727,-10.381258964538574,2.0386626720428467
1025,26250.0,-0.1777694821357727,-10.381258964538574,2.0386626720428467
1026,26300.0,1.7250223159790041,-10.171167373657227,-0.1885433793067932
1027,26350.0,1.7250223159790041,-10.171167373657227,-0.1885433793067932
1028,26400.0,1.7250223159790041,-10.171167373657227,-0.1885433793067932
1029,26450.0,1.7250223159790041,-10.171167373657227,-0.1885433793067932
1030,26500.0,0.23163901269435885,-9.220669746398926,-1.5269020795822144
1031,26550.0,0.23163901269435885,-9.220669746398926,-1.5269020795822144
1032,26600.0,0.23163901269435885,-9.220669746398926,-1.5269020795822144
1033,26650.0,0.23163901269435885,-9.220669746398926,-1.5269020795822144
1034,26700.0,1.0935516357421875,-9.525331497192383,-0.5416881442070007
1035,26750.0,1.0935516357421875,-9.525331497192383,-0.5416881442070007
1036,26800.0,1.0935516357421875,-9.525331497192383,-0.5416881442070007
1037,26850.0,2.501342296600342,-9.752182006835938,2.9747955799102783
1038,26900.0,2.501342296600342,-9.752182006835938,2.9747955799102783
1039,26950.0,2.501342296600342,-9.752182006835938,2.9747955799102783
1040,26000.0,2.3307554721832275,-11.287464141845705,1.8608932495117188
1041,26050.0,2.3307554721832275,-11.287464141845705,1.8608932495117188
1042,26100.0,2.3307554721832275,-11.287464141845705,1.8608932495117188
1043,26150.0,-0.1777694821357727,-10.381258964538574,2.0386626720428467
1044,26200.0,-0.1777694821357727,-10.381258964538574,2.0386626720428467
1045,26250.0,-0.1777694821357727,-10.381258964538574,2.0386626720428467
1046,26300.0,1.7250223159790041,-10.171167373657227,-0.1885433793067932
1047,26350.0,1.7250223159790041,-10.171167373657227,-0.1885433793067932
1048,26400.0,1.7250223159790041,-10.171167373657227,-0.1885433793067932
1049,26450.0,1.7250223159790041,-10.171167373657227,-0.1885433793067932
1050,26500.0,0.23163901269435885,-9.220669746398926,-1.5269020795822144
1051,26550.0,0.23163901269435885,-9.220669746398926,-1.5269020795822144
1052,26600.0,0.23163901269435885,-9.220669746398926,-1.5269020795822144
1053,26650.0,0.23163901269435885,-9.220669746398926,-1.5269020795822144
1054,26700.0,1.0935516357421875,-9.525331497192383,-0.5416881442070007
1055,26750.0,1.0935516357421875,-9.525331497192383,-0.5416881442070007
1056,26800.0,1.0935516357421875,-9.525331497192383,-0.5416881442070007
1057,26850.0,2.501342296600342,-9.752182006835938,2.9747955799102783
1058,26900.0,2.501342296600342,-9.752182006835938,2.9747955799102783
1059,26950.0,2.501342296600342,-9.752182006835938,2.9747955799102783
1060,27000.0,2.501342296600342,-9.752182006835938,2.9747955799102783
1061,27050.0,1.206079125404358,-8.839991569519043,1.8704700469970703
1062,27100.0,1.206079125404358,-8.839991569519043,1.8704700469970703
1063,27150.0,1.206079125404358,-8.839991569519043,1.8704700469970703
1064,27200.0,1.928529500961304,-9.388861656188963,1.568800687789917
1065,27250.0,1.928529500961304,-9.388861656188963,1.568800687789917
1066,27300.0,1.928529500961304,-9.388861656188963,1.568800687789917
1067,27350.0,1.928529500961304,-9.388861656188963,1.568800687789917
1068,27400.0,0.3531447649002075,-9.014169692993164,0.2304419130086899
1069,27450.0,0.3531447649002075,-9.014169692993164,0.2304419130086899
1070,27500.0,0.3531447649002075,-9.014169692993164,0.2304419130086899
1071,27550.0,0.3531447649002075,-9.014169692993164,0.2304419130086899
1072,27600.0,0.9540894031524658,-10.18792724609375,2.3594858646392822
1073,27650.0,0.9540894031524658,-10.18792724609375,2.3594858646392822
1074,27700.0,0.9540894031524658,-10.18792724609375,2.3594858646392822
1075,27750.0,0.4303577542304993,-10.301053047180176,0.3645172119140625
1076,27800.0,0.4303577542304993,-10.301053047180176,0.3645172119140625
1077,27850.0,0.4303577542304993,-10.301053047180176,0.3645172119140625
1078,27900.0,0.4303577542304993,-10.301053047180176,0.3645172119140625
1079,27950.0,0.9373299479484558,-9.750386238098145,-0.811634361743927
1080,27000.0,2.501342296600342,-9.752182006835938,2.9747955799102783
1081,27050.0,1.206079125404358,-8.839991569519043,1.8704700469970703
1082,27100.0,1.206079125404358,-8.839991569519043,1.8704700469970703
1083,27150.0,1.206079125404358,-8.839991569519043,1.8704700469970703
1084,27200.0,1.928529500961304,-9.388861656188963,1.568800687789917
1085,27250.0,1.928529500961304,-9.388861656188963,1.568800687789917
1086,27300.0,1.928529500961304,-9.388861656188963,1.568800687789917
1087,27350.0,1.928529500961304,-9.388861656188963,1.568800687789917
1088,27400.0,0.3531447649002075,-9.014169692993164,0.2304419130086899
1089,27450.0,0.3531447649002075,-9.014169692993164,0.2304419130086899
1090,27500.0,0.3531447649002075,-9.014169692993164,0.2304419130086899
1091,27550.0,0.3531447649002075,-9.014169692993164,0.2304419130086899
1092,27600.0,0.9540894031524658,-10.18792724609375,2.3594858646392822
1093,27650.0,0.9540894031524658,-10.18792724609375,2.3594858646392822
1094,27700.0,0.9540894031524658,-10.18792724609375,2.3594858646392822
1095,27750.0,0.4303577542304993,-10.301053047180176,0.3645172119140625
1096,27800.0,0.4303577542304993,-10.301053047180176,0.3645172119140625
1097,27850.0,0.4303577542304993,-10.301053047180176,0.3645172119140625
1098,27900.0,0.4303577542304993,-10.301053047180176,0.3645172119140625
1099,27950.0,0.9373299479484558,-9.750386238098145,-0.811634361743927
1100,28000.0,0.9373299479484558,-9.750386238098145,-0.811634361743927
1101,28050.0,0.9373299479484558,-9.750386238098145,-0.811634361743927
1102,28100.0,-0.03651157766580582,-9.494206428527832,-0.2340332120656967
1103,28150.0,-0.03651157766580582,-9.494206428527832,-0.2340332120656967
1104,28200.0,-0.03651157766580582,-9.494206428527832,-0.2340332120656967
1105,28250.0,-0.03651157766580582,-9.494206428527832,-0.2340332120656967
1106,28300.0,1.3898340463638306,-9.129091262817383,1.4269442558288574
1107,28350.0,1.3898340463638306,-9.129091262817383,1.4269442558288574
1108,28400.0,1.3898340463638306,-9.129091262817383,1.4269442558288574
1109,28450.0,1.3898340463638306,-9.129091262817383,1.4269442558288574
1110,28500.0,1.8183962106704712,-9.500192642211914,2.1481974124908447
1111,28550.0,1.8183962106704712,-9.500192642211914,2.1481974124908447
1112,28600.0,1.8183962106704712,-9.500192642211914,2.1481974124908447
1113,28650.0,0.5147533416748047,-8.940547943115234,1.7304092645645142
1114,28700.0,0.5147533416748047,-8.940547943115234,1.7304092645645142
1115,28750.0,0.5147533416748047,-8.940547943115234,1.7304092645645142
1116,28800.0,0.5147533416748047,-8.940547943115234,1.7304092645645142
1117,28850.0,1.105522632598877,-8.99740982055664,1.8519150018692017
1118,28900.0,1.105522632598877,-8.99740982055664,1.8519150018692017
1119,28950.0,1.105522632598877,-8.99740982055664,1.8519150018692017
1120,28000.0,0.9373299479484558,-9.750386238098145,-0.811634361743927
1121,28050.0,0.9373299479484558,-9.750386238098145,-0.811634361743927
1122,28100.0,-0.03651157766580582,-9.494206428527832,-0.2340332120656967
1123,28150.0,-0.03651157766580582,-9.494206428527832,-0.2340332120656967
1124,28200.0,-0.03651157766580582,-9.494206428527832,-0.2340332120656967
1125,28250.0,-0.03651157766580582,-9.494206428527832,-0.2340332120656967
1126,28300.0,1.3898340463638306,-9.129091262817383,1.4269442558288574
1127,28350.0,1.3898340463638306,-9.129091262817383,1.4269442558288574
1128,28400.0,1.3898340463638306,-9.129091262817383,1.4269442558288574
1129,28450.0,1.3898340463638306,-9.129091262817383,1.4269442558288574
1130,28500.0,1.8183962106704712,-9.500192642211914,2.1481974124908447
1131,28550.0,1.8183962106704712,-9.500192642211914,2.1481974124908447
1132,28600.0,1.8183962106704712,-9.500192642211914,2.1481974124908447
1133,28650.0,0.5147533416748047,-8.940547943115234,1.7304092645645142
1134,28700.0,0.5147533416748047,-8.940547943115234,1.7304092645645142
1135,28750.0,0.5147533416748047,-8.940547943115234,1.7304092645645142
1136,28800.0,0.5147533416748047,-8.940547943115234,1.7304092645645142
1137,28850.0,1.105522632598877,-8.99740982055664,1.8519150018692017
1138,28900.0,1.105522632598877,-8.99740982055664,1.8519150018692017
1139,28950.0,1.105522632598877,-8.99740982055664,1.8519150018692017
1140,29000.0,1.105522632598877,-8.99740982055664,1.8519150018692017
1141,29050.0,0.9415197968482972,-10.344746589660645,-0.5374982953071594
1142,29100.0,0.9415197968482972,-10.344746589660645,-0.5374982953071594
1143,29150.0,0.9415197968482972,-10.344746589660645,-0.5374982953071594
1144,29200.0,-1.0720038414001465,-10.119691848754883,2.7527334690093994
1145,29250.0,-1.0720038414001465,-10.119691848754883,2.7527334690093994
1146,29300.0,-1.0720038414001465,-10.119691848754883,2.7527334690093994
1147,29350.0,-1.0720038414001465,-10.119691848754883,2.7527334690093994
1148,29400.0,0.08080431073904037,-9.551069259643556,0.14365209639072418
1149,29450.0,0.08080431073904037,-9.551069259643556,0.14365209639072418
1150,29500.0,0.08080431073904037,-9.551069259643556,0.14365209639072418
1151,29550.0,-0.3166331648826599,-9.50857162475586,0.8307880163192749
1152,29600.0,-0.3166331648826599,-9.50857162475586,0.8307880163192749
1153,29650.0,-0.3166331648826599,-9.50857162475586,0.8307880163192749
1154,29700.0,-0.3166331648826599,-9.50857162475586,0.8307880163192749
1155,29750.0,0.7116764783859253,-9.761159896850586,1.1192892789840698
1156,29800.0,0.7116764783859253,-9.761159896850586,1.1192892789840698
1157,29850.0,0.7116764783859253,-9.761159896850586,1.1192892789840698
1158,29900.0,0.7116764783859253,-9.761159896850586,1.1192892789840698
1159,29950.0,0.3543418645858765,-9.743802070617676,0.828393816947937
1160,29000.0,1.105522632598877,-8.99740982055664,1.8519150018692017
1161,29050.0,0.9415197968482972,-10.344746589660645,-0.5374982953071594
1162,29100.0,0.9415197968482972,-10.344746589660645,-0.5374982953071594
1163,29150.0,0.9415197968482972,-10.344746589660645,-0.5374982953071594
1164,29200.0,-1.0720038414001465,-10.119691848754883,2.7527334690093994
1165,29250.0,-1.0720038414001465,-10.119691848754883,2.7527334690093994
1166,29300.0,-1.0720038414001465,-10.119691848754883,2.7527334690093994
1167,29350.0,-1.0720038414001465,-10.119691848754883,2.7527334690093994
1168,29400.0,0.08080431073904037,-9.551069259643556,0.14365209639072418
1169,29450.0,0.08080431073904037,-9.551069259643556,0.14365209639072418
1170,29500.0,0.08080431073904037,-9.551069259643556,0.14365209639072418
1171,29550.0,-0.3166331648826599,-9.50857162475586,0.8307880163192749
1172,29600.0,-0.3166331648826599,-9.50857162475586,0.8307880163192749
1173,29650.0,-0.3166331648826599,-9.50857162475586,0.8307880163192749
1174,29700.0,-0.3166331648826599,-9.50857162475586,0.8307880163192749
1175,29750.0,0.7116764783859253,-9.761159896850586,1.1192892789840698
1176,29800.0,0.7116764783859253,-9.761159896850586,1.1192892789840698
1177,29850.0,0.7116764783859253,-9.761159896850586,1.1192892789840698
1178,29900.0,0.7116764783859253,-9.761159896850586,1.1192892789840698
1179,29950.0,0.3543418645858765,-9.743802070617676,0.828393816947937
1180,30000.0,0.3543418645858765,-9.743802070617676,0.828393816947937
1181,30050.0,0.3543418645858765,-9.743802070617676,0.828393816947937
1182,30100.0,0.013168109580874443,-9.797073364257812,0.4979939460754394
1183,30150.0,0.013168109580874443,-9.797073364257812,0.4979939460754394
1184,30200.0,0.013168109580874443,-9.797073364257812,0.4979939460754394
1185,30250.0,0.013168109580874443,-9.797073364257812,0.4979939460754394
1186,30300.0,0.03770867735147476,-9.59596061706543,0.5273229479789734
1187,30350.0,0.03770867735147476,-9.59596061706543,0.5273229479789734
1188,30400.0,0.03770867735147476,-9.59596061706543,0.5273229479789734
1189,30450.0,-0.9151836037635804,-9.647436141967773,0.5644330382347107
1190,30500.0,-0.9151836037635804,-9.647436141967773,0.5644330382347107
1191,30550.0,-0.9151836037635804,-9.647436141967773,0.5644330382347107
1192,30600.0,-0.9151836037635804,-9.647436141967773,0.5644330382347107
1193,30650.0,-0.1777694821357727,-9.485228538513184,1.004966139793396
1194,30700.0,-0.1777694821357727,-9.485228538513184,1.004966139793396
1195,30750.0,-0.1777694821357727,-9.485228538513184,1.004966139793396
1196,30800.0,-0.1777694821357727,-9.485228538513184,1.004966139793396
1197,30850.0,0.5680243372917175,-9.66539192199707,0.997184991836548
1198,30900.0,0.5680243372917175,-9.66539192199707,0.997184991836548
1199,30950.0,0.5680243372917175,-9.66539192199707,0.997184991836548
1200,30000.0,0.3543418645858765,-9.743802070617676,0.828393816947937
1201,30050.0,0.3543418645858765,-9.743802070617676,0.828393816947937
1202,30100.0,0.013168109580874443,-9.797073364257812,0.4979939460754394
1203,30150.0,0.013168109580874443,-9.797073364257812,0.4979939460754394
1204,30200.0,0.013168109580874443,-9.797073364257812,0.4979939460754394
1205,30250.0,0.013168109580874443,-9.797073364257812,0.4979939460754394
1206,30300.0,0.03770867735147476,-9.59596061706543,0.5273229479789734
1207,30350.0,0.03770867735147476,-9.59596061706543,0.5273229479789734
1208,30400.0,0.03770867735147476,-9.59596061706543,0.5273229479789734
1209,30450.0,-0.9151836037635804,-9.647436141967773,0.5644330382347107
1210,30500.0,-0.9151836037635804,-9.647436141967773,0.5644330382347107
1211,30550.0,-0.9151836037635804,-9.647436141967773,0.5644330382347107
1212,30600.0,-0.9151836037635804,-9.647436141967773,0.5644330382347107
1213,30650.0,-0.1777694821357727,-9.485228538513184,1.004966139793396
1214,30700.0,-0.1777694821357727,-9.485228538513184,1.004966139793396
1215,30750.0,-0.1777694821357727,-9.485228538513184,1.004966139793396
1216,30800.0,-0.1777694821357727,-9.485228538513184,1.004966139793396
1217,30850.0,0.5680243372917175,-9.66539192199707,0.997184991836548
1218,30900.0,0.5680243372917175,-9.66539192199707,0.997184991836548
1219,30950.0,0.5680243372917175,-9.66539192199707,0.997184991836548
1220,31000.0,0.9911994934082032,-9.121310234069824,1.6466121673583984
1221,31050.0,0.9911994934082032,-9.121310234069824,1.6466121673583984
1222,31100.0,0.9911994934082032,-9.121310234069824,1.6466121673583984
1223,31150.0,0.9911994934082032,-9.121310234069824,1.6466121673583984
1224,31200.0,0.25438392162323004,-10.639233589172363,3.914519786834717
1225,31250.0,0.25438392162323004,-10.639233589172363,3.914519786834717
1226,31300.0,0.25438392162323004,-10.639233589172363,3.914519786834717
1227,31350.0,-0.07182604819536209,-7.462128162384032,2.3277626037597656
1228,31400.0,-0.07182604819536209,-7.462128162384032,2.3277626037597656
1229,31450.0,-0.07182604819536209,-7.462128162384032,2.3277626037597656
1230,31500.0,-0.07182604819536209,-7.462128162384032,2.3277626037597656
1231,31550.0,0.2986766695976257,-9.623494148254396,3.159149169921875
1232,31600.0,0.2986766695976257,-9.623494148254396,3.159149169921875
1233,31650.0,0.2986766695976257,-9.623494148254396,3.159149169921875
1234,31700.0,0.2986766695976257,-9.623494148254396,3.159149169921875
1235,31750.0,2.2427685260772705,-9.55166721343994,2.670133352279663
1236,31800.0,2.2427685260772705,-9.55166721343994,2.670133352279663
1237,31850.0,2.2427685260772705,-9.55166721343994,2.670133352279663
1238,31900.0,0.5135562419891357,-9.73542308807373,1.734000563621521
1239,31950.0,0.5135562419891357,-9.73542308807373,1.734000563621521
1240,31000.0,0.9911994934082032,-9.121310234069824,1.6466121673583984
1241,31050.0,0.9911994934082032,-9.121310234069824,1.6466121673583984
1242,31100.0,0.9911994934082032,-9.121310234069824,1.6466121673583984
1243,31150.0,0.9911994934082032,-9.121310234069824,1.6466121673583984
1244,31200.0,0.25438392162323004,-10.639233589172363,3.914519786834717
1245,31250.0,0.25438392162323004,-10.639233589172363,3.914519786834717
1246,31300.0,0.25438392162323004,-10.639233589172363,3.914519786834717
1247,31350.0,-0.07182604819536209,-7.462128162384032,2.3277626037597656
1248,31400.0,-0.07182604819536209,-7.462128162384032,2.3277626037597656
1249,31450.0,-0.07182604819536209,-7.462128162384032,2.3277626037597656
1250,31500.0,-0.07182604819536209,-7.462128162384032,2.3277626037597656
1251,31550.0,0.2986766695976257,-9.623494148254396,3.159149169921875
1252,31600.0,0.2986766695976257,-9.623494148254396,3.159149169921875
1253,31650.0,0.2986766695976257,-9.623494148254396,3.159149169921875
1254,31700.0,0.2986766695976257,-9.623494148254396,3.159149169921875
1255,31750.0,2.2427685260772705,-9.55166721343994,2.670133352279663
1256,31800.0,2.2427685260772705,-9.55166721343994,2.670133352279663
1257,31850.0,2.2427685260772705,-9.55166721343994,2.670133352279663
1258,31900.0,0.5135562419891357,-9.73542308807373,1.734000563621521
1259,31950.0,0.5135562419891357,-9.73542308807373,1.734000563621521
1260,32000.0,0.5135562419891357,-9.73542308807373,1.734000563621521
1261,32050.0,0.5135562419891357,-9.73542308807373,1.734000563621521
1262,32100.0,1.835754156112671,-9.545681953430176,-0.36391866207122797
1263,32150.0,1.835754156112671,-9.545681953430176,-0.36391866207122797
1264,32200.0,1.835754156112671,-9.545681953430176,-0.36391866207122797
1265,32250.0,-1.6226701736450195,-10.402207374572754,-0.3800795078277588
1266,32300.0,-1.6226701736450195,-10.402207374572754,-0.3800795078277588
1267,32350.0,-1.6226701736450195,-10.402207374572754,-0.3800795078277588
1268,32400.0,-1.6226701736450195,-10.402207374572754,-0.3800795078277588
1269,32450.0,0.4094084799289704,-9.484031677246094,-0.2902969419956207
1270,32500.0,0.4094084799289704,-9.484031677246094,-0.2902969419956207
1271,32550.0,0.4094084799289704,-9.484031677246094,-0.2902969419956207
1272,32600.0,0.4094084799289704,-9.484031677246094,-0.2902969419956207
1273,32650.0,0.13826514780521393,-9.797073364257812,-0.12210428714752194
1274,32700.0,0.13826514780521393,-9.797073364257812,-0.12210428714752194
1275,32750.0,0.13826514780521393,-9.797073364257812,-0.12210428714752194
1276,32800.0,0.5680243372917175,-9.618106842041016,0.023343466222286224
1277,32850.0,0.5680243372917175,-9.618106842041016,0.023343466222286224
1278,32900.0,0.5680243372917175,-9.618106842041016,0.023343466222286224
1279,32950.0,0.5680243372917175,-9.618106842041016,0.023343466222286224
1280,32000.0,0.5135562419891357,-9.73542308807373,1.734000563621521
1281,32050.0,0.5135562419891357,-9.73542308807373,1.734000563621521
1282,32100.0,1.835754156112671,-9.545681953430176,-0.36391866207122797
1283,32150.0,1.835754156112671,-9.545681953430176,-0.36391866207122797
1284,32200.0,1.835754156112671,-9.545681953430176,-0.36391866207122797
1285,32250.0,-1.6226701736450195,-10.402207374572754,-0.3800795078277588
1286,32300.0,-1.6226701736450195,-10.402207374572754,-0.3800795078277588
1287,32350.0,-1.6226701736450195,-10.402207374572754,-0.3800795078277588
1288,32400.0,-1.6226701736450195,-10.402207374572754,-0.3800795078277588
1289,32450.0,0.4094084799289704,-9.484031677246094,-0.2902969419956207
1290,32500.0,0.4094084799289704,-9.484031677246094,-0.2902969419956207
1291,32550.0,0.4094084799289704,-9.484031677246094,-0.2902969419956207
1292,32600.0,0.4094084799289704,-9.484031677246094,-0.2902969419956207
1293,32650.0,0.13826514780521393,-9.797073364257812,-0.12210428714752194
1294,32700.0,0.13826514780521393,-9.797073364257812,-0.12210428714752194
1295,32750.0,0.13826514780521393,-9.797073364257812,-0.12210428714752194
1296,32800.0,0.5680243372917175,-9.618106842041016,0.023343466222286224
1297,32850.0,0.5680243372917175,-9.618106842041016,0.023343466222286224
1298,32900.0,0.5680243372917175,-9.618106842041016,0.023343466222286224
1299,32950.0,0.5680243372917175,-9.618106842041016,0.023343466222286224
1300,33000.0,2.75812029838562,-9.39245319366455,0.6051344871520996
1301,33050.0,2.75812029838562,-9.39245319366455,0.6051344871520996
1302,33100.0,2.75812029838562,-9.39245319366455,0.6051344871520996
1303,33150.0,-0.4842272996902466,-9.894038200378418,2.1248540878295903
1304,33200.0,-0.4842272996902466,-9.894038200378418,2.1248540878295903
1305,33250.0,-0.4842272996902466,-9.894038200378418,2.1248540878295903
1306,33300.0,-0.4842272996902466,-9.894038200378418,2.1248540878295903
1307,33350.0,2.3373394012451167,-9.06983470916748,1.2545616626739502
1308,33400.0,2.3373394012451167,-9.06983470916748,1.2545616626739502
1309,33450.0,2.3373394012451167,-9.06983470916748,1.2545616626739502
1310,33500.0,2.3373394012451167,-9.06983470916748,1.2545616626739502
1311,33550.0,1.4425065517425537,-9.601945877075195,0.12689268589019775
1312,33600.0,1.4425065517425537,-9.601945877075195,0.12689268589019775
1313,33650.0,1.4425065517425537,-9.601945877075195,0.12689268589019775
1314,33700.0,-0.2867056429386139,-9.39245319366455,-1.0187327861785889
1315,33750.0,-0.2867056429386139,-9.39245319366455,-1.0187327861785889
1316,33800.0,-0.2867056429386139,-9.39245319366455,-1.0187327861785889
1317,33850.0,-0.2867056429386139,-9.39245319366455,-1.0187327861785889
1318,33900.0,-0.8852560520172119,-10.894814491271973,-0.06524199992418289
1319,33950.0,-0.8852560520172119,-10.894814491271973,-0.06524199992418289
1320,33000.0,2.75812029838562,-9.39245319366455,0.6051344871520996
1321,33050.0,2.75812029838562,-9.39245319366455,0.6051344871520996
1322,33100.0,2.75812029838562,-9.39245319366455,0.6051344871520996
1323,33150.0,-0.4842272996902466,-9.894038200378418,2.1248540878295903
1324,33200.0,-0.4842272996902466,-9.894038200378418,2.1248540878295903
1325,33250.0,-0.4842272996902466,-9.894038200378418,2.1248540878295903
1326,33300.0,-0.4842272996902466,-9.894038200378418,2.1248540878295903
1327,33350.0,2.3373394012451167,-9.06983470916748,1.2545616626739502
1328,33400.0,2.3373394012451167,-9.06983470916748,1.2545616626739502
1329,33450.0,2.3373394012451167,-9.06983470916748,1.2545616626739502
1330,33500.0,2.3373394012451167,-9.06983470916748,1.2545616626739502
1331,33550.0,1.4425065517425537,-9.601945877075195,0.12689268589019775
1332,33600.0,1.4425065517425537,-9.601945877075195,0.12689268589019775
1333,33650.0,1.4425065517425537,-9.601945877075195,0.12689268589019775
1334,33700.0,-0.2867056429386139,-9.39245319366455,-1.0187327861785889
1335,33750.0,-0.2867056429386139,-9.39245319366455,-1.0187327861785889
1336,33800.0,-0.2867056429386139,-9.39245319366455,-1.0187327861785889
1337,33850.0,-0.2867056429386139,-9.39245319366455,-1.0187327861785889
1338,33900.0,-0.8852560520172119,-10.894814491271973,-0.06524199992418289
1339,33950.0,-0.8852560520172119,-10.894814491271973,-0.06524199992418289
1340,34000.0,-0.8852560520172119,-10.894814491271973,-0.06524199992418289
1341,34050.0,-0.4040215313434601,-10.029909133911133,0.1586158573627472
1342,34100.0,-0.4040215313434601,-10.029909133911133,0.1586158573627472
1343,34150.0,-0.4040215313434601,-10.029909133911133,0.1586158573627472
1344,34200.0,-0.4040215313434601,-10.029909133911133,0.1586158573627472
1345,34250.0,-0.04489128291606903,-9.64564037322998,-0.33937808871269226
1346,34300.0,-0.04489128291606903,-9.64564037322998,-0.33937808871269226
1347,34350.0,-0.04489128291606903,-9.64564037322998,-0.33937808871269226
1348,34400.0,-0.04489128291606903,-9.64564037322998,-0.33937808871269226
1349,34450.0,0.690727174282074,-9.633668899536133,-0.5368997454643251
1350,34500.0,0.690727174282074,-9.633668899536133,-0.5368997454643251
1351,34550.0,0.690727174282074,-9.633668899536133,-0.5368997454643251
1352,34600.0,2.145803213119507,-9.46607494354248,-0.3561375141143799
1353,34650.0,2.145803213119507,-9.46607494354248,-0.3561375141143799
1354,34700.0,2.145803213119507,-9.46607494354248,-0.3561375141143799
1355,34750.0,2.145803213119507,-9.46607494354248,-0.3561375141143799
1356,34800.0,-0.23942017555236814,-10.055048942565918,1.6543933153152466
1357,34850.0,-0.23942017555236814,-10.055048942565918,1.6543933153152466
1358,34900.0,-0.23942017555236814,-10.055048942565918,1.6543933153152466
1359,34950.0,1.3072341680526731,-8.577826499938965,1.6406266689300537
1360,34000.0,-0.8852560520172119,-10.894814491271973,-0.06524199992418289
1361,34050.0,-0.4040215313434601,-10.029909133911133,0.1586158573627472
1362,34100.0,-0.4040215313434601,-10.029909133911133,0.1586158573627472
1363,34150.0,-0.4040215313434601,-10.029909133911133,0.1586158573627472
1364,34200.0,-0.4040215313434601,-10.029909133911133,0.1586158573627472
1365,34250.0,-0.04489128291606903,-9.64564037322998,-0.33937808871269226
1366,34300.0,-0.04489128291606903,-9.64564037322998,-0.33937808871269226
1367,34350.0,-0.04489128291606903,-9.64564037322998,-0.33937808871269226
1368,34400.0,-0.04489128291606903,-9.64564037322998,-0.33937808871269226
1369,34450.0,0.690727174282074,-9.633668899536133,-0.5368997454643251
1370,34500.0,0.690727174282074,-9.633668899536133,-0.5368997454643251
1371,34550.0,0.690727174282074,-9.633668899536133,-0.5368997454643251
1372,34600.0,2.145803213119507,-9.46607494354248,-0.3561375141143799
1373,34650.0,2.145803213119507,-9.46607494354248,-0.3561375141143799
1374,34700.0,2.145803213119507,-9.46607494354248,-0.3561375141143799
1375,34750.0,2.145803213119507,-9.46607494354248,-0.3561375141143799
1376,34800.0,-0.23942017555236814,-10.055048942565918,1.6543933153152466
1377,34850.0,-0.23942017555236814,-10.055048942565918,1.6543933153152466
1378,34900.0,-0.23942017555236814,-10.055048942565918,1.6543933153152466
1379,34950.0,1.3072341680526731,-8.577826499938965,1.6406266689300537
1380,35000.0,1.3072341680526731,-8.577826499938965,1.6406266689300537
1381,35050.0,1.3072341680526731,-8.577826499938965,1.6406266689300537
1382,35100.0,1.3072341680526731,-8.577826499938965,1.6406266689300537
1383,35150.0,1.834557056427002,-8.743025779724121,1.6980875730514526
1384,35200.0,1.834557056427002,-8.743025779724121,1.6980875730514526
1385,35250.0,1.834557056427002,-8.743025779724121,1.6980875730514526
1386,35300.0,1.834557056427002,-8.743025779724121,1.6980875730514526
1387,35350.0,2.273294448852539,-9.321824073791504,0.7481880187988281
1388,35400.0,2.273294448852539,-9.321824073791504,0.7481880187988281
1389,35450.0,2.273294448852539,-9.321824073791504,0.7481880187988281
1390,35500.0,-1.6184803247451782,-10.720038414001463,0.5668272376060486
1391,35550.0,-1.6184803247451782,-10.720038414001463,0.5668272376060486
1392,35600.0,-1.6184803247451782,-10.720038414001463,0.5668272376060486
1393,35650.0,-1.6184803247451782,-10.720038414001463,0.5668272376060486
1394,35700.0,-0.06643909960985184,-9.807847023010254,1.4718354940414429
1395,35750.0,-0.06643909960985184,-9.807847023010254,1.4718354940414429
1396,35800.0,-0.06643909960985184,-9.807847023010254,1.4718354940414429
1397,35850.0,-0.37888240814208973,-9.436745643615724,-0.4129997789859772
1398,35900.0,-0.37888240814208973,-9.436745643615724,-0.4129997789859772
1399,35950.0,-0.37888240814208973,-9.436745643615724,-0.4129997789859772
1400,35000.0,1.3072341680526731,-8.577826499938965,1.6406266689300537
1401,35050.0,1.3072341680526731,-8.577826499938965,1.6406266689300537
1402,35100.0,1.3072341680526731,-8.577826499938965,1.6406266689300537
1403,35150.0,1.834557056427002,-8.743025779724121,1.6980875730514526
1404,35200.0,1.834557056427002,-8.743025779724121,1.6980875730514526
1405,35250.0,1.834557056427002,-8.743025779724121,1.6980875730514526
1406,35300.0,1.834557056427002,-8.743025779724121,1.6980875730514526
1407,35350.0,2.273294448852539,-9.321824073791504,0.7481880187988281
1408,35400.0,2.273294448852539,-9.321824073791504,0.7481880187988281
1409,35450.0,2.273294448852539,-9.321824073791504,0.7481880187988281
1410,35500.0,-1.6184803247451782,-10.720038414001463,0.5668272376060486
1411,35550.0,-1.6184803247451782,-10.720038414001463,0.5668272376060486
1412,35600.0,-1.6184803247451782,-10.720038414001463,0.5668272376060486
1413,35650.0,-1.6184803247451782,-10.720038414001463,0.5668272376060486
1414,35700.0,-0.06643909960985184,-9.807847023010254,1.4718354940414429
1415,35750.0,-0.06643909960985184,-9.807847023010254,1.4718354940414429
1416,35800.0,-0.06643909960985184,-9.807847023010254,1.4718354940414429
1417,35850.0,-0.37888240814208973,-9.436745643615724,-0.4129997789859772
1418,35900.0,-0.37888240814208973,-9.436745643615724,-0.4129997789859772
1419,35950.0,-0.37888240814208973,-9.436745643615724,-0.4129997789859772
1420,36000.0,-0.37888240814208973,-9.436745643615724,-0.4129997789859772
1421,36050.0,0.8888474106788635,-9.379883766174316,-2.009932279586792
1422,36100.0,0.8888474106788635,-9.379883766174316,-2.009932279586792
1423,36150.0,0.8888474106788635,-9.379883766174316,-2.009932279586792
1424,36200.0,0.8888474106788635,-9.379883766174316,-2.009932279586792
1425,36250.0,1.5394717454910278,-9.561244010925293,-0.6685808300971985
1426,36300.0,1.5394717454910278,-9.561244010925293,-0.6685808300971985
1427,36350.0,1.5394717454910278,-9.561244010925293,-0.6685808300971985
1428,36400.0,0.228047713637352,-9.462483406066896,-0.5955576896667479
1429,36450.0,0.228047713637352,-9.462483406066896,-0.5955576896667479
1430,36500.0,0.228047713637352,-9.462483406066896,-0.5955576896667479
1431,36550.0,0.228047713637352,-9.462483406066896,-0.5955576896667479
1432,36600.0,0.06883329898118973,-9.660603523254396,2.5767595767974854
1433,36650.0,0.06883329898118973,-9.660603523254396,2.5767595767974854
1434,36700.0,0.06883329898118973,-9.660603523254396,2.5767595767974854
1435,36750.0,2.1936872005462646,-9.849146842956543,2.4881742000579834
1436,36800.0,2.1936872005462646,-9.849146842956543,2.4881742000579834
1437,36850.0,2.1936872005462646,-9.849146842956543,2.4881742000579834
1438,36900.0,2.1936872005462646,-9.849146842956543,2.4881742000579834
1439,36950.0,0.547075092792511,-9.148842811584473,2.9981391429901123
1440,36000.0,-0.37888240814208973,-9.436745643615724,-0.4129997789859772
1441,36050.0,0.8888474106788635,-9.379883766174316,-2.009932279586792
1442,36100.0,0.8888474106788635,-9.379883766174316,-2.009932279586792
1443,36150.0,0.8888474106788635,-9.379883766174316,-2.009932279586792
1444,36200.0,0.8888474106788635,-9.379883766174316,-2.009932279586792
1445,36250.0,1.5394717454910278,-9.561244010925293,-0.6685808300971985
1446,36300.0,1.5394717454910278,-9.561244010925293,-0.6685808300971985
1447,36350.0,1.5394717454910278,-9.561244010925293,-0.6685808300971985
1448,36400.0,0.228047713637352,-9.462483406066896,-0.5955576896667479
1449,36450.0,0.228047713637352,-9.462483406066896,-0.5955576896667479
1450,36500.0,0.228047713637352,-9.462483406066896,-0.5955576896667479
1451,36550.0,0.228047713637352,-9.462483406066896,-0.5955576896667479
1452,36600.0,0.06883329898118973,-9.660603523254396,2.5767595767974854
1453,36650.0,0.06883329898118973,-9.660603523254396,2.5767595767974854
1454,36700.0,0.06883329898118973,-9.660603523254396,2.5767595767974854
1455,36750.0,2.1936872005462646,-9.849146842956543,2.4881742000579834
1456,36800.0,2.1936872005462646,-9.849146842956543,2.4881742000579834
1457,36850.0,2.1936872005462646,-9.849146842956543,2.4881742000579834
1458,36900.0,2.1936872005462646,-9.849146842956543,2.4881742000579834
1459,36950.0,0.547075092792511,-9.148842811584473,2.9981391429901123
1460,37000.0,0.547075092792511,-9.148842811584473,2.9981391429901123
1461,37050.0,0.547075092792511,-9.148842811584473,2.9981391429901123
1462,37100.0,0.547075092792511,-9.148842811584473,2.9981391429901123
1463,37150.0,-1.1228805780410769,-8.774150848388674,0.08499415963888167
1464,37200.0,-1.1228805780410769,-8.774150848388674,0.08499415963888167
1465,37250.0,-1.1228805780410769,-8.774150848388674,0.08499415963888167
1466,37300.0,-0.1412578970193863,-10.113706588745117,2.44747257232666
1467,37350.0,-0.1412578970193863,-10.113706588745117,2.44747257232666
1468,37400.0,-0.1412578970193863,-10.113706588745117,2.44747257232666
1469,37450.0,-0.1412578970193863,-10.113706588745117,2.44747257232666
1470,37500.0,0.15502455830574036,-9.120112419128418,3.090914487838745
1471,37550.0,0.15502455830574036,-9.120112419128418,3.090914487838745
1472,37600.0,0.15502455830574036,-9.120112419128418,3.090914487838745
1473,37650.0,0.3920505344867706,-9.943120002746582,0.7805097699165344
1474,37700.0,0.3920505344867706,-9.943120002746582,0.7805097699165344
1475,37750.0,0.3920505344867706,-9.943120002746582,0.7805097699165344
1476,37800.0,0.3920505344867706,-9.943120002746582,0.7805097699165344
1477,37850.0,-0.19632454216480252,-9.941922187805176,0.3944447338581085
1478,37900.0,-0.19632454216480252,-9.941922187805176,0.3944447338581085
1479,37950.0,-0.19632454216480252,-9.941922187805176,0.3944447338581085
1480,37000.0,0.547075092792511,-9.148842811584473,2.9981391429901123
1481,37050.0,0.547075092792511,-9.148842811584473,2.9981391429901123
1482,37100.0,0.547075092792511,-9.148842811584473,2.9981391429901123
1483,37150.0,-1.1228805780410769,-8.774150848388674,0.08499415963888167
1484,37200.0,-1.1228805780410769,-8.774150848388674,0.08499415963888167
1485,37250.0,-1.1228805780410769,-8.774150848388674,0.08499415963888167
1486,37300.0,-0.1412578970193863,-10.113706588745117,2.44747257232666
1487,37350.0,-0.1412578970193863,-10.113706588745117,2.44747257232666
1488,37400.0,-0.1412578970193863,-10.113706588745117,2.44747257232666
1489,37450.0,-0.1412578970193863,-10.113706588745117,2.44747257232666
1490,37500.0,0.15502455830574036,-9.120112419128418,3.090914487838745
1491,37550.0,0.15502455830574036,-9.120112419128418,3.090914487838745
1492,37600.0,0.15502455830574036,-9.120112419128418,3.090914487838745
1493,37650.0,0.3920505344867706,-9.943120002746582,0.7805097699165344
1494,37700.0,0.3920505344867706,-9.943120002746582,0.7805097699165344
1495,37750.0,0.3920505344867706,-9.943120002746582,0.7805097699165344
1496,37800.0,0.3920505344867706,-9.943120002746582,0.7805097699165344
1497,37850.0,-0.19632454216480252,-9.941922187805176,0.3944447338581085
1498,37900.0,-0.19632454216480252,-9.941922187805176,0.3944447338581085
1499,37950.0,-0.19632454216480252,-9.941922187805176,0.3944447338581085
1500,38000.0,-0.19632454216480252,-9.941922187805176,0.3944447338581085
1501,38050.0,-0.34656068682670593,-10.043676376342773,0.2992752194404602
1502,38100.0,-0.34656068682670593,-10.043676376342773,0.2992752194404602
1503,38150.0,-0.34656068682670593,-10.043676376342773,0.2992752194404602
1504,38200.0,0.2214636504650116,-9.260771751403807,0.6865373253822327
1505,38250.0,0.2214636504650116,-9.260771751403807,0.6865373253822327
1506,38300.0,0.2214636504650116,-9.260771751403807,0.6865373253822327
1507,38350.0,0.2214636504650116,-9.260771751403807,0.6865373253822327
1508,38400.0,-0.12749123573303225,-9.75517463684082,0.41120412945747375
1509,38450.0,-0.12749123573303225,-9.75517463684082,0.41120412945747375
1510,38500.0,-0.12749123573303225,-9.75517463684082,0.41120412945747375
1511,38550.0,0.345363587141037,-9.55825138092041,1.1905168294906616
1512,38600.0,0.345363587141037,-9.55825138092041,1.1905168294906616
1513,38650.0,0.345363587141037,-9.55825138092041,1.1905168294906616
1514,38700.0,0.345363587141037,-9.55825138092041,1.1905168294906616
1515,38750.0,1.1366472244262695,-8.948328971862793,3.453635931015014
1516,38800.0,1.1366472244262695,-8.948328971862793,3.453635931015014
1517,38850.0,1.1366472244262695,-8.948328971862793,3.453635931015014
1518,38900.0,1.1366472244262695,-8.948328971862793,3.453635931015014
1519,38950.0,1.8567034006118772,-8.705317497253418,2.3576900959014893
1520,38000.0,-0.19632454216480252,-9.941922187805176,0.3944447338581085
1521,38050.0,-0.34656068682670593,-10.043676376342773,0.2992752194404602
1522,38100.0,-0.34656068682670593,-10.043676376342773,0.2992752194404602
1523,38150.0,-0.34656068682670593,-10.043676376342773,0.2992752194404602
1524,38200.0,0.2214636504650116,-9.260771751403807,0.6865373253822327
1525,38250.0,0.2214636504650116,-9.260771751403807,0.6865373253822327
1526,38300.0,0.2214636504650116,-9.260771751403807,0.6865373253822327
1527,38350.0,0.2214636504650116,-9.260771751403807,0.6865373253822327
1528,38400.0,-0.12749123573303225,-9.75517463684082,0.41120412945747375
1529,38450.0,-0.12749123573303225,-9.75517463684082,0.41120412945747375
1530,38500.0,-0.12749123573303225,-9.75517463684082,0.41120412945747375
1531,38550.0,0.345363587141037,-9.55825138092041,1.1905168294906616
1532,38600.0,0.345363587141037,-9.55825138092041,1.1905168294906616
1533,38650.0,0.345363587141037,-9.55825138092041,1.1905168294906616
1534,38700.0,0.345363587141037,-9.55825138092041,1.1905168294906616
1535,38750.0,1.1366472244262695,-8.948328971862793,3.453635931015014
1536,38800.0,1.1366472244262695,-8.948328971862793,3.453635931015014
1537,38850.0,1.1366472244262695,-8.948328971862793,3.453635931015014
1538,38900.0,1.1366472244262695,-8.948328971862793,3.453635931015014
1539,38950.0,1.8567034006118772,-8.705317497253418,2.3576900959014893
1540,39000.0,1.8567034006118772,-8.705317497253418,2.3576900959014893
1541,39050.0,1.8567034006118772,-8.705317497253418,2.3576900959014893
1542,39100.0,0.9062053561210632,-9.75397777557373,2.217030763626098
1543,39150.0,0.9062053561210632,-9.75397777557373,2.217030763626098
1544,39200.0,0.9062053561210632,-9.75397777557373,2.217030763626098
1545,39250.0,0.9062053561210632,-9.75397777557373,2.217030763626098
1546,39300.0,-0.30705636739730835,-9.916783332824707,1.0432734489440918
1547,39350.0,-0.30705636739730835,-9.916783332824707,1.0432734489440918
1548,39400.0,-0.30705636739730835,-9.916783332824707,1.0432734489440918
1549,39450.0,2.930502891540528,-9.032125473022461,-0.2047042399644852
1550,39500.0,2.930502891540528,-9.032125473022461,-0.2047042399644852
1551,39550.0,2.930502891540528,-9.032125473022461,-0.2047042399644852
1552,39600.0,2.930502891540528,-9.032125473022461,-0.2047042399644852
1553,39650.0,-0.6829460263252258,-10.341753959655762,0.3196259140968323
1554,39700.0,-0.6829460263252258,-10.341753959655762,0.3196259140968323
1555,39750.0,-0.6829460263252258,-10.341753959655762,0.3196259140968323
1556,39800.0,-0.6829460263252258,-10.341753959655762,0.3196259140968323
1557,39850.0,0.8583213090896606,-9.937732696533203,0.6560112833976746
1558,39900.0,0.8583213090896606,-9.937732696533203,0.6560112833976746
1559,39950.0,0.8583213090896606,-9.937732696533203,0.6560112833976746
1560,39000.0,1.8567034006118772,-8.705317497253418,2.3576900959014893
1561,39050.0,1.8567034006118772,-8.705317497253418,2.3576900959014893
1562,39100.0,0.9062053561210632,-9.75397777557373,2.217030763626098
1563,39150.0,0.9062053561210632,-9.75397777557373,2.217030763626098
1564,39200.0,0.9062053561210632,-9.75397777557373,2.217030763626098
1565,39250.0,0.9062053561210632,-9.75397777557373,2.217030763626098
1566,39300.0,-0.30705636739730835,-9.916783332824707,1.0432734489440918
1567,39350.0,-0.30705636739730835,-9.916783332824707,1.0432734489440918
1568,39400.0,-0.30705636739730835,-9.916783332824707,1.0432734489440918
1569,39450.0,2.930502891540528,-9.032125473022461,-0.2047042399644852
1570,39500.0,2.930502891540528,-9.032125473022461,-0.2047042399644852
1571,39550.0,2.930502891540528,-9.032125473022461,-0.2047042399644852
1572,39600.0,2.930502891540528,-9.032125473022461,-0.2047042399644852
1573,39650.0,-0.6829460263252258,-10.341753959655762,0.3196259140968323
1574,39700.0,-0.6829460263252258,-10.341753959655762,0.3196259140968323
1575,39750.0,-0.6829460263252258,-10.341753959655762,0.3196259140968323
1576,39800.0,-0.6829460263252258,-10.341753959655762,0.3196259140968323
1577,39850.0,0.8583213090896606,-9.937732696533203,0.6560112833976746
1578,39900.0,0.8583213090896606,-9.937732696533203,0.6560112833976746
1579,39950.0,0.8583213090896606,-9.937732696533203,0.6560112833976746
1580,40000.0,0.5069721937179565,-9.677363395690918,0.4465186297893524
1581,40050.0,0.5069721937179565,-9.677363395690918,0.4465186297893524
1582,40100.0,0.5069721937179565,-9.677363395690918,0.4465186297893524
1583,40150.0,0.5069721937179565,-9.677363395690918,0.4465186297893524
1584,40200.0,0.7912836670875549,-9.576807022094727,0.27653029561042786
1585,40250.0,0.7912836670875549,-9.576807022094727,0.27653029561042786
1586,40300.0,0.7912836670875549,-9.576807022094727,0.27653029561042786
1587,40350.0,0.7912836670875549,-9.576807022094727,0.27653029561042786
1588,40400.0,1.0103530883789065,-9.488221168518066,0.10474632680416107
1589,40450.0,1.0103530883789065,-9.488221168518066,0.10474632680416107
1590,40500.0,1.0103530883789065,-9.488221168518066,0.10474632680416107
1591,40550.0,-0.3633201122283936,-9.54628086090088,0.8882488012313843
1592,40600.0,-0.3633201122283936,-9.54628086090088,0.8882488012313843
1593,40650.0,-0.3633201122283936,-9.54628086090088,0.8882488012313843
1594,40700.0,-0.3633201122283936,-9.54628086090088,0.8882488012313843
1595,40750.0,-1.2611457109451294,-9.944915771484377,0.2687491476535797
1596,40800.0,-1.2611457109451294,-9.944915771484377,0.2687491476535797
1597,40850.0,-1.2611457109451294,-9.944915771484377,0.2687491476535797
1598,40900.0,1.6633716821670532,-10.481815338134766,-0.1735796183347702
1599,40950.0,1.6633716821670532,-10.481815338134766,-0.1735796183347702
1600,40000.0,0.5069721937179565,-9.677363395690918,0.4465186297893524
1601,40050.0,0.5069721937179565,-9.677363395690918,0.4465186297893524
1602,40100.0,0.5069721937179565,-9.677363395690918,0.4465186297893524
1603,40150.0,0.5069721937179565,-9.677363395690918,0.4465186297893524
1604,40200.0,0.7912836670875549,-9.576807022094727,0.27653029561042786
1605,40250.0,0.7912836670875549,-9.576807022094727,0.27653029561042786
1606,40300.0,0.7912836670875549,-9.576807022094727,0.27653029561042786
1607,40350.0,0.7912836670875549,-9.576807022094727,0.27653029561042786
1608,40400.0,1.0103530883789065,-9.488221168518066,0.10474632680416107
1609,40450.0,1.0103530883789065,-9.488221168518066,0.10474632680416107
1610,40500.0,1.0103530883789065,-9.488221168518066,0.10474632680416107
1611,40550.0,-0.3633201122283936,-9.54628086090088,0.8882488012313843
1612,40600.0,-0.3633201122283936,-9.54628086090088,0.8882488012313843
1613,40650.0,-0.3633201122283936,-9.54628086090088,0.8882488012313843
1614,40700.0,-0.3633201122283936,-9.54628086090088,0.8882488012313843
1615,40750.0,-1.2611457109451294,-9.944915771484377,0.2687491476535797
1616,40800.0,-1.2611457109451294,-9.944915771484377,0.2687491476535797
1617,40850.0,-1.2611457109451294,-9.944915771484377,0.2687491476535797
1618,40900.0,1.6633716821670532,-10.481815338134766,-0.1735796183347702
1619,40950.0,1.6633716821670532,-10.481815338134766,-0.1735796183347702
1620,41000.0,1.6633716821670532,-10.481815338134766,-0.1735796183347702
1621,41050.0,1.6633716821670532,-10.481815338134766,-0.1735796183347702
1622,41100.0,1.486799240112305,-9.48462963104248,1.2611457109451294
1623,41150.0,1.486799240112305,-9.48462963104248,1.2611457109451294
1624,41200.0,1.486799240112305,-9.48462963104248,1.2611457109451294
1625,41250.0,1.486799240112305,-9.48462963104248,1.2611457109451294
1626,41300.0,1.0815806388854978,-8.856152534484863,2.6210522651672363
1627,41350.0,1.0815806388854978,-8.856152534484863,2.6210522651672363
1628,41400.0,1.0815806388854978,-8.856152534484863,2.6210522651672363
1629,41450.0,2.388216257095337,-9.477447509765623,2.235585927963257
1630,41500.0,2.388216257095337,-9.477447509765623,2.235585927963257
1631,41550.0,2.388216257095337,-9.477447509765623,2.235585927963257
1632,41600.0,2.388216257095337,-9.477447509765623,2.235585927963257
1633,41650.0,1.6178817749023438,-12.275671005249025,2.672527551651001
1634,41700.0,1.6178817749023438,-12.275671005249025,2.672527551651001
1635,41750.0,1.6178817749023438,-12.275671005249025,2.672527551651001
1636,41800.0,1.8100165128707888,-9.34157657623291,2.053626537322998
1637,41850.0,1.8100165128707888,-9.34157657623291,2.053626537322998
1638,41900.0,1.8100165128707888,-9.34157657623291,2.053626537322998
1639,41950.0,1.8100165128707888,-9.34157657623291,2.053626537322998
1640,41000.0,1.6633716821670532,-10.481815338134766,-0.1735796183347702
1641,41050.0,1.6633716821670532,-10.481815338134766,-0.1735796183347702
1642,41100.0,1.486799240112305,-9.48462963104248,1.2611457109451294
1643,41150.0,1.486799240112305,-9.48462963104248,1.2611457109451294
1644,41200.0,1.486799240112305,-9.48462963104248,1.2611457109451294
1645,41250.0,1.486799240112305,-9.48462963104248,1.2611457109451294
1646,41300.0,1.0815806388854978,-8.856152534484863,2.6210522651672363
1647,41350.0,1.0815806388854978,-8.856152534484863,2.6210522651672363
1648,41400.0,1.0815806388854978,-8.856152534484863,2.6210522651672363
1649,41450.0,2.388216257095337,-9.477447509765623,2.235585927963257
1650,41500.0,2.388216257095337,-9.477447509765623,2.235585927963257
1651,41550.0,2.388216257095337,-9.477447509765623,2.235585927963257
1652,41600.0,2.388216257095337,-9.477447509765623,2.235585927963257
1653,41650.0,1.6178817749023438,-12.275671005249025,2.672527551651001
1654,41700.0,1.6178817749023438,-12.275671005249025,2.672527551651001
1655,41750.0,1.6178817749023438,-12.275671005249025,2.672527551651001
1656,41800.0,1.8100165128707888,-9.34157657623291,2.053626537322998
1657,41850.0,1.8100165128707888,-9.34157657623291,2.053626537322998
1658,41900.0,1.8100165128707888,-9.34157657623291,2.053626537322998
1659,41950.0,1.8100165128707888,-9.34157657623291,2.053626537322998
1660,42000.0,1.533486247062683,-9.05487060546875,2.2439656257629395
1661,42050.0,1.533486247062683,-9.05487060546875,2.2439656257629395
1662,42100.0,1.533486247062683,-9.05487060546875,2.2439656257629395
1663,42150.0,1.533486247062683,-9.05487060546875,2.2439656257629395
1664,42200.0,1.7046716213226318,-9.182960510253906,1.261744260787964
1665,42250.0,1.7046716213226318,-9.182960510253906,1.261744260787964
1666,42300.0,1.7046716213226318,-9.182960510253906,1.261744260787964
1667,42350.0,1.3323732614517212,-9.443329811096193,0.5949591398239136
1668,42400.0,1.3323732614517212,-9.443329811096193,0.5949591398239136
1669,42450.0,1.3323732614517212,-9.443329811096193,0.5949591398239136
1670,42500.0,1.3323732614517212,-9.443329811096193,0.5949591398239136
1671,42550.0,2.090736627578736,-9.054272651672363,-0.1430535465478897
1672,42600.0,2.090736627578736,-9.054272651672363,-0.1430535465478897
1673,42650.0,2.090736627578736,-9.054272651672363,-0.1430535465478897
1674,42700.0,2.0542249679565434,-9.56483554840088,-0.03172317147254944
1675,42750.0,2.0542249679565434,-9.56483554840088,-0.03172317147254944
1676,42800.0,2.0542249679565434,-9.56483554840088,-0.03172317147254944
1677,42850.0,2.0542249679565434,-9.56483554840088,-0.03172317147254944
1678,42900.0,1.259350061416626,-9.5809965133667,0.5979518890380859
1679,42950.0,1.259350061416626,-9.5809965133667,0.5979518890380859
1680,42000.0,1.533486247062683,-9.05487060546875,2.2439656257629395
1681,42050.0,1.533486247062683,-9.05487060546875,2.2439656257629395
1682,42100.0,1.533486247062683,-9.05487060546875,2.2439656257629395
1683,42150.0,1.533486247062683,-9.05487060546875,2.2439656257629395
1684,42200.0,1.7046716213226318,-9.182960510253906,1.261744260787964
1685,42250.0,1.7046716213226318,-9.182960510253906,1.261744260787964
1686,42300.0,1.7046716213226318,-9.182960510253906,1.261744260787964
1687,42350.0,1.3323732614517212,-9.443329811096193,0.5949591398239136
1688,42400.0,1.3323732614517212,-9.443329811096193,0.5949591398239136
1689,42450.0,1.3323732614517212,-9.443329811096193,0.5949591398239136
1690,42500.0,1.3323732614517212,-9.443329811096193,0.5949591398239136
1691,42550.0,2.090736627578736,-9.054272651672363,-0.1430535465478897
1692,42600.0,2.090736627578736,-9.054272651672363,-0.1430535465478897
1693,42650.0,2.090736627578736,-9.054272651672363,-0.1430535465478897
1694,42700.0,2.0542249679565434,-9.56483554840088,-0.03172317147254944
1695,42750.0,2.0542249679565434,-9.56483554840088,-0.03172317147254944
1696,42800.0,2.0542249679565434,-9.56483554840088,-0.03172317147254944
1697,42850.0,2.0542249679565434,-9.56483554840088,-0.03172317147254944
1698,42900.0,1.259350061416626,-9.5809965133667,0.5979518890380859
1699,42950.0,1.259350061416626,-9.5809965133667,0.5979518890380859
1700,43000.0,1.259350061416626,-9.5809965133667,0.5979518890380859
1701,43050.0,1.2533645629882812,-9.680954933166504,0.5027823448181152
1702,43100.0,1.2533645629882812,-9.680954933166504,0.5027823448181152
1703,43150.0,1.2533645629882812,-9.680954933166504,0.5027823448181152
1704,43200.0,1.2533645629882812,-9.680954933166504,0.5027823448181152
1705,43250.0,1.446696400642395,-9.553462982177734,0.16759411990642548
1706,43300.0,1.446696400642395,-9.553462982177734,0.16759411990642548
1707,43350.0,1.446696400642395,-9.553462982177734,0.16759411990642548
1708,43400.0,1.446696400642395,-9.553462982177734,0.16759411990642548
1709,43450.0,1.1617863178253174,-9.34816074371338,0.22266076505184174
1710,43500.0,1.1617863178253174,-9.34816074371338,0.22266076505184174
1711,43550.0,1.1617863178253174,-9.34816074371338,0.22266076505184174
1712,43600.0,0.5985504388809204,-9.409213066101074,0.4644751250743866
1713,43650.0,0.5985504388809204,-9.409213066101074,0.4644751250743866
1714,43700.0,0.5985504388809204,-9.409213066101074,0.4644751250743866
1715,43750.0,0.5985504388809204,-9.409213066101074,0.4644751250743866
1716,43800.0,1.0642226934432983,-9.46727180480957,-0.3513490855693817
1717,43850.0,1.0642226934432983,-9.46727180480957,-0.3513490855693817
1718,43900.0,1.0642226934432983,-9.46727180480957,-0.3513490855693817
1719,43950.0,0.04668693244457245,-9.967061996459961,-0.3172317147254944
1720,43000.0,1.259350061416626,-9.5809965133667,0.5979518890380859
1721,43050.0,1.2533645629882812,-9.680954933166504,0.5027823448181152
1722,43100.0,1.2533645629882812,-9.680954933166504,0.5027823448181152
1723,43150.0,1.2533645629882812,-9.680954933166504,0.5027823448181152
1724,43200.0,1.2533645629882812,-9.680954933166504,0.5027823448181152
