,timestamp,ax,ay,az
0,0.0,-1.6606187820434568,0.8901299238204956,-8.657232284545897
1,100.0,-1.6606187820434568,0.8901299238204956,-8.657232284545897
2,200.0,-1.6606187820434568,0.8901299238204956,-8.657232284545897
3,300.0,1.7802598476409912,-0.6771688461303711,-9.107083320617676
4,400.0,1.7802598476409912,-0.6771688461303711,-9.107083320617676
5,500.0,-0.16749757528305054,-0.5335994362831116,-9.71485996246338
6,600.0,-0.16749757528305054,-0.5335994362831116,-9.71485996246338
7,700.0,0.2105683833360672,-0.6532405614852905,-9.643074989318848
8,800.0,0.2105683833360672,-0.6532405614852905,-9.643074989318848
9,900.0,0.22013968229293826,-0.8925228118896484,-9.568897247314453
10,1000.0,0.22013968229293826,-0.8925228118896484,-9.568897247314453
11,1100.0,0.22013968229293826,-0.8925228118896484,-9.568897247314453
12,1200.0,0.2153540551662445,-1.1030912399291992,-9.588040351867676
13,1300.0,0.2153540551662445,-1.1030912399291992,-9.588040351867676
14,1400.0,0.18185453116893768,-1.1030912399291992,-9.57607650756836
15,1500.0,0.18185453116893768,-1.1030912399291992,-9.57607650756836
16,1600.0,0.15314064919948578,-1.0911270380020142,-9.578469276428224
17,1700.0,0.15314064919948578,-1.0911270380020142,-9.578469276428224
18,1800.0,0.14835500717163086,-1.0241280794143677,-9.580862045288086
19,1900.0,0.14835500717163086,-1.0241280794143677,-9.580862045288086
20,2000.0,0.14835500717163086,-1.0241280794143677,-9.580862045288086
21,2100.0,0.2440679222345352,-0.9379864931106568,-9.619147300720217
22,2200.0,0.2440679222345352,-0.9379864931106568,-9.619147300720217
23,2300.0,0.1866401582956314,-1.3304094076156616,-9.590433120727539
24,2400.0,0.1866401582956314,-1.3304094076156616,-9.590433120727539
25,2500.0,0.1627119481563568,-0.8159525394439697,-9.65503978729248
26,2600.0,0.1627119481563568,-0.8159525394439697,-9.65503978729248
27,2700.0,0.2153540551662445,-0.8901299238204956,-9.533005714416504
28,2800.0,0.2153540551662445,-0.8901299238204956,-9.533005714416504
29,2900.0,0.2153540551662445,-0.8901299238204956,-9.533005714416504
30,3000.0,0.20578275620937347,-0.7274181246757507,-9.571290969848633
31,3100.0,0.20578275620937347,-0.7274181246757507,-9.571290969848633
32,3200.0,0.17228324711322784,-0.5886343717575073,-9.595218658447266
33,3300.0,0.17228324711322784,-0.5886343717575073,-9.595218658447266
34,3400.0,0.17228324711322784,-0.5886343717575073,-9.595218658447266
35,3500.0,0.08614162355661392,-0.9619146585464478,-9.652647018432617
36,3600.0,0.08614162355661392,-0.9619146585464478,-9.652647018432617
37,3700.0,0.16749757528305054,-1.3016955852508545,-9.600004196166992
38,3800.0,0.16749757528305054,-1.3016955852508545,-9.600004196166992
39,3900.0,0.11485548317432405,-1.0169496536254885,-9.578469276428224
40,4000.0,0.11485548317432405,-1.0169496536254885,-9.578469276428224
41,4100.0,0.11485548317432405,-1.0169496536254885,-9.578469276428224
42,4200.0,0.15314064919948578,-0.8973084688186646,-9.635896682739258
43,4300.0,0.15314064919948578,-0.8973084688186646,-9.635896682739258
44,4400.0,0.13878372311592102,-0.9930213689804076,-9.616753578186037
45,4500.0,0.13878372311592102,-0.9930213689804076,-9.616753578186037
46,4600.0,0.13878372311592102,-0.9930213689804076,-9.616753578186037
47,4700.0,0.17706887423992154,-1.0456634759902954,-9.578469276428224
48,4800.0,0.17706887423992154,-1.0456634759902954,-9.578469276428224
49,4900.0,0.19621144235134125,-1.1676974296569824,-9.561718940734863
50,5000.0,0.19621144235134125,-1.1676974296569824,-9.561718940734863
51,5100.0,0.18185453116893768,-0.9379864931106568,-9.650253295898438
52,5200.0,0.18185453116893768,-0.9379864931106568,-9.650253295898438
53,5300.0,0.20578275620937347,-0.7250252366065979,-9.580862045288086
54,5400.0,0.20578275620937347,-0.7250252366065979,-9.580862045288086
55,5500.0,0.18185453116893768,-0.5048855543136597,-9.695716857910156
56,5600.0,0.18185453116893768,-0.5048855543136597,-9.695716857910156
57,5700.0,0.18185453116893768,-0.5048855543136597,-9.695716857910156
58,5800.0,0.22013968229293826,-0.6269195079803467,-9.678967475891113
59,5900.0,0.22013968229293826,-0.6269195079803467,-9.678967475891113
60,6000.0,0.1866401582956314,-0.5192425251007079,-9.63828945159912
61,6100.0,0.1866401582956314,-0.5192425251007079,-9.63828945159912
62,6200.0,0.1866401582956314,-0.5192425251007079,-9.63828945159912
63,6300.0,0.22013968229293826,-0.5790630578994751,-9.62393283843994
64,6400.0,0.22013968229293826,-0.5790630578994751,-9.62393283843994
65,6500.0,0.19621144235134125,-0.6005984544754028,-9.619147300720217
66,6600.0,0.19621144235134125,-0.6005984544754028,-9.619147300720217
67,6700.0,0.2153540551662445,-0.430708110332489,-9.585646629333496
68,6800.0,0.2153540551662445,-0.430708110332489,-9.585646629333496
69,6900.0,0.17228324711322784,-0.7202396392822266,-9.609575271606444
70,7000.0,0.17228324711322784,-0.7202396392822266,-9.609575271606444
71,7100.0,0.17228324711322784,-0.7202396392822266,-9.609575271606444
72,7200.0,0.1579262912273407,-0.5862415432929993,-9.645467758178713
73,7300.0,0.1579262912273407,-0.5862415432929993,-9.645467758178713
74,7400.0,0.14356936514377594,-0.8087739944458008,-9.66221809387207
75,7500.0,0.14356936514377594,-0.8087739944458008,-9.66221809387207
76,7600.0,0.14356936514377594,-0.8087739944458008,-9.66221809387207
77,7700.0,0.19142580032348636,-0.7465606331825256,-9.621540069580078
78,7800.0,0.19142580032348636,-0.7465606331825256,-9.621540069580078
79,7900.0,0.17706887423992154,-0.8111668825149536,-9.592825889587402
80,8000.0,0.17706887423992154,-0.8111668825149536,-9.592825889587402
81,8100.0,0.17228324711322784,-0.8590233325958252,-9.643074989318848
82,8200.0,0.17228324711322784,-0.8590233325958252,-9.643074989318848
83,8300.0,0.1866401582956314,-0.8303093910217285,-9.573683738708496
84,8400.0,0.1866401582956314,-0.8303093910217285,-9.573683738708496
85,8500.0,0.15314064919948578,-0.9260223507881165,-9.635896682739258
86,8600.0,0.15314064919948578,-0.9260223507881165,-9.635896682739258
87,8700.0,0.15314064919948578,-0.9260223507881165,-9.635896682739258
88,8800.0,0.2105683833360672,-0.9523434042930604,-9.573683738708496
89,8900.0,0.2105683833360672,-0.9523434042930604,-9.573683738708496
90,9000.0,0.2105683833360672,-0.9930213689804076,-9.607183456420898
91,9100.0,0.2105683833360672,-0.9930213689804076,-9.607183456420898
92,9200.0,0.13878372311592102,-1.062413215637207,-9.619147300720217
93,9300.0,0.13878372311592102,-1.062413215637207,-9.619147300720217
94,9400.0,0.13878372311592102,-1.062413215637207,-9.619147300720217
95,9500.0,0.1339980661869049,-0.8039883971214294,-9.600004196166992
96,9600.0,0.1339980661869049,-0.8039883971214294,-9.600004196166992
97,9700.0,0.1627119481563568,-1.043270707130432,-9.588040351867676
98,9800.0,0.1627119481563568,-1.043270707130432,-9.588040351867676
99,9900.0,0.15314064919948578,-1.0336993932724001,-9.614361763000488
100,10000.0,0.15314064919948578,-1.0336993932724001,-9.614361763000488
101,10100.0,0.14835500717163086,-0.8662018179893494,-9.590433120727539
102,10200.0,0.14835500717163086,-0.8662018179893494,-9.590433120727539
103,10300.0,0.16749757528305054,-1.0169496536254885,-9.619147300720217
104,10400.0,0.16749757528305054,-1.0169496536254885,-9.619147300720217
105,10500.0,0.16749757528305054,-1.0169496536254885,-9.619147300720217
106,10600.0,0.11006984114646913,-0.8015955686569214,-9.619147300720217
107,10700.0,0.11006984114646913,-0.8015955686569214,-9.619147300720217
108,10800.0,0.13878372311592102,-0.7992027401924133,-9.595218658447266
109,10900.0,0.13878372311592102,-0.7992027401924133,-9.595218658447266
110,11000.0,0.12921242415905002,-1.0097711086273191,-9.566505432128906
111,11100.0,0.12921242415905002,-1.0097711086273191,-9.566505432128906
112,11200.0,0.062213387340307236,-0.9762716889381408,-9.635896682739258
113,11300.0,0.062213387340307236,-0.9762716889381408,-9.635896682739258
114,11400.0,0.11964112520217896,-0.9260223507881165,-9.590433120727539
115,11500.0,0.11964112520217896,-0.9260223507881165,-9.590433120727539
116,11600.0,0.11964112520217896,-0.9260223507881165,-9.590433120727539
117,11700.0,0.0813559740781784,-0.8973084688186646,-9.667003631591797
118,11800.0,0.0813559740781784,-0.8973084688186646,-9.667003631591797
119,11900.0,0.09571290016174316,-1.0001999139785769,-9.58325481414795
120,12000.0,0.09571290016174316,-1.0001999139785769,-9.58325481414795
121,12100.0,0.11964112520217896,-1.00259268283844,-9.590433120727539
122,12200.0,0.11964112520217896,-1.00259268283844,-9.590433120727539
123,12300.0,0.11006984114646913,-0.9858429431915284,-9.595218658447266
124,12400.0,0.11006984114646913,-0.9858429431915284,-9.595218658447266
125,12500.0,0.11006984114646913,-0.9858429431915284,-9.595218658447266
126,12600.0,0.033499516546726234,-1.0839486122131348,-9.631111145019533
127,12700.0,0.033499516546726234,-1.0839486122131348,-9.631111145019533
128,12800.0,0.0813559740781784,-1.1581261157989502,-9.590433120727539
129,12900.0,0.0813559740781784,-1.1581261157989502,-9.590433120727539
130,13000.0,0.062213387340307236,-1.0863415002822876,-9.57607650756836
131,13100.0,0.062213387340307236,-1.0863415002822876,-9.57607650756836
132,13200.0,0.11006984114646913,-1.1150553226470947,-9.580862045288086
133,13300.0,0.11006984114646913,-1.1150553226470947,-9.580862045288086
134,13400.0,0.11006984114646913,-1.1150553226470947,-9.580862045288086
135,13500.0,0.1052841916680336,-1.1270195245742798,-9.595218658447266
136,13600.0,0.1052841916680336,-1.1270195245742798,-9.595218658447266
137,13700.0,0.07657032459974289,-1.0959126949310305,-9.609575271606444
138,13800.0,0.07657032459974289,-1.0959126949310305,-9.609575271606444
139,13900.0,0.04785645008087158,-1.1700903177261353,-9.573683738708496
140,14000.0,0.04785645008087158,-1.1700903177261353,-9.573683738708496
141,14100.0,0.09571290016174316,-1.124626636505127,-9.600004196166992
142,14200.0,0.09571290016174316,-1.124626636505127,-9.600004196166992
143,14300.0,0.09571290016174316,-1.124626636505127,-9.600004196166992
144,14400.0,0.0526420958340168,-1.1365907192230225,-9.564111709594727
145,14500.0,0.0526420958340168,-1.1365907192230225,-9.564111709594727
146,14600.0,0.07178468257188797,-1.1676974296569824,-9.578469276428224
147,14700.0,0.07178468257188797,-1.1676974296569824,-9.578469276428224
148,14800.0,0.07178468257188797,-1.1676974296569824,-9.578469276428224
149,14900.0,0.062213387340307236,-1.1198409795761108,-9.602396965026855
150,15000.0,0.062213387340307236,-1.1198409795761108,-9.602396965026855
151,15100.0,0.057427741587162025,-1.1341978311538696,-9.53779125213623
152,15200.0,0.057427741587162025,-1.1341978311538696,-9.53779125213623
153,15300.0,0.11006984114646913,-1.1724830865859983,-9.609575271606444
154,15400.0,0.11006984114646913,-1.1724830865859983,-9.609575271606444
155,15500.0,0.06699903309345245,-1.1868400573730469,-9.595218658447266
156,15600.0,0.06699903309345245,-1.1868400573730469,-9.595218658447266
157,15700.0,0.06699903309345245,-1.1868400573730469,-9.595218658447266
158,15800.0,0.10049854964017868,-1.160519003868103,-9.540184020996094
159,15900.0,0.10049854964017868,-1.160519003868103,-9.540184020996094
160,16000.0,0.07178468257188797,-1.2083754539489746,-9.57607650756836
161,16100.0,0.07178468257188797,-1.2083754539489746,-9.57607650756836
162,16200.0,0.062213387340307236,-1.2131611108779907,-9.573683738708496
163,16300.0,0.062213387340307236,-1.2131611108779907,-9.573683738708496
164,16400.0,0.062213387340307236,-1.2131611108779907,-9.573683738708496
165,16500.0,0.057427741587162025,-1.1940184831619265,-9.556933403015137
166,16600.0,0.057427741587162025,-1.1940184831619265,-9.556933403015137
167,16700.0,0.0526420958340168,-1.1940184831619265,-9.590433120727539
168,16800.0,0.0526420958340168,-1.1940184831619265,-9.590433120727539
169,16900.0,0.0526420958340168,-1.1940184831619265,-9.590433120727539
170,17000.0,0.0526420958340168,-1.1533405780792236,-9.588040351867676
171,17100.0,0.0526420958340168,-1.1533405780792236,-9.588040351867676
172,17200.0,0.04307081177830696,-1.1437692642211914,-9.540184020996094
173,17300.0,0.04307081177830696,-1.1437692642211914,-9.540184020996094
174,17400.0,0.04785645008087158,-1.1772687435150146,-9.635896682739258
175,17500.0,0.04785645008087158,-1.1772687435150146,-9.635896682739258
176,17600.0,0.04785645008087158,-1.1772687435150146,-9.635896682739258
177,17700.0,0.06699903309345245,-1.1653046607971191,-9.542576789855957
178,17800.0,0.06699903309345245,-1.1653046607971191,-9.542576789855957
179,17900.0,0.04307081177830696,-1.179661512374878,-9.556933403015137
180,18000.0,0.04307081177830696,-1.179661512374878,-9.556933403015137
181,18100.0,0.09092726558446884,-1.2059825658798218,-9.580862045288086
182,18200.0,0.09092726558446884,-1.2059825658798218,-9.580862045288086
183,18300.0,0.09092726558446884,-1.2059825658798218,-9.580862045288086
184,18400.0,0.0813559740781784,-1.1150553226470947,-9.554540634155273
185,18500.0,0.0813559740781784,-1.1150553226470947,-9.554540634155273
186,18600.0,0.062213387340307236,-1.2059825658798218,-9.585646629333496
187,18700.0,0.062213387340307236,-1.2059825658798218,-9.585646629333496
188,18800.0,0.04785645008087158,-1.131805181503296,-9.595218658447266
189,18900.0,0.04785645008087158,-1.131805181503296,-9.595218658447266
190,19000.0,0.03828516229987145,-1.2179466485977173,-9.573683738708496
191,19100.0,0.03828516229987145,-1.2179466485977173,-9.573683738708496
192,19200.0,0.03828516229987145,-1.2179466485977173,-9.573683738708496
193,19300.0,0.19621144235134125,-1.0863415002822876,-9.657432556152344
194,19400.0,0.19621144235134125,-1.0863415002822876,-9.657432556152344
195,19500.0,0.062213387340307236,-1.2035897970199585,-9.573683738708496
196,19600.0,0.062213387340307236,-1.2035897970199585,-9.573683738708496
197,19700.0,0.033499516546726234,-1.1700903177261353,-9.58325481414795
198,19800.0,0.033499516546726234,-1.1700903177261353,-9.58325481414795
199,19900.0,0.04307081177830696,-1.1365907192230225,-9.578469276428224
200,20000.0,0.04307081177830696,-1.1365907192230225,-9.578469276428224
201,20100.0,0.04307081177830696,-1.1365907192230225,-9.578469276428224
202,20200.0,0.04785645008087158,-1.155733346939087,-9.568897247314453
203,20300.0,0.04785645008087158,-1.155733346939087,-9.568897247314453
204,20400.0,0.07178468257188797,-1.129412293434143,-9.540184020996094
205,20500.0,0.07178468257188797,-1.129412293434143,-9.540184020996094
206,20600.0,0.04785645008087158,-1.1700903177261353,-9.573683738708496
207,20700.0,0.04785645008087158,-1.1700903177261353,-9.573683738708496
208,20800.0,0.062213387340307236,-1.1341978311538696,-9.588040351867676
209,20900.0,0.062213387340307236,-1.1341978311538696,-9.588040351867676
210,21000.0,0.057427741587162025,-1.1413763761520386,-9.600004196166992
211,21100.0,0.057427741587162025,-1.1413763761520386,-9.600004196166992
212,21200.0,0.06699903309345245,-1.1700903177261353,-9.554540634155273
213,21300.0,0.06699903309345245,-1.1700903177261353,-9.554540634155273
214,21400.0,0.06699903309345245,-1.1700903177261353,-9.554540634155273
215,21500.0,0.06699903309345245,-1.1437692642211914,-9.571290969848633
216,21600.0,0.06699903309345245,-1.1437692642211914,-9.571290969848633
217,21700.0,0.057427741587162025,-1.1006983518600464,-9.597611427307127
218,21800.0,0.057427741587162025,-1.1006983518600464,-9.597611427307127
219,21900.0,0.057427741587162025,-1.1006983518600464,-9.597611427307127
220,22000.0,0.062213387340307236,-1.1198409795761108,-9.58325481414795
221,22100.0,0.062213387340307236,-1.1198409795761108,-9.58325481414795
222,22200.0,0.07178468257188797,-1.1892328262329102,-9.540184020996094
223,22300.0,0.07178468257188797,-1.1892328262329102,-9.540184020996094
224,22400.0,0.04307081177830696,-1.1940184831619265,-9.556933403015137
225,22500.0,0.04307081177830696,-1.1940184831619265,-9.556933403015137
226,22600.0,0.04785645008087158,-1.2059825658798218,-9.580862045288086
227,22700.0,0.04785645008087158,-1.2059825658798218,-9.580862045288086
228,22800.0,0.04785645008087158,-1.2059825658798218,-9.580862045288086
229,22900.0,0.1052841916680336,-1.1389836072921753,-9.588040351867676
230,23000.0,0.1052841916680336,-1.1389836072921753,-9.588040351867676
231,23100.0,0.0047856452874839315,-1.191625714302063,-9.611968994140623
232,23200.0,0.0047856452874839315,-1.191625714302063,-9.611968994140623
233,23300.0,0.04785645008087158,-1.244267821311951,-9.573683738708496
234,23400.0,0.04785645008087158,-1.244267821311951,-9.573683738708496
235,23500.0,0.04785645008087158,-1.244267821311951,-9.573683738708496
236,23600.0,0.03828516229987145,-1.1270195245742798,-9.57607650756836
237,23700.0,0.03828516229987145,-1.1270195245742798,-9.57607650756836
238,23800.0,0.09092726558446884,-1.184447169303894,-9.664610862731934
239,23900.0,0.09092726558446884,-1.184447169303894,-9.664610862731934
240,24000.0,0.09092726558446884,-1.184447169303894,-9.664610862731934
241,24100.0,0.07178468257188797,-1.1389836072921753,-9.573683738708496
242,24200.0,0.07178468257188797,-1.1389836072921753,-9.573683738708496
243,24300.0,0.06699903309345245,-1.155733346939087,-9.614361763000488
244,24400.0,0.06699903309345245,-1.155733346939087,-9.614361763000488
245,24500.0,0.08614162355661392,-1.1581261157989502,-9.609575271606444
246,24600.0,0.08614162355661392,-1.1581261157989502,-9.609575271606444
247,24700.0,0.057427741587162025,-1.191625714302063,-9.626325607299805
248,24800.0,0.057427741587162025,-1.191625714302063,-9.626325607299805
249,24900.0,0.0813559740781784,-1.1102697849273682,-9.580862045288086
250,25000.0,0.0813559740781784,-1.1102697849273682,-9.580862045288086
251,25100.0,0.0813559740781784,-1.1102697849273682,-9.580862045288086
252,25200.0,0.0526420958340168,-1.105484127998352,-9.58325481414795
253,25300.0,0.0526420958340168,-1.105484127998352,-9.58325481414795
254,25400.0,0.0526420958340168,-1.0911270380020142,-9.568897247314453
255,25500.0,0.0526420958340168,-1.0911270380020142,-9.568897247314453
256,25600.0,0.0813559740781784,-1.1748759746551514,-9.585646629333496
257,25700.0,0.0813559740781784,-1.1748759746551514,-9.585646629333496
258,25800.0,0.03828516229987145,-1.1150553226470947,-9.600004196166992
259,25900.0,0.03828516229987145,-1.1150553226470947,-9.600004196166992
260,26000.0,0.03828516229987145,-1.1150553226470947,-9.600004196166992
261,26100.0,0.06699903309345245,-1.0839486122131348,-9.635896682739258
262,26200.0,0.06699903309345245,-1.0839486122131348,-9.635896682739258
263,26300.0,0.057427741587162025,-1.1222338676452637,-9.592825889587402
264,26400.0,0.057427741587162025,-1.1222338676452637,-9.592825889587402
265,26500.0,0.08614162355661392,-1.1413763761520386,-9.578469276428224
266,26600.0,0.08614162355661392,-1.1413763761520386,-9.578469276428224
267,26700.0,0.062213387340307236,-1.1533405780792236,-9.60478973388672
268,26800.0,0.062213387340307236,-1.1533405780792236,-9.60478973388672
269,26900.0,0.07178468257188797,-1.1150553226470947,-9.580862045288086
270,27000.0,0.07178468257188797,-1.1150553226470947,-9.580862045288086
271,27100.0,0.07178468257188797,-1.1150553226470947,-9.580862045288086
272,27200.0,0.06699903309345245,-1.1341978311538696,-9.647860527038574
273,27300.0,0.06699903309345245,-1.1341978311538696,-9.647860527038574
274,27400.0,0.057427741587162025,-1.1581261157989502,-9.57607650756836
275,27500.0,0.057427741587162025,-1.1581261157989502,-9.57607650756836
276,27600.0,0.04307081177830696,-1.1222338676452637,-9.578469276428224
277,27700.0,0.04307081177830696,-1.1222338676452637,-9.578469276428224
278,27800.0,0.04307081177830696,-1.105484127998352,-9.547362327575684
279,27900.0,0.04307081177830696,-1.105484127998352,-9.547362327575684
280,28000.0,0.04307081177830696,-1.105484127998352,-9.547362327575684
281,28100.0,0.04785645008087158,-1.129412293434143,-9.600004196166992
282,28200.0,0.04785645008087158,-1.129412293434143,-9.600004196166992
283,28300.0,0.062213387340307236,-1.1150553226470947,-9.554540634155273
284,28400.0,0.062213387340307236,-1.1150553226470947,-9.554540634155273
285,28500.0,0.0526420958340168,-1.1413763761520386,-9.628718376159668
286,28600.0,0.0526420958340168,-1.1413763761520386,-9.628718376159668
287,28700.0,0.057427741587162025,-1.1198409795761108,-9.588040351867676
288,28800.0,0.057427741587162025,-1.1198409795761108,-9.588040351867676
289,28900.0,0.07178468257188797,-1.1533405780792236,-9.607183456420898
290,29000.0,0.07178468257188797,-1.1533405780792236,-9.607183456420898
291,29100.0,0.0813559740781784,-1.124626636505127,-9.554540634155273
292,29200.0,0.0813559740781784,-1.124626636505127,-9.554540634155273
293,29300.0,0.0813559740781784,-1.124626636505127,-9.554540634155273
294,29400.0,0.0526420958340168,-1.131805181503296,-9.621540069580078
295,29500.0,0.0526420958340168,-1.131805181503296,-9.621540069580078
296,29600.0,0.04307081177830696,-1.227518081665039,-9.578469276428224
297,29700.0,0.04307081177830696,-1.227518081665039,-9.578469276428224
298,29800.0,0.0047856452874839315,-1.308874011039734,-9.592825889587402
299,29900.0,0.0047856452874839315,-1.308874011039734,-9.592825889587402
300,30000.0,0.02392822504043579,-1.1270195245742798,-9.580862045288086
301,30100.0,0.02392822504043579,-1.1270195245742798,-9.580862045288086
302,30200.0,0.02392822504043579,-1.1270195245742798,-9.580862045288086
303,30300.0,0.0526420958340168,-1.1748759746551514,-9.616753578186037
304,30400.0,0.0526420958340168,-1.1748759746551514,-9.616753578186037
305,30500.0,0.057427741587162025,-1.0671988725662231,-9.54496955871582
306,30600.0,0.057427741587162025,-1.0671988725662231,-9.54496955871582
307,30700.0,0.033499516546726234,-1.1030912399291992,-9.556933403015137
308,30800.0,0.033499516546726234,-1.1030912399291992,-9.556933403015137
309,30900.0,0.033499516546726234,-1.1030912399291992,-9.556933403015137
310,31000.0,0.07657032459974289,-1.0695916414260864,-9.55214786529541
311,31100.0,0.07657032459974289,-1.0695916414260864,-9.55214786529541
312,31200.0,0.0526420958340168,-1.1772687435150146,-9.535398483276367
313,31300.0,0.0526420958340168,-1.1772687435150146,-9.535398483276367
314,31400.0,0.10049854964017868,-1.1485549211502075,-9.588040351867676
315,31500.0,0.10049854964017868,-1.1485549211502075,-9.588040351867676
316,31600.0,0.057427741587162025,-1.3112668991088867,-9.600004196166992
317,31700.0,0.057427741587162025,-1.3112668991088867,-9.600004196166992
318,31800.0,0.02392822504043579,-1.0743772983551023,-9.542576789855957
319,31900.0,0.02392822504043579,-1.0743772983551023,-9.542576789855957
320,32000.0,0.07178468257188797,-1.2729815244674685,-9.580862045288086
321,32100.0,0.07178468257188797,-1.2729815244674685,-9.580862045288086
322,32200.0,0.07178468257188797,-1.2729815244674685,-9.580862045288086
323,32300.0,0.04307081177830696,-1.191625714302063,-9.549755096435547
324,32400.0,0.04307081177830696,-1.191625714302063,-9.549755096435547
325,32500.0,0.00957129057496786,-1.3328022956848145,-9.55214786529541
326,32600.0,0.00957129057496786,-1.3328022956848145,-9.55214786529541
327,32700.0,0.04307081177830696,-1.2490534782409668,-9.573683738708496
328,32800.0,0.04307081177830696,-1.2490534782409668,-9.573683738708496
329,32900.0,0.04307081177830696,-1.2490534782409668,-9.573683738708496
330,33000.0,0.04307081177830696,-1.284945726394653,-9.571290969848633
331,33100.0,0.04307081177830696,-1.284945726394653,-9.571290969848633
332,33200.0,0.06699903309345245,-1.2562319040298462,-9.597611427307127
333,33300.0,0.06699903309345245,-1.2562319040298462,-9.597611427307127
334,33400.0,0.04785645008087158,-1.2370892763137815,-9.580862045288086
335,33500.0,0.04785645008087158,-1.2370892763137815,-9.580862045288086
336,33600.0,0.033499516546726234,-1.2705888748168943,-9.540184020996094
337,33700.0,0.033499516546726234,-1.2705888748168943,-9.540184020996094
338,33800.0,0.033499516546726234,-1.2705888748168943,-9.540184020996094
339,33900.0,0.014356935396790503,-1.2993026971817017,-9.559326171875
340,34000.0,0.014356935396790503,-1.2993026971817017,-9.559326171875
341,34100.0,0.03828516229987145,-1.3351951837539673,-9.571290969848633
342,34200.0,0.03828516229987145,-1.3351951837539673,-9.571290969848633
343,34300.0,0.03828516229987145,-1.3351951837539673,-9.571290969848633
344,34400.0,0.06699903309345245,-1.2514461278915403,-9.540184020996094
345,34500.0,0.06699903309345245,-1.2514461278915403,-9.540184020996094
346,34600.0,-0.033499516546726234,-1.3136597871780396,-9.530611991882324
347,34700.0,-0.033499516546726234,-1.3136597871780396,-9.530611991882324
348,34800.0,0.057427741587162025,-1.3208380937576294,-9.542576789855957
349,34900.0,0.057427741587162025,-1.3208380937576294,-9.542576789855957
350,35000.0,0.057427741587162025,-1.3208380937576294,-9.542576789855957
351,35100.0,0.0526420958340168,-1.5936198234558103,-9.571290969848633
352,35200.0,0.0526420958340168,-1.5936198234558103,-9.571290969848633
353,35300.0,0.04307081177830696,-1.4069796800613403,-9.504291534423828
354,35400.0,0.04307081177830696,-1.4069796800613403,-9.504291534423828
355,35500.0,0.04307081177830696,-1.4069796800613403,-9.504291534423828
356,35600.0,0.00957129057496786,-1.3591231107711792,-9.595218658447266
357,35700.0,0.00957129057496786,-1.3591231107711792,-9.595218658447266
358,35800.0,0.04307081177830696,-1.3543376922607422,-9.559326171875
359,35900.0,0.04307081177830696,-1.3543376922607422,-9.559326171875
360,36000.0,0.062213387340307236,-1.423729419708252,-9.580862045288086
361,36100.0,0.062213387340307236,-1.423729419708252,-9.580862045288086
362,36200.0,0.03828516229987145,-1.2801601886749268,-9.554540634155273
363,36300.0,0.03828516229987145,-1.2801601886749268,-9.554540634155273
364,36400.0,0.03828516229987145,-1.2801601886749268,-9.554540634155273
365,36500.0,0.04307081177830696,-1.3399806022644043,-9.573683738708496
366,36600.0,0.04307081177830696,-1.3399806022644043,-9.573683738708496
367,36700.0,0.04785645008087158,-1.3902300596237185,-9.559326171875
368,36800.0,0.04785645008087158,-1.3902300596237185,-9.559326171875
369,36900.0,0.04785645008087158,-1.3902300596237185,-9.559326171875
370,37000.0,-0.0047856452874839315,-1.3950155973434448,-9.561718940734863
371,37100.0,-0.0047856452874839315,-1.3950155973434448,-9.561718940734863
372,37200.0,0.033499516546726234,-1.3471590280532837,-9.521041870117188
373,37300.0,0.033499516546726234,-1.3471590280532837,-9.521041870117188
374,37400.0,0.03828516229987145,-1.356730580329895,-9.549755096435547
375,37500.0,0.03828516229987145,-1.356730580329895,-9.549755096435547
376,37600.0,0.03828516229987145,-1.356730580329895,-9.549755096435547
377,37700.0,0.04307081177830696,-1.3998013734817505,-9.602396965026855
378,37800.0,0.04307081177830696,-1.3998013734817505,-9.602396965026855
379,37900.0,0.06699903309345245,-1.3208380937576294,-9.556933403015137
380,38000.0,0.06699903309345245,-1.3208380937576294,-9.556933403015137
381,38100.0,0.03828516229987145,-1.2993026971817017,-9.554540634155273
382,38200.0,0.03828516229987145,-1.2993026971817017,-9.554540634155273
383,38300.0,0.03828516229987145,-1.2993026971817017,-9.554540634155273
384,38400.0,-0.01914258114993572,-1.2777673006057741,-9.564111709594727
385,38500.0,-0.01914258114993572,-1.2777673006057741,-9.564111709594727
386,38600.0,0.04307081177830696,-1.3328022956848145,-9.561718940734863
387,38700.0,0.04307081177830696,-1.3328022956848145,-9.561718940734863
388,38800.0,0.00957129057496786,-1.3016955852508545,-9.55214786529541
389,38900.0,0.00957129057496786,-1.3016955852508545,-9.55214786529541
390,39000.0,0.0526420958340168,-1.308874011039734,-9.592825889587402
391,39100.0,0.0526420958340168,-1.308874011039734,-9.592825889587402
392,39200.0,0.0526420958340168,-1.308874011039734,-9.592825889587402
393,39300.0,0.062213387340307236,-1.3423734903335571,-9.53779125213623
394,39400.0,0.062213387340307236,-1.3423734903335571,-9.53779125213623
395,39500.0,0.01914258114993572,-1.325623631477356,-9.568897247314453
396,39600.0,0.01914258114993572,-1.325623631477356,-9.568897247314453
397,39700.0,0.01914258114993572,-1.325623631477356,-9.568897247314453
398,39800.0,0.01914258114993572,-1.3663017749786377,-9.58325481414795
399,39900.0,0.01914258114993572,-1.3663017749786377,-9.58325481414795
400,40000.0,0.07178468257188797,-1.3375877141952517,-9.533005714416504
401,40100.0,0.07178468257188797,-1.3375877141952517,-9.533005714416504
402,40200.0,0.028713870793581012,-1.3304094076156616,-9.635896682739258
403,40300.0,0.028713870793581012,-1.3304094076156616,-9.635896682739258
404,40400.0,0.033499516546726234,-1.3184452056884766,-9.561718940734863
405,40500.0,0.033499516546726234,-1.3184452056884766,-9.561718940734863
406,40600.0,0.033499516546726234,-1.3184452056884766,-9.561718940734863
407,40700.0,0.04785645008087158,-1.3280165195465088,-9.51386260986328
408,40800.0,0.04785645008087158,-1.3280165195465088,-9.51386260986328
409,40900.0,0.04785645008087158,-1.3280165195465088,-9.51386260986328
410,41000.0,0.0526420958340168,-1.284945726394653,-9.540184020996094
411,41100.0,0.0526420958340168,-1.284945726394653,-9.540184020996094
412,41200.0,0.028713870793581012,-1.3136597871780396,-9.57607650756836
413,41300.0,0.028713870793581012,-1.3136597871780396,-9.57607650756836
414,41400.0,0.04307081177830696,-1.3136597871780396,-9.549755096435547
415,41500.0,0.04307081177830696,-1.3136597871780396,-9.549755096435547
416,41600.0,0.03828516229987145,-1.3184452056884766,-9.592825889587402
417,41700.0,0.03828516229987145,-1.3184452056884766,-9.592825889587402
418,41800.0,0.03828516229987145,-1.3184452056884766,-9.592825889587402
419,41900.0,0.033499516546726234,-1.325623631477356,-9.568897247314453
420,42000.0,0.033499516546726234,-1.325623631477356,-9.568897247314453
421,42100.0,0.057427741587162025,-1.3399806022644043,-9.60478973388672
422,42200.0,0.057427741587162025,-1.3399806022644043,-9.60478973388672
423,42300.0,0.057427741587162025,-1.3399806022644043,-9.60478973388672
424,42400.0,0.033499516546726234,-1.289731502532959,-9.592825889587402
425,42500.0,0.033499516546726234,-1.289731502532959,-9.592825889587402
426,42600.0,0.0813559740781784,-1.3495519161224363,-9.556933403015137
427,42700.0,0.0813559740781784,-1.3495519161224363,-9.556933403015137
428,42800.0,0.057427741587162025,-1.3304094076156616,-9.540184020996094
429,42900.0,0.057427741587162025,-1.3304094076156616,-9.540184020996094
430,43000.0,0.04785645008087158,-1.3280165195465088,-9.54496955871582
431,43100.0,0.04785645008087158,-1.3280165195465088,-9.54496955871582
432,43200.0,0.04785645008087158,-1.3280165195465088,-9.54496955871582
433,43300.0,0.057427741587162025,-1.3543376922607422,-9.607183456420898
434,43400.0,0.057427741587162025,-1.3543376922607422,-9.607183456420898
435,43500.0,0.03828516229987145,-1.373480200767517,-9.54496955871582
436,43600.0,0.03828516229987145,-1.373480200767517,-9.54496955871582
437,43700.0,0.04785645008087158,-1.368694543838501,-9.607183456420898
438,43800.0,0.04785645008087158,-1.368694543838501,-9.607183456420898
439,43900.0,0.04785645008087158,-1.368694543838501,-9.607183456420898
440,44000.0,0.0526420958340168,-1.3519448041915894,-9.506684303283693
441,44100.0,0.0526420958340168,-1.3519448041915894,-9.506684303283693
442,44200.0,0.07178468257188797,-1.3854442834854126,-9.542576789855957
443,44300.0,0.07178468257188797,-1.3854442834854126,-9.542576789855957
444,44400.0,0.04307081177830696,-1.3543376922607422,-9.559326171875
445,44500.0,0.04307081177830696,-1.3543376922607422,-9.559326171875
446,44600.0,0.04307081177830696,-1.4165509939193726,-9.58325481414795
447,44700.0,0.04307081177830696,-1.4165509939193726,-9.58325481414795
448,44800.0,0.04307081177830696,-1.4045867919921875,-9.528220176696776
449,44900.0,0.04307081177830696,-1.4045867919921875,-9.528220176696776
450,45000.0,0.02392822504043579,-1.3950155973434448,-9.511469841003418
451,45100.0,0.02392822504043579,-1.3950155973434448,-9.511469841003418
452,45200.0,0.02392822504043579,-1.3950155973434448,-9.511469841003418
453,45300.0,0.0526420958340168,-1.289731502532959,-9.556933403015137
454,45400.0,0.0526420958340168,-1.289731502532959,-9.556933403015137
455,45500.0,0.028713870793581012,-1.5457634925842283,-9.57607650756836
456,45600.0,0.028713870793581012,-1.5457634925842283,-9.57607650756836
457,45700.0,0.028713870793581012,-1.5457634925842283,-9.57607650756836
458,45800.0,0.01914258114993572,-1.3998013734817505,-9.578469276428224
459,45900.0,0.01914258114993572,-1.3998013734817505,-9.578469276428224
460,46000.0,0.07178468257188797,-1.361515998840332,-9.554540634155273
461,46100.0,0.07178468257188797,-1.361515998840332,-9.554540634155273
462,46200.0,0.03828516229987145,-1.3998013734817505,-9.533005714416504
463,46300.0,0.03828516229987145,-1.3998013734817505,-9.533005714416504
464,46400.0,0.0047856452874839315,-1.4500504732131958,-9.578469276428224
465,46500.0,0.0047856452874839315,-1.4500504732131958,-9.578469276428224
466,46600.0,0.03828516229987145,-1.2801601886749268,-9.559326171875
467,46700.0,0.03828516229987145,-1.2801601886749268,-9.559326171875
468,46800.0,0.03828516229987145,-1.2801601886749268,-9.559326171875
469,46900.0,0.03828516229987145,-1.3998013734817505,-9.561718940734863
470,47000.0,0.03828516229987145,-1.3998013734817505,-9.561718940734863
471,47100.0,0.02392822504043579,-1.4213367700576782,-9.585646629333496
472,47200.0,0.02392822504043579,-1.4213367700576782,-9.585646629333496
473,47300.0,0.028713870793581012,-1.3854442834854126,-9.602396965026855
474,47400.0,0.028713870793581012,-1.3854442834854126,-9.602396965026855
475,47500.0,0.028713870793581012,-1.3854442834854126,-9.602396965026855
476,47600.0,0.03828516229987145,-1.356730580329895,-9.518648147583008
477,47700.0,0.03828516229987145,-1.356730580329895,-9.518648147583008
478,47800.0,0.033499516546726234,-1.37587308883667,-9.540184020996094
479,47900.0,0.033499516546726234,-1.37587308883667,-9.540184020996094
480,48000.0,0.014356935396790503,-1.2562319040298462,-9.556933403015137
481,48100.0,0.014356935396790503,-1.2562319040298462,-9.556933403015137
482,48200.0,0.033499516546726234,-1.3663017749786377,-9.556933403015137
483,48300.0,0.033499516546726234,-1.3663017749786377,-9.556933403015137
484,48400.0,0.033499516546726234,-1.3663017749786377,-9.556933403015137
485,48500.0,0.04307081177830696,-1.3663017749786377,-9.55214786529541
486,48600.0,0.04307081177830696,-1.3663017749786377,-9.55214786529541
487,48700.0,0.07657032459974289,-1.3710873126983645,-9.573683738708496
488,48800.0,0.07657032459974289,-1.3710873126983645,-9.573683738708496
489,48900.0,0.04307081177830696,-1.325623631477356,-9.53779125213623
490,49000.0,0.04307081177830696,-1.325623631477356,-9.53779125213623
491,49100.0,0.0526420958340168,-1.361515998840332,-9.554540634155273
492,49200.0,0.0526420958340168,-1.361515998840332,-9.554540634155273
493,49300.0,0.0813559740781784,-1.2610174417495728,-9.568897247314453
494,49400.0,0.0813559740781784,-1.2610174417495728,-9.568897247314453
495,49500.0,0.0813559740781784,-1.2610174417495728,-9.568897247314453
496,49600.0,0.02392822504043579,-1.3232309818267822,-9.611968994140623
497,49700.0,0.02392822504043579,-1.3232309818267822,-9.611968994140623
498,49800.0,0.0526420958340168,-1.3639088869094849,-9.57607650756836
499,49900.0,0.0526420958340168,-1.3639088869094849,-9.57607650756836
500,50000.0,0.0526420958340168,-1.3639088869094849,-9.57607650756836
501,50100.0,0.04785645008087158,-1.3016955852508545,-9.611968994140623
502,50200.0,0.04785645008087158,-1.3016955852508545,-9.611968994140623
503,50300.0,0.06699903309345245,-1.3304094076156616,-9.571290969848633
504,50400.0,0.06699903309345245,-1.3304094076156616,-9.571290969848633
505,50500.0,0.04307081177830696,-1.3423734903335571,-9.578469276428224
506,50600.0,0.04307081177830696,-1.3423734903335571,-9.578469276428224
507,50700.0,0.04307081177830696,-1.3423734903335571,-9.578469276428224
508,50800.0,0.033499516546726234,-1.3399806022644043,-9.573683738708496
509,50900.0,0.033499516546726234,-1.3399806022644043,-9.573683738708496
510,51000.0,0.01914258114993572,-1.3351951837539673,-9.571290969848633
511,51100.0,0.01914258114993572,-1.3351951837539673,-9.571290969848633
512,51200.0,0.01914258114993572,-1.3351951837539673,-9.571290969848633
513,51300.0,0.028713870793581012,-1.3543376922607422,-9.528220176696776
514,51400.0,0.028713870793581012,-1.3543376922607422,-9.528220176696776
515,51500.0,0.03828516229987145,-1.3351951837539673,-9.571290969848633
516,51600.0,0.03828516229987145,-1.3351951837539673,-9.571290969848633
517,51700.0,0.04307081177830696,-1.289731502532959,-9.588040351867676
518,51800.0,0.04307081177830696,-1.289731502532959,-9.588040351867676
519,51900.0,0.028713870793581012,-1.2705888748168943,-9.602396965026855
520,52000.0,0.028713870793581012,-1.2705888748168943,-9.602396965026855
521,52100.0,0.028713870793581012,-1.2705888748168943,-9.602396965026855
522,52200.0,0.03828516229987145,-1.3423734903335571,-9.53779125213623
523,52300.0,0.03828516229987145,-1.3423734903335571,-9.53779125213623
524,52400.0,0.01914258114993572,-1.3639088869094849,-9.561718940734863
525,52500.0,0.01914258114993572,-1.3639088869094849,-9.561718940734863
526,52600.0,0.02392822504043579,-1.294516921043396,-9.619147300720217
527,52700.0,0.02392822504043579,-1.294516921043396,-9.619147300720217
528,52800.0,0.00957129057496786,-1.3543376922607422,-9.578469276428224
529,52900.0,0.00957129057496786,-1.3543376922607422,-9.578469276428224
530,53000.0,0.03828516229987145,-1.3854442834854126,-9.53779125213623
531,53100.0,0.03828516229987145,-1.3854442834854126,-9.53779125213623
532,53200.0,0.03828516229987145,-1.3854442834854126,-9.53779125213623
533,53300.0,0.014356935396790503,-1.3304094076156616,-9.616753578186037
534,53400.0,0.014356935396790503,-1.3304094076156616,-9.616753578186037
535,53500.0,0.04785645008087158,-1.430907964706421,-9.55214786529541
536,53600.0,0.04785645008087158,-1.430907964706421,-9.55214786529541
537,53700.0,0.01914258114993572,-1.3280165195465088,-9.595218658447266
538,53800.0,0.01914258114993572,-1.3280165195465088,-9.595218658447266
539,53900.0,0.01914258114993572,-1.3280165195465088,-9.595218658447266
540,54000.0,0.062213387340307236,-1.2801601886749268,-9.573683738708496
541,54100.0,0.062213387340307236,-1.2801601886749268,-9.573683738708496
542,54200.0,0.014356935396790503,-1.392622709274292,-9.611968994140623
543,54300.0,0.014356935396790503,-1.392622709274292,-9.611968994140623
544,54400.0,0.057427741587162025,-1.4811571836471558,-9.573683738708496
545,54500.0,0.057427741587162025,-1.4811571836471558,-9.573683738708496
546,54600.0,0.014356935396790503,-1.3543376922607422,-9.559326171875
547,54700.0,0.014356935396790503,-1.3543376922607422,-9.559326171875
548,54800.0,0.03828516229987145,-1.4189438819885254,-9.564111709594727
549,54900.0,0.03828516229987145,-1.4189438819885254,-9.564111709594727
550,55000.0,0.03828516229987145,-1.4189438819885254,-9.564111709594727
551,55100.0,0.0526420958340168,-1.4668002128601074,-9.568897247314453
552,55200.0,0.0526420958340168,-1.4668002128601074,-9.568897247314453
553,55300.0,0.0526420958340168,-1.3543376922607422,-9.542576789855957
554,55400.0,0.0526420958340168,-1.3543376922607422,-9.542576789855957
555,55500.0,0.0526420958340168,-1.3543376922607422,-9.542576789855957
556,55600.0,0.028713870793581012,-1.411765456199646,-9.55214786529541
557,55700.0,0.028713870793581012,-1.411765456199646,-9.55214786529541
558,55800.0,0.057427741587162025,-1.380658507347107,-9.571290969848633
559,55900.0,0.057427741587162025,-1.380658507347107,-9.571290969848633
560,56000.0,0.033499516546726234,-1.4524433612823486,-9.554540634155273
561,56100.0,0.033499516546726234,-1.4524433612823486,-9.554540634155273
562,56200.0,0.0526420958340168,-1.4021940231323242,-9.523433685302734
563,56300.0,0.0526420958340168,-1.4021940231323242,-9.523433685302734
564,56400.0,0.0526420958340168,-1.4021940231323242,-9.523433685302734
565,56500.0,0.04307081177830696,-1.428515076637268,-9.561718940734863
566,56600.0,0.04307081177830696,-1.428515076637268,-9.561718940734863
567,56700.0,0.057427741587162025,-1.3902300596237185,-9.51386260986328
568,56800.0,0.057427741587162025,-1.3902300596237185,-9.51386260986328
569,56900.0,-0.0047856452874839315,-1.5170495510101318,-9.585646629333496
570,57000.0,-0.0047856452874839315,-1.5170495510101318,-9.585646629333496
571,57100.0,-0.0047856452874839315,-1.5170495510101318,-9.585646629333496
572,57200.0,0.062213387340307236,-1.37587308883667,-9.616753578186037
573,57300.0,0.062213387340307236,-1.37587308883667,-9.616753578186037
574,57400.0,0.02392822504043579,-1.3591231107711792,-9.564111709594727
575,57500.0,0.02392822504043579,-1.3591231107711792,-9.564111709594727
576,57600.0,0.01914258114993572,-1.3830513954162598,-9.53779125213623
577,57700.0,0.01914258114993572,-1.3830513954162598,-9.53779125213623
578,57800.0,0.01914258114993572,-1.3830513954162598,-9.53779125213623
579,57900.0,0.07657032459974289,-1.4333008527755735,-9.518648147583008
580,58000.0,0.07657032459974289,-1.4333008527755735,-9.518648147583008
581,58100.0,0.02392822504043579,-1.3950155973434448,-9.57607650756836
582,58200.0,0.02392822504043579,-1.3950155973434448,-9.57607650756836
583,58300.0,0.04307081177830696,-1.3591231107711792,-9.564111709594727
584,58400.0,0.04307081177830696,-1.3591231107711792,-9.564111709594727
585,58500.0,0.057427741587162025,-1.3423734903335571,-9.595218658447266
586,58600.0,0.057427741587162025,-1.3423734903335571,-9.595218658447266
587,58700.0,0.033499516546726234,-1.361515998840332,-9.600004196166992
588,58800.0,0.033499516546726234,-1.361515998840332,-9.600004196166992
589,58900.0,0.033499516546726234,-1.361515998840332,-9.600004196166992
590,59000.0,0.04307081177830696,-1.3160523176193235,-9.566505432128906
591,59100.0,0.04307081177830696,-1.3160523176193235,-9.566505432128906
592,59200.0,0.0526420958340168,-1.3830513954162598,-9.578469276428224
593,59300.0,0.0526420958340168,-1.3830513954162598,-9.578469276428224
594,59400.0,0.03828516229987145,-1.3878371715545654,-9.564111709594727
595,59500.0,0.03828516229987145,-1.3878371715545654,-9.564111709594727
596,59600.0,-0.014356935396790503,-1.3830513954162598,-9.578469276428224
597,59700.0,-0.014356935396790503,-1.3830513954162598,-9.578469276428224
598,59800.0,0.01914258114993572,-1.368694543838501,-9.578469276428224
599,59900.0,0.01914258114993572,-1.368694543838501,-9.578469276428224
600,60000.0,0.01914258114993572,-1.368694543838501,-9.578469276428224
601,60100.0,0.062213387340307236,-1.392622709274292,-9.504291534423828
602,60200.0,0.062213387340307236,-1.392622709274292,-9.504291534423828
603,60300.0,0.033499516546726234,-1.325623631477356,-9.542576789855957
604,60400.0,0.033499516546726234,-1.325623631477356,-9.542576789855957
605,60500.0,0.028713870793581012,-1.4093725681304932,-9.54496955871582
606,60600.0,0.028713870793581012,-1.4093725681304932,-9.54496955871582
607,60700.0,0.028713870793581012,-1.4093725681304932,-9.54496955871582
608,60800.0,0.02392822504043579,-1.3663017749786377,-9.53779125213623
609,60900.0,0.02392822504043579,-1.3663017749786377,-9.53779125213623
610,61000.0,0.0047856452874839315,-1.3830513954162598,-9.58325481414795
611,61100.0,0.0047856452874839315,-1.3830513954162598,-9.58325481414795
612,61200.0,0.057427741587162025,-1.4763716459274292,-9.542576789855957
613,61300.0,0.057427741587162025,-1.4763716459274292,-9.542576789855957
614,61400.0,0.0526420958340168,-1.368694543838501,-9.516255378723145
615,61500.0,0.0526420958340168,-1.368694543838501,-9.516255378723145
616,61600.0,0.033499516546726234,-1.4644075632095337,-9.54496955871582
617,61700.0,0.033499516546726234,-1.4644075632095337,-9.54496955871582
618,61800.0,0.033499516546726234,-1.4644075632095337,-9.54496955871582
619,61900.0,0.062213387340307236,-1.3136597871780396,-9.559326171875
620,62000.0,0.062213387340307236,-1.3136597871780396,-9.559326171875
621,62100.0,0.028713870793581012,-1.519442439079285,-9.611968994140623
622,62200.0,0.028713870793581012,-1.519442439079285,-9.611968994140623
623,62300.0,0.04307081177830696,-1.3830513954162598,-9.597611427307127
624,62400.0,0.04307081177830696,-1.3830513954162598,-9.597611427307127
625,62500.0,0.04307081177830696,-1.3830513954162598,-9.597611427307127
626,62600.0,0.014356935396790503,-1.3854442834854126,-9.542576789855957
627,62700.0,0.014356935396790503,-1.3854442834854126,-9.542576789855957
628,62800.0,0.04307081177830696,-1.368694543838501,-9.578469276428224
629,62900.0,0.04307081177830696,-1.368694543838501,-9.578469276428224
630,63000.0,0.03828516229987145,-1.37587308883667,-9.585646629333496
631,63100.0,0.03828516229987145,-1.37587308883667,-9.585646629333496
632,63200.0,0.04785645008087158,-1.3495519161224363,-9.57607650756836
633,63300.0,0.04785645008087158,-1.3495519161224363,-9.57607650756836
634,63400.0,0.04785645008087158,-1.3495519161224363,-9.57607650756836
635,63500.0,0.057427741587162025,-1.411765456199646,-9.616753578186037
636,63600.0,0.057427741587162025,-1.411765456199646,-9.616753578186037
637,63700.0,0.07178468257188797,-1.4069796800613403,-9.554540634155273
638,63800.0,0.07178468257188797,-1.4069796800613403,-9.554540634155273
639,63900.0,0.028713870793581012,-1.2131611108779907,-9.533005714416504
640,64000.0,0.028713870793581012,-1.2131611108779907,-9.533005714416504
641,64100.0,0.057427741587162025,-1.4476575851440432,-9.597611427307127
642,64200.0,0.057427741587162025,-1.4476575851440432,-9.597611427307127
643,64300.0,0.057427741587162025,-1.4476575851440432,-9.597611427307127
644,64400.0,0.02392822504043579,-1.3471590280532837,-9.566505432128906
645,64500.0,0.02392822504043579,-1.3471590280532837,-9.566505432128906
646,64600.0,0.028713870793581012,-1.4261221885681152,-9.602396965026855
647,64700.0,0.028713870793581012,-1.4261221885681152,-9.602396965026855
648,64800.0,0.028713870793581012,-1.4261221885681152,-9.602396965026855
649,64900.0,0.03828516229987145,-1.4165509939193726,-9.58325481414795
650,65000.0,0.03828516229987145,-1.4165509939193726,-9.58325481414795
651,65100.0,0.014356935396790503,-1.3351951837539673,-9.588040351867676
652,65200.0,0.014356935396790503,-1.3351951837539673,-9.588040351867676
653,65300.0,0.03828516229987145,-1.3160523176193235,-9.566505432128906
654,65400.0,0.03828516229987145,-1.3160523176193235,-9.566505432128906
655,65500.0,0.0813559740781784,-1.2753744125366209,-9.573683738708496
656,65600.0,0.0813559740781784,-1.2753744125366209,-9.573683738708496
657,65700.0,0.0813559740781784,-1.2753744125366209,-9.573683738708496
658,65800.0,0.014356935396790503,-1.6462620496749878,-9.62393283843994
659,65900.0,0.014356935396790503,-1.6462620496749878,-9.62393283843994
660,66000.0,0.00957129057496786,-1.4907284975051882,-9.621540069580078
661,66100.0,0.00957129057496786,-1.4907284975051882,-9.621540069580078
662,66200.0,0.0047856452874839315,-1.3040882349014282,-9.588040351867676
663,66300.0,0.0047856452874839315,-1.3040882349014282,-9.588040351867676
664,66400.0,0.0047856452874839315,-1.3040882349014282,-9.588040351867676
665,66500.0,-0.0047856452874839315,-1.3854442834854126,-9.652647018432617
666,66600.0,-0.0047856452874839315,-1.3854442834854126,-9.652647018432617
667,66700.0,0.00957129057496786,-1.3328022956848145,-9.521041870117188
668,66800.0,0.00957129057496786,-1.3328022956848145,-9.521041870117188
669,66900.0,0.00957129057496786,-1.3328022956848145,-9.521041870117188
670,67000.0,0.014356935396790503,-1.1413763761520386,-9.549755096435547
671,67100.0,0.014356935396790503,-1.1413763761520386,-9.549755096435547
672,67200.0,0.04785645008087158,-1.4907284975051882,-9.616753578186037
673,67300.0,0.04785645008087158,-1.4907284975051882,-9.616753578186037
674,67400.0,0.1052841916680336,-1.4500504732131958,-9.578469276428224
675,67500.0,0.1052841916680336,-1.4500504732131958,-9.578469276428224
676,67600.0,0.00957129057496786,-1.6055840253829956,-9.595218658447266
677,67700.0,0.00957129057496786,-1.6055840253829956,-9.595218658447266
678,67800.0,0.00957129057496786,-1.6055840253829956,-9.595218658447266
679,67900.0,0.04307081177830696,-1.0600204467773438,-9.533005714416504
680,68000.0,0.04307081177830696,-1.0600204467773438,-9.533005714416504
681,68100.0,0.06699903309345245,-1.1653046607971191,-9.616753578186037
682,68200.0,0.06699903309345245,-1.1653046607971191,-9.616753578186037
683,68300.0,0.06699903309345245,-1.2490534782409668,-9.590433120727539
684,68400.0,0.06699903309345245,-1.2490534782409668,-9.590433120727539
685,68500.0,0.04307081177830696,-1.2969098091125488,-9.568897247314453
686,68600.0,0.04307081177830696,-1.2969098091125488,-9.568897247314453
687,68700.0,0.04307081177830696,-1.2969098091125488,-9.568897247314453
688,68800.0,0.033499516546726234,-1.2969098091125488,-9.585646629333496
689,68900.0,0.033499516546726234,-1.2969098091125488,-9.585646629333496
690,69000.0,0.07657032459974289,-1.2969098091125488,-9.568897247314453
691,69100.0,0.07657032459974289,-1.2969098091125488,-9.568897247314453
692,69200.0,0.03828516229987145,-1.2825528383255005,-9.580862045288086
693,69300.0,0.03828516229987145,-1.2825528383255005,-9.580862045288086
694,69400.0,0.08614162355661392,-1.1772687435150146,-9.607183456420898
695,69500.0,0.08614162355661392,-1.1772687435150146,-9.607183456420898
696,69600.0,0.02392822504043579,-1.308874011039734,-9.542576789855957
697,69700.0,0.02392822504043579,-1.308874011039734,-9.542576789855957
698,69800.0,0.02392822504043579,-1.308874011039734,-9.542576789855957
699,69900.0,0.06699903309345245,-1.2490534782409668,-9.528220176696776
700,70000.0,0.06699903309345245,-1.2490534782409668,-9.528220176696776
701,70100.0,0.028713870793581012,-1.2586246728897097,-9.556933403015137
702,70200.0,0.028713870793581012,-1.2586246728897097,-9.556933403015137
703,70300.0,0.00957129057496786,-1.2921242713928225,-9.578469276428224
704,70400.0,0.00957129057496786,-1.2921242713928225,-9.578469276428224
705,70500.0,0.02392822504043579,-1.37587308883667,-9.600004196166992
706,70600.0,0.02392822504043579,-1.37587308883667,-9.600004196166992
707,70700.0,0.04785645008087158,-1.3998013734817505,-9.619147300720217
708,70800.0,0.04785645008087158,-1.3998013734817505,-9.619147300720217
709,70900.0,0.04785645008087158,-1.3998013734817505,-9.619147300720217
710,71000.0,0.04785645008087158,-1.4141581058502195,-9.578469276428224
711,71100.0,0.04785645008087158,-1.4141581058502195,-9.578469276428224
712,71200.0,0.014356935396790503,-1.3399806022644043,-9.528220176696776
713,71300.0,0.014356935396790503,-1.3399806022644043,-9.528220176696776
714,71400.0,0.0047856452874839315,-1.3663017749786377,-9.542576789855957
715,71500.0,0.0047856452874839315,-1.3663017749786377,-9.542576789855957
716,71600.0,0.0526420958340168,-1.3543376922607422,-9.533005714416504
717,71700.0,0.0526420958340168,-1.3543376922607422,-9.533005714416504
718,71800.0,0.0526420958340168,-1.3543376922607422,-9.533005714416504
719,71900.0,-0.01914258114993572,-1.4859429597854614,-9.571290969848633
720,72000.0,-0.01914258114993572,-1.4859429597854614,-9.571290969848633
721,72100.0,0.04307081177830696,-1.3351951837539673,-9.602396965026855
722,72200.0,0.04307081177830696,-1.3351951837539673,-9.602396965026855
723,72300.0,0.02392822504043579,-1.1820544004440308,-9.547362327575684
724,72400.0,0.02392822504043579,-1.1820544004440308,-9.547362327575684
725,72500.0,0.01914258114993572,-1.2921242713928225,-9.568897247314453
726,72600.0,0.01914258114993572,-1.2921242713928225,-9.568897247314453
727,72700.0,0.01914258114993572,-1.3471590280532837,-9.580862045288086
728,72800.0,0.01914258114993572,-1.3471590280532837,-9.580862045288086
729,72900.0,0.01914258114993572,-1.3471590280532837,-9.580862045288086
730,73000.0,0.028713870793581012,-1.179661512374878,-9.55214786529541
731,73100.0,0.028713870793581012,-1.179661512374878,-9.55214786529541
732,73200.0,0.028713870793581012,-1.4093725681304932,-9.561718940734863
733,73300.0,0.028713870793581012,-1.4093725681304932,-9.561718940734863
734,73400.0,0.03828516229987145,-1.4452648162841797,-9.578469276428224
735,73500.0,0.03828516229987145,-1.4452648162841797,-9.578469276428224
736,73600.0,0.03828516229987145,-1.4452648162841797,-9.578469276428224
737,73700.0,-0.0047856452874839315,-1.4165509939193726,-9.573683738708496
738,73800.0,-0.0047856452874839315,-1.4165509939193726,-9.573683738708496
739,73900.0,0.01914258114993572,-1.4165509939193726,-9.568897247314453
740,74000.0,0.01914258114993572,-1.4165509939193726,-9.568897247314453
741,74100.0,0.02392822504043579,-1.4045867919921875,-9.54496955871582
742,74200.0,0.02392822504043579,-1.4045867919921875,-9.54496955871582
743,74300.0,0.04785645008087158,-1.423729419708252,-9.566505432128906
744,74400.0,0.04785645008087158,-1.423729419708252,-9.566505432128906
745,74500.0,0.03828516229987145,-1.56969153881073,-9.578469276428224
746,74600.0,0.03828516229987145,-1.56969153881073,-9.578469276428224
747,74700.0,0.03828516229987145,-1.56969153881073,-9.578469276428224
748,74800.0,0.04785645008087158,-1.2921242713928225,-9.53779125213623
749,74900.0,0.04785645008087158,-1.2921242713928225,-9.53779125213623
750,75000.0,0.06699903309345245,-1.0983055830001829,-9.590433120727539
751,75100.0,0.06699903309345245,-1.0983055830001829,-9.590433120727539
752,75200.0,0.0047856452874839315,-1.196411371231079,-9.561718940734863
753,75300.0,0.0047856452874839315,-1.196411371231079,-9.561718940734863
754,75400.0,-0.00957129057496786,-1.373480200767517,-9.578469276428224
755,75500.0,-0.00957129057496786,-1.373480200767517,-9.578469276428224
756,75600.0,-0.00957129057496786,-1.373480200767517,-9.578469276428224
757,75700.0,0.03828516229987145,-1.1389836072921753,-9.51386260986328
758,75800.0,0.03828516229987145,-1.1389836072921753,-9.51386260986328
759,75900.0,-0.0047856452874839315,-1.4069796800613403,-9.580862045288086
760,76000.0,-0.0047856452874839315,-1.4069796800613403,-9.580862045288086
761,76100.0,0.02392822504043579,-1.2610174417495728,-9.597611427307127
762,76200.0,0.02392822504043579,-1.2610174417495728,-9.597611427307127
763,76300.0,0.02392822504043579,-1.2610174417495728,-9.597611427307127
764,76400.0,0.01914258114993572,-1.246660590171814,-9.568897247314453
765,76500.0,0.01914258114993572,-1.246660590171814,-9.568897247314453
766,76600.0,0.014356935396790503,-1.428515076637268,-9.55214786529541
767,76700.0,0.014356935396790503,-1.428515076637268,-9.55214786529541
768,76800.0,0.028713870793581012,-1.3328022956848145,-9.535398483276367
769,76900.0,0.028713870793581012,-1.3328022956848145,-9.535398483276367
770,77000.0,-0.01914258114993572,-1.3184452056884766,-9.547362327575684
771,77100.0,-0.01914258114993572,-1.3184452056884766,-9.547362327575684
772,77200.0,-0.01914258114993572,-1.3184452056884766,-9.547362327575684
773,77300.0,-0.01914258114993572,-1.361515998840332,-9.585646629333496
774,77400.0,-0.01914258114993572,-1.361515998840332,-9.585646629333496
775,77500.0,0.0526420958340168,-1.3495519161224363,-9.561718940734863
776,77600.0,0.0526420958340168,-1.3495519161224363,-9.561718940734863
777,77700.0,0.0526420958340168,-1.3495519161224363,-9.561718940734863
778,77800.0,-0.014356935396790503,-1.3232309818267822,-9.578469276428224
779,77900.0,-0.014356935396790503,-1.3232309818267822,-9.578469276428224
780,78000.0,0.01914258114993572,-1.3543376922607422,-9.592825889587402
781,78100.0,0.01914258114993572,-1.3543376922607422,-9.592825889587402
782,78200.0,0.08614162355661392,-1.1413763761520386,-9.564111709594727
783,78300.0,0.08614162355661392,-1.1413763761520386,-9.564111709594727
784,78400.0,0.08614162355661392,-1.1413763761520386,-9.564111709594727
785,78500.0,0.01914258114993572,-1.4165509939193726,-9.614361763000488
786,78600.0,0.01914258114993572,-1.4165509939193726,-9.614361763000488
787,78700.0,-0.057427741587162025,-1.368694543838501,-9.657432556152344
788,78800.0,-0.057427741587162025,-1.368694543838501,-9.657432556152344
789,78900.0,-0.00957129057496786,-1.2131611108779907,-9.547362327575684
790,79000.0,-0.00957129057496786,-1.2131611108779907,-9.547362327575684
791,79100.0,-0.02392822504043579,-1.2011969089508057,-9.554540634155273
792,79200.0,-0.02392822504043579,-1.2011969089508057,-9.554540634155273
793,79300.0,-0.02392822504043579,-1.2011969089508057,-9.554540634155273
794,79400.0,0.03828516229987145,-1.239482045173645,-9.57607650756836
795,79500.0,0.03828516229987145,-1.239482045173645,-9.57607650756836
796,79600.0,0.014356935396790503,-1.2179466485977173,-9.559326171875
797,79700.0,0.014356935396790503,-1.2179466485977173,-9.559326171875
798,79800.0,0.01914258114993572,-1.160519003868103,-9.571290969848633
799,79900.0,0.01914258114993572,-1.160519003868103,-9.571290969848633
800,80000.0,0.01914258114993572,-1.160519003868103,-9.571290969848633
801,80100.0,0.057427741587162025,-1.3304094076156616,-9.554540634155273
802,80200.0,0.057427741587162025,-1.3304094076156616,-9.554540634155273
803,80300.0,-0.07178468257188797,-0.7489535212516785,-9.58325481414795
804,80400.0,-0.07178468257188797,-0.7489535212516785,-9.58325481414795
805,80500.0,0.2153540551662445,-0.9260223507881165,-9.640682220458984
806,80600.0,0.2153540551662445,-0.9260223507881165,-9.640682220458984
807,80700.0,0.09571290016174316,-0.5407779216766357,-9.631111145019533
808,80800.0,0.09571290016174316,-0.5407779216766357,-9.631111145019533
809,80900.0,0.1866401582956314,-0.7920243144035339,-9.647860527038574
810,81000.0,0.1866401582956314,-0.7920243144035339,-9.647860527038574
811,81100.0,0.1866401582956314,-0.7920243144035339,-9.647860527038574
812,81200.0,0.1339980661869049,-0.7968099117279053,-9.619147300720217
813,81300.0,0.1339980661869049,-0.7968099117279053,-9.619147300720217
814,81400.0,-0.01914258114993572,-0.6915256977081299,-9.60478973388672
815,81500.0,-0.01914258114993572,-0.6915256977081299,-9.60478973388672
816,81600.0,0.0813559740781784,-0.7800601720809937,-9.652647018432617
817,81700.0,0.0813559740781784,-0.7800601720809937,-9.652647018432617
818,81800.0,0.07657032459974289,-0.8877372145652771,-9.588040351867676
819,81900.0,0.07657032459974289,-0.8877372145652771,-9.588040351867676
820,82000.0,0.07657032459974289,-0.8877372145652771,-9.588040351867676
821,82100.0,0.02392822504043579,-1.00259268283844,-9.635896682739258
822,82200.0,0.02392822504043579,-1.00259268283844,-9.635896682739258
823,82300.0,0.014356935396790503,-1.1700903177261353,-9.674181938171387
824,82400.0,0.014356935396790503,-1.1700903177261353,-9.674181938171387
825,82500.0,0.0526420958340168,-0.94037926197052,-9.549755096435547
826,82600.0,0.0526420958340168,-0.94037926197052,-9.549755096435547
827,82700.0,0.03828516229987145,-1.0049854516983032,-9.554540634155273
828,82800.0,0.03828516229987145,-1.0049854516983032,-9.554540634155273
829,82900.0,0.033499516546726234,-1.0097711086273191,-9.566505432128906
830,83000.0,0.033499516546726234,-1.0097711086273191,-9.566505432128906
831,83100.0,-0.06699903309345245,-1.1533405780792236,-9.62393283843994
832,83200.0,-0.06699903309345245,-1.1533405780792236,-9.62393283843994
833,83300.0,-0.06699903309345245,-1.1533405780792236,-9.62393283843994
834,83400.0,-0.0047856452874839315,-1.0791629552841189,-9.645467758178713
835,83500.0,-0.0047856452874839315,-1.0791629552841189,-9.645467758178713
836,83600.0,0.014356935396790503,-0.7968099117279053,-9.633503913879396
837,83700.0,0.014356935396790503,-0.7968099117279053,-9.633503913879396
838,83800.0,0.014356935396790503,-0.7968099117279053,-9.633503913879396
839,83900.0,0.01914258114993572,-1.1126624345779421,-9.650253295898438
840,84000.0,0.01914258114993572,-1.1126624345779421,-9.650253295898438
841,84100.0,0.02392822504043579,-0.9188438653945924,-9.571290969848633
842,84200.0,0.02392822504043579,-0.9188438653945924,-9.571290969848633
843,84300.0,0.0813559740781784,-1.031306505203247,-9.62393283843994
844,84400.0,0.0813559740781784,-1.031306505203247,-9.62393283843994
845,84500.0,0.0813559740781784,-1.031306505203247,-9.62393283843994
846,84600.0,0.08614162355661392,-1.0336993932724001,-9.664610862731934
847,84700.0,0.08614162355661392,-1.0336993932724001,-9.664610862731934
848,84800.0,0.01914258114993572,-0.9379864931106568,-9.633503913879396
849,84900.0,0.01914258114993572,-0.9379864931106568,-9.633503913879396
850,85000.0,0.01914258114993572,-0.9379864931106568,-9.633503913879396
851,85100.0,0.028713870793581012,-0.9810572862625122,-9.63828945159912
852,85200.0,0.028713870793581012,-0.9810572862625122,-9.63828945159912
853,85300.0,0.07657032459974289,-0.8542376756668091,-9.611968994140623
854,85400.0,0.07657032459974289,-0.8542376756668091,-9.611968994140623
855,85500.0,0.04785645008087158,-0.7872385978698729,-9.619147300720217
856,85600.0,0.04785645008087158,-0.7872385978698729,-9.619147300720217
857,85700.0,0.04785645008087158,-0.7872385978698729,-9.619147300720217
858,85800.0,0.03828516229987145,-0.9762716889381408,-9.635896682739258
859,85900.0,0.03828516229987145,-0.9762716889381408,-9.635896682739258
860,86000.0,0.03828516229987145,-0.7106683850288391,-9.554540634155273
861,86100.0,0.03828516229987145,-0.7106683850288391,-9.554540634155273
862,86200.0,0.03828516229987145,-0.7106683850288391,-9.554540634155273
863,86300.0,-0.04785645008087158,-0.9379864931106568,-9.60478973388672
864,86400.0,-0.04785645008087158,-0.9379864931106568,-9.60478973388672
865,86500.0,0.00957129057496786,-1.0983055830001829,-9.57607650756836
866,86600.0,0.00957129057496786,-1.0983055830001829,-9.57607650756836
867,86700.0,0.04307081177830696,-1.215553879737854,-9.597611427307127
868,86800.0,0.04307081177830696,-1.215553879737854,-9.597611427307127
869,86900.0,-0.04785645008087158,-1.1581261157989502,-9.590433120727539
870,87000.0,-0.04785645008087158,-1.1581261157989502,-9.590433120727539
871,87100.0,0.057427741587162025,-1.1198409795761108,-9.602396965026855
872,87200.0,0.057427741587162025,-1.1198409795761108,-9.602396965026855
873,87300.0,0.0526420958340168,-1.2083754539489746,-9.621540069580078
874,87400.0,0.0526420958340168,-1.2083754539489746,-9.621540069580078
875,87500.0,0.0526420958340168,-1.2083754539489746,-9.621540069580078
876,87600.0,0.033499516546726234,-1.1581261157989502,-9.590433120727539
877,87700.0,0.033499516546726234,-1.1581261157989502,-9.590433120727539
878,87800.0,0.04785645008087158,-1.1988041400909424,-9.62393283843994
879,87900.0,0.04785645008087158,-1.1988041400909424,-9.62393283843994
880,88000.0,0.04785645008087158,-1.1988041400909424,-9.62393283843994
881,88100.0,0.02392822504043579,-1.1868400573730469,-9.65503978729248
882,88200.0,0.02392822504043579,-1.1868400573730469,-9.65503978729248
883,88300.0,0.01914258114993572,-1.1676974296569824,-9.607183456420898
884,88400.0,0.01914258114993572,-1.1676974296569824,-9.607183456420898
885,88500.0,0.04785645008087158,-1.289731502532959,-9.571290969848633
886,88600.0,0.04785645008087158,-1.289731502532959,-9.571290969848633
887,88700.0,0.028713870793581012,-1.246660590171814,-9.597611427307127
888,88800.0,0.028713870793581012,-1.246660590171814,-9.597611427307127
889,88900.0,0.028713870793581012,-1.246660590171814,-9.597611427307127
890,89000.0,0.02392822504043579,-1.2610174417495728,-9.614361763000488
891,89100.0,0.02392822504043579,-1.2610174417495728,-9.614361763000488
892,89200.0,0.03828516229987145,-1.325623631477356,-9.58325481414795
893,89300.0,0.03828516229987145,-1.325623631477356,-9.58325481414795
894,89400.0,0.03828516229987145,-1.325623631477356,-9.58325481414795
895,89500.0,0.033499516546726234,-1.2801601886749268,-9.54496955871582
896,89600.0,0.033499516546726234,-1.2801601886749268,-9.54496955871582
897,89700.0,0.014356935396790503,-1.3184452056884766,-9.580862045288086
898,89800.0,0.014356935396790503,-1.3184452056884766,-9.580862045288086
899,89900.0,-0.033499516546726234,-1.3710873126983645,-9.600004196166992
900,90000.0,-0.033499516546726234,-1.3710873126983645,-9.600004196166992
901,90100.0,0.00957129057496786,-1.289731502532959,-9.571290969848633
902,90200.0,0.00957129057496786,-1.289731502532959,-9.571290969848633
903,90300.0,0.014356935396790503,-1.3208380937576294,-9.506684303283693
904,90400.0,0.014356935396790503,-1.3208380937576294,-9.506684303283693
905,90500.0,-0.02392822504043579,-1.3328022956848145,-9.547362327575684
906,90600.0,-0.02392822504043579,-1.3328022956848145,-9.547362327575684
907,90700.0,-0.02392822504043579,-1.3328022956848145,-9.547362327575684
908,90800.0,0.03828516229987145,-1.2921242713928225,-9.55214786529541
909,90900.0,0.03828516229987145,-1.2921242713928225,-9.55214786529541
910,91000.0,0.01914258114993572,-1.3112668991088867,-9.614361763000488
911,91100.0,0.01914258114993572,-1.3112668991088867,-9.614361763000488
912,91200.0,0.01914258114993572,-1.3112668991088867,-9.614361763000488
913,91300.0,-0.014356935396790503,-1.1150553226470947,-9.597611427307127
914,91400.0,-0.014356935396790503,-1.1150553226470947,-9.597611427307127
915,91500.0,0.0813559740781784,-1.1389836072921753,-9.528220176696776
916,91600.0,0.0813559740781784,-1.1389836072921753,-9.528220176696776
917,91700.0,0.11485548317432405,-1.1485549211502075,-9.525827407836914
918,91800.0,0.11485548317432405,-1.1485549211502075,-9.525827407836914
919,91900.0,0.04307081177830696,-1.1413763761520386,-9.595218658447266
920,92000.0,0.04307081177830696,-1.1413763761520386,-9.595218658447266
921,92100.0,0.09092726558446884,-1.196411371231079,-9.597611427307127
922,92200.0,0.09092726558446884,-1.196411371231079,-9.597611427307127
923,92300.0,0.028713870793581012,-1.308874011039734,-9.542576789855957
924,92400.0,0.028713870793581012,-1.308874011039734,-9.542576789855957
925,92500.0,0.028713870793581012,-1.308874011039734,-9.542576789855957
926,92600.0,0.07178468257188797,-1.3040882349014282,-9.592825889587402
927,92700.0,0.07178468257188797,-1.3040882349014282,-9.592825889587402
928,92800.0,0.04307081177830696,-1.246660590171814,-9.504291534423828
929,92900.0,0.04307081177830696,-1.246660590171814,-9.504291534423828
930,93000.0,0.04307081177830696,-1.246660590171814,-9.504291534423828
931,93100.0,0.06699903309345245,-1.3040882349014282,-9.556933403015137
932,93200.0,0.06699903309345245,-1.3040882349014282,-9.556933403015137
933,93300.0,0.057427741587162025,-1.284945726394653,-9.571290969848633
934,93400.0,0.057427741587162025,-1.284945726394653,-9.571290969848633
935,93500.0,0.06699903309345245,-1.4739787578582764,-9.55214786529541
936,93600.0,0.06699903309345245,-1.4739787578582764,-9.55214786529541
937,93700.0,0.0526420958340168,-1.5242280960083008,-9.58325481414795
938,93800.0,0.0526420958340168,-1.5242280960083008,-9.58325481414795
939,93900.0,0.0526420958340168,-1.5242280960083008,-9.547362327575684
940,94000.0,0.0526420958340168,-1.5242280960083008,-9.547362327575684
941,94100.0,0.0526420958340168,-1.5242280960083008,-9.547362327575684
942,94200.0,0.057427741587162025,-1.4931212663650513,-9.523433685302734
943,94300.0,0.057427741587162025,-1.4931212663650513,-9.523433685302734
944,94400.0,0.01914258114993572,-1.4931212663650513,-9.55214786529541
945,94500.0,0.01914258114993572,-1.4931212663650513,-9.55214786529541
946,94600.0,0.0813559740781784,-1.5601203441619873,-9.57607650756836
947,94700.0,0.0813559740781784,-1.5601203441619873,-9.57607650756836
948,94800.0,0.0813559740781784,-1.5601203441619873,-9.57607650756836
949,94900.0,0.02392822504043579,-1.5744771957397459,-9.549755096435547
950,95000.0,0.02392822504043579,-1.5744771957397459,-9.549755096435547
951,95100.0,0.04785645008087158,-1.5002998113632202,-9.54496955871582
952,95200.0,0.04785645008087158,-1.5002998113632202,-9.54496955871582
953,95300.0,0.0813559740781784,-1.3639088869094849,-9.516255378723145
954,95400.0,0.0813559740781784,-1.3639088869094849,-9.516255378723145
955,95500.0,0.03828516229987145,-1.5672988891601562,-9.511469841003418
956,95600.0,0.03828516229987145,-1.5672988891601562,-9.511469841003418
957,95700.0,0.04307081177830696,-1.636690616607666,-9.51386260986328
958,95800.0,0.04307081177830696,-1.636690616607666,-9.51386260986328
959,95900.0,0.07657032459974289,-1.727617859840393,-9.528220176696776
960,96000.0,0.07657032459974289,-1.727617859840393,-9.528220176696776
961,96100.0,0.07657032459974289,-1.727617859840393,-9.528220176696776
962,96200.0,0.0526420958340168,-1.5912269353866575,-9.480363845825195
963,96300.0,0.0526420958340168,-1.5912269353866575,-9.480363845825195
964,96400.0,0.04307081177830696,-1.710868239402771,-9.533005714416504
965,96500.0,0.04307081177830696,-1.710868239402771,-9.533005714416504
966,96600.0,0.04307081177830696,-1.710868239402771,-9.533005714416504
967,96700.0,0.03828516229987145,-1.5744771957397459,-9.533005714416504
968,96800.0,0.03828516229987145,-1.5744771957397459,-9.533005714416504
969,96900.0,0.00957129057496786,-1.6390833854675293,-9.475577354431152
970,97000.0,0.00957129057496786,-1.6390833854675293,-9.475577354431152
971,97100.0,0.028713870793581012,-1.6582260131835938,-9.506684303283693
972,97200.0,0.028713870793581012,-1.6582260131835938,-9.506684303283693
973,97300.0,-0.01914258114993572,-1.7898313999176023,-9.492327690124512
974,97400.0,-0.01914258114993572,-1.7898313999176023,-9.492327690124512
975,97500.0,-0.01914258114993572,-1.7898313999176023,-9.492327690124512
976,97600.0,0.04785645008087158,-1.7443678379058838,-9.549755096435547
977,97700.0,0.04785645008087158,-1.7443678379058838,-9.549755096435547
978,97800.0,0.014356935396790503,-1.7994027137756348,-9.430113792419434
979,97900.0,0.014356935396790503,-1.7994027137756348,-9.430113792419434
980,98000.0,0.014356935396790503,-1.7994027137756348,-9.430113792419434
981,98100.0,0.028713870793581012,-1.7467604875564575,-9.468399047851562
982,98200.0,0.028713870793581012,-1.7467604875564575,-9.468399047851562
983,98300.0,0.033499516546726234,-1.7371891736984253,-9.556933403015137
984,98400.0,0.033499516546726234,-1.7371891736984253,-9.556933403015137
985,98500.0,0.00957129057496786,-1.66301167011261,-9.506684303283693
986,98600.0,0.00957129057496786,-1.66301167011261,-9.506684303283693
987,98700.0,-0.0047856452874839315,-1.6654045581817627,-9.501898765563963
988,98800.0,-0.0047856452874839315,-1.6654045581817627,-9.501898765563963
989,98900.0,-0.0047856452874839315,-1.6654045581817627,-9.501898765563963
990,99000.0,0.04785645008087158,-1.6031911373138428,-9.568897247314453
991,99100.0,0.04785645008087158,-1.6031911373138428,-9.568897247314453
992,99200.0,0.0047856452874839315,-1.7491532564163208,-9.494720458984377
993,99300.0,0.0047856452874839315,-1.7491532564163208,-9.494720458984377
994,99400.0,0.02392822504043579,-1.7682960033416748,-9.4660062789917
995,99500.0,0.02392822504043579,-1.7682960033416748,-9.4660062789917
996,99600.0,0.04785645008087158,-1.66301167011261,-9.523433685302734
997,99700.0,0.04785645008087158,-1.66301167011261,-9.523433685302734
998,99800.0,0.04785645008087158,-1.66301167011261,-9.523433685302734
999,99900.0,0.04307081177830696,-1.813759446144104,-9.492327690124512
1000,100000.0,0.04307081177830696,-1.813759446144104,-9.492327690124512
1001,100100.0,0.0047856452874839315,-1.6893328428268433,-9.485149383544922
1002,100200.0,0.0047856452874839315,-1.6893328428268433,-9.485149383544922
1003,100300.0,0.00957129057496786,-1.8209381103515625,-9.482755661010742
1004,100400.0,0.00957129057496786,-1.8209381103515625,-9.482755661010742
1005,100500.0,0.00957129057496786,-1.8209381103515625,-9.482755661010742
1006,100600.0,0.014356935396790503,-1.7706886529922483,-9.55214786529541
1007,100700.0,0.014356935396790503,-1.7706886529922483,-9.55214786529541
1008,100800.0,-0.00957129057496786,-1.8448662757873533,-9.492327690124512
1009,100900.0,-0.00957129057496786,-1.8448662757873533,-9.492327690124512
1010,101000.0,0.00957129057496786,-1.8185452222824097,-9.523433685302734
1011,101100.0,0.00957129057496786,-1.8185452222824097,-9.523433685302734
1012,101200.0,-0.00957129057496786,-1.7563319206237793,-9.482755661010742
1013,101300.0,-0.00957129057496786,-1.7563319206237793,-9.482755661010742
1014,101400.0,0.01914258114993572,-1.7491532564163208,-9.504291534423828
1015,101500.0,0.01914258114993572,-1.7491532564163208,-9.504291534423828
1016,101600.0,0.057427741587162025,-1.7515461444854736,-9.501898765563963
1017,101700.0,0.057427741587162025,-1.7515461444854736,-9.501898765563963
1018,101800.0,0.057427741587162025,-1.7515461444854736,-9.501898765563963
1019,101900.0,0.0813559740781784,-1.8424735069274905,-9.516255378723145
1020,102000.0,0.0813559740781784,-1.8424735069274905,-9.516255378723145
1021,102100.0,0.04785645008087158,-1.794616937637329,-9.554540634155273
1022,102200.0,0.04785645008087158,-1.794616937637329,-9.554540634155273
1023,102300.0,0.04785645008087158,-1.794616937637329,-9.554540634155273
1024,102400.0,-0.00957129057496786,-1.871187210083008,-9.530611991882324
1025,102500.0,-0.00957129057496786,-1.871187210083008,-9.530611991882324
1026,102600.0,0.01914258114993572,-1.782652735710144,-9.530611991882324
1027,102700.0,0.01914258114993572,-1.782652735710144,-9.530611991882324
1028,102800.0,0.014356935396790503,-1.7898313999176023,-9.492327690124512
1029,102900.0,0.014356935396790503,-1.7898313999176023,-9.492327690124512
1030,103000.0,0.014356935396790503,-1.7898313999176023,-9.492327690124512
1031,103100.0,0.01914258114993572,-1.706082463264465,-9.482755661010742
1032,103200.0,0.01914258114993572,-1.706082463264465,-9.482755661010742
1033,103300.0,-0.00957129057496786,-1.7730815410614014,-9.497113227844238
1034,103400.0,-0.00957129057496786,-1.7730815410614014,-9.497113227844238
1035,103500.0,-0.014356935396790503,-2.0554347038269043,-9.523433685302734
1036,103600.0,-0.014356935396790503,-2.0554347038269043,-9.523433685302734
1037,103700.0,0.01914258114993572,-1.6606187820434568,-9.4660062789917
1038,103800.0,0.01914258114993572,-1.6606187820434568,-9.4660062789917
1039,103900.0,-0.0047856452874839315,-2.091326951980591,-9.461220741271973
1040,104000.0,-0.0047856452874839315,-2.091326951980591,-9.461220741271973
1041,104100.0,-0.0047856452874839315,-2.091326951980591,-9.461220741271973
1042,104200.0,-0.0047856452874839315,-1.9740787744522093,-9.446864128112793
1043,104300.0,-0.0047856452874839315,-1.9740787744522093,-9.446864128112793
1044,104400.0,0.07657032459974289,-1.84965181350708,-9.372685432434082
1045,104500.0,0.07657032459974289,-1.84965181350708,-9.372685432434082
1046,104600.0,0.014356935396790503,-2.117647886276245,-9.485149383544922
1047,104700.0,0.014356935396790503,-2.117647886276245,-9.485149383544922
1048,104800.0,0.014356935396790503,-2.117647886276245,-9.485149383544922
1049,104900.0,-0.00957129057496786,-2.115255117416382,-9.382257461547852
1050,105000.0,-0.00957129057496786,-2.115255117416382,-9.382257461547852
1051,105100.0,0.04307081177830696,-2.0434706211090092,-9.480363845825195
1052,105200.0,0.04307081177830696,-2.0434706211090092,-9.480363845825195
1053,105300.0,0.033499516546726234,-2.1224336624145512,-9.489934921264648
1054,105400.0,0.033499516546726234,-2.1224336624145512,-9.489934921264648
1055,105500.0,0.0526420958340168,-1.9573287963867188,-9.482755661010742
1056,105600.0,0.0526420958340168,-1.9573287963867188,-9.482755661010742
1057,105700.0,0.0047856452874839315,-1.998006820678711,-9.434900283813477
1058,105800.0,0.0047856452874839315,-1.998006820678711,-9.434900283813477
1059,105900.0,-0.00957129057496786,-2.050648927688598,-9.446864128112793
1060,106000.0,-0.00957129057496786,-2.050648927688598,-9.446864128112793
1061,106100.0,-0.00957129057496786,-2.050648927688598,-9.446864128112793
1062,106200.0,0.00957129057496786,-2.1032910346984863,-9.408578872680664
1063,106300.0,0.00957129057496786,-2.1032910346984863,-9.408578872680664
1064,106400.0,0.01914258114993572,-1.9501504898071291,-9.475577354431152
1065,106500.0,0.01914258114993572,-1.9501504898071291,-9.475577354431152
1066,106600.0,0.01914258114993572,-1.9501504898071291,-9.475577354431152
1067,106700.0,0.04307081177830696,-2.0243279933929443,-9.449256896972656
1068,106800.0,0.04307081177830696,-2.0243279933929443,-9.449256896972656
1069,106900.0,0.0047856452874839315,-2.00518536567688,-9.446864128112793
1070,107000.0,0.0047856452874839315,-2.00518536567688,-9.446864128112793
1071,107100.0,-0.02392822504043579,-2.1990041732788086,-9.454042434692383
1072,107200.0,-0.02392822504043579,-2.1990041732788086,-9.454042434692383
1073,107300.0,-0.02392822504043579,-2.1990041732788086,-9.454042434692383
1074,107400.0,0.04307081177830696,-1.9956141710281368,-9.480363845825195
1075,107500.0,0.04307081177830696,-1.9956141710281368,-9.480363845825195
1076,107600.0,0.014356935396790503,-1.919043779373169,-9.434900283813477
1077,107700.0,0.014356935396790503,-1.919043779373169,-9.434900283813477
1078,107800.0,0.014356935396790503,-1.919043779373169,-9.434900283813477
1079,107900.0,0.014356935396790503,-1.8424735069274905,-9.4660062789917
1080,108000.0,0.014356935396790503,-1.8424735069274905,-9.4660062789917
1081,108100.0,-0.00957129057496786,-1.794616937637329,-9.399007797241213
1082,108200.0,-0.00957129057496786,-1.794616937637329,-9.399007797241213
1083,108300.0,-0.01914258114993572,-1.8999011516571045,-9.432506561279297
1084,108400.0,-0.01914258114993572,-1.8999011516571045,-9.432506561279297
1085,108500.0,-0.014356935396790503,-1.9764715433120728,-9.439685821533203
1086,108600.0,-0.014356935396790503,-1.9764715433120728,-9.439685821533203
1087,108700.0,0.0526420958340168,-1.959721684455872,-9.477970123291016
1088,108800.0,0.0526420958340168,-1.959721684455872,-9.477970123291016
1089,108900.0,0.0526420958340168,-1.959721684455872,-9.477970123291016
1090,109000.0,-0.02392822504043579,-1.983649969100952,-9.480363845825195
1091,109100.0,-0.02392822504043579,-1.983649969100952,-9.480363845825195
1092,109200.0,0.033499516546726234,-2.033899307250977,-9.437292098999023
1093,109300.0,0.033499516546726234,-2.033899307250977,-9.437292098999023
1094,109400.0,0.033499516546726234,-2.033899307250977,-9.437292098999023
1095,109500.0,0.0047856452874839315,-2.0027925968170166,-9.437292098999023
1096,109600.0,0.0047856452874839315,-2.0027925968170166,-9.437292098999023
1097,109700.0,0.06699903309345245,-2.244467735290528,-9.454042434692383
1098,109800.0,0.06699903309345245,-2.244467735290528,-9.454042434692383
1099,109900.0,-0.02392822504043579,-2.048256158828736,-9.487542152404783
1100,110000.0,-0.02392822504043579,-2.048256158828736,-9.487542152404783
1101,110100.0,-0.02392822504043579,-2.048256158828736,-9.487542152404783
1102,110200.0,0.0047856452874839315,-2.031506299972534,-9.446864128112793
1103,110300.0,0.0047856452874839315,-2.031506299972534,-9.446864128112793
1104,110400.0,-0.02392822504043579,-2.1343977451324463,-9.439685821533203
1105,110500.0,-0.02392822504043579,-2.1343977451324463,-9.439685821533203
1106,110600.0,-0.02392822504043579,-2.1343977451324463,-9.439685821533203
1107,110700.0,-0.01914258114993572,-2.0721843242645264,-9.44447135925293
1108,110800.0,-0.01914258114993572,-2.0721843242645264,-9.44447135925293
1109,110900.0,-0.014356935396790503,-2.108076810836792,-9.410971641540527
1110,111000.0,-0.014356935396790503,-2.108076810836792,-9.410971641540527
1111,111100.0,-0.02392822504043579,-2.053041696548462,-9.391828536987305
1112,111200.0,-0.02392822504043579,-2.053041696548462,-9.391828536987305
1113,111300.0,-0.01914258114993572,-2.0410776138305664,-9.475577354431152
1114,111400.0,-0.01914258114993572,-2.0410776138305664,-9.475577354431152
1115,111500.0,-0.01914258114993572,-2.0410776138305664,-9.475577354431152
1116,111600.0,-0.014356935396790503,-2.0123636722564697,-9.439685821533203
1117,111700.0,-0.014356935396790503,-2.0123636722564697,-9.439685821533203
1118,111800.0,-0.028713870793581012,-2.1511476039886475,-9.449256896972656
1119,111900.0,-0.028713870793581012,-2.1511476039886475,-9.449256896972656
1120,112000.0,-0.01914258114993572,-2.057827472686768,-9.489934921264648
1121,112100.0,-0.01914258114993572,-2.057827472686768,-9.489934921264648
1122,112200.0,-0.01914258114993572,-2.057827472686768,-9.489934921264648
1123,112300.0,0.01914258114993572,-1.978864312171936,-9.449256896972656
1124,112400.0,0.01914258114993572,-1.978864312171936,-9.449256896972656
1125,112500.0,-0.1052841916680336,-2.2995026111602783,-9.501898765563963
1126,112600.0,-0.1052841916680336,-2.2995026111602783,-9.501898765563963
1127,112700.0,-0.01914258114993572,-2.007578134536743,-9.437292098999023
1128,112800.0,-0.01914258114993572,-2.007578134536743,-9.437292098999023
1129,112900.0,-0.028713870793581012,-2.1367905139923096,-9.461220741271973
1130,113000.0,-0.028713870793581012,-2.1367905139923096,-9.461220741271973
1131,113100.0,-0.0047856452874839315,-2.117647886276245,-9.439685821533203
1132,113200.0,-0.0047856452874839315,-2.117647886276245,-9.439685821533203
1133,113300.0,-0.0047856452874839315,-2.117647886276245,-9.439685821533203
1134,113400.0,-0.04307081177830696,-2.1056838035583496,-9.4660062789917
1135,113500.0,-0.04307081177830696,-2.1056838035583496,-9.4660062789917
1136,113600.0,-0.028713870793581012,-2.2085752487182617,-9.437292098999023
1137,113700.0,-0.028713870793581012,-2.2085752487182617,-9.437292098999023
1138,113800.0,-0.0526420958340168,-2.1822540760040283,-9.379864692687988
1139,113900.0,-0.0526420958340168,-2.1822540760040283,-9.379864692687988
1140,114000.0,-0.0526420958340168,-2.1822540760040283,-9.379864692687988
1141,114100.0,-0.03828516229987145,-2.2851457595825195,-9.422935485839844
1142,114200.0,-0.03828516229987145,-2.2851457595825195,-9.422935485839844
1143,114300.0,-0.03828516229987145,-2.2875385284423833,-9.413363456726074
1144,114400.0,-0.03828516229987145,-2.2875385284423833,-9.413363456726074
1145,114500.0,-0.02392822504043579,-2.368894338607788,-9.379864692687988
1146,114600.0,-0.02392822504043579,-2.368894338607788,-9.379864692687988
1147,114700.0,-0.02392822504043579,-2.368894338607788,-9.379864692687988
1148,114800.0,-0.04785645008087158,-2.203789472579956,-9.422935485839844
1149,114900.0,-0.04785645008087158,-2.203789472579956,-9.422935485839844
1150,115000.0,-0.0047856452874839315,-2.1272192001342773,-9.410971641540527
1151,115100.0,-0.0047856452874839315,-2.1272192001342773,-9.410971641540527
1152,115200.0,-0.0047856452874839315,-2.1272192001342773,-9.410971641540527
1153,115300.0,-0.01914258114993572,-2.328216552734375,-9.446864128112793
1154,115400.0,-0.01914258114993572,-2.328216552734375,-9.446864128112793
1155,115500.0,-0.0047856452874839315,-2.117647886276245,-9.408578872680664
1156,115600.0,-0.0047856452874839315,-2.117647886276245,-9.408578872680664
1157,115700.0,-0.0047856452874839315,-2.117647886276245,-9.408578872680664
1158,115800.0,-0.02392822504043579,-2.2085752487182617,-9.377471923828123
1159,115900.0,-0.02392822504043579,-2.2085752487182617,-9.377471923828123
1160,116000.0,-0.06699903309345245,-2.297109842300415,-9.401400566101074
1161,116100.0,-0.06699903309345245,-2.297109842300415,-9.401400566101074
1162,116200.0,-0.01914258114993572,-2.3425734043121342,-9.396614074707033
1163,116300.0,-0.01914258114993572,-2.3425734043121342,-9.396614074707033
1164,116400.0,-0.04785645008087158,-2.3617160320281982,-9.372685432434082
1165,116500.0,-0.04785645008087158,-2.3617160320281982,-9.372685432434082
1166,116600.0,-0.04785645008087158,-2.3617160320281982,-9.372685432434082
1167,116700.0,-0.062213387340307236,-2.3425734043121342,-9.401400566101074
1168,116800.0,-0.062213387340307236,-2.3425734043121342,-9.401400566101074
1169,116900.0,-0.057427741587162025,-2.210968255996704,-9.384650230407717
1170,117000.0,-0.057427741587162025,-2.210968255996704,-9.384650230407717
1171,117100.0,-0.057427741587162025,-2.210968255996704,-9.384650230407717
1172,117200.0,-0.033499516546726234,-2.2707886695861816,-9.418149948120117
1173,117300.0,-0.033499516546726234,-2.2707886695861816,-9.418149948120117
1174,117400.0,0.00957129057496786,-2.2947168350219727,-9.4061861038208
1175,117500.0,0.00957129057496786,-2.2947168350219727,-9.4061861038208
1176,117600.0,-0.1052841916680336,-2.2205395698547363,-9.4061861038208
1177,117700.0,-0.1052841916680336,-2.2205395698547363,-9.4061861038208
1178,117800.0,-0.0526420958340168,-2.3497519493103027,-9.34875774383545
1179,117900.0,-0.0526420958340168,-2.3497519493103027,-9.34875774383545
1180,118000.0,-0.0526420958340168,-2.3497519493103027,-9.34875774383545
1181,118100.0,-0.028713870793581012,-2.337787628173828,-9.34875774383545
1182,118200.0,-0.028713870793581012,-2.337787628173828,-9.34875774383545
1183,118300.0,0.00957129057496786,-2.25403904914856,-9.363115310668944
1184,118400.0,0.00957129057496786,-2.25403904914856,-9.363115310668944
1185,118500.0,-0.04785645008087158,-2.280359983444214,-9.42054271697998
1186,118600.0,-0.04785645008087158,-2.280359983444214,-9.42054271697998
1187,118700.0,-0.028713870793581012,-2.2396819591522217,-9.35832977294922
1188,118800.0,-0.028713870793581012,-2.2396819591522217,-9.35832977294922
1189,118900.0,-0.028713870793581012,-2.2396819591522217,-9.35832977294922
1190,119000.0,-0.03828516229987145,-2.249253273010254,-9.379864692687988
1191,119100.0,-0.03828516229987145,-2.249253273010254,-9.379864692687988
1192,119200.0,-0.03828516229987145,-2.2851457595825195,-9.387042999267578
1193,119300.0,-0.03828516229987145,-2.2851457595825195,-9.387042999267578
1194,119400.0,-0.00957129057496786,-2.2612173557281494,-9.370293617248537
1195,119500.0,-0.00957129057496786,-2.2612173557281494,-9.370293617248537
1196,119600.0,-0.00957129057496786,-2.2612173557281494,-9.370293617248537
1197,119700.0,-0.02392822504043579,-2.263610363006592,-9.365508079528807
1198,119800.0,-0.02392822504043579,-2.263610363006592,-9.365508079528807
1199,119900.0,-0.03828516229987145,-2.244467735290528,-9.42054271697998
1200,120000.0,-0.03828516229987145,-2.244467735290528,-9.42054271697998
1201,120100.0,-0.06699903309345245,-2.414358139038086,-9.34875774383545
1202,120200.0,-0.06699903309345245,-2.414358139038086,-9.34875774383545
1203,120300.0,-0.06699903309345245,-2.414358139038086,-9.34875774383545
1204,120400.0,-0.0526420958340168,-1.5960125923156738,-9.434900283813477
1205,120500.0,-0.0526420958340168,-1.5960125923156738,-9.434900283813477
1206,120600.0,0.04785645008087158,-1.7347965240478516,-9.501898765563963
1207,120700.0,0.04785645008087158,-1.7347965240478516,-9.501898765563963
1208,120800.0,0.028713870793581012,-2.0171494483947754,-9.4061861038208
1209,120900.0,0.028713870793581012,-2.0171494483947754,-9.4061861038208
1210,121000.0,-0.04307081177830696,-1.8951154947280884,-9.446864128112793
1211,121100.0,-0.04307081177830696,-1.8951154947280884,-9.446864128112793
1212,121200.0,0.0526420958340168,-1.8831514120101929,-9.468399047851562
1213,121300.0,0.0526420958340168,-1.8831514120101929,-9.468399047851562
1214,121400.0,0.0526420958340168,-1.8831514120101929,-9.468399047851562
1215,121500.0,-0.08614162355661392,-2.2995026111602783,-9.487542152404783
1216,121600.0,-0.08614162355661392,-2.2995026111602783,-9.487542152404783
1217,121700.0,0.11485548317432405,-2.538784980773926,-9.681360244750977
1218,121800.0,0.11485548317432405,-2.538784980773926,-9.681360244750977
1219,121900.0,0.11485548317432405,-2.538784980773926,-9.681360244750977
1220,122000.0,-0.06699903309345245,-2.610569477081299,-9.458827018737793
1221,122100.0,-0.06699903309345245,-2.610569477081299,-9.458827018737793
1222,122200.0,-0.02392822504043579,-2.187039852142334,-9.401400566101074
1223,122300.0,-0.02392822504043579,-2.187039852142334,-9.401400566101074
1224,122400.0,-0.057427741587162025,-2.227717876434326,-9.367900848388672
1225,122500.0,-0.057427741587162025,-2.227717876434326,-9.367900848388672
1226,122600.0,-0.06699903309345245,-2.3497519493103027,-9.35832977294922
1227,122700.0,-0.06699903309345245,-2.3497519493103027,-9.35832977294922
1228,122800.0,-0.06699903309345245,-2.3497519493103027,-9.35832977294922
1229,122900.0,-0.04307081177830696,-2.321038007736206,-9.38943576812744
1230,123000.0,-0.04307081177830696,-2.321038007736206,-9.38943576812744
1231,123100.0,-0.00957129057496786,-2.416750907897949,-9.370293617248537
1232,123200.0,-0.00957129057496786,-2.416750907897949,-9.370293617248537
1233,123300.0,-0.04307081177830696,-2.352144718170166,-9.339186668395996
1234,123400.0,-0.04307081177830696,-2.352144718170166,-9.339186668395996
1235,123500.0,-0.04785645008087158,-2.400001049041748,-9.38943576812744
1236,123600.0,-0.04785645008087158,-2.400001049041748,-9.38943576812744
1237,123700.0,-0.04785645008087158,-2.400001049041748,-9.38943576812744
1238,123800.0,-0.03828516229987145,-2.3258235454559326,-9.4061861038208
1239,123900.0,-0.03828516229987145,-2.3258235454559326,-9.4061861038208
1240,124000.0,-0.04307081177830696,-2.364108800888061,-9.382257461547852
1241,124100.0,-0.04307081177830696,-2.364108800888061,-9.382257461547852
1242,124200.0,-0.04307081177830696,-2.364108800888061,-9.382257461547852
1243,124300.0,-0.057427741587162025,-2.2372891902923584,-9.382257461547852
1244,124400.0,-0.057427741587162025,-2.2372891902923584,-9.382257461547852
1245,124500.0,-0.0526420958340168,-2.423929214477539,-9.336793899536133
1246,124600.0,-0.0526420958340168,-2.423929214477539,-9.336793899536133
1247,124700.0,-0.0526420958340168,-2.4191436767578125,-9.351150512695312
1248,124800.0,-0.0526420958340168,-2.4191436767578125,-9.351150512695312
1249,124900.0,-0.062213387340307236,-2.380858421325684,-9.3128662109375
1250,125000.0,-0.062213387340307236,-2.380858421325684,-9.3128662109375
1251,125100.0,-0.062213387340307236,-2.380858421325684,-9.3128662109375
1252,125200.0,-0.01914258114993572,-2.431107759475708,-9.375079154968262
1253,125300.0,-0.01914258114993572,-2.431107759475708,-9.375079154968262
1254,125400.0,-0.0526420958340168,-2.4287149906158447,-9.367900848388672
1255,125500.0,-0.0526420958340168,-2.4287149906158447,-9.367900848388672
1256,125600.0,-0.09571290016174316,-2.5076780319213867,-9.375079154968262
1257,125700.0,-0.09571290016174316,-2.5076780319213867,-9.375079154968262
1258,125800.0,-0.057427741587162025,-2.421536445617676,-9.327221870422363
1259,125900.0,-0.057427741587162025,-2.421536445617676,-9.327221870422363
1260,126000.0,-0.057427741587162025,-2.421536445617676,-9.327221870422363
1261,126100.0,-0.03828516229987145,-2.517249345779419,-9.387042999267578
1262,126200.0,-0.03828516229987145,-2.517249345779419,-9.387042999267578
1263,126300.0,-0.0526420958340168,-2.416750907897949,-9.401400566101074
1264,126400.0,-0.0526420958340168,-2.416750907897949,-9.401400566101074
1265,126500.0,-0.02392822504043579,-2.4717857837677,-9.35832977294922
1266,126600.0,-0.02392822504043579,-2.4717857837677,-9.35832977294922
1267,126700.0,-0.028713870793581012,-2.483749866485596,-9.305686950683594
1268,126800.0,-0.028713870793581012,-2.483749866485596,-9.305686950683594
1269,126900.0,-0.028713870793581012,-2.483749866485596,-9.305686950683594
1270,127000.0,-0.03828516229987145,-2.4813570976257324,-9.284152030944824
1271,127100.0,-0.03828516229987145,-2.4813570976257324,-9.284152030944824
1272,127200.0,-0.04307081177830696,-2.4598214626312256,-9.31765079498291
1273,127300.0,-0.04307081177830696,-2.4598214626312256,-9.31765079498291
1274,127400.0,-0.07178468257188797,-2.407179594039917,-9.34157943725586
1275,127500.0,-0.07178468257188797,-2.407179594039917,-9.34157943725586
1276,127600.0,-0.07178468257188797,-2.407179594039917,-9.34157943725586
1277,127700.0,-0.0813559740781784,-2.445464611053467,-9.31765079498291
1278,127800.0,-0.0813559740781784,-2.445464611053467,-9.31765079498291
1279,127900.0,-0.03828516229987145,-2.581855773925781,-9.327221870422363
1280,128000.0,-0.03828516229987145,-2.581855773925781,-9.327221870422363
1281,128100.0,-0.06699903309345245,-2.4430718421936035,-9.353544235229492
1282,128200.0,-0.06699903309345245,-2.4430718421936035,-9.353544235229492
1283,128300.0,-0.07178468257188797,-2.483749866485596,-9.276973724365234
1284,128400.0,-0.07178468257188797,-2.483749866485596,-9.276973724365234
1285,128500.0,-0.07178468257188797,-2.483749866485596,-9.276973724365234
1286,128600.0,-0.014356935396790503,-2.3712873458862305,-9.315258979797363
1287,128700.0,-0.014356935396790503,-2.3712873458862305,-9.315258979797363
1288,128800.0,-0.04785645008087158,-2.577069997787476,-9.346364974975586
1289,128900.0,-0.04785645008087158,-2.577069997787476,-9.346364974975586
1290,129000.0,-0.04307081177830696,-2.4670000076293945,-9.281759262084961
1291,129100.0,-0.04307081177830696,-2.4670000076293945,-9.281759262084961
1292,129200.0,-0.04307081177830696,-2.4670000076293945,-9.281759262084961
1293,129300.0,-0.07178468257188797,-2.6009981632232666,-9.298508644104004
1294,129400.0,-0.07178468257188797,-2.6009981632232666,-9.298508644104004
1295,129500.0,-0.062213387340307236,-2.581855773925781,-9.34875774383545
1296,129600.0,-0.062213387340307236,-2.581855773925781,-9.34875774383545
1297,129700.0,-0.08614162355661392,-2.493321180343628,-9.33440113067627
1298,129800.0,-0.08614162355661392,-2.493321180343628,-9.33440113067627
1299,129900.0,-0.08614162355661392,-2.493321180343628,-9.33440113067627
1300,130000.0,-0.07178468257188797,-2.557927370071411,-9.31047248840332
1301,130100.0,-0.07178468257188797,-2.557927370071411,-9.31047248840332
1302,130200.0,-0.04307081177830696,-2.447857618331909,-9.339186668395996
1303,130300.0,-0.04307081177830696,-2.447857618331909,-9.339186668395996
1304,130400.0,-0.04307081177830696,-2.447857618331909,-9.339186668395996
1305,130500.0,-0.062213387340307236,-2.531606435775757,-9.29611587524414
1306,130600.0,-0.062213387340307236,-2.531606435775757,-9.29611587524414
1307,130700.0,-0.03828516229987145,-2.47896409034729,-9.355937004089355
1308,130800.0,-0.03828516229987145,-2.47896409034729,-9.355937004089355
1309,130900.0,-0.01914258114993572,-2.2516460418701167,-9.351150512695312
1310,131000.0,-0.01914258114993572,-2.2516460418701167,-9.351150512695312
1311,131100.0,-0.01914258114993572,-2.2516460418701167,-9.351150512695312
1312,131200.0,-0.11006984114646913,-2.455036163330078,-9.281759262084961
1313,131300.0,-0.11006984114646913,-2.455036163330078,-9.281759262084961
1314,131400.0,-0.03828516229987145,-2.5555346012115483,-9.329615592956543
1315,131500.0,-0.03828516229987145,-2.5555346012115483,-9.329615592956543
1316,131600.0,-0.03828516229987145,-2.5555346012115483,-9.329615592956543
1317,131700.0,-0.062213387340307236,-2.4813570976257324,-9.355937004089355
1318,131800.0,-0.062213387340307236,-2.4813570976257324,-9.355937004089355
1319,131900.0,-0.08614162355661392,-2.51007080078125,-9.346364974975586
1320,132000.0,-0.08614162355661392,-2.51007080078125,-9.346364974975586
1321,132100.0,-0.07178468257188797,-2.4813570976257324,-9.329615592956543
1322,132200.0,-0.07178468257188797,-2.4813570976257324,-9.329615592956543
1323,132300.0,-0.07178468257188797,-2.4813570976257324,-9.329615592956543
1324,132400.0,-0.04785645008087158,-2.438286304473877,-9.322437286376953
1325,132500.0,-0.04785645008087158,-2.438286304473877,-9.322437286376953
1326,132600.0,-0.057427741587162025,-2.5052852630615234,-9.34875774383545
1327,132700.0,-0.057427741587162025,-2.5052852630615234,-9.34875774383545
1328,132800.0,-0.08614162355661392,-2.4646072387695312,-9.32004451751709
1329,132900.0,-0.08614162355661392,-2.4646072387695312,-9.32004451751709
1330,133000.0,-0.08614162355661392,-2.4646072387695312,-9.32004451751709
1331,133100.0,-0.057427741587162025,-2.4502503871917725,-9.379864692687988
1332,133200.0,-0.057427741587162025,-2.4502503871917725,-9.379864692687988
1333,133300.0,-0.062213387340307236,-2.5363922119140625,-9.34875774383545
1334,133400.0,-0.062213387340307236,-2.5363922119140625,-9.34875774383545
1335,133500.0,-0.057427741587162025,-2.5842485427856445,-9.32004451751709
1336,133600.0,-0.057427741587162025,-2.5842485427856445,-9.32004451751709
1337,133700.0,-0.01914258114993572,-2.6009981632232666,-9.33440113067627
1338,133800.0,-0.01914258114993572,-2.6009981632232666,-9.33440113067627
1339,133900.0,-0.01914258114993572,-2.6009981632232666,-9.33440113067627
1340,134000.0,-0.02392822504043579,-2.553141593933105,-9.262616157531738
1341,134100.0,-0.02392822504043579,-2.553141593933105,-9.262616157531738
1342,134200.0,-0.08614162355661392,-2.455036163330078,-9.281759262084961
1343,134300.0,-0.08614162355661392,-2.455036163330078,-9.281759262084961
1344,134400.0,-0.11485548317432405,-2.6703903675079346,-9.332008361816406
1345,134500.0,-0.11485548317432405,-2.6703903675079346,-9.332008361816406
1346,134600.0,-0.062213387340307236,-2.526820659637451,-9.329615592956543
1347,134700.0,-0.062213387340307236,-2.526820659637451,-9.329615592956543
1348,134800.0,-0.062213387340307236,-2.526820659637451,-9.329615592956543
1349,134900.0,-0.0526420958340168,-2.627319574356079,-9.3128662109375
1350,135000.0,-0.0526420958340168,-2.627319574356079,-9.3128662109375
1351,135100.0,-0.07657032459974289,-2.5292134284973145,-9.272188186645508
1352,135200.0,-0.07657032459974289,-2.5292134284973145,-9.272188186645508
1353,135300.0,-0.07657032459974289,-2.5292134284973145,-9.272188186645508
1354,135400.0,-0.07657032459974289,-2.502892255783081,-9.29611587524414
1355,135500.0,-0.07657032459974289,-2.502892255783081,-9.29611587524414
1356,135600.0,-0.01914258114993572,-2.538784980773926,-9.33440113067627
1357,135700.0,-0.01914258114993572,-2.538784980773926,-9.33440113067627
1358,135800.0,-0.03828516229987145,-2.53399920463562,-9.336793899536133
1359,135900.0,-0.03828516229987145,-2.53399920463562,-9.336793899536133
1360,136000.0,-0.028713870793581012,-2.538784980773926,-9.32004451751709
1361,136100.0,-0.028713870793581012,-2.538784980773926,-9.32004451751709
1362,136200.0,-0.1052841916680336,-2.4693927764892583,-9.305686950683594
1363,136300.0,-0.1052841916680336,-2.4693927764892583,-9.305686950683594
1364,136400.0,-0.033499516546726234,-2.4909284114837646,-9.284152030944824
1365,136500.0,-0.033499516546726234,-2.4909284114837646,-9.284152030944824
1366,136600.0,-0.033499516546726234,-2.4909284114837646,-9.284152030944824
1367,136700.0,-0.10049854964017868,-2.517249345779419,-9.327221870422363
1368,136800.0,-0.10049854964017868,-2.517249345779419,-9.327221870422363
1369,136900.0,-0.028713870793581012,-2.297109842300415,-9.260223388671877
1370,137000.0,-0.028713870793581012,-2.297109842300415,-9.260223388671877
1371,137100.0,-0.028713870793581012,-2.297109842300415,-9.260223388671877
1372,137200.0,-0.04785645008087158,-2.4717857837677,-9.3128662109375
1373,137300.0,-0.04785645008087158,-2.4717857837677,-9.3128662109375
1374,137400.0,-0.02392822504043579,-2.3473589420318604,-9.336793899536133
1375,137500.0,-0.02392822504043579,-2.3473589420318604,-9.336793899536133
1376,137600.0,-0.0526420958340168,-2.541177749633789,-9.300901412963867
1377,137700.0,-0.0526420958340168,-2.541177749633789,-9.300901412963867
1378,137800.0,-0.02392822504043579,-2.522034883499145,-9.3128662109375
1379,137900.0,-0.02392822504043579,-2.522034883499145,-9.3128662109375
1380,138000.0,-0.02392822504043579,-2.522034883499145,-9.3128662109375
1381,138100.0,-0.04785645008087158,-2.543570280075073,-9.29611587524414
1382,138200.0,-0.04785645008087158,-2.543570280075073,-9.29611587524414
1383,138300.0,-0.0813559740781784,-2.522034883499145,-9.324830055236816
1384,138400.0,-0.0813559740781784,-2.522034883499145,-9.324830055236816
1385,138500.0,-0.0813559740781784,-2.522034883499145,-9.324830055236816
1386,138600.0,-0.03828516229987145,-2.636890411376953,-9.286543846130373
1387,138700.0,-0.03828516229987145,-2.636890411376953,-9.286543846130373
1388,138800.0,-0.03828516229987145,-2.486142873764038,-9.281759262084961
1389,138900.0,-0.03828516229987145,-2.486142873764038,-9.281759262084961
1390,139000.0,-0.0526420958340168,-2.6081764698028564,-9.291330337524414
1391,139100.0,-0.0526420958340168,-2.6081764698028564,-9.291330337524414
1392,139200.0,-0.062213387340307236,-2.6249265670776367,-9.332008361816406
1393,139300.0,-0.062213387340307236,-2.6249265670776367,-9.332008361816406
1394,139400.0,-0.062213387340307236,-2.6249265670776367,-9.332008361816406
1395,139500.0,-0.028713870793581012,-2.567498683929444,-9.324830055236816
1396,139600.0,-0.028713870793581012,-2.567498683929444,-9.324830055236816
1397,139700.0,-0.04307081177830696,-2.5938196182250977,-9.276973724365234
1398,139800.0,-0.04307081177830696,-2.5938196182250977,-9.276973724365234
1399,139900.0,-0.04307081177830696,-2.5938196182250977,-9.276973724365234
1400,140000.0,-0.10049854964017868,-2.665604591369629,-9.255437850952148
1401,140100.0,-0.10049854964017868,-2.665604591369629,-9.255437850952148
1402,140200.0,-0.09092726558446884,-2.682354211807251,-9.284152030944824
1403,140300.0,-0.09092726558446884,-2.682354211807251,-9.284152030944824
1404,140400.0,-0.07178468257188797,-2.636890411376953,-9.286543846130373
1405,140500.0,-0.07178468257188797,-2.636890411376953,-9.286543846130373
1406,140600.0,-0.04785645008087158,-2.6009981632232666,-9.365508079528807
1407,140700.0,-0.04785645008087158,-2.6009981632232666,-9.365508079528807
1408,140800.0,-0.1052841916680336,-2.737389087677002,-9.28893756866455
1409,140900.0,-0.1052841916680336,-2.737389087677002,-9.28893756866455
1410,141000.0,-0.1052841916680336,-2.737389087677002,-9.28893756866455
1411,141100.0,-0.11485548317432405,-2.431107759475708,-9.284152030944824
1412,141200.0,-0.11485548317432405,-2.431107759475708,-9.284152030944824
1413,141300.0,-0.11485548317432405,-2.431107759475708,-9.284152030944824
1414,141400.0,-0.057427741587162025,-2.682354211807251,-9.31047248840332
1415,141500.0,-0.057427741587162025,-2.682354211807251,-9.31047248840332
1416,141600.0,-0.01914258114993572,-2.6249265670776367,-9.272188186645508
1417,141700.0,-0.01914258114993572,-2.6249265670776367,-9.272188186645508
1418,141800.0,-0.0526420958340168,-2.557927370071411,-9.31047248840332
1419,141900.0,-0.0526420958340168,-2.557927370071411,-9.31047248840332
1420,142000.0,-0.0526420958340168,-2.5842485427856445,-9.324830055236816
1421,142100.0,-0.0526420958340168,-2.5842485427856445,-9.324830055236816
1422,142200.0,-0.057427741587162025,-2.57228422164917,-9.31047248840332
1423,142300.0,-0.057427741587162025,-2.57228422164917,-9.31047248840332
1424,142400.0,-0.03828516229987145,-2.565105676651001,-9.286543846130373
1425,142500.0,-0.03828516229987145,-2.565105676651001,-9.286543846130373
1426,142600.0,-0.03828516229987145,-2.565105676651001,-9.286543846130373
1427,142700.0,-0.08614162355661392,-2.5507488250732417,-9.298508644104004
1428,142800.0,-0.08614162355661392,-2.5507488250732417,-9.298508644104004
1429,142900.0,-0.0526420958340168,-2.5507488250732417,-9.31765079498291
1430,143000.0,-0.0526420958340168,-2.5507488250732417,-9.31765079498291
1431,143100.0,-0.0813559740781784,-2.5507488250732417,-9.329615592956543
1432,143200.0,-0.0813559740781784,-2.5507488250732417,-9.329615592956543
1433,143300.0,-0.0813559740781784,-2.5507488250732417,-9.329615592956543
1434,143400.0,-0.09092726558446884,-2.806780815124512,-9.336793899536133
1435,143500.0,-0.09092726558446884,-2.806780815124512,-9.336793899536133
1436,143600.0,-0.062213387340307236,-2.3497519493103027,-9.343972206115724
1437,143700.0,-0.062213387340307236,-2.3497519493103027,-9.343972206115724
1438,143800.0,-0.062213387340307236,-2.5052852630615234,-9.34875774383545
1439,143900.0,-0.062213387340307236,-2.5052852630615234,-9.34875774383545
1440,144000.0,-0.09092726558446884,-2.541177749633789,-9.315258979797363
1441,144100.0,-0.09092726558446884,-2.541177749633789,-9.315258979797363
1442,144200.0,-0.04785645008087158,-2.4741785526275635,-9.367900848388672
1443,144300.0,-0.04785645008087158,-2.4741785526275635,-9.367900848388672
1444,144400.0,-0.04785645008087158,-2.4741785526275635,-9.367900848388672
1445,144500.0,-0.04307081177830696,-2.392822742462158,-9.387042999267578
1446,144600.0,-0.04307081177830696,-2.392822742462158,-9.387042999267578
1447,144700.0,-0.07657032459974289,-2.390429735183716,-9.31047248840332
1448,144800.0,-0.07657032459974289,-2.390429735183716,-9.31047248840332
1449,144900.0,-0.07178468257188797,-2.514856576919556,-9.336793899536133
1450,145000.0,-0.07178468257188797,-2.514856576919556,-9.336793899536133
1451,145100.0,-0.07178468257188797,-2.514856576919556,-9.336793899536133
1452,145200.0,-0.028713870793581012,-2.548356056213379,-9.308080673217773
1453,145300.0,-0.028713870793581012,-2.548356056213379,-9.308080673217773
1454,145400.0,-0.07178468257188797,-2.560320377349853,-9.305686950683594
1455,145500.0,-0.07178468257188797,-2.560320377349853,-9.305686950683594
1456,145600.0,-0.09571290016174316,-2.538784980773926,-9.257830619812012
1457,145700.0,-0.09571290016174316,-2.538784980773926,-9.257830619812012
1458,145800.0,-0.09571290016174316,-2.538784980773926,-9.257830619812012
1459,145900.0,-0.07178468257188797,-2.4957141876220703,-9.300901412963867
1460,146000.0,-0.07178468257188797,-2.4957141876220703,-9.300901412963867
1461,146100.0,-0.07178468257188797,-2.620140790939331,-9.32004451751709
1462,146200.0,-0.07178468257188797,-2.620140790939331,-9.32004451751709
1463,146300.0,-0.07178468257188797,-2.620140790939331,-9.32004451751709
1464,146400.0,-0.062213387340307236,-2.4885356426239014,-9.339186668395996
1465,146500.0,-0.062213387340307236,-2.4885356426239014,-9.339186668395996
1466,146600.0,-0.014356935396790503,-2.493321180343628,-9.32004451751709
1467,146700.0,-0.014356935396790503,-2.493321180343628,-9.32004451751709
1468,146800.0,-0.09571290016174316,-2.47896409034729,-9.305686950683594
1469,146900.0,-0.09571290016174316,-2.47896409034729,-9.305686950683594
1470,147000.0,-0.09571290016174316,-2.47896409034729,-9.305686950683594
1471,147100.0,-0.0526420958340168,-2.5842485427856445,-9.324830055236816
1472,147200.0,-0.0526420958340168,-2.5842485427856445,-9.324830055236816
1473,147300.0,-0.00957129057496786,-2.4646072387695312,-9.329615592956543
1474,147400.0,-0.00957129057496786,-2.4646072387695312,-9.329615592956543
1475,147500.0,-0.00957129057496786,-2.4646072387695312,-9.329615592956543
1476,147600.0,-0.0526420958340168,-2.4358932971954346,-9.375079154968262
1477,147700.0,-0.0526420958340168,-2.4358932971954346,-9.375079154968262
1478,147800.0,-0.04785645008087158,-2.6464619636535645,-9.375079154968262
1479,147900.0,-0.04785645008087158,-2.6464619636535645,-9.375079154968262
1480,148000.0,-0.04307081177830696,-2.423929214477539,-9.332008361816406
1481,148100.0,-0.04307081177830696,-2.423929214477539,-9.332008361816406
1482,148200.0,-0.062213387340307236,-2.51007080078125,-9.315258979797363
1483,148300.0,-0.062213387340307236,-2.51007080078125,-9.315258979797363
1484,148400.0,-0.033499516546726234,-2.5459630489349365,-9.300901412963867
1485,148500.0,-0.033499516546726234,-2.5459630489349365,-9.300901412963867
1486,148600.0,-0.03828516229987145,-2.6057839393615723,-9.305686950683594
1487,148700.0,-0.03828516229987145,-2.6057839393615723,-9.305686950683594
1488,148800.0,-0.03828516229987145,-2.6057839393615723,-9.305686950683594
1489,148900.0,-0.0526420958340168,-2.383251428604126,-9.30329418182373
1490,149000.0,-0.0526420958340168,-2.383251428604126,-9.30329418182373
1491,149100.0,-0.07657032459974289,-2.4598214626312256,-9.3128662109375
1492,149200.0,-0.07657032459974289,-2.4598214626312256,-9.3128662109375
1493,149300.0,-0.07657032459974289,-2.4598214626312256,-9.3128662109375
1494,149400.0,-0.00957129057496786,-2.2229323387146,-9.322437286376953
1495,149500.0,-0.00957129057496786,-2.2229323387146,-9.322437286376953
1496,149600.0,-0.06699903309345245,-2.47896409034729,-9.339186668395996
1497,149700.0,-0.06699903309345245,-2.47896409034729,-9.339186668395996
1498,149800.0,-0.0526420958340168,-2.411965131759644,-9.308080673217773
1499,149900.0,-0.0526420958340168,-2.411965131759644,-9.308080673217773
1500,150000.0,-0.0526420958340168,-2.445464611053467,-9.343972206115724
1501,150100.0,-0.0526420958340168,-2.445464611053467,-9.343972206115724
1502,150200.0,-0.01914258114993572,-2.2205395698547363,-9.387042999267578
1503,150300.0,-0.01914258114993572,-2.2205395698547363,-9.387042999267578
1504,150400.0,-0.01914258114993572,-2.2205395698547363,-9.387042999267578
1505,150500.0,-0.033499516546726234,-2.514856576919556,-9.382257461547852
1506,150600.0,-0.033499516546726234,-2.514856576919556,-9.382257461547852
1507,150700.0,-0.04785645008087158,-2.321038007736206,-9.38943576812744
1508,150800.0,-0.04785645008087158,-2.321038007736206,-9.38943576812744
1509,150900.0,-0.07178468257188797,-2.335394859313965,-9.329615592956543
1510,151000.0,-0.07178468257188797,-2.335394859313965,-9.329615592956543
1511,151100.0,-0.07178468257188797,-2.335394859313965,-9.329615592956543
1512,151200.0,-0.09571290016174316,-2.4287149906158447,-9.379864692687988
1513,151300.0,-0.09571290016174316,-2.4287149906158447,-9.379864692687988
1514,151400.0,-0.07657032459974289,-2.4909284114837646,-9.363115310668944
1515,151500.0,-0.07657032459974289,-2.4909284114837646,-9.363115310668944
1516,151600.0,-0.09092726558446884,-2.452643394470215,-9.367900848388672
1517,151700.0,-0.09092726558446884,-2.452643394470215,-9.367900848388672
1518,151800.0,-0.09571290016174316,-2.328216552734375,-9.365508079528807
1519,151900.0,-0.09571290016174316,-2.328216552734375,-9.365508079528807
1520,152000.0,-0.09571290016174316,-2.328216552734375,-9.365508079528807
1521,152100.0,-0.08614162355661392,-2.4813570976257324,-9.355937004089355
1522,152200.0,-0.08614162355661392,-2.4813570976257324,-9.355937004089355
1523,152300.0,-0.0813559740781784,-2.438286304473877,-9.336793899536133
1524,152400.0,-0.0813559740781784,-2.438286304473877,-9.336793899536133
1525,152500.0,-0.0813559740781784,-2.438286304473877,-9.336793899536133
1526,152600.0,-0.0526420958340168,-2.4358932971954346,-9.315258979797363
1527,152700.0,-0.0526420958340168,-2.4358932971954346,-9.315258979797363
1528,152800.0,-0.06699903309345245,-2.411965131759644,-9.343972206115724
1529,152900.0,-0.06699903309345245,-2.411965131759644,-9.343972206115724
1530,153000.0,-0.06699903309345245,-2.411965131759644,-9.343972206115724
1531,153100.0,-0.07657032459974289,-2.4191436767578125,-9.365508079528807
1532,153200.0,-0.07657032459974289,-2.4191436767578125,-9.365508079528807
1533,153300.0,-0.07657032459974289,-2.414358139038086,-9.34875774383545
1534,153400.0,-0.07657032459974289,-2.414358139038086,-9.34875774383545
1535,153500.0,-0.06699903309345245,-2.3617160320281982,-9.353544235229492
1536,153600.0,-0.06699903309345245,-2.3617160320281982,-9.353544235229492
1537,153700.0,-0.06699903309345245,-2.3617160320281982,-9.353544235229492
1538,153800.0,-0.062213387340307236,-2.407179594039917,-9.355937004089355
1539,153900.0,-0.062213387340307236,-2.407179594039917,-9.355937004089355
1540,154000.0,-0.057427741587162025,-2.4358932971954346,-9.332008361816406
1541,154100.0,-0.057427741587162025,-2.4358932971954346,-9.332008361816406
1542,154200.0,-0.08614162355661392,-2.392822742462158,-9.353544235229492
1543,154300.0,-0.08614162355661392,-2.392822742462158,-9.353544235229492
1544,154400.0,-0.1339980661869049,-1.7132610082626345,-9.322437286376953
1545,154500.0,-0.1339980661869049,-1.7132610082626345,-9.322437286376953
1546,154600.0,-0.1339980661869049,-1.7132610082626345,-9.322437286376953
1547,154700.0,-0.04785645008087158,-2.179861307144165,-9.463613510131836
1548,154800.0,-0.04785645008087158,-2.179861307144165,-9.463613510131836
1549,154900.0,-0.057427741587162025,-2.146361827850342,-9.418149948120117
1550,155000.0,-0.057427741587162025,-2.146361827850342,-9.418149948120117
1551,155100.0,-0.08614162355661392,-2.108076810836792,-9.425328254699707
1552,155200.0,-0.08614162355661392,-2.108076810836792,-9.425328254699707
1553,155300.0,-0.08614162355661392,-2.108076810836792,-9.425328254699707
1554,155400.0,-0.07178468257188797,-2.3330020904541016,-9.44447135925293
1555,155500.0,-0.07178468257188797,-2.3330020904541016,-9.44447135925293
1556,155600.0,-0.06699903309345245,-2.2396819591522217,-9.391828536987305
1557,155700.0,-0.06699903309345245,-2.2396819591522217,-9.391828536987305
1558,155800.0,-0.11485548317432405,-2.3401806354522705,-9.394222259521484
1559,155900.0,-0.11485548317432405,-2.3401806354522705,-9.394222259521484
1560,156000.0,-0.08614162355661392,-2.328216552734375,-9.396614074707033
1561,156100.0,-0.08614162355661392,-2.328216552734375,-9.396614074707033
1562,156200.0,-0.11006984114646913,-2.380858421325684,-9.377471923828123
1563,156300.0,-0.11006984114646913,-2.380858421325684,-9.377471923828123
1564,156400.0,-0.11006984114646913,-2.380858421325684,-9.377471923828123
1565,156500.0,-0.09092726558446884,-2.335394859313965,-9.408578872680664
1566,156600.0,-0.09092726558446884,-2.335394859313965,-9.408578872680664
1567,156700.0,-0.1339980661869049,-2.1750757694244385,-9.377471923828123
1568,156800.0,-0.1339980661869049,-2.1750757694244385,-9.377471923828123
1569,156900.0,-0.06699903309345245,-2.2229323387146,-9.391828536987305
1570,157000.0,-0.06699903309345245,-2.2229323387146,-9.391828536987305
1571,157100.0,-0.10049854964017868,-2.3880369663238525,-9.430113792419434
1572,157200.0,-0.10049854964017868,-2.3880369663238525,-9.430113792419434
1573,157300.0,-0.10049854964017868,-2.3880369663238525,-9.430113792419434
1574,157400.0,-0.09092726558446884,-2.3856441974639893,-9.375079154968262
1575,157500.0,-0.09092726558446884,-2.3856441974639893,-9.375079154968262
1576,157600.0,-0.07657032459974289,-2.359323024749756,-9.377471923828123
1577,157700.0,-0.07657032459974289,-2.359323024749756,-9.377471923828123
1578,157800.0,-0.09092726558446884,-2.3473589420318604,-9.35832977294922
1579,157900.0,-0.09092726558446884,-2.3473589420318604,-9.35832977294922
1580,158000.0,-0.10049854964017868,-2.380858421325684,-9.372685432434082
1581,158100.0,-0.10049854964017868,-2.380858421325684,-9.372685432434082
1582,158200.0,-0.057427741587162025,-2.337787628173828,-9.379864692687988
1583,158300.0,-0.057427741587162025,-2.337787628173828,-9.379864692687988
1584,158400.0,-0.057427741587162025,-2.337787628173828,-9.379864692687988
1585,158500.0,-0.07657032459974289,-2.344966173171997,-9.391828536987305
1586,158600.0,-0.07657032459974289,-2.344966173171997,-9.391828536987305
1587,158700.0,-0.06699903309345245,-2.2851457595825195,-9.387042999267578
1588,158800.0,-0.06699903309345245,-2.2851457595825195,-9.387042999267578
1589,158900.0,-0.0813559740781784,-2.3306093215942383,-9.4061861038208
1590,159000.0,-0.0813559740781784,-2.3306093215942383,-9.4061861038208
1591,159100.0,-0.0813559740781784,-2.3306093215942383,-9.4061861038208
1592,159200.0,-0.0526420958340168,-2.12961220741272,-9.4061861038208
1593,159300.0,-0.0526420958340168,-2.12961220741272,-9.4061861038208
1594,159400.0,-0.06699903309345245,-2.1918253898620605,-9.401400566101074
1595,159500.0,-0.06699903309345245,-2.1918253898620605,-9.401400566101074
1596,159600.0,-0.057427741587162025,-2.256431579589844,-9.40379238128662
1597,159700.0,-0.057427741587162025,-2.256431579589844,-9.40379238128662
1598,159800.0,-0.028713870793581012,-2.1966111660003658,-9.413363456726074
1599,159900.0,-0.028713870793581012,-2.1966111660003658,-9.413363456726074
1600,160000.0,-0.028713870793581012,-2.1966111660003658,-9.413363456726074
1601,160100.0,-0.06699903309345245,-2.1128623485565186,-9.422935485839844
1602,160200.0,-0.06699903309345245,-2.1128623485565186,-9.422935485839844
1603,160300.0,-0.00957129057496786,-2.029113531112671,-9.370293617248537
1604,160400.0,-0.00957129057496786,-2.029113531112671,-9.370293617248537
1605,160500.0,-0.00957129057496786,-2.029113531112671,-9.370293617248537
1606,160600.0,-0.028713870793581012,-1.8209381103515625,-9.332008361816406
1607,160700.0,-0.028713870793581012,-1.8209381103515625,-9.332008361816406
1608,160800.0,-0.09571290016174316,-1.813759446144104,-9.475577354431152
1609,160900.0,-0.09571290016174316,-1.813759446144104,-9.475577354431152
1610,161000.0,-0.06699903309345245,-1.9118653535842896,-9.456435203552246
1611,161100.0,-0.06699903309345245,-1.9118653535842896,-9.456435203552246
1612,161200.0,-0.06699903309345245,-1.9118653535842896,-9.456435203552246
1613,161300.0,-0.11964112520217896,-2.1056838035583496,-9.415757179260254
1614,161400.0,-0.11964112520217896,-2.1056838035583496,-9.415757179260254
1615,161500.0,0.00957129057496786,-1.8185452222824097,-9.477970123291016
1616,161600.0,0.00957129057496786,-1.8185452222824097,-9.477970123291016
1617,161700.0,-0.01914258114993572,-1.978864312171936,-9.434900283813477
1618,161800.0,-0.01914258114993572,-1.978864312171936,-9.434900283813477
1619,161900.0,-0.01914258114993572,-1.978864312171936,-9.434900283813477
1620,162000.0,0.04307081177830696,-2.00518536567688,-9.432506561279297
1621,162100.0,0.04307081177830696,-2.00518536567688,-9.432506561279297
1622,162200.0,-0.01914258114993572,-1.959721684455872,-9.432506561279297
1623,162300.0,-0.01914258114993572,-1.959721684455872,-9.432506561279297
1624,162400.0,-0.09092726558446884,-2.2683956623077397,-9.422935485839844
1625,162500.0,-0.09092726558446884,-2.2683956623077397,-9.422935485839844
1626,162600.0,-0.062213387340307236,-2.117647886276245,-9.399007797241213
1627,162700.0,-0.062213387340307236,-2.117647886276245,-9.399007797241213
1628,162800.0,-0.0526420958340168,-2.108076810836792,-9.365508079528807
1629,162900.0,-0.0526420958340168,-2.108076810836792,-9.365508079528807
1630,163000.0,-0.0526420958340168,-2.108076810836792,-9.365508079528807
1631,163100.0,-0.06699903309345245,-2.230110645294189,-9.42054271697998
1632,163200.0,-0.06699903309345245,-2.230110645294189,-9.42054271697998
1633,163300.0,-0.09092726558446884,-2.2875385284423833,-9.34875774383545
1634,163400.0,-0.09092726558446884,-2.2875385284423833,-9.34875774383545
1635,163500.0,-0.062213387340307236,-2.3066811561584477,-9.375079154968262
1636,163600.0,-0.062213387340307236,-2.3066811561584477,-9.375079154968262
1637,163700.0,-0.062213387340307236,-2.3066811561584477,-9.375079154968262
1638,163800.0,-0.07657032459974289,-2.1511476039886475,-9.370293617248537
1639,163900.0,-0.07657032459974289,-2.1511476039886475,-9.370293617248537
1640,164000.0,-0.10049854964017868,-2.335394859313965,-9.375079154968262
1641,164100.0,-0.10049854964017868,-2.335394859313965,-9.375079154968262
1642,164200.0,-0.08614162355661392,-2.304288148880005,-9.408578872680664
1643,164300.0,-0.08614162355661392,-2.304288148880005,-9.408578872680664
1644,164400.0,-0.13878372311592102,-2.3258235454559326,-9.387042999267578
1645,164500.0,-0.13878372311592102,-2.3258235454559326,-9.387042999267578
1646,164600.0,-0.14356936514377594,-2.3401806354522705,-9.346364974975586
1647,164700.0,-0.14356936514377594,-2.3401806354522705,-9.346364974975586
1648,164800.0,-0.14356936514377594,-2.3401806354522705,-9.346364974975586
1649,164900.0,-0.1052841916680336,-2.304288148880005,-9.35832977294922
1650,165000.0,-0.1052841916680336,-2.304288148880005,-9.35832977294922
1651,165100.0,-0.09092726558446884,-2.337787628173828,-9.365508079528807
1652,165200.0,-0.09092726558446884,-2.337787628173828,-9.365508079528807
1653,165300.0,-0.09571290016174316,-2.256431579589844,-9.372685432434082
1654,165400.0,-0.09571290016174316,-2.256431579589844,-9.372685432434082
1655,165500.0,-0.0813559740781784,-2.431107759475708,-9.38943576812744
1656,165600.0,-0.0813559740781784,-2.431107759475708,-9.38943576812744
1657,165700.0,-0.09571290016174316,-2.249253273010254,-9.360722541809082
1658,165800.0,-0.09571290016174316,-2.249253273010254,-9.360722541809082
1659,165900.0,-0.09571290016174316,-2.249253273010254,-9.360722541809082
1660,166000.0,-0.09092726558446884,-2.44067907333374,-9.377471923828123
1661,166100.0,-0.09092726558446884,-2.44067907333374,-9.377471923828123
1662,166200.0,-0.09571290016174316,-2.4191436767578125,-9.332008361816406
1663,166300.0,-0.09571290016174316,-2.4191436767578125,-9.332008361816406
1664,166400.0,-0.13878372311592102,-2.3784656524658203,-9.399007797241213
1665,166500.0,-0.13878372311592102,-2.3784656524658203,-9.399007797241213
1666,166600.0,-0.13878372311592102,-2.3784656524658203,-9.399007797241213
1667,166700.0,-0.11485548317432405,-2.273181438446045,-9.367900848388672
1668,166800.0,-0.11485548317432405,-2.273181438446045,-9.367900848388672
1669,166900.0,-0.07178468257188797,-2.3066811561584477,-9.375079154968262
1670,167000.0,-0.07178468257188797,-2.3066811561584477,-9.375079154968262
1671,167100.0,-0.0813559740781784,-2.280359983444214,-9.375079154968262
1672,167200.0,-0.0813559740781784,-2.280359983444214,-9.375079154968262
1673,167300.0,-0.0813559740781784,-2.280359983444214,-9.375079154968262
1674,167400.0,-0.08614162355661392,-2.3066811561584477,-9.384650230407717
