,timestamp,ax,ay,az
0,0.0,-1.0911270380020142,-3.7902309894561768,-7.934599876403809
1,50.0,-1.0911270380020142,-3.7902309894561768,-7.934599876403809
2,100.0,-1.0911270380020142,-3.7902309894561768,-7.934599876403809
3,150.0,-1.0911270380020142,-3.7902309894561768,-7.934599876403809
4,200.0,-1.0911270380020142,-3.7902309894561768,-7.934599876403809
5,250.0,-0.27278175950050354,-0.3086740970611572,-10.48534870147705
6,300.0,-0.27278175950050354,-0.3086740970611572,-10.48534870147705
7,350.0,-0.27278175950050354,-0.3086740970611572,-10.48534870147705
8,400.0,-0.27278175950050354,-0.3086740970611572,-10.48534870147705
9,450.0,-0.27278175950050354,-0.3086740970611572,-10.48534870147705
10,500.0,-4.034298896789552,-0.397208571434021,-8.075776100158691
11,550.0,-4.034298896789552,-0.397208571434021,-8.075776100158691
12,600.0,-4.034298896789552,-0.397208571434021,-8.075776100158691
13,650.0,-4.034298896789552,-0.397208571434021,-8.075776100158691
14,700.0,-4.034298896789552,-0.397208571434021,-8.075776100158691
15,750.0,-2.431107759475708,-3.747160196304321,-8.640481948852539
16,800.0,-2.431107759475708,-3.747160196304321,-8.640481948852539
17,850.0,-2.431107759475708,-3.747160196304321,-8.640481948852539
18,900.0,-2.431107759475708,-3.747160196304321,-8.640481948852539
19,950.0,-1.4356936216354368,-1.7994027137756348,-8.858229637145996
20,1000.0,-1.4356936216354368,-1.7994027137756348,-8.858229637145996
21,1050.0,-1.4356936216354368,-1.7994027137756348,-8.858229637145996
22,1100.0,-1.4356936216354368,-1.7994027137756348,-8.858229637145996
23,1150.0,-1.4356936216354368,-1.7994027137756348,-8.858229637145996
24,1200.0,-2.411965131759644,1.1629117727279663,-8.793622970581055
25,1250.0,-2.411965131759644,1.1629117727279663,-8.793622970581055
26,1300.0,-2.411965131759644,1.1629117727279663,-8.793622970581055
27,1350.0,-2.411965131759644,1.1629117727279663,-8.793622970581055
28,1400.0,-2.411965131759644,1.1629117727279663,-8.793622970581055
29,1450.0,-3.45045018196106,5.5968122482299805,-7.82692289352417
30,1500.0,-3.45045018196106,5.5968122482299805,-7.82692289352417
31,1550.0,-3.45045018196106,5.5968122482299805,-7.82692289352417
32,1600.0,-3.45045018196106,5.5968122482299805,-7.82692289352417
33,1650.0,-4.651647090911865,2.0434706211090092,-8.281558990478517
34,1700.0,-4.651647090911865,2.0434706211090092,-8.281558990478517
35,1750.0,-4.651647090911865,2.0434706211090092,-8.281558990478517
36,1800.0,-4.651647090911865,2.0434706211090092,-8.281558990478517
37,1850.0,-4.651647090911865,2.0434706211090092,-8.281558990478517
38,1900.0,-4.737788677215576,0.12921242415905002,-8.930014610290527
39,1950.0,-4.737788677215576,0.12921242415905002,-8.930014610290527
40,2000.0,-4.737788677215576,0.12921242415905002,-8.930014610290527
41,2050.0,-4.737788677215576,0.12921242415905002,-8.930014610290527
42,2100.0,-4.737788677215576,0.12921242415905002,-8.930014610290527
43,2150.0,-5.900700569152832,2.2085752487182617,-6.783651828765869
44,2200.0,-5.900700569152832,2.2085752487182617,-6.783651828765869
45,2250.0,-5.900700569152832,2.2085752487182617,-6.783651828765869
46,2300.0,-5.900700569152832,2.2085752487182617,-6.783651828765869
47,2350.0,-3.369094133377075,-1.043270707130432,-9.169296264648438
48,2400.0,-3.369094133377075,-1.043270707130432,-9.169296264648438
49,2450.0,-3.369094133377075,-1.043270707130432,-9.169296264648438
50,2500.0,-3.369094133377075,-1.043270707130432,-9.169296264648438
51,2550.0,-3.369094133377075,-1.043270707130432,-9.169296264648438
52,2600.0,-3.3978083133697514,0.4235295951366425,-9.492327690124512
53,2650.0,-3.3978083133697514,0.4235295951366425,-9.492327690124512
54,2700.0,-3.3978083133697514,0.4235295951366425,-9.492327690124512
55,2750.0,-3.3978083133697514,0.4235295951366425,-9.492327690124512
56,2800.0,-2.7326035499572754,-0.07657032459974289,-9.571290969848633
57,2850.0,-2.7326035499572754,-0.07657032459974289,-9.571290969848633
58,2900.0,-2.7326035499572754,-0.07657032459974289,-9.571290969848633
59,2950.0,-2.7326035499572754,-0.07657032459974289,-9.571290969848633
60,3000.0,-2.7326035499572754,-0.07657032459974289,-9.571290969848633
61,3050.0,-3.9529430866241455,0.1986042857170105,-8.831908226013184
62,3100.0,-3.9529430866241455,0.1986042857170105,-8.831908226013184
63,3150.0,-3.9529430866241455,0.1986042857170105,-8.831908226013184
64,3200.0,-3.9529430866241455,0.1986042857170105,-8.831908226013184
65,3250.0,-3.9529430866241455,0.1986042857170105,-8.831908226013184
66,3300.0,-3.4408791065216064,-0.13160523772239685,-8.401200294494629
67,3350.0,-3.4408791065216064,-0.13160523772239685,-8.401200294494629
68,3400.0,-3.4408791065216064,-0.13160523772239685,-8.401200294494629
69,3450.0,-3.4408791065216064,-0.13160523772239685,-8.401200294494629
70,3500.0,-3.4408791065216064,-0.13160523772239685,-8.401200294494629
71,3550.0,-2.6847469806671143,0.06699903309345245,-9.63828945159912
72,3600.0,-2.6847469806671143,0.06699903309345245,-9.63828945159912
73,3650.0,-2.6847469806671143,0.06699903309345245,-9.63828945159912
74,3700.0,-2.6847469806671143,0.06699903309345245,-9.63828945159912
75,3750.0,-2.8283162117004395,0.5120640397071838,-9.549755096435547
76,3800.0,-2.8283162117004395,0.5120640397071838,-9.549755096435547
77,3850.0,-2.8283162117004395,0.5120640397071838,-9.549755096435547
78,3900.0,-2.8283162117004395,0.5120640397071838,-9.549755096435547
79,3950.0,-2.8283162117004395,0.5120640397071838,-9.549755096435547
80,4000.0,-2.9240293502807617,0.4761717021465302,-9.269794464111328
81,4050.0,-2.9240293502807617,0.4761717021465302,-9.269794464111328
82,4100.0,-2.9240293502807617,0.4761717021465302,-9.269794464111328
83,4150.0,-2.9240293502807617,0.4761717021465302,-9.269794464111328
84,4200.0,-2.9240293502807617,0.4761717021465302,-9.269794464111328
85,4250.0,-3.058027505874634,0.5718846321105957,-9.111868858337402
86,4300.0,-3.058027505874634,0.5718846321105957,-9.111868858337402
87,4350.0,-3.058027505874634,0.5718846321105957,-9.111868858337402
88,4400.0,-3.058027505874634,0.5718846321105957,-9.111868858337402
89,4450.0,-3.058027505874634,0.5718846321105957,-9.111868858337402
90,4500.0,-2.885744333267212,1.0839486122131348,-9.097511291503906
91,4550.0,-2.885744333267212,1.0839486122131348,-9.097511291503906
92,4600.0,-2.885744333267212,1.0839486122131348,-9.097511291503906
93,4650.0,-2.885744333267212,1.0839486122131348,-9.097511291503906
94,4700.0,-2.885744333267212,1.0839486122131348,-9.097511291503906
95,4750.0,-3.0245277881622314,0.8997013568878174,-9.176474571228027
96,4800.0,-3.0245277881622314,0.8997013568878174,-9.176474571228027
97,4850.0,-3.0245277881622314,0.8997013568878174,-9.176474571228027
98,4900.0,-3.0245277881622314,0.8997013568878174,-9.176474571228027
99,4950.0,-2.89052963256836,0.7585247755050659,-9.30329418182373
100,5000.0,-2.89052963256836,0.7585247755050659,-9.30329418182373
101,5050.0,-2.89052963256836,0.7585247755050659,-9.30329418182373
102,5100.0,-2.89052963256836,0.7585247755050659,-9.30329418182373
103,5150.0,-2.89052963256836,0.7585247755050659,-9.30329418182373
104,5200.0,-3.034099102020264,0.7728817462921143,-9.162117958068848
105,5250.0,-3.034099102020264,0.7728817462921143,-9.162117958068848
106,5300.0,-3.034099102020264,0.7728817462921143,-9.162117958068848
107,5350.0,-3.034099102020264,0.7728817462921143,-9.162117958068848
108,5400.0,-3.034099102020264,0.7728817462921143,-9.162117958068848
109,5450.0,-3.0245277881622314,0.8015955686569214,-9.138189315795898
110,5500.0,-3.0245277881622314,0.8015955686569214,-9.138189315795898
111,5550.0,-3.0245277881622314,0.8015955686569214,-9.138189315795898
112,5600.0,-3.0245277881622314,0.8015955686569214,-9.138189315795898
113,5650.0,-3.0245277881622314,0.8015955686569214,-9.138189315795898
114,5700.0,-3.1441688537597656,0.935593605041504,-9.073582649230957
115,5750.0,-3.1441688537597656,0.935593605041504,-9.073582649230957
116,5800.0,-3.1441688537597656,0.935593605041504,-9.073582649230957
117,5850.0,-3.1441688537597656,0.935593605041504,-9.073582649230957
118,5900.0,-3.0101709365844727,0.9332008361816406,-9.26740264892578
119,5950.0,-3.0101709365844727,0.9332008361816406,-9.26740264892578
120,6000.0,-3.0101709365844727,0.9332008361816406,-9.26740264892578
121,6050.0,-3.0101709365844727,0.9332008361816406,-9.26740264892578
122,6100.0,-3.0101709365844727,0.9332008361816406,-9.26740264892578
123,6150.0,-3.0197420120239262,0.9044869542121888,-9.456435203552246
124,6200.0,-3.0197420120239262,0.9044869542121888,-9.456435203552246
125,6250.0,-3.0197420120239262,0.9044869542121888,-9.456435203552246
126,6300.0,-3.0197420120239262,0.9044869542121888,-9.456435203552246
127,6350.0,-3.0197420120239262,0.9044869542121888,-9.456435203552246
128,6400.0,-3.1537401676177983,0.9930213689804076,-9.207581520080566
129,6450.0,-3.1537401676177983,0.9930213689804076,-9.207581520080566
130,6500.0,-3.1537401676177983,0.9930213689804076,-9.207581520080566
131,6550.0,-3.1537401676177983,0.9930213689804076,-9.207581520080566
132,6600.0,-3.1537401676177983,0.9930213689804076,-9.207581520080566
133,6650.0,-3.053241729736328,0.9140582084655762,-9.176474571228027
134,6700.0,-3.053241729736328,0.9140582084655762,-9.176474571228027
135,6750.0,-3.053241729736328,0.9140582084655762,-9.176474571228027
136,6800.0,-3.053241729736328,0.9140582084655762,-9.176474571228027
137,6850.0,-3.053241729736328,0.9140582084655762,-9.176474571228027
138,6900.0,-3.0245277881622314,0.9523434042930604,-9.214759826660156
139,6950.0,-3.0245277881622314,0.9523434042930604,-9.214759826660156
140,7000.0,-3.0245277881622314,0.9523434042930604,-9.214759826660156
141,7050.0,-3.0245277881622314,0.9523434042930604,-9.214759826660156
142,7100.0,-3.086741209030152,1.0767701864242554,-9.245866775512695
143,7150.0,-3.086741209030152,1.0767701864242554,-9.245866775512695
144,7200.0,-3.086741209030152,1.0767701864242554,-9.245866775512695
145,7250.0,-3.086741209030152,1.0767701864242554,-9.245866775512695
146,7300.0,-3.086741209030152,1.0767701864242554,-9.245866775512695
147,7350.0,-3.129812002182007,1.0552347898483276,-9.18126106262207
148,7400.0,-3.129812002182007,1.0552347898483276,-9.18126106262207
149,7450.0,-3.129812002182007,1.0552347898483276,-9.18126106262207
150,7500.0,-3.129812002182007,1.0552347898483276,-9.18126106262207
151,7550.0,-3.129812002182007,1.0552347898483276,-9.18126106262207
152,7600.0,-3.029313325881958,1.0169496536254885,-9.150154113769533
153,7650.0,-3.029313325881958,1.0169496536254885,-9.150154113769533
154,7700.0,-3.029313325881958,1.0169496536254885,-9.150154113769533
155,7750.0,-3.029313325881958,1.0169496536254885,-9.150154113769533
156,7800.0,-3.029313325881958,1.0169496536254885,-9.150154113769533
157,7850.0,-3.2542388439178467,0.94037926197052,-9.169296264648438
158,7900.0,-3.2542388439178467,0.94037926197052,-9.169296264648438
159,7950.0,-3.2542388439178467,0.94037926197052,-9.169296264648438
160,8000.0,-3.2542388439178467,0.94037926197052,-9.169296264648438
161,8050.0,-3.2542388439178467,0.94037926197052,-9.169296264648438
162,8100.0,-3.230310440063477,0.8327022790908813,-9.174081802368164
163,8150.0,-3.230310440063477,0.8327022790908813,-9.174081802368164
164,8200.0,-3.230310440063477,0.8327022790908813,-9.174081802368164
165,8250.0,-3.230310440063477,0.8327022790908813,-9.174081802368164
166,8300.0,-2.5986053943634038,0.5958128571510315,-9.174081802368164
167,8350.0,-2.5986053943634038,0.5958128571510315,-9.174081802368164
168,8400.0,-2.5986053943634038,0.5958128571510315,-9.174081802368164
169,8450.0,-2.5986053943634038,0.5958128571510315,-9.174081802368164
170,8500.0,-2.5986053943634038,0.5958128571510315,-9.174081802368164
171,8550.0,-2.665604591369629,0.08614162355661392,-9.138189315795898
172,8600.0,-2.665604591369629,0.08614162355661392,-9.138189315795898
173,8650.0,-2.665604591369629,0.08614162355661392,-9.138189315795898
174,8700.0,-2.665604591369629,0.08614162355661392,-9.138189315795898
175,8750.0,-2.665604591369629,0.08614162355661392,-9.138189315795898
176,8800.0,-2.636890411376953,0.01914258114993572,-9.351150512695312
177,8850.0,-2.636890411376953,0.01914258114993572,-9.351150512695312
178,8900.0,-2.636890411376953,0.01914258114993572,-9.351150512695312
179,8950.0,-2.636890411376953,0.01914258114993572,-9.351150512695312
180,9000.0,-2.636890411376953,0.01914258114993572,-9.351150512695312
181,9050.0,-2.833101987838745,-0.36370906233787537,-9.573683738708496
182,9100.0,-2.833101987838745,-0.36370906233787537,-9.573683738708496
183,9150.0,-2.833101987838745,-0.36370906233787537,-9.573683738708496
184,9200.0,-2.833101987838745,-0.36370906233787537,-9.573683738708496
185,9250.0,-2.833101987838745,-0.36370906233787537,-9.573683738708496
186,9300.0,-3.919443368911743,1.6031911373138428,-9.145368576049805
187,9350.0,-3.919443368911743,1.6031911373138428,-9.145368576049805
188,9400.0,-3.919443368911743,1.6031911373138428,-9.145368576049805
189,9450.0,-3.919443368911743,1.6031911373138428,-9.145368576049805
190,9500.0,-2.761317014694214,1.6486548185348509,-9.035298347473145
191,9550.0,-2.761317014694214,1.6486548185348509,-9.035298347473145
192,9600.0,-2.761317014694214,1.6486548185348509,-9.035298347473145
193,9650.0,-2.761317014694214,1.6486548185348509,-9.035298347473145
194,9700.0,-2.761317014694214,1.6486548185348509,-9.035298347473145
195,9750.0,-3.1968109607696533,1.3782659769058228,-8.980262756347656
196,9800.0,-3.1968109607696533,1.3782659769058228,-8.980262756347656
197,9850.0,-3.1968109607696533,1.3782659769058228,-8.980262756347656
198,9900.0,-3.1968109607696533,1.3782659769058228,-8.980262756347656
199,9950.0,-3.1968109607696533,1.3782659769058228,-8.980262756347656
200,10000.0,-3.469593048095703,2.0961124897003174,-8.898907661437988
201,10050.0,-3.469593048095703,2.0961124897003174,-8.898907661437988
202,10100.0,-3.469593048095703,2.0961124897003174,-8.898907661437988
203,10150.0,-3.469593048095703,2.0961124897003174,-8.898907661437988
204,10200.0,-3.469593048095703,2.0961124897003174,-8.898907661437988
205,10250.0,-3.369094133377075,2.1104695796966557,-9.140583038330078
206,10300.0,-3.369094133377075,2.1104695796966557,-9.140583038330078
207,10350.0,-3.369094133377075,2.1104695796966557,-9.140583038330078
208,10400.0,-3.369094133377075,2.1104695796966557,-9.140583038330078
209,10450.0,-4.852644443511963,1.7371891736984253,-8.260024070739746
210,10500.0,-4.852644443511963,1.7371891736984253,-8.260024070739746
211,10550.0,-4.852644443511963,1.7371891736984253,-8.260024070739746
212,10600.0,-4.852644443511963,1.7371891736984253,-8.260024070739746
213,10650.0,-4.694717884063722,0.9930213689804076,-8.47298526763916
214,10700.0,-4.694717884063722,0.9930213689804076,-8.47298526763916
215,10750.0,-4.694717884063722,0.9930213689804076,-8.47298526763916
216,10800.0,-4.694717884063722,0.9930213689804076,-8.47298526763916
217,10850.0,-4.694717884063722,0.9930213689804076,-8.47298526763916
218,10900.0,-5.8097734451293945,6.5108704566955575,-5.697310447692871
219,10950.0,-5.8097734451293945,6.5108704566955575,-5.697310447692871
220,11000.0,-5.8097734451293945,6.5108704566955575,-5.697310447692871
221,11050.0,-5.8097734451293945,6.5108704566955575,-5.697310447692871
222,11100.0,-5.8097734451293945,6.5108704566955575,-5.697310447692871
223,11150.0,-5.9198431968688965,5.233102798461914,-4.240081787109375
224,11200.0,-5.9198431968688965,5.233102798461914,-4.240081787109375
225,11250.0,-5.9198431968688965,5.233102798461914,-4.240081787109375
226,11300.0,-5.9198431968688965,5.233102798461914,-4.240081787109375
227,11350.0,-5.9198431968688965,5.233102798461914,-4.240081787109375
228,11400.0,-3.3786656856536865,1.1413763761520386,-10.260422706604004
229,11450.0,-3.3786656856536865,1.1413763761520386,-10.260422706604004
230,11500.0,-3.3786656856536865,1.1413763761520386,-10.260422706604004
231,11550.0,-3.3786656856536865,1.1413763761520386,-10.260422706604004
232,11600.0,-3.3786656856536865,1.1413763761520386,-10.260422706604004
233,11650.0,-3.598805427551269,0.6245267391204834,-8.104490280151367
234,11700.0,-3.598805427551269,0.6245267391204834,-8.104490280151367
235,11750.0,-3.598805427551269,0.6245267391204834,-8.104490280151367
236,11800.0,-3.598805427551269,0.6245267391204834,-8.104490280151367
237,11850.0,-3.814159393310547,0.4187439680099487,-8.568697929382324
238,11900.0,-3.814159393310547,0.4187439680099487,-8.568697929382324
239,11950.0,-3.814159393310547,0.4187439680099487,-8.568697929382324
240,12000.0,-3.814159393310547,0.4187439680099487,-8.568697929382324
241,12050.0,-3.814159393310547,0.4187439680099487,-8.568697929382324
242,12100.0,-3.460021495819092,2.3473589420318604,-8.9371919631958
243,12150.0,-3.460021495819092,2.3473589420318604,-8.9371919631958
244,12200.0,-3.460021495819092,2.3473589420318604,-8.9371919631958
245,12250.0,-3.460021495819092,2.3473589420318604,-8.9371919631958
246,12300.0,-3.460021495819092,2.3473589420318604,-8.9371919631958
247,12350.0,-2.8713872432708736,1.8209381103515625,-8.997013092041016
248,12400.0,-2.8713872432708736,1.8209381103515625,-8.997013092041016
249,12450.0,-2.8713872432708736,1.8209381103515625,-8.997013092041016
250,12500.0,-2.8713872432708736,1.8209381103515625,-8.997013092041016
251,12550.0,-2.8713872432708736,1.8209381103515625,-8.997013092041016
252,12600.0,-3.0197420120239262,2.048256158828736,-8.920442581176758
253,12650.0,-3.0197420120239262,2.048256158828736,-8.920442581176758
254,12700.0,-3.0197420120239262,2.048256158828736,-8.920442581176758
255,12750.0,-3.0197420120239262,2.048256158828736,-8.920442581176758
256,12800.0,-3.0197420120239262,2.048256158828736,-8.920442581176758
257,12850.0,-2.589033842086792,-0.13160523772239685,-10.892127990722656
258,12900.0,-2.589033842086792,-0.13160523772239685,-10.892127990722656
259,12950.0,-2.589033842086792,-0.13160523772239685,-10.892127990722656
260,13000.0,-2.589033842086792,-0.13160523772239685,-10.892127990722656
261,13050.0,-2.2683956623077397,1.2562319040298462,-9.731609344482422
262,13100.0,-2.2683956623077397,1.2562319040298462,-9.731609344482422
263,13150.0,-2.2683956623077397,1.2562319040298462,-9.731609344482422
264,13200.0,-2.2683956623077397,1.2562319040298462,-9.731609344482422
265,13250.0,-2.2683956623077397,1.2562319040298462,-9.731609344482422
266,13300.0,-2.0673987865448002,0.7202396392822266,-8.662017822265625
267,13350.0,-2.0673987865448002,0.7202396392822266,-8.662017822265625
268,13400.0,-2.0673987865448002,0.7202396392822266,-8.662017822265625
269,13450.0,-2.0673987865448002,0.7202396392822266,-8.662017822265625
270,13500.0,-2.0673987865448002,0.7202396392822266,-8.662017822265625
271,13550.0,-2.1535403728485107,0.6915256977081299,-9.434900283813477
272,13600.0,-2.1535403728485107,0.6915256977081299,-9.434900283813477
273,13650.0,-2.1535403728485107,0.6915256977081299,-9.434900283813477
274,13700.0,-2.1535403728485107,0.6915256977081299,-9.434900283813477
275,13750.0,-2.1535403728485107,0.6915256977081299,-9.434900283813477
276,13800.0,-2.770888566970825,1.22033953666687,-9.298508644104004
277,13850.0,-2.770888566970825,1.22033953666687,-9.298508644104004
278,13900.0,-2.770888566970825,1.22033953666687,-9.298508644104004
279,13950.0,-2.770888566970825,1.22033953666687,-9.298508644104004
280,14000.0,-2.770888566970825,1.22033953666687,-9.298508644104004
281,14050.0,-2.9383859634399414,1.3663017749786377,-9.250652313232422
282,14100.0,-2.9383859634399414,1.3663017749786377,-9.250652313232422
283,14150.0,-2.9383859634399414,1.3663017749786377,-9.250652313232422
284,14200.0,-2.9383859634399414,1.3663017749786377,-9.250652313232422
285,14250.0,-3.0388848781585693,1.2681961059570312,-8.920442581176758
286,14300.0,-3.0388848781585693,1.2681961059570312,-8.920442581176758
287,14350.0,-3.0388848781585693,1.2681961059570312,-8.920442581176758
288,14400.0,-3.0388848781585693,1.2681961059570312,-8.920442581176758
289,14450.0,-3.0388848781585693,1.2681961059570312,-8.920442581176758
290,14500.0,-2.187039852142334,1.7204395532608032,-9.518648147583008
291,14550.0,-2.187039852142334,1.7204395532608032,-9.518648147583008
292,14600.0,-2.187039852142334,1.7204395532608032,-9.518648147583008
293,14650.0,-2.187039852142334,1.7204395532608032,-9.518648147583008
294,14700.0,-2.187039852142334,1.7204395532608032,-9.518648147583008
295,14750.0,-2.612962245941162,1.2681961059570312,-9.011369705200195
296,14800.0,-2.612962245941162,1.2681961059570312,-9.011369705200195
297,14850.0,-2.612962245941162,1.2681961059570312,-9.011369705200195
298,14900.0,-2.612962245941162,1.2681961059570312,-9.011369705200195
299,14950.0,-2.612962245941162,1.2681961059570312,-9.011369705200195
300,15000.0,-2.8139593601226807,1.4476575851440432,-9.219545364379883
301,15050.0,-2.8139593601226807,1.4476575851440432,-9.219545364379883
302,15100.0,-2.8139593601226807,1.4476575851440432,-9.219545364379883
303,15150.0,-2.8139593601226807,1.4476575851440432,-9.219545364379883
304,15200.0,-2.7661027908325195,1.495514154434204,-9.355937004089355
305,15250.0,-2.7661027908325195,1.495514154434204,-9.355937004089355
306,15300.0,-2.7661027908325195,1.495514154434204,-9.355937004089355
307,15350.0,-2.7661027908325195,1.495514154434204,-9.355937004089355
308,15400.0,-2.7661027908325195,1.495514154434204,-9.355937004089355
309,15450.0,-2.723031997680664,1.3112668991088867,-9.18843936920166
310,15500.0,-2.723031997680664,1.3112668991088867,-9.18843936920166
311,15550.0,-2.723031997680664,1.3112668991088867,-9.18843936920166
312,15600.0,-2.723031997680664,1.3112668991088867,-9.18843936920166
313,15650.0,-2.723031997680664,1.3112668991088867,-9.18843936920166
314,15700.0,-2.7182462215423584,1.37587308883667,-9.066404342651367
315,15750.0,-2.7182462215423584,1.37587308883667,-9.066404342651367
316,15800.0,-2.7182462215423584,1.37587308883667,-9.066404342651367
317,15850.0,-2.7182462215423584,1.37587308883667,-9.066404342651367
318,15900.0,-2.7182462215423584,1.37587308883667,-9.066404342651367
319,15950.0,-2.675175428390503,1.294516921043396,-9.15493869781494
320,16000.0,-2.675175428390503,1.294516921043396,-9.15493869781494
321,16050.0,-2.675175428390503,1.294516921043396,-9.15493869781494
322,16100.0,-2.675175428390503,1.294516921043396,-9.15493869781494
323,16150.0,-2.675175428390503,1.294516921043396,-9.15493869781494
324,16200.0,-2.7421746253967285,1.3471590280532837,-9.243474006652832
325,16250.0,-2.7421746253967285,1.3471590280532837,-9.243474006652832
326,16300.0,-2.7421746253967285,1.3471590280532837,-9.243474006652832
327,16350.0,-2.7421746253967285,1.3471590280532837,-9.243474006652832
328,16400.0,-2.68953275680542,1.4021940231323242,-9.22433090209961
329,16450.0,-2.68953275680542,1.4021940231323242,-9.22433090209961
330,16500.0,-2.68953275680542,1.4021940231323242,-9.22433090209961
331,16550.0,-2.68953275680542,1.4021940231323242,-9.22433090209961
332,16600.0,-2.68953275680542,1.4021940231323242,-9.22433090209961
333,16650.0,-2.6321046352386475,1.5744771957397459,-9.028119087219238
334,16700.0,-2.6321046352386475,1.5744771957397459,-9.028119087219238
335,16750.0,-2.6321046352386475,1.5744771957397459,-9.028119087219238
336,16800.0,-2.6321046352386475,1.5744771957397459,-9.028119087219238
337,16850.0,-2.6321046352386475,1.5744771957397459,-9.028119087219238
338,16900.0,-2.6321046352386475,1.3208380937576294,-9.236295700073242
339,16950.0,-2.6321046352386475,1.3208380937576294,-9.236295700073242
340,17000.0,-2.6321046352386475,1.3208380937576294,-9.236295700073242
341,17050.0,-2.6321046352386475,1.3208380937576294,-9.236295700073242
342,17100.0,-2.6321046352386475,1.3208380937576294,-9.236295700073242
343,17150.0,-2.756531953811645,1.4572290182113647,-9.31765079498291
344,17200.0,-2.756531953811645,1.4572290182113647,-9.31765079498291
345,17250.0,-2.756531953811645,1.4572290182113647,-9.31765079498291
346,17300.0,-2.756531953811645,1.4572290182113647,-9.31765079498291
347,17350.0,-2.756531953811645,1.4572290182113647,-9.31765079498291
348,17400.0,-2.699103832244873,1.430907964706421,-9.245866775512695
349,17450.0,-2.699103832244873,1.430907964706421,-9.245866775512695
350,17500.0,-2.699103832244873,1.430907964706421,-9.245866775512695
351,17550.0,-2.699103832244873,1.430907964706421,-9.245866775512695
352,17600.0,-2.75174617767334,1.5529417991638184,-9.145368576049805
353,17650.0,-2.75174617767334,1.5529417991638184,-9.145368576049805
354,17700.0,-2.75174617767334,1.5529417991638184,-9.145368576049805
355,17750.0,-2.75174617767334,1.5529417991638184,-9.145368576049805
356,17800.0,-2.75174617767334,1.5529417991638184,-9.145368576049805
357,17850.0,-2.6560330390930176,1.4668002128601074,-9.698110580444336
358,17900.0,-2.6560330390930176,1.4668002128601074,-9.698110580444336
359,17950.0,-2.6560330390930176,1.4668002128601074,-9.698110580444336
360,18000.0,-2.6560330390930176,1.4668002128601074,-9.698110580444336
361,18050.0,-2.6560330390930176,1.4668002128601074,-9.698110580444336
362,18100.0,-3.206382274627685,2.5986053943634038,-8.554340362548826
363,18150.0,-3.206382274627685,2.5986053943634038,-8.554340362548826
364,18200.0,-3.206382274627685,2.5986053943634038,-8.554340362548826
365,18250.0,-3.206382274627685,2.5986053943634038,-8.554340362548826
366,18300.0,-3.206382274627685,2.5986053943634038,-8.554340362548826
367,18350.0,-2.6321046352386475,2.699103832244873,-10.011569023132324
368,18400.0,-2.6321046352386475,2.699103832244873,-10.011569023132324
369,18450.0,-2.6321046352386475,2.699103832244873,-10.011569023132324
370,18500.0,-2.6321046352386475,2.699103832244873,-10.011569023132324
371,18550.0,-2.6321046352386475,2.699103832244873,-10.011569023132324
372,18600.0,-3.058027505874634,2.0961124897003174,-9.099905014038086
373,18650.0,-3.058027505874634,2.0961124897003174,-9.099905014038086
374,18700.0,-3.058027505874634,2.0961124897003174,-9.099905014038086
375,18750.0,-3.058027505874634,2.0961124897003174,-9.099905014038086
376,18800.0,-2.7038896083831787,2.421536445617676,-9.104689598083496
377,18850.0,-2.7038896083831787,2.421536445617676,-9.104689598083496
378,18900.0,-2.7038896083831787,2.421536445617676,-9.104689598083496
379,18950.0,-2.7038896083831787,2.421536445617676,-9.104689598083496
380,19000.0,-2.7038896083831787,2.421536445617676,-9.104689598083496
381,19050.0,-2.9814569950103764,3.005385160446167,-9.061619758605957
382,19100.0,-2.9814569950103764,3.005385160446167,-9.061619758605957
383,19150.0,-2.9814569950103764,3.005385160446167,-9.061619758605957
384,19200.0,-2.9814569950103764,3.005385160446167,-9.061619758605957
385,19250.0,-2.9814569950103764,3.005385160446167,-9.061619758605957
386,19300.0,-3.5461630821228027,3.4743783473968506,-8.293522834777832
387,19350.0,-3.5461630821228027,3.4743783473968506,-8.293522834777832
388,19400.0,-3.5461630821228027,3.4743783473968506,-8.293522834777832
389,19450.0,-3.5461630821228027,3.4743783473968506,-8.293522834777832
390,19500.0,-3.5461630821228027,3.4743783473968506,-8.293522834777832
391,19550.0,-3.445664882659912,3.8572301864624015,-8.511269569396973
392,19600.0,-3.445664882659912,3.8572301864624015,-8.511269569396973
393,19650.0,-3.445664882659912,3.8572301864624015,-8.511269569396973
394,19700.0,-3.445664882659912,3.8572301864624015,-8.511269569396973
395,19750.0,-3.445664882659912,3.8572301864624015,-8.511269569396973
396,19800.0,-4.29750919342041,2.526820659637451,-7.898707389831543
397,19850.0,-4.29750919342041,2.526820659637451,-7.898707389831543
398,19900.0,-4.29750919342041,2.526820659637451,-7.898707389831543
399,19950.0,-4.29750919342041,2.526820659637451,-7.898707389831543
400,20000.0,-4.790431022644043,5.429314613342285,-6.099304676055907
401,20050.0,-4.790431022644043,5.429314613342285,-6.099304676055907
402,20100.0,-4.790431022644043,5.429314613342285,-6.099304676055907
403,20150.0,-4.790431022644043,5.429314613342285,-6.099304676055907
404,20200.0,-4.790431022644043,5.429314613342285,-6.099304676055907
405,20250.0,-3.708875179290772,2.053041696548462,-8.219346046447754
406,20300.0,-3.708875179290772,2.053041696548462,-8.219346046447754
407,20350.0,-3.708875179290772,2.053041696548462,-8.219346046447754
408,20400.0,-3.708875179290772,2.053041696548462,-8.219346046447754
409,20450.0,-3.708875179290772,2.053041696548462,-8.219346046447754
410,20500.0,-2.569891452789306,-0.7728817462921143,-9.98285675048828
411,20550.0,-2.569891452789306,-0.7728817462921143,-9.98285675048828
412,20600.0,-2.569891452789306,-0.7728817462921143,-9.98285675048828
413,20650.0,-2.569891452789306,-0.7728817462921143,-9.98285675048828
414,20700.0,-2.569891452789306,-0.7728817462921143,-9.98285675048828
415,20750.0,-2.9718859195709233,1.741974949836731,-8.319844245910645
416,20800.0,-2.9718859195709233,1.741974949836731,-8.319844245910645
417,20850.0,-2.9718859195709233,1.741974949836731,-8.319844245910645
418,20900.0,-2.9718859195709233,1.741974949836731,-8.319844245910645
419,20950.0,-3.201596736907959,2.89052963256836,-9.284152030944824
420,21000.0,-3.201596736907959,2.89052963256836,-9.284152030944824
421,21050.0,-3.201596736907959,2.89052963256836,-9.284152030944824
422,21100.0,-3.201596736907959,2.89052963256836,-9.284152030944824
423,21150.0,-3.201596736907959,2.89052963256836,-9.284152030944824
424,21200.0,-3.2542388439178467,2.9814569950103764,-8.444271087646483
425,21250.0,-3.2542388439178467,2.9814569950103764,-8.444271087646483
426,21300.0,-3.2542388439178467,2.9814569950103764,-8.444271087646483
427,21350.0,-3.2542388439178467,2.9814569950103764,-8.444271087646483
428,21400.0,-3.69930362701416,2.5746772289276123,-8.446663856506348
429,21450.0,-3.69930362701416,2.5746772289276123,-8.446663856506348
430,21500.0,-3.69930362701416,2.5746772289276123,-8.446663856506348
431,21550.0,-3.69930362701416,2.5746772289276123,-8.446663856506348
432,21600.0,-3.69930362701416,2.5746772289276123,-8.446663856506348
433,21650.0,-3.5844480991363525,2.629711866378784,-8.819944381713867
434,21700.0,-3.5844480991363525,2.629711866378784,-8.819944381713867
435,21750.0,-3.5844480991363525,2.629711866378784,-8.819944381713867
436,21800.0,-3.5844480991363525,2.629711866378784,-8.819944381713867
437,21850.0,-3.5844480991363525,2.629711866378784,-8.819944381713867
438,21900.0,-3.7710886001586914,2.3976082801818848,-9.083154678344727
439,21950.0,-3.7710886001586914,2.3976082801818848,-9.083154678344727
440,22000.0,-3.7710886001586914,2.3976082801818848,-9.083154678344727
441,22050.0,-3.7710886001586914,2.3976082801818848,-9.083154678344727
442,22100.0,-3.7710886001586914,2.3976082801818848,-9.083154678344727
443,22150.0,-3.6562328338623047,2.565105676651001,-8.468198776245117
444,22200.0,-3.6562328338623047,2.565105676651001,-8.468198776245117
445,22250.0,-3.6562328338623047,2.565105676651001,-8.468198776245117
446,22300.0,-3.6562328338623047,2.565105676651001,-8.468198776245117
447,22350.0,-3.6562328338623047,2.565105676651001,-8.468198776245117
448,22400.0,-3.8955152034759517,2.486142873764038,-8.827122688293457
449,22450.0,-3.8955152034759517,2.486142873764038,-8.827122688293457
450,22500.0,-3.8955152034759517,2.486142873764038,-8.827122688293457
451,22550.0,-3.8955152034759517,2.486142873764038,-8.827122688293457
452,22600.0,-3.6514470577239986,2.423929214477539,-8.621339797973633
453,22650.0,-3.6514470577239986,2.423929214477539,-8.621339797973633
454,22700.0,-3.6514470577239986,2.423929214477539,-8.621339797973633
455,22750.0,-3.6514470577239986,2.423929214477539,-8.621339797973633
456,22800.0,-3.6514470577239986,2.423929214477539,-8.621339797973633
457,22850.0,-3.665804386138916,2.53399920463562,-8.786444664001465
458,22900.0,-3.665804386138916,2.53399920463562,-8.786444664001465
459,22950.0,-3.665804386138916,2.53399920463562,-8.786444664001465
460,23000.0,-3.665804386138916,2.53399920463562,-8.786444664001465
461,23050.0,-3.665804386138916,2.53399920463562,-8.786444664001465
462,23100.0,-3.6514470577239986,2.3784656524658203,-8.791230201721191
463,23150.0,-3.6514470577239986,2.3784656524658203,-8.791230201721191
464,23200.0,-3.6514470577239986,2.3784656524658203,-8.791230201721191
465,23250.0,-3.6514470577239986,2.3784656524658203,-8.791230201721191
466,23300.0,-3.6514470577239986,2.3784656524658203,-8.791230201721191
467,23350.0,-3.479164123535156,2.5507488250732417,-8.810372352600098
468,23400.0,-3.479164123535156,2.5507488250732417,-8.810372352600098
469,23450.0,-3.479164123535156,2.5507488250732417,-8.810372352600098
470,23500.0,-3.479164123535156,2.5507488250732417,-8.810372352600098
471,23550.0,-3.479164123535156,2.5507488250732417,-8.810372352600098
472,23600.0,-3.5030922889709477,2.4502503871917725,-8.874979019165039
473,23650.0,-3.5030922889709477,2.4502503871917725,-8.874979019165039
474,23700.0,-3.5030922889709477,2.4502503871917725,-8.874979019165039
475,23750.0,-3.5030922889709477,2.4502503871917725,-8.874979019165039
476,23800.0,-3.5030922889709477,2.376072883605957,-8.717053413391112
477,23850.0,-3.5030922889709477,2.376072883605957,-8.717053413391112
478,23900.0,-3.5030922889709477,2.376072883605957,-8.717053413391112
479,23950.0,-3.5030922889709477,2.376072883605957,-8.717053413391112
480,24000.0,-3.5030922889709477,2.376072883605957,-8.717053413391112
481,24050.0,-3.464807271957397,2.47896409034729,-8.774479866027832
482,24100.0,-3.464807271957397,2.47896409034729,-8.774479866027832
483,24150.0,-3.464807271957397,2.47896409034729,-8.774479866027832
484,24200.0,-3.464807271957397,2.47896409034729,-8.774479866027832
485,24250.0,-3.464807271957397,2.47896409034729,-8.774479866027832
486,24300.0,-3.5270204544067383,2.445464611053467,-8.841480255126953
487,24350.0,-3.5270204544067383,2.445464611053467,-8.841480255126953
488,24400.0,-3.5270204544067383,2.445464611053467,-8.841480255126953
489,24450.0,-3.5270204544067383,2.445464611053467,-8.841480255126953
490,24500.0,-3.5270204544067383,2.445464611053467,-8.841480255126953
491,24550.0,-3.5126638412475586,2.462214469909668,-8.628519058227539
492,24600.0,-3.5126638412475586,2.462214469909668,-8.628519058227539
493,24650.0,-3.5126638412475586,2.462214469909668,-8.628519058227539
494,24700.0,-3.5126638412475586,2.462214469909668,-8.628519058227539
495,24750.0,-3.5126638412475586,2.462214469909668,-8.628519058227539
496,24800.0,-3.479164123535156,2.416750907897949,-8.733802795410156
497,24850.0,-3.479164123535156,2.416750907897949,-8.733802795410156
498,24900.0,-3.479164123535156,2.416750907897949,-8.733802795410156
499,24950.0,-3.479164123535156,2.416750907897949,-8.733802795410156
500,25000.0,-3.488735675811768,2.321038007736206,-8.755338668823242
501,25050.0,-3.488735675811768,2.321038007736206,-8.755338668823242
502,25100.0,-3.488735675811768,2.321038007736206,-8.755338668823242
503,25150.0,-3.488735675811768,2.321038007736206,-8.755338668823242
504,25200.0,-3.488735675811768,2.321038007736206,-8.755338668823242
505,25250.0,-3.531806230545044,2.4095723628997803,-8.913264274597168
506,25300.0,-3.531806230545044,2.4095723628997803,-8.913264274597168
507,25350.0,-3.531806230545044,2.4095723628997803,-8.913264274597168
508,25400.0,-3.531806230545044,2.4095723628997803,-8.913264274597168
509,25450.0,-3.531806230545044,2.4095723628997803,-8.913264274597168
510,25500.0,-3.517449140548706,2.3617160320281982,-8.831908226013184
511,25550.0,-3.517449140548706,2.3617160320281982,-8.831908226013184
512,25600.0,-3.517449140548706,2.3617160320281982,-8.831908226013184
513,25650.0,-3.517449140548706,2.3617160320281982,-8.831908226013184
514,25700.0,-3.4983065128326416,2.4646072387695312,-8.697910308837889
515,25750.0,-3.4983065128326416,2.4646072387695312,-8.697910308837889
516,25800.0,-3.4983065128326416,2.4646072387695312,-8.697910308837889
517,25850.0,-3.4983065128326416,2.4646072387695312,-8.697910308837889
518,25900.0,-3.4983065128326416,2.4646072387695312,-8.697910308837889
519,25950.0,-3.4983065128326416,2.4047868251800537,-8.807979583740234
520,26000.0,-3.4983065128326416,2.4047868251800537,-8.807979583740234
521,26050.0,-3.4983065128326416,2.4047868251800537,-8.807979583740234
522,26100.0,-3.4983065128326416,2.4047868251800537,-8.807979583740234
523,26150.0,-3.4983065128326416,2.4047868251800537,-8.807979583740234
524,26200.0,-3.5605196952819824,2.4023938179016118,-8.803194999694824
525,26250.0,-3.5605196952819824,2.4023938179016118,-8.803194999694824
526,26300.0,-3.5605196952819824,2.4023938179016118,-8.803194999694824
527,26350.0,-3.5605196952819824,2.4023938179016118,-8.803194999694824
528,26400.0,-3.5605196952819824,2.4023938179016118,-8.803194999694824
529,26450.0,-3.5126638412475586,2.3736801147460938,-8.762516975402832
530,26500.0,-3.5126638412475586,2.3736801147460938,-8.762516975402832
531,26550.0,-3.5126638412475586,2.3736801147460938,-8.762516975402832
532,26600.0,-3.5126638412475586,2.3736801147460938,-8.762516975402832
533,26650.0,-3.5126638412475586,2.3736801147460938,-8.762516975402832
534,26700.0,-3.5126638412475586,2.421536445617676,-8.647661209106445
535,26750.0,-3.5126638412475586,2.421536445617676,-8.647661209106445
536,26800.0,-3.5126638412475586,2.421536445617676,-8.647661209106445
537,26850.0,-3.5126638412475586,2.421536445617676,-8.647661209106445
538,26900.0,-3.517449140548706,2.3880369663238525,-8.724230766296388
539,26950.0,-3.517449140548706,2.3880369663238525,-8.724230766296388
540,27000.0,-3.517449140548706,2.3880369663238525,-8.724230766296388
541,27050.0,-3.517449140548706,2.3880369663238525,-8.724230766296388
542,27100.0,-3.517449140548706,2.3880369663238525,-8.724230766296388
543,27150.0,-3.5509488582611084,2.335394859313965,-8.685946464538574
544,27200.0,-3.5509488582611084,2.335394859313965,-8.685946464538574
545,27250.0,-3.5509488582611084,2.335394859313965,-8.685946464538574
546,27300.0,-3.5509488582611084,2.335394859313965,-8.685946464538574
547,27350.0,-3.5509488582611084,2.352144718170166,-8.70508861541748
548,27400.0,-3.5509488582611084,2.352144718170166,-8.70508861541748
549,27450.0,-3.5509488582611084,2.352144718170166,-8.70508861541748
550,27500.0,-3.5509488582611084,2.352144718170166,-8.70508861541748
551,27550.0,-3.5509488582611084,2.352144718170166,-8.70508861541748
552,27600.0,-3.5461630821228027,2.4287149906158447,-8.650053977966309
553,27650.0,-3.5461630821228027,2.4287149906158447,-8.650053977966309
554,27700.0,-3.5461630821228027,2.4287149906158447,-8.650053977966309
555,27750.0,-3.5461630821228027,2.4287149906158447,-8.650053977966309
556,27800.0,-3.5461630821228027,2.4287149906158447,-8.650053977966309
557,27850.0,-3.565305471420288,2.335394859313965,-8.750552177429201
558,27900.0,-3.565305471420288,2.335394859313965,-8.750552177429201
559,27950.0,-3.565305471420288,2.335394859313965,-8.750552177429201
560,28000.0,-3.565305471420288,2.335394859313965,-8.750552177429201
561,28050.0,-3.565305471420288,2.335394859313965,-8.750552177429201
562,28100.0,-3.565305471420288,2.359323024749756,-8.776873588562013
563,28150.0,-3.565305471420288,2.359323024749756,-8.776873588562013
564,28200.0,-3.565305471420288,2.359323024749756,-8.776873588562013
565,28250.0,-3.565305471420288,2.359323024749756,-8.776873588562013
566,28300.0,-3.646661758422852,2.4717857837677,-8.817551612854004
567,28350.0,-3.646661758422852,2.4717857837677,-8.817551612854004
568,28400.0,-3.646661758422852,2.4717857837677,-8.817551612854004
569,28450.0,-3.646661758422852,2.4717857837677,-8.817551612854004
570,28500.0,-3.646661758422852,2.4717857837677,-8.817551612854004
571,28550.0,-4.000799655914307,3.6729826927185063,-9.504291534423828
572,28600.0,-4.000799655914307,3.6729826927185063,-9.504291534423828
573,28650.0,-4.000799655914307,3.6729826927185063,-9.504291534423828
574,28700.0,-4.000799655914307,3.6729826927185063,-9.504291534423828
575,28750.0,-4.000799655914307,3.6729826927185063,-9.504291534423828
576,28800.0,-3.455235719680786,2.912065029144287,-8.405985832214355
577,28850.0,-3.455235719680786,2.912065029144287,-8.405985832214355
578,28900.0,-3.455235719680786,2.912065029144287,-8.405985832214355
579,28950.0,-3.455235719680786,2.912065029144287,-8.405985832214355
580,29000.0,-3.455235719680786,2.912065029144287,-8.405985832214355
581,29050.0,-4.153940200805663,3.1489543914794917,-9.20997428894043
582,29100.0,-4.153940200805663,3.1489543914794917,-9.20997428894043
583,29150.0,-4.153940200805663,3.1489543914794917,-9.20997428894043
584,29200.0,-4.153940200805663,3.1489543914794917,-9.20997428894043
585,29250.0,-4.153940200805663,3.1489543914794917,-9.20997428894043
586,29300.0,-3.589233875274658,3.050848960876465,-8.894121170043945
587,29350.0,-3.589233875274658,3.050848960876465,-8.894121170043945
588,29400.0,-3.589233875274658,3.050848960876465,-8.894121170043945
589,29450.0,-3.589233875274658,3.050848960876465,-8.894121170043945
590,29500.0,-4.106083393096924,2.577069997787476,-8.968299865722656
591,29550.0,-4.106083393096924,2.577069997787476,-8.968299865722656
592,29600.0,-4.106083393096924,2.577069997787476,-8.968299865722656
593,29650.0,-4.106083393096924,2.577069997787476,-8.968299865722656
594,29700.0,-4.106083393096924,2.577069997787476,-8.968299865722656
595,29750.0,-5.45563554763794,3.565305471420288,-5.446063995361328
596,29800.0,-5.45563554763794,3.565305471420288,-5.446063995361328
597,29850.0,-5.45563554763794,3.565305471420288,-5.446063995361328
598,29900.0,-5.45563554763794,3.565305471420288,-5.446063995361328
599,29950.0,-5.45563554763794,3.565305471420288,-5.446063995361328
600,30000.0,-4.388436794281007,2.328216552734375,-7.953742504119872
601,30050.0,-4.388436794281007,2.328216552734375,-7.953742504119872
602,30100.0,-4.388436794281007,2.328216552734375,-7.953742504119872
603,30150.0,-4.388436794281007,2.328216552734375,-7.953742504119872
604,30200.0,-4.388436794281007,2.328216552734375,-7.953742504119872
605,30250.0,-3.579662799835205,-0.705882728099823,-8.616554260253906
606,30300.0,-3.579662799835205,-0.705882728099823,-8.616554260253906
607,30350.0,-3.579662799835205,-0.705882728099823,-8.616554260253906
608,30400.0,-3.579662799835205,-0.705882728099823,-8.616554260253906
609,30450.0,-2.1439690589904785,1.3160523176193235,-10.260422706604004
610,30500.0,-2.1439690589904785,1.3160523176193235,-10.260422706604004
611,30550.0,-2.1439690589904785,1.3160523176193235,-10.260422706604004
612,30600.0,-2.1439690589904785,1.3160523176193235,-10.260422706604004
613,30650.0,-2.1439690589904785,1.3160523176193235,-10.260422706604004
614,30700.0,-3.058027505874634,2.577069997787476,-6.845865249633789
615,30750.0,-3.058027505874634,2.577069997787476,-6.845865249633789
616,30800.0,-3.058027505874634,2.577069997787476,-6.845865249633789
617,30850.0,-3.058027505874634,2.577069997787476,-6.845865249633789
618,30900.0,-3.058027505874634,2.577069997787476,-6.845865249633789
619,30950.0,-2.579463005065918,1.4452648162841797,-9.322437286376953
620,31000.0,-2.579463005065918,1.4452648162841797,-9.322437286376953
621,31050.0,-2.579463005065918,1.4452648162841797,-9.322437286376953
622,31100.0,-2.579463005065918,1.4452648162841797,-9.322437286376953
623,31150.0,-2.579463005065918,1.4452648162841797,-9.322437286376953
624,31200.0,-2.6943180561065674,1.4883356094360352,-9.131011009216307
625,31250.0,-2.6943180561065674,1.4883356094360352,-9.131011009216307
626,31300.0,-2.6943180561065674,1.4883356094360352,-9.131011009216307
627,31350.0,-2.6943180561065674,1.4883356094360352,-9.131011009216307
628,31400.0,-2.6943180561065674,1.4883356094360352,-9.131011009216307
629,31450.0,-2.723031997680664,1.4333008527755735,-8.963513374328613
630,31500.0,-2.723031997680664,1.4333008527755735,-8.963513374328613
631,31550.0,-2.723031997680664,1.4333008527755735,-8.963513374328613
632,31600.0,-2.723031997680664,1.4333008527755735,-8.963513374328613
633,31650.0,-2.7326035499572754,1.361515998840332,-9.147761344909668
634,31700.0,-2.7326035499572754,1.361515998840332,-9.147761344909668
635,31750.0,-2.7326035499572754,1.361515998840332,-9.147761344909668
636,31800.0,-2.7326035499572754,1.361515998840332,-9.147761344909668
637,31850.0,-2.7326035499572754,1.361515998840332,-9.147761344909668
638,31900.0,-2.6847469806671143,1.3184452056884766,-9.18126106262207
639,31950.0,-2.6847469806671143,1.3184452056884766,-9.18126106262207
640,32000.0,-2.6847469806671143,1.3184452056884766,-9.18126106262207
641,32050.0,-2.6847469806671143,1.3184452056884766,-9.18126106262207
642,32100.0,-2.6847469806671143,1.3184452056884766,-9.18126106262207
643,32150.0,-2.47896409034729,1.428515076637268,-9.346364974975586
644,32200.0,-2.47896409034729,1.428515076637268,-9.346364974975586
645,32250.0,-2.47896409034729,1.428515076637268,-9.346364974975586
646,32300.0,-2.47896409034729,1.428515076637268,-9.346364974975586
647,32350.0,-2.47896409034729,1.428515076637268,-9.346364974975586
648,32400.0,-2.2827527523040767,0.6412764191627502,-9.561718940734863
649,32450.0,-2.2827527523040767,0.6412764191627502,-9.561718940734863
650,32500.0,-2.2827527523040767,0.6412764191627502,-9.561718940734863
651,32550.0,-2.2827527523040767,0.6412764191627502,-9.561718940734863
652,32600.0,-2.2827527523040767,0.6412764191627502,-9.561718940734863
653,32650.0,-2.75174617767334,1.1629117727279663,-9.540184020996094
654,32700.0,-2.75174617767334,1.1629117727279663,-9.540184020996094
655,32750.0,-2.75174617767334,1.1629117727279663,-9.540184020996094
656,32800.0,-2.75174617767334,1.1629117727279663,-9.540184020996094
657,32850.0,-2.421536445617676,1.239482045173645,-9.26740264892578
658,32900.0,-2.421536445617676,1.239482045173645,-9.26740264892578
659,32950.0,-2.421536445617676,1.239482045173645,-9.26740264892578
660,33000.0,-2.421536445617676,1.239482045173645,-9.26740264892578
661,33050.0,-2.421536445617676,1.239482045173645,-9.26740264892578
662,33100.0,-2.407179594039917,1.2011969089508057,-9.456435203552246
663,33150.0,-2.407179594039917,1.2011969089508057,-9.456435203552246
664,33200.0,-2.407179594039917,1.2011969089508057,-9.456435203552246
665,33250.0,-2.407179594039917,1.2011969089508057,-9.456435203552246
666,33300.0,-2.407179594039917,1.2011969089508057,-9.456435203552246
667,33350.0,-2.8378877639770512,1.117448091506958,-9.336793899536133
668,33400.0,-2.8378877639770512,1.117448091506958,-9.336793899536133
669,33450.0,-2.8378877639770512,1.117448091506958,-9.336793899536133
670,33500.0,-2.8378877639770512,1.117448091506958,-9.336793899536133
671,33550.0,-2.8378877639770512,1.117448091506958,-9.336793899536133
672,33600.0,-2.8809585571289062,1.1006983518600464,-9.394222259521484
673,33650.0,-2.8809585571289062,1.1006983518600464,-9.394222259521484
674,33700.0,-2.8809585571289062,1.1006983518600464,-9.394222259521484
675,33750.0,-2.8809585571289062,1.1006983518600464,-9.394222259521484
676,33800.0,-2.8809585571289062,1.1006983518600464,-9.394222259521484
677,33850.0,-2.8426735401153564,1.246660590171814,-9.391828536987305
678,33900.0,-2.8426735401153564,1.246660590171814,-9.391828536987305
679,33950.0,-2.8426735401153564,1.246660590171814,-9.391828536987305
680,34000.0,-2.8426735401153564,1.246660590171814,-9.391828536987305
681,34050.0,-2.799602746963501,1.2131611108779907,-9.212367057800293
682,34100.0,-2.799602746963501,1.2131611108779907,-9.212367057800293
683,34150.0,-2.799602746963501,1.2131611108779907,-9.212367057800293
684,34200.0,-2.799602746963501,1.2131611108779907,-9.212367057800293
685,34250.0,-2.799602746963501,1.2131611108779907,-9.212367057800293
686,34300.0,-2.7661027908325195,1.1772687435150146,-9.30329418182373
687,34350.0,-2.7661027908325195,1.1772687435150146,-9.30329418182373
688,34400.0,-2.7661027908325195,1.1772687435150146,-9.30329418182373
689,34450.0,-2.7661027908325195,1.1772687435150146,-9.30329418182373
690,34500.0,-2.7661027908325195,1.1772687435150146,-9.30329418182373
691,34550.0,-2.7278177738189697,1.373480200767517,-9.365508079528807
692,34600.0,-2.7278177738189697,1.373480200767517,-9.365508079528807
693,34650.0,-2.7278177738189697,1.373480200767517,-9.365508079528807
694,34700.0,-2.7278177738189697,1.373480200767517,-9.365508079528807
695,34750.0,-2.746960401535034,1.308874011039734,-8.98265552520752
696,34800.0,-2.746960401535034,1.308874011039734,-8.98265552520752
697,34850.0,-2.746960401535034,1.308874011039734,-8.98265552520752
698,34900.0,-2.746960401535034,1.308874011039734,-8.98265552520752
699,34950.0,-2.746960401535034,1.308874011039734,-8.98265552520752
700,35000.0,-2.7086753845214844,1.0671988725662231,-9.166903495788574
701,35050.0,-2.7086753845214844,1.0671988725662231,-9.166903495788574
702,35100.0,-2.7086753845214844,1.0671988725662231,-9.166903495788574
703,35150.0,-2.7086753845214844,1.0671988725662231,-9.166903495788574
704,35200.0,-2.7086753845214844,1.0671988725662231,-9.166903495788574
705,35250.0,-2.885744333267212,0.916451096534729,-9.35832977294922
706,35300.0,-2.885744333267212,0.916451096534729,-9.35832977294922
707,35350.0,-2.885744333267212,0.916451096534729,-9.35832977294922
708,35400.0,-2.885744333267212,0.916451096534729,-9.35832977294922
709,35450.0,-2.699103832244873,1.129412293434143,-9.42054271697998
710,35500.0,-2.699103832244873,1.129412293434143,-9.42054271697998
711,35550.0,-2.699103832244873,1.129412293434143,-9.42054271697998
712,35600.0,-2.699103832244873,1.129412293434143,-9.42054271697998
713,35650.0,-2.699103832244873,1.129412293434143,-9.42054271697998
714,35700.0,-2.6608188152313232,1.246660590171814,-9.492327690124512
715,35750.0,-2.6608188152313232,1.246660590171814,-9.492327690124512
716,35800.0,-2.6608188152313232,1.246660590171814,-9.492327690124512
717,35850.0,-2.6608188152313232,1.246660590171814,-9.492327690124512
718,35900.0,-2.6608188152313232,1.246660590171814,-9.492327690124512
719,35950.0,-2.7804601192474365,1.0552347898483276,-9.207581520080566
720,36000.0,-2.7804601192474365,1.0552347898483276,-9.207581520080566
721,36050.0,-2.7804601192474365,1.0552347898483276,-9.207581520080566
722,36100.0,-2.7804601192474365,1.0552347898483276,-9.207581520080566
723,36150.0,-2.7804601192474365,1.0552347898483276,-9.207581520080566
724,36200.0,-2.7948169708251958,1.246660590171814,-8.958727836608887
725,36250.0,-2.7948169708251958,1.246660590171814,-8.958727836608887
726,36300.0,-2.7948169708251958,1.246660590171814,-8.958727836608887
727,36350.0,-2.7948169708251958,1.246660590171814,-8.958727836608887
728,36400.0,-2.723031997680664,1.146162033081055,-9.198010444641113
729,36450.0,-2.723031997680664,1.146162033081055,-9.198010444641113
730,36500.0,-2.723031997680664,1.146162033081055,-9.198010444641113
731,36550.0,-2.723031997680664,1.146162033081055,-9.198010444641113
732,36600.0,-2.723031997680664,1.146162033081055,-9.198010444641113
733,36650.0,-2.7421746253967285,1.1365907192230225,-9.255437850952148
734,36700.0,-2.7421746253967285,1.1365907192230225,-9.255437850952148
735,36750.0,-2.7421746253967285,1.1365907192230225,-9.255437850952148
736,36800.0,-2.7421746253967285,1.1365907192230225,-9.255437850952148
737,36850.0,-2.7421746253967285,1.1365907192230225,-9.255437850952148
738,36900.0,-2.723031997680664,1.0097711086273191,-9.272188186645508
739,36950.0,-2.723031997680664,1.0097711086273191,-9.272188186645508
740,37000.0,-2.723031997680664,1.0097711086273191,-9.272188186645508
741,37050.0,-2.723031997680664,1.0097711086273191,-9.272188186645508
742,37100.0,-2.723031997680664,1.0097711086273191,-9.272188186645508
743,37150.0,-2.9671001434326167,1.2131611108779907,-9.614361763000488
744,37200.0,-2.9671001434326167,1.2131611108779907,-9.614361763000488
745,37250.0,-2.9671001434326167,1.2131611108779907,-9.614361763000488
746,37300.0,-2.9671001434326167,1.2131611108779907,-9.614361763000488
747,37350.0,-2.9671001434326167,1.2131611108779907,-9.614361763000488
748,37400.0,-2.6081764698028564,0.9284151792526244,-9.207581520080566
749,37450.0,-2.6081764698028564,0.9284151792526244,-9.207581520080566
750,37500.0,-2.6081764698028564,0.9284151792526244,-9.207581520080566
751,37550.0,-2.6081764698028564,0.9284151792526244,-9.207581520080566
752,37600.0,-2.6847469806671143,0.8877372145652771,-9.236295700073242
753,37650.0,-2.6847469806671143,0.8877372145652771,-9.236295700073242
754,37700.0,-2.6847469806671143,0.8877372145652771,-9.236295700073242
755,37750.0,-2.6847469806671143,0.8877372145652771,-9.236295700073242
756,37800.0,-2.6847469806671143,0.8877372145652771,-9.236295700073242
757,37850.0,-2.699103832244873,0.8518448472023009,-9.418149948120117
758,37900.0,-2.699103832244873,0.8518448472023009,-9.418149948120117
759,37950.0,-2.699103832244873,0.8518448472023009,-9.418149948120117
760,38000.0,-2.699103832244873,0.8518448472023009,-9.418149948120117
761,38050.0,-2.699103832244873,0.8518448472023009,-9.418149948120117
762,38100.0,-2.737389087677002,0.6197410225868225,-9.293723106384276
763,38150.0,-2.737389087677002,0.6197410225868225,-9.293723106384276
764,38200.0,-2.737389087677002,0.6197410225868225,-9.293723106384276
765,38250.0,-2.737389087677002,0.6197410225868225,-9.293723106384276
766,38300.0,-2.737389087677002,0.6197410225868225,-9.293723106384276
767,38350.0,-2.746960401535034,0.6245267391204834,-9.075976371765137
768,38400.0,-2.746960401535034,0.6245267391204834,-9.075976371765137
769,38450.0,-2.746960401535034,0.6245267391204834,-9.075976371765137
770,38500.0,-2.746960401535034,0.6245267391204834,-9.075976371765137
771,38550.0,-2.746960401535034,0.6245267391204834,-9.075976371765137
772,38600.0,-2.823530912399292,0.35892340540885925,-9.327221870422363
773,38650.0,-2.823530912399292,0.35892340540885925,-9.327221870422363
774,38700.0,-2.823530912399292,0.35892340540885925,-9.327221870422363
775,38750.0,-2.823530912399292,0.35892340540885925,-9.327221870422363
776,38800.0,-2.9718859195709233,0.5718846321105957,-9.238687515258787
777,38850.0,-2.9718859195709233,0.5718846321105957,-9.238687515258787
778,38900.0,-2.9718859195709233,0.5718846321105957,-9.238687515258787
779,38950.0,-2.9718859195709233,0.5718846321105957,-9.238687515258787
780,39000.0,-2.9718859195709233,0.5718846321105957,-9.238687515258787
781,39050.0,-2.699103832244873,0.8709874749183655,-9.353544235229492
782,39100.0,-2.699103832244873,0.8709874749183655,-9.353544235229492
783,39150.0,-2.699103832244873,0.8709874749183655,-9.353544235229492
784,39200.0,-2.699103832244873,0.8709874749183655,-9.353544235229492
785,39250.0,-2.699103832244873,0.8709874749183655,-9.353544235229492
786,39300.0,-2.541177749633789,0.2153540551662445,-9.384650230407717
787,39350.0,-2.541177749633789,0.2153540551662445,-9.384650230407717
788,39400.0,-2.541177749633789,0.2153540551662445,-9.384650230407717
789,39450.0,-2.541177749633789,0.2153540551662445,-9.384650230407717
790,39500.0,-2.541177749633789,0.2153540551662445,-9.384650230407717
791,39550.0,-2.6847469806671143,0.34217363595962524,-9.413363456726074
792,39600.0,-2.6847469806671143,0.34217363595962524,-9.413363456726074
793,39650.0,-2.6847469806671143,0.34217363595962524,-9.413363456726074
794,39700.0,-2.6847469806671143,0.34217363595962524,-9.413363456726074
795,39750.0,-2.6847469806671143,0.34217363595962524,-9.413363456726074
796,39800.0,-2.809173583984375,0.41156551241874695,-9.260223388671877
797,39850.0,-2.809173583984375,0.41156551241874695,-9.260223388671877
798,39900.0,-2.809173583984375,0.41156551241874695,-9.260223388671877
799,39950.0,-2.809173583984375,0.41156551241874695,-9.260223388671877
800,40000.0,-2.7182462215423584,0.3756731450557709,-9.391828536987305
801,40050.0,-2.7182462215423584,0.3756731450557709,-9.391828536987305
802,40100.0,-2.7182462215423584,0.3756731450557709,-9.391828536987305
803,40150.0,-2.7182462215423584,0.3756731450557709,-9.391828536987305
804,40200.0,-2.7182462215423584,0.3756731450557709,-9.391828536987305
805,40250.0,-2.761317014694214,0.3876372575759888,-9.463613510131836
806,40300.0,-2.761317014694214,0.3876372575759888,-9.463613510131836
807,40350.0,-2.761317014694214,0.3876372575759888,-9.463613510131836
808,40400.0,-2.761317014694214,0.3876372575759888,-9.463613510131836
809,40450.0,-2.761317014694214,0.3876372575759888,-9.463613510131836
810,40500.0,-2.8522443771362305,0.5431707501411438,-9.30329418182373
811,40550.0,-2.8522443771362305,0.5431707501411438,-9.30329418182373
812,40600.0,-2.8522443771362305,0.5431707501411438,-9.30329418182373
813,40650.0,-2.8522443771362305,0.5431707501411438,-9.30329418182373
814,40700.0,-2.8522443771362305,0.5431707501411438,-9.30329418182373
815,40750.0,-2.5842485427856445,0.4259224236011505,-9.20997428894043
816,40800.0,-2.5842485427856445,0.4259224236011505,-9.20997428894043
817,40850.0,-2.5842485427856445,0.4259224236011505,-9.20997428894043
818,40900.0,-2.5842485427856445,0.4259224236011505,-9.20997428894043
819,40950.0,-2.75174617767334,0.5216353535652161,-9.394222259521484
820,41000.0,-2.75174617767334,0.5216353535652161,-9.394222259521484
821,41050.0,-2.75174617767334,0.5216353535652161,-9.394222259521484
822,41100.0,-2.75174617767334,0.5216353535652161,-9.394222259521484
823,41150.0,-2.75174617767334,0.5216353535652161,-9.394222259521484
824,41200.0,-2.68953275680542,0.4211367666721344,-9.286543846130373
825,41250.0,-2.68953275680542,0.4211367666721344,-9.286543846130373
826,41300.0,-2.68953275680542,0.4211367666721344,-9.286543846130373
827,41350.0,-2.68953275680542,0.4211367666721344,-9.286543846130373
828,41400.0,-2.68953275680542,0.4211367666721344,-9.286543846130373
829,41450.0,-2.6847469806671143,0.5503491759300232,-9.360722541809082
830,41500.0,-2.6847469806671143,0.5503491759300232,-9.360722541809082
831,41550.0,-2.6847469806671143,0.5503491759300232,-9.360722541809082
832,41600.0,-2.6847469806671143,0.5503491759300232,-9.360722541809082
833,41650.0,-2.6847469806671143,0.5503491759300232,-9.360722541809082
834,41700.0,-2.6943180561065674,0.5072783827781677,-9.30329418182373
835,41750.0,-2.6943180561065674,0.5072783827781677,-9.30329418182373
836,41800.0,-2.6943180561065674,0.5072783827781677,-9.30329418182373
837,41850.0,-2.6943180561065674,0.5072783827781677,-9.30329418182373
838,41900.0,-2.6943180561065674,0.5072783827781677,-9.30329418182373
839,41950.0,-2.6464619636535645,0.6125625967979431,-9.255437850952148
840,42000.0,-2.6464619636535645,0.6125625967979431,-9.255437850952148
841,42050.0,-2.6464619636535645,0.6125625967979431,-9.255437850952148
842,42100.0,-2.6464619636535645,0.6125625967979431,-9.255437850952148
843,42150.0,-2.651247262954712,0.4929214715957642,-9.339186668395996
844,42200.0,-2.651247262954712,0.4929214715957642,-9.339186668395996
845,42250.0,-2.651247262954712,0.4929214715957642,-9.339186668395996
846,42300.0,-2.651247262954712,0.4929214715957642,-9.339186668395996
847,42350.0,-2.651247262954712,0.4929214715957642,-9.339186668395996
848,42400.0,-2.723031997680664,0.5288137793540955,-9.262616157531738
849,42450.0,-2.723031997680664,0.5288137793540955,-9.262616157531738
850,42500.0,-2.723031997680664,0.5288137793540955,-9.262616157531738
851,42550.0,-2.723031997680664,0.5288137793540955,-9.262616157531738
852,42600.0,-2.6799612045288086,0.4833501875400543,-9.336793899536133
853,42650.0,-2.6799612045288086,0.4833501875400543,-9.336793899536133
854,42700.0,-2.6799612045288086,0.4833501875400543,-9.336793899536133
855,42750.0,-2.6799612045288086,0.4833501875400543,-9.336793899536133
856,42800.0,-2.6799612045288086,0.4833501875400543,-9.336793899536133
857,42850.0,-2.665604591369629,0.5575276613235474,-9.33440113067627
858,42900.0,-2.665604591369629,0.5575276613235474,-9.33440113067627
859,42950.0,-2.665604591369629,0.5575276613235474,-9.33440113067627
860,43000.0,-2.665604591369629,0.5575276613235474,-9.33440113067627
861,43050.0,-2.665604591369629,0.5575276613235474,-9.33440113067627
862,43100.0,-2.6703903675079346,0.5120640397071838,-9.382257461547852
863,43150.0,-2.6703903675079346,0.5120640397071838,-9.382257461547852
864,43200.0,-2.6703903675079346,0.5120640397071838,-9.382257461547852
865,43250.0,-2.6703903675079346,0.5120640397071838,-9.382257461547852
866,43300.0,-2.6703903675079346,0.5120640397071838,-9.382257461547852
867,43350.0,-2.603391170501709,0.552742063999176,-9.32004451751709
868,43400.0,-2.603391170501709,0.552742063999176,-9.32004451751709
869,43450.0,-2.603391170501709,0.552742063999176,-9.32004451751709
870,43500.0,-2.603391170501709,0.552742063999176,-9.32004451751709
871,43550.0,-2.651247262954712,0.6197410225868225,-9.343972206115724
872,43600.0,-2.651247262954712,0.6197410225868225,-9.343972206115724
873,43650.0,-2.651247262954712,0.6197410225868225,-9.343972206115724
874,43700.0,-2.651247262954712,0.6197410225868225,-9.343972206115724
875,43750.0,-2.651247262954712,0.6197410225868225,-9.343972206115724
876,43800.0,-2.6608188152313232,0.6125625967979431,-9.32004451751709
877,43850.0,-2.6608188152313232,0.6125625967979431,-9.32004451751709
878,43900.0,-2.6608188152313232,0.6125625967979431,-9.32004451751709
879,43950.0,-2.6608188152313232,0.6125625967979431,-9.32004451751709
880,44000.0,-2.6608188152313232,0.6125625967979431,-9.32004451751709
881,44050.0,-2.636890411376953,0.5790630578994751,-9.396614074707033
882,44100.0,-2.636890411376953,0.5790630578994751,-9.396614074707033
883,44150.0,-2.636890411376953,0.5790630578994751,-9.396614074707033
884,44200.0,-2.636890411376953,0.5790630578994751,-9.396614074707033
885,44250.0,-2.636890411376953,0.5790630578994751,-9.396614074707033
886,44300.0,-2.6464619636535645,0.5551348924636841,-9.24825954437256
887,44350.0,-2.6464619636535645,0.5551348924636841,-9.24825954437256
888,44400.0,-2.6464619636535645,0.5551348924636841,-9.24825954437256
889,44450.0,-2.6464619636535645,0.5551348924636841,-9.24825954437256
890,44500.0,-2.6464619636535645,0.5551348924636841,-9.24825954437256
891,44550.0,-2.675175428390503,0.5455635190010071,-9.377471923828123
892,44600.0,-2.675175428390503,0.5455635190010071,-9.377471923828123
893,44650.0,-2.675175428390503,0.5455635190010071,-9.377471923828123
894,44700.0,-2.675175428390503,0.5455635190010071,-9.377471923828123
895,44750.0,-2.612962245941162,0.5407779216766357,-9.3128662109375
896,44800.0,-2.612962245941162,0.5407779216766357,-9.3128662109375
897,44850.0,-2.612962245941162,0.5407779216766357,-9.3128662109375
898,44900.0,-2.612962245941162,0.5407779216766357,-9.3128662109375
899,44950.0,-2.612962245941162,0.5407779216766357,-9.3128662109375
900,45000.0,-2.6943180561065674,0.5766702890396118,-9.332008361816406
901,45050.0,-2.6943180561065674,0.5766702890396118,-9.332008361816406
902,45100.0,-2.6943180561065674,0.5766702890396118,-9.332008361816406
903,45150.0,-2.6943180561065674,0.5766702890396118,-9.332008361816406
904,45200.0,-2.651247262954712,0.5096712112426758,-9.293723106384276
905,45250.0,-2.651247262954712,0.5096712112426758,-9.293723106384276
906,45300.0,-2.651247262954712,0.5096712112426758,-9.293723106384276
907,45350.0,-2.651247262954712,0.5096712112426758,-9.293723106384276
908,45400.0,-2.651247262954712,0.5096712112426758,-9.293723106384276
909,45450.0,-2.589033842086792,0.5335994362831116,-9.370293617248537
910,45500.0,-2.589033842086792,0.5335994362831116,-9.370293617248537
911,45550.0,-2.589033842086792,0.5335994362831116,-9.370293617248537
912,45600.0,-2.589033842086792,0.5335994362831116,-9.370293617248537
913,45650.0,-2.589033842086792,0.5335994362831116,-9.370293617248537
914,45700.0,-2.5986053943634038,0.5670989155769348,-9.351150512695312
915,45750.0,-2.5986053943634038,0.5670989155769348,-9.351150512695312
916,45800.0,-2.5986053943634038,0.5670989155769348,-9.351150512695312
917,45850.0,-2.5986053943634038,0.5670989155769348,-9.351150512695312
918,45900.0,-2.5986053943634038,0.5670989155769348,-9.351150512695312
919,45950.0,-2.5459630489349365,0.5982056856155396,-9.446864128112793
920,46000.0,-2.5459630489349365,0.5982056856155396,-9.446864128112793
921,46050.0,-2.5459630489349365,0.5982056856155396,-9.446864128112793
922,46100.0,-2.5459630489349365,0.5982056856155396,-9.446864128112793
923,46150.0,-2.5842485427856445,0.6173481941223145,-9.504291534423828
924,46200.0,-2.5842485427856445,0.6173481941223145,-9.504291534423828
925,46250.0,-2.5842485427856445,0.6173481941223145,-9.504291534423828
926,46300.0,-2.5842485427856445,0.6173481941223145,-9.504291534423828
927,46350.0,-2.5842485427856445,0.6173481941223145,-9.504291534423828
928,46400.0,-2.531606435775757,0.4809573292732239,-9.363115310668944
929,46450.0,-2.531606435775757,0.4809573292732239,-9.363115310668944
930,46500.0,-2.531606435775757,0.4809573292732239,-9.363115310668944
931,46550.0,-2.531606435775757,0.4809573292732239,-9.363115310668944
932,46600.0,-2.531606435775757,0.4809573292732239,-9.363115310668944
933,46650.0,-2.522034883499145,0.6245267391204834,-9.463613510131836
934,46700.0,-2.522034883499145,0.6245267391204834,-9.463613510131836
935,46750.0,-2.522034883499145,0.6245267391204834,-9.463613510131836
936,46800.0,-2.522034883499145,0.6245267391204834,-9.463613510131836
937,46850.0,-2.522034883499145,0.6245267391204834,-9.463613510131836
938,46900.0,-2.4981069564819336,0.5383850932121277,-9.339186668395996
939,46950.0,-2.4981069564819336,0.5383850932121277,-9.339186668395996
940,47000.0,-2.4981069564819336,0.5383850932121277,-9.339186668395996
941,47050.0,-2.4981069564819336,0.5383850932121277,-9.339186668395996
942,47100.0,-2.4981069564819336,0.5383850932121277,-9.339186668395996
943,47150.0,-2.517249345779419,0.430708110332489,-9.394222259521484
944,47200.0,-2.517249345779419,0.430708110332489,-9.394222259521484
945,47250.0,-2.517249345779419,0.430708110332489,-9.394222259521484
946,47300.0,-2.517249345779419,0.430708110332489,-9.394222259521484
947,47350.0,-2.311466693878174,0.2321037948131561,-9.15733242034912
948,47400.0,-2.311466693878174,0.2321037948131561,-9.15733242034912
949,47450.0,-2.311466693878174,0.2321037948131561,-9.15733242034912
950,47500.0,-2.311466693878174,0.2321037948131561,-9.15733242034912
951,47550.0,-2.311466693878174,0.2321037948131561,-9.15733242034912
952,47600.0,-2.565105676651001,0.3349951505661011,-9.023333549499512
953,47650.0,-2.565105676651001,0.3349951505661011,-9.023333549499512
954,47700.0,-2.565105676651001,0.3349951505661011,-9.023333549499512
955,47750.0,-2.565105676651001,0.3349951505661011,-9.023333549499512
956,47800.0,-2.565105676651001,0.3349951505661011,-9.023333549499512
957,47850.0,-2.3784656524658203,0.4043869972229004,-9.499505043029783
958,47900.0,-2.3784656524658203,0.4043869972229004,-9.499505043029783
959,47950.0,-2.3784656524658203,0.4043869972229004,-9.499505043029783
960,48000.0,-2.3784656524658203,0.4043869972229004,-9.499505043029783
961,48050.0,-2.3784656524658203,0.4043869972229004,-9.499505043029783
962,48100.0,-2.589033842086792,0.430708110332489,-9.193224906921387
963,48150.0,-2.589033842086792,0.430708110332489,-9.193224906921387
964,48200.0,-2.589033842086792,0.430708110332489,-9.193224906921387
965,48250.0,-2.589033842086792,0.430708110332489,-9.193224906921387
966,48300.0,-2.589033842086792,0.430708110332489,-9.193224906921387
967,48350.0,-2.517249345779419,0.4737788736820221,-9.401400566101074
968,48400.0,-2.517249345779419,0.4737788736820221,-9.401400566101074
969,48450.0,-2.517249345779419,0.4737788736820221,-9.401400566101074
970,48500.0,-2.517249345779419,0.4737788736820221,-9.401400566101074
971,48550.0,-2.5076780319213867,0.5790630578994751,-9.305686950683594
972,48600.0,-2.5076780319213867,0.5790630578994751,-9.305686950683594
973,48650.0,-2.5076780319213867,0.5790630578994751,-9.305686950683594
974,48700.0,-2.5076780319213867,0.5790630578994751,-9.305686950683594
975,48750.0,-2.5076780319213867,0.5790630578994751,-9.305686950683594
976,48800.0,-2.5459630489349365,0.5216353535652161,-9.379864692687988
977,48850.0,-2.5459630489349365,0.5216353535652161,-9.379864692687988
978,48900.0,-2.5459630489349365,0.5216353535652161,-9.379864692687988
979,48950.0,-2.5459630489349365,0.5216353535652161,-9.379864692687988
980,49000.0,-2.5459630489349365,0.5216353535652161,-9.379864692687988
981,49050.0,-2.603391170501709,0.5886343717575073,-9.31765079498291
982,49100.0,-2.603391170501709,0.5886343717575073,-9.31765079498291
983,49150.0,-2.603391170501709,0.5886343717575073,-9.31765079498291
984,49200.0,-2.603391170501709,0.5886343717575073,-9.31765079498291
985,49250.0,-2.603391170501709,0.5886343717575073,-9.31765079498291
986,49300.0,-2.5555346012115483,0.5934200286865234,-9.286543846130373
987,49350.0,-2.5555346012115483,0.5934200286865234,-9.286543846130373
988,49400.0,-2.5555346012115483,0.5934200286865234,-9.286543846130373
989,49450.0,-2.5555346012115483,0.5934200286865234,-9.286543846130373
990,49500.0,-2.5124638080596924,0.6484549045562744,-9.365508079528807
991,49550.0,-2.5124638080596924,0.6484549045562744,-9.365508079528807
992,49600.0,-2.5124638080596924,0.6484549045562744,-9.365508079528807
993,49650.0,-2.5124638080596924,0.6484549045562744,-9.365508079528807
994,49700.0,-2.5124638080596924,0.6484549045562744,-9.365508079528807
995,49750.0,-2.493321180343628,0.5575276613235474,-9.44447135925293
996,49800.0,-2.493321180343628,0.5575276613235474,-9.44447135925293
997,49850.0,-2.493321180343628,0.5575276613235474,-9.44447135925293
998,49900.0,-2.493321180343628,0.5575276613235474,-9.44447135925293
999,49950.0,-2.565105676651001,0.5718846321105957,-9.439685821533203
1000,50000.0,-2.565105676651001,0.5718846321105957,-9.439685821533203
1001,50050.0,-2.565105676651001,0.5718846321105957,-9.439685821533203
1002,50100.0,-2.565105676651001,0.5718846321105957,-9.439685821533203
1003,50150.0,-2.565105676651001,0.5718846321105957,-9.439685821533203
1004,50200.0,-2.522034883499145,0.6340980529785156,-9.44447135925293
1005,50250.0,-2.522034883499145,0.6340980529785156,-9.44447135925293
1006,50300.0,-2.522034883499145,0.6340980529785156,-9.44447135925293
1007,50350.0,-2.522034883499145,0.6340980529785156,-9.44447135925293
1008,50400.0,-2.522034883499145,0.6340980529785156,-9.44447135925293
1009,50450.0,-2.541177749633789,0.5742774605751038,-9.430113792419434
1010,50500.0,-2.541177749633789,0.5742774605751038,-9.430113792419434
1011,50550.0,-2.541177749633789,0.5742774605751038,-9.430113792419434
1012,50600.0,-2.541177749633789,0.5742774605751038,-9.430113792419434
1013,50650.0,-2.627319574356079,0.6532405614852905,-9.394222259521484
1014,50700.0,-2.627319574356079,0.6532405614852905,-9.394222259521484
1015,50750.0,-2.627319574356079,0.6532405614852905,-9.394222259521484
1016,50800.0,-2.627319574356079,0.6532405614852905,-9.394222259521484
1017,50850.0,-2.627319574356079,0.6532405614852905,-9.394222259521484
1018,50900.0,-2.589033842086792,0.5455635190010071,-9.3128662109375
1019,50950.0,-2.589033842086792,0.5455635190010071,-9.3128662109375
1020,51000.0,-2.589033842086792,0.5455635190010071,-9.3128662109375
1021,51050.0,-2.589033842086792,0.5455635190010071,-9.3128662109375
1022,51100.0,-2.589033842086792,0.5455635190010071,-9.3128662109375
1023,51150.0,-2.5555346012115483,0.6245267391204834,-9.291330337524414
1024,51200.0,-2.5555346012115483,0.6245267391204834,-9.291330337524414
1025,51250.0,-2.5555346012115483,0.6245267391204834,-9.291330337524414
1026,51300.0,-2.5555346012115483,0.6245267391204834,-9.291330337524414
1027,51350.0,-2.5555346012115483,0.6245267391204834,-9.291330337524414
1028,51400.0,-2.5507488250732417,0.5886343717575073,-9.272188186645508
1029,51450.0,-2.5507488250732417,0.5886343717575073,-9.272188186645508
1030,51500.0,-2.5507488250732417,0.5886343717575073,-9.272188186645508
1031,51550.0,-2.5507488250732417,0.5886343717575073,-9.272188186645508
1032,51600.0,-2.5507488250732417,0.5886343717575073,-9.272188186645508
1033,51650.0,-2.4885356426239014,0.5838487148284912,-9.415757179260254
1034,51700.0,-2.4885356426239014,0.5838487148284912,-9.415757179260254
1035,51750.0,-2.4885356426239014,0.5838487148284912,-9.415757179260254
1036,51800.0,-2.4885356426239014,0.5838487148284912,-9.415757179260254
1037,51850.0,-2.579463005065918,0.5790630578994751,-9.260223388671877
1038,51900.0,-2.579463005065918,0.5790630578994751,-9.260223388671877
1039,51950.0,-2.579463005065918,0.5790630578994751,-9.260223388671877
1040,52000.0,-2.579463005065918,0.5790630578994751,-9.260223388671877
1041,52050.0,-2.579463005065918,0.5790630578994751,-9.260223388671877
1042,52100.0,-2.3880369663238525,0.6460621356964111,-9.284152030944824
1043,52150.0,-2.3880369663238525,0.6460621356964111,-9.284152030944824
1044,52200.0,-2.3880369663238525,0.6460621356964111,-9.284152030944824
1045,52250.0,-2.3880369663238525,0.6460621356964111,-9.284152030944824
1046,52300.0,-2.3880369663238525,0.6460621356964111,-9.284152030944824
1047,52350.0,-2.3258235454559326,0.5192425251007079,-9.477970123291016
1048,52400.0,-2.3258235454559326,0.5192425251007079,-9.477970123291016
1049,52450.0,-2.3258235454559326,0.5192425251007079,-9.477970123291016
1050,52500.0,-2.3258235454559326,0.5192425251007079,-9.477970123291016
1051,52550.0,-2.3258235454559326,0.5192425251007079,-9.477970123291016
1052,52600.0,-2.311466693878174,0.5742774605751038,-9.540184020996094
1053,52650.0,-2.311466693878174,0.5742774605751038,-9.540184020996094
1054,52700.0,-2.311466693878174,0.5742774605751038,-9.540184020996094
1055,52750.0,-2.311466693878174,0.5742774605751038,-9.540184020996094
1056,52800.0,-2.311466693878174,0.5742774605751038,-9.540184020996094
1057,52850.0,-2.502892255783081,0.6532405614852905,-9.286543846130373
1058,52900.0,-2.502892255783081,0.6532405614852905,-9.286543846130373
1059,52950.0,-2.502892255783081,0.6532405614852905,-9.286543846130373
1060,53000.0,-2.502892255783081,0.6532405614852905,-9.286543846130373
1061,53050.0,-2.5746772289276123,0.7034898400306702,-9.578469276428224
1062,53100.0,-2.5746772289276123,0.7034898400306702,-9.578469276428224
1063,53150.0,-2.5746772289276123,0.7034898400306702,-9.578469276428224
1064,53200.0,-2.5746772289276123,0.7034898400306702,-9.578469276428224
1065,53250.0,-2.5746772289276123,0.7034898400306702,-9.578469276428224
1066,53300.0,-2.455036163330078,0.6101697683334351,-9.31047248840332
1067,53350.0,-2.455036163330078,0.6101697683334351,-9.31047248840332
1068,53400.0,-2.455036163330078,0.6101697683334351,-9.31047248840332
1069,53450.0,-2.455036163330078,0.6101697683334351,-9.31047248840332
1070,53500.0,-2.455036163330078,0.6101697683334351,-9.31047248840332
1071,53550.0,-2.4502503871917725,0.729810893535614,-9.509077072143556
1072,53600.0,-2.4502503871917725,0.729810893535614,-9.509077072143556
1073,53650.0,-2.4502503871917725,0.729810893535614,-9.509077072143556
1074,53700.0,-2.4502503871917725,0.729810893535614,-9.509077072143556
1075,53750.0,-2.531606435775757,0.672383189201355,-9.437292098999023
1076,53800.0,-2.531606435775757,0.672383189201355,-9.437292098999023
1077,53850.0,-2.531606435775757,0.672383189201355,-9.437292098999023
1078,53900.0,-2.531606435775757,0.672383189201355,-9.437292098999023
1079,53950.0,-2.531606435775757,0.672383189201355,-9.437292098999023
1080,54000.0,-2.445464611053467,0.5479563474655151,-9.501898765563963
1081,54050.0,-2.445464611053467,0.5479563474655151,-9.501898765563963
1082,54100.0,-2.445464611053467,0.5479563474655151,-9.501898765563963
1083,54150.0,-2.445464611053467,0.5479563474655151,-9.501898765563963
1084,54200.0,-2.445464611053467,0.5479563474655151,-9.501898765563963
1085,54250.0,-2.416750907897949,0.5623133182525635,-9.58325481414795
1086,54300.0,-2.416750907897949,0.5623133182525635,-9.58325481414795
1087,54350.0,-2.416750907897949,0.5623133182525635,-9.58325481414795
1088,54400.0,-2.416750907897949,0.5623133182525635,-9.58325481414795
1089,54450.0,-2.522034883499145,0.5934200286865234,-9.286543846130373
1090,54500.0,-2.522034883499145,0.5934200286865234,-9.286543846130373
1091,54550.0,-2.522034883499145,0.5934200286865234,-9.286543846130373
1092,54600.0,-2.522034883499145,0.5934200286865234,-9.286543846130373
1093,54650.0,-2.526820659637451,0.6364907622337341,-9.377471923828123
1094,54700.0,-2.526820659637451,0.6364907622337341,-9.377471923828123
1095,54750.0,-2.526820659637451,0.6364907622337341,-9.377471923828123
1096,54800.0,-2.526820659637451,0.6364907622337341,-9.377471923828123
1097,54850.0,-2.526820659637451,0.6364907622337341,-9.377471923828123
1098,54900.0,-2.5363922119140625,0.6029912829399109,-9.430113792419434
1099,54950.0,-2.5363922119140625,0.6029912829399109,-9.430113792419434
1100,55000.0,-2.5363922119140625,0.6029912829399109,-9.430113792419434
1101,55050.0,-2.5363922119140625,0.6029912829399109,-9.430113792419434
1102,55100.0,-2.5363922119140625,0.6029912829399109,-9.430113792419434
1103,55150.0,-2.4741785526275635,0.6197410225868225,-9.367900848388672
1104,55200.0,-2.4741785526275635,0.6197410225868225,-9.367900848388672
1105,55250.0,-2.4741785526275635,0.6197410225868225,-9.367900848388672
1106,55300.0,-2.4741785526275635,0.6197410225868225,-9.367900848388672
1107,55350.0,-2.4741785526275635,0.6197410225868225,-9.367900848388672
1108,55400.0,-2.569891452789306,0.5575276613235474,-9.152545928955078
1109,55450.0,-2.569891452789306,0.5575276613235474,-9.152545928955078
1110,55500.0,-2.569891452789306,0.5575276613235474,-9.152545928955078
1111,55550.0,-2.569891452789306,0.5575276613235474,-9.152545928955078
1112,55600.0,-2.775674343109131,0.7034898400306702,-9.20997428894043
1113,55650.0,-2.775674343109131,0.7034898400306702,-9.20997428894043
1114,55700.0,-2.775674343109131,0.7034898400306702,-9.20997428894043
1115,55750.0,-2.775674343109131,0.7034898400306702,-9.20997428894043
1116,55800.0,-2.775674343109131,0.7034898400306702,-9.20997428894043
1117,55850.0,-2.847458839416504,0.6580261588096619,-9.291330337524414
1118,55900.0,-2.847458839416504,0.6580261588096619,-9.291330337524414
1119,55950.0,-2.847458839416504,0.6580261588096619,-9.291330337524414
1120,56000.0,-2.847458839416504,0.6580261588096619,-9.291330337524414
1121,56050.0,-2.847458839416504,0.6580261588096619,-9.291330337524414
1122,56100.0,-2.7804601192474365,0.6364907622337341,-9.34875774383545
1123,56150.0,-2.7804601192474365,0.6364907622337341,-9.34875774383545
1124,56200.0,-2.7804601192474365,0.6364907622337341,-9.34875774383545
1125,56250.0,-2.7804601192474365,0.6364907622337341,-9.34875774383545
1126,56300.0,-2.7804601192474365,0.6364907622337341,-9.34875774383545
1127,56350.0,-3.16331148147583,0.9499505758285522,-9.564111709594727
1128,56400.0,-3.16331148147583,0.9499505758285522,-9.564111709594727
1129,56450.0,-3.16331148147583,0.9499505758285522,-9.564111709594727
1130,56500.0,-3.16331148147583,0.9499505758285522,-9.564111709594727
1131,56550.0,-3.16331148147583,0.9499505758285522,-9.564111709594727
1132,56600.0,-2.9048867225646973,1.4093725681304932,-9.477970123291016
1133,56650.0,-2.9048867225646973,1.4093725681304932,-9.477970123291016
1134,56700.0,-2.9048867225646973,1.4093725681304932,-9.477970123291016
1135,56750.0,-2.9048867225646973,1.4093725681304932,-9.477970123291016
1136,56800.0,-3.1058835983276367,1.7682960033416748,-9.528220176696776
1137,56850.0,-3.1058835983276367,1.7682960033416748,-9.528220176696776
1138,56900.0,-3.1058835983276367,1.7682960033416748,-9.528220176696776
1139,56950.0,-3.1058835983276367,1.7682960033416748,-9.528220176696776
1140,57000.0,-3.1058835983276367,1.7682960033416748,-9.528220176696776
1141,57050.0,-3.4983065128326416,3.6945178508758554,-8.659625053405763
1142,57100.0,-3.4983065128326416,3.6945178508758554,-8.659625053405763
1143,57150.0,-3.4983065128326416,3.6945178508758554,-8.659625053405763
1144,57200.0,-3.4983065128326416,3.6945178508758554,-8.659625053405763
1145,57250.0,-3.4983065128326416,3.6945178508758554,-8.659625053405763
1146,57300.0,-4.264009952545166,4.6372904777526855,-7.659425258636475
1147,57350.0,-4.264009952545166,4.6372904777526855,-7.659425258636475
1148,57400.0,-4.264009952545166,4.6372904777526855,-7.659425258636475
1149,57450.0,-4.264009952545166,4.6372904777526855,-7.659425258636475
1150,57500.0,-4.264009952545166,4.6372904777526855,-7.659425258636475
1151,57550.0,-5.680561065673827,3.531806230545044,-4.53200626373291
1152,57600.0,-5.680561065673827,3.531806230545044,-4.53200626373291
1153,57650.0,-5.680561065673827,3.531806230545044,-4.53200626373291
1154,57700.0,-5.680561065673827,3.531806230545044,-4.53200626373291
1155,57750.0,-5.680561065673827,3.531806230545044,-4.53200626373291
1156,57800.0,-2.2013967037200928,0.2967100143432617,-10.449455261230467
1157,57850.0,-2.2013967037200928,0.2967100143432617,-10.449455261230467
1158,57900.0,-2.2013967037200928,0.2967100143432617,-10.449455261230467
1159,57950.0,-2.2013967037200928,0.2967100143432617,-10.449455261230467
1160,58000.0,-1.0384850502014158,0.02392822504043579,-10.55474090576172
1161,58050.0,-1.0384850502014158,0.02392822504043579,-10.55474090576172
1162,58100.0,-1.0384850502014158,0.02392822504043579,-10.55474090576172
1163,58150.0,-1.0384850502014158,0.02392822504043579,-10.55474090576172
1164,58200.0,-1.0384850502014158,0.02392822504043579,-10.55474090576172
1165,58250.0,-2.531606435775757,0.3182453811168671,-8.817551612854004
1166,58300.0,-2.531606435775757,0.3182453811168671,-8.817551612854004
1167,58350.0,-2.531606435775757,0.3182453811168671,-8.817551612854004
1168,58400.0,-2.531606435775757,0.3182453811168671,-8.817551612854004
1169,58450.0,-2.531606435775757,0.3182453811168671,-8.817551612854004
1170,58500.0,-3.6562328338623047,3.5820553302764893,-8.556733131408691
1171,58550.0,-3.6562328338623047,3.5820553302764893,-8.556733131408691
1172,58600.0,-3.6562328338623047,3.5820553302764893,-8.556733131408691
1173,58650.0,-3.6562328338623047,3.5820553302764893,-8.556733131408691
1174,58700.0,-3.6562328338623047,3.5820553302764893,-8.556733131408691
1175,58750.0,-3.230310440063477,2.3784656524658203,-9.145368576049805
1176,58800.0,-3.230310440063477,2.3784656524658203,-9.145368576049805
1177,58850.0,-3.230310440063477,2.3784656524658203,-9.145368576049805
1178,58900.0,-3.230310440063477,2.3784656524658203,-9.145368576049805
1179,58950.0,-3.230310440063477,2.3784656524658203,-9.145368576049805
1180,59000.0,-3.168097257614136,1.66301167011261,-9.286543846130373
1181,59050.0,-3.168097257614136,1.66301167011261,-9.286543846130373
1182,59100.0,-3.168097257614136,1.66301167011261,-9.286543846130373
1183,59150.0,-3.168097257614136,1.66301167011261,-9.286543846130373
1184,59200.0,-3.5461630821228027,1.37587308883667,-8.987441062927246
1185,59250.0,-3.5461630821228027,1.37587308883667,-8.987441062927246
1186,59300.0,-3.5461630821228027,1.37587308883667,-8.987441062927246
1187,59350.0,-3.5461630821228027,1.37587308883667,-8.987441062927246
1188,59400.0,-3.5461630821228027,1.37587308883667,-8.987441062927246
1189,59450.0,-3.5270204544067383,1.6247265338897705,-9.425328254699707
1190,59500.0,-3.5270204544067383,1.6247265338897705,-9.425328254699707
1191,59550.0,-3.5270204544067383,1.6247265338897705,-9.425328254699707
1192,59600.0,-3.5270204544067383,1.6247265338897705,-9.425328254699707
1193,59650.0,-3.1824538707733154,1.8305093050003047,-9.116654396057127
1194,59700.0,-3.1824538707733154,1.8305093050003047,-9.116654396057127
1195,59750.0,-3.1824538707733154,1.8305093050003047,-9.116654396057127
1196,59800.0,-3.1824538707733154,1.8305093050003047,-9.116654396057127
1197,59850.0,-3.1824538707733154,1.8305093050003047,-9.116654396057127
1198,59900.0,-3.369094133377075,1.8999011516571045,-8.83669376373291
1199,59950.0,-3.369094133377075,1.8999011516571045,-8.83669376373291
1200,60000.0,-3.369094133377075,1.8999011516571045,-8.83669376373291
1201,60050.0,-3.369094133377075,1.8999011516571045,-8.83669376373291
1202,60100.0,-3.369094133377075,1.8999011516571045,-8.83669376373291
1203,60150.0,-3.1728827953338623,1.935793399810791,-8.71466064453125
1204,60200.0,-3.1728827953338623,1.935793399810791,-8.71466064453125
1205,60250.0,-3.1728827953338623,1.935793399810791,-8.71466064453125
1206,60300.0,-3.1728827953338623,1.935793399810791,-8.71466064453125
1207,60350.0,-3.1728827953338623,1.935793399810791,-8.71466064453125
1208,60400.0,-3.086741209030152,1.2993026971817017,-9.339186668395996
1209,60450.0,-3.086741209030152,1.2993026971817017,-9.339186668395996
1210,60500.0,-3.086741209030152,1.2993026971817017,-9.339186668395996
1211,60550.0,-3.086741209030152,1.2993026971817017,-9.339186668395996
1212,60600.0,-3.1250264644622803,1.5385849475860596,-8.913264274597168
1213,60650.0,-3.1250264644622803,1.5385849475860596,-8.913264274597168
1214,60700.0,-3.1250264644622803,1.5385849475860596,-8.913264274597168
1215,60750.0,-3.1250264644622803,1.5385849475860596,-8.913264274597168
1216,60800.0,-3.1250264644622803,1.5385849475860596,-8.913264274597168
1217,60850.0,-3.16331148147583,1.5864413976669312,-8.848658561706543
1218,60900.0,-3.16331148147583,1.5864413976669312,-8.848658561706543
1219,60950.0,-3.16331148147583,1.5864413976669312,-8.848658561706543
1220,61000.0,-3.16331148147583,1.5864413976669312,-8.848658561706543
1221,61050.0,-3.16331148147583,1.5864413976669312,-8.848658561706543
1222,61100.0,-3.426522016525269,1.6821542978286743,-9.028119087219238
1223,61150.0,-3.426522016525269,1.6821542978286743,-9.028119087219238
1224,61200.0,-3.426522016525269,1.6821542978286743,-9.028119087219238
1225,61250.0,-3.426522016525269,1.6821542978286743,-9.028119087219238
1226,61300.0,-3.426522016525269,1.6821542978286743,-9.028119087219238
1227,61350.0,-3.455235719680786,1.782652735710144,-8.798408508300781
1228,61400.0,-3.455235719680786,1.782652735710144,-8.798408508300781
1229,61450.0,-3.455235719680786,1.782652735710144,-8.798408508300781
1230,61500.0,-3.455235719680786,1.782652735710144,-8.798408508300781
1231,61550.0,-3.6323046684265137,1.6845470666885376,-8.824729919433594
1232,61600.0,-3.6323046684265137,1.6845470666885376,-8.824729919433594
1233,61650.0,-3.6323046684265137,1.6845470666885376,-8.824729919433594
1234,61700.0,-3.6323046684265137,1.6845470666885376,-8.824729919433594
1235,61750.0,-3.6323046684265137,1.6845470666885376,-8.824729919433594
1236,61800.0,-3.5270204544067383,1.6654045581817627,-8.841480255126953
1237,61850.0,-3.5270204544067383,1.6654045581817627,-8.841480255126953
1238,61900.0,-3.5270204544067383,1.6654045581817627,-8.841480255126953
1239,61950.0,-3.5270204544067383,1.6654045581817627,-8.841480255126953
1240,62000.0,-3.5270204544067383,1.6654045581817627,-8.841480255126953
1241,62050.0,-3.5126638412475586,1.7132610082626345,-8.908478736877441
1242,62100.0,-3.5126638412475586,1.7132610082626345,-8.908478736877441
1243,62150.0,-3.5126638412475586,1.7132610082626345,-8.908478736877441
1244,62200.0,-3.5126638412475586,1.7132610082626345,-8.908478736877441
1245,62250.0,-3.5126638412475586,1.7132610082626345,-8.908478736877441
1246,62300.0,-3.479164123535156,1.519442439079285,-8.980262756347656
1247,62350.0,-3.479164123535156,1.519442439079285,-8.980262756347656
1248,62400.0,-3.479164123535156,1.519442439079285,-8.980262756347656
1249,62450.0,-3.479164123535156,1.519442439079285,-8.980262756347656
1250,62500.0,-3.479164123535156,1.519442439079285,-8.980262756347656
1251,62550.0,-3.421736478805542,1.6199408769607544,-8.918049812316895
1252,62600.0,-3.421736478805542,1.6199408769607544,-8.918049812316895
1253,62650.0,-3.421736478805542,1.6199408769607544,-8.918049812316895
1254,62700.0,-3.421736478805542,1.6199408769607544,-8.918049812316895
1255,62750.0,-3.517449140548706,1.6390833854675293,-8.992227554321289
1256,62800.0,-3.517449140548706,1.6390833854675293,-8.992227554321289
1257,62850.0,-3.517449140548706,1.6390833854675293,-8.992227554321289
1258,62900.0,-3.517449140548706,1.6390833854675293,-8.992227554321289
1259,62950.0,-3.517449140548706,1.6390833854675293,-8.992227554321289
1260,63000.0,-3.483949899673462,1.7180466651916504,-8.896513938903809
1261,63050.0,-3.483949899673462,1.7180466651916504,-8.896513938903809
1262,63100.0,-3.483949899673462,1.7180466651916504,-8.896513938903809
1263,63150.0,-3.483949899673462,1.7180466651916504,-8.896513938903809
1264,63200.0,-3.479164123535156,1.5792629718780518,-8.980262756347656
1265,63250.0,-3.479164123535156,1.5792629718780518,-8.980262756347656
1266,63300.0,-3.479164123535156,1.5792629718780518,-8.980262756347656
1267,63350.0,-3.479164123535156,1.5792629718780518,-8.980262756347656
1268,63400.0,-3.479164123535156,1.5792629718780518,-8.980262756347656
1269,63450.0,-3.507878065109253,1.6701902151107788,-8.901299476623535
1270,63500.0,-3.507878065109253,1.6701902151107788,-8.901299476623535
1271,63550.0,-3.507878065109253,1.6701902151107788,-8.901299476623535
1272,63600.0,-3.507878065109253,1.6701902151107788,-8.901299476623535
1273,63650.0,-3.464807271957397,1.643869161605835,-8.824729919433594
1274,63700.0,-3.464807271957397,1.643869161605835,-8.824729919433594
1275,63750.0,-3.464807271957397,1.643869161605835,-8.824729919433594
1276,63800.0,-3.464807271957397,1.643869161605835,-8.824729919433594
1277,63850.0,-3.464807271957397,1.643869161605835,-8.824729919433594
1278,63900.0,-3.455235719680786,1.641476273536682,-8.874979019165039
1279,63950.0,-3.455235719680786,1.641476273536682,-8.874979019165039
1280,64000.0,-3.455235719680786,1.641476273536682,-8.874979019165039
1281,64050.0,-3.455235719680786,1.641476273536682,-8.874979019165039
1282,64100.0,-3.531806230545044,1.741974949836731,-8.781659126281737
1283,64150.0,-3.531806230545044,1.741974949836731,-8.781659126281737
1284,64200.0,-3.531806230545044,1.741974949836731,-8.781659126281737
1285,64250.0,-3.531806230545044,1.741974949836731,-8.781659126281737
1286,64300.0,-3.531806230545044,1.741974949836731,-8.781659126281737
1287,64350.0,-3.5030922889709477,1.6079767942428589,-8.791230201721191
1288,64400.0,-3.5030922889709477,1.6079767942428589,-8.791230201721191
1289,64450.0,-3.5030922889709477,1.6079767942428589,-8.791230201721191
1290,64500.0,-3.5030922889709477,1.6079767942428589,-8.791230201721191
1291,64550.0,-3.5509488582611084,1.588834285736084,-8.83669376373291
1292,64600.0,-3.5509488582611084,1.588834285736084,-8.83669376373291
1293,64650.0,-3.5509488582611084,1.588834285736084,-8.83669376373291
1294,64700.0,-3.5509488582611084,1.588834285736084,-8.83669376373291
1295,64750.0,-3.5509488582611084,1.588834285736084,-8.83669376373291
1296,64800.0,-3.5700912475585938,1.727617859840393,-8.662017822265625
1297,64850.0,-3.5700912475585938,1.727617859840393,-8.662017822265625
1298,64900.0,-3.5700912475585938,1.727617859840393,-8.662017822265625
1299,64950.0,-3.5700912475585938,1.727617859840393,-8.662017822265625
1300,65000.0,-3.5700912475585938,1.727617859840393,-8.662017822265625
1301,65050.0,-3.4743783473968506,1.6175479888916016,-9.035298347473145
1302,65100.0,-3.4743783473968506,1.6175479888916016,-9.035298347473145
1303,65150.0,-3.4743783473968506,1.6175479888916016,-9.035298347473145
1304,65200.0,-3.4743783473968506,1.6175479888916016,-9.035298347473145
1305,65250.0,-3.4743783473968506,1.6175479888916016,-9.035298347473145
1306,65300.0,-3.5461630821228027,1.0815558433532717,-9.80100154876709
1307,65350.0,-3.5461630821228027,1.0815558433532717,-9.80100154876709
1308,65400.0,-3.5461630821228027,1.0815558433532717,-9.80100154876709
1309,65450.0,-3.5461630821228027,1.0815558433532717,-9.80100154876709
1310,65500.0,-3.5461630821228027,1.0815558433532717,-9.80100154876709
1311,65550.0,-2.9671001434326167,2.1990041732788086,-9.384650230407717
1312,65600.0,-2.9671001434326167,2.1990041732788086,-9.384650230407717
1313,65650.0,-2.9671001434326167,2.1990041732788086,-9.384650230407717
1314,65700.0,-2.9671001434326167,2.1990041732788086,-9.384650230407717
1315,65750.0,-3.1250264644622803,1.6725829839706419,-9.047262191772461
1316,65800.0,-3.1250264644622803,1.6725829839706419,-9.047262191772461
1317,65850.0,-3.1250264644622803,1.6725829839706419,-9.047262191772461
1318,65900.0,-3.1250264644622803,1.6725829839706419,-9.047262191772461
1319,65950.0,-3.1250264644622803,1.6725829839706419,-9.047262191772461
1320,66000.0,-3.16331148147583,1.6582260131835938,-9.131011009216307
1321,66050.0,-3.16331148147583,1.6582260131835938,-9.131011009216307
1322,66100.0,-3.16331148147583,1.6582260131835938,-9.131011009216307
1323,66150.0,-3.16331148147583,1.6582260131835938,-9.131011009216307
1324,66200.0,-3.16331148147583,1.6582260131835938,-9.131011009216307
1325,66250.0,-3.1968109607696533,1.6007983684539795,-8.999405860900879
1326,66300.0,-3.1968109607696533,1.6007983684539795,-8.999405860900879
1327,66350.0,-3.1968109607696533,1.6007983684539795,-8.999405860900879
1328,66400.0,-3.1968109607696533,1.6007983684539795,-8.999405860900879
1329,66450.0,-3.1968109607696533,1.6007983684539795,-8.999405860900879
1330,66500.0,-3.259024381637573,1.6462620496749878,-9.090332984924316
1331,66550.0,-3.259024381637573,1.6462620496749878,-9.090332984924316
1332,66600.0,-3.259024381637573,1.6462620496749878,-9.090332984924316
1333,66650.0,-3.259024381637573,1.6462620496749878,-9.090332984924316
1334,66700.0,-3.187239646911621,1.6127625703811646,-8.975478172302246
1335,66750.0,-3.187239646911621,1.6127625703811646,-8.975478172302246
1336,66800.0,-3.187239646911621,1.6127625703811646,-8.975478172302246
1337,66850.0,-3.187239646911621,1.6127625703811646,-8.975478172302246
1338,66900.0,-3.187239646911621,1.6127625703811646,-8.975478172302246
1339,66950.0,-3.273381233215332,1.6199408769607544,-9.028119087219238
1340,67000.0,-3.273381233215332,1.6199408769607544,-9.028119087219238
1341,67050.0,-3.273381233215332,1.6199408769607544,-9.028119087219238
1342,67100.0,-3.273381233215332,1.6199408769607544,-9.028119087219238
1343,67150.0,-3.273381233215332,1.6199408769607544,-9.028119087219238
1344,67200.0,-3.28773832321167,1.722832441329956,-8.858229637145996
1345,67250.0,-3.28773832321167,1.722832441329956,-8.858229637145996
1346,67300.0,-3.28773832321167,1.722832441329956,-8.858229637145996
1347,67350.0,-3.28773832321167,1.722832441329956,-8.858229637145996
1348,67400.0,-3.28773832321167,1.722832441329956,-8.858229637145996
1349,67450.0,-3.3978083133697514,1.7635102272033691,-8.791230201721191
1350,67500.0,-3.3978083133697514,1.7635102272033691,-8.791230201721191
1351,67550.0,-3.3978083133697514,1.7635102272033691,-8.791230201721191
1352,67600.0,-3.3978083133697514,1.7635102272033691,-8.791230201721191
1353,67650.0,-3.3978083133697514,1.7635102272033691,-8.791230201721191
1354,67700.0,-3.206382274627685,1.7539390325546265,-8.86780071258545
1355,67750.0,-3.206382274627685,1.7539390325546265,-8.86780071258545
1356,67800.0,-3.206382274627685,1.7539390325546265,-8.86780071258545
1357,67850.0,-3.206382274627685,1.7539390325546265,-8.86780071258545
1358,67900.0,-3.4073793888092037,1.761117458343506,-8.922836303710938
1359,67950.0,-3.4073793888092037,1.761117458343506,-8.922836303710938
1360,68000.0,-3.4073793888092037,1.761117458343506,-8.922836303710938
1361,68050.0,-3.4073793888092037,1.761117458343506,-8.922836303710938
1362,68100.0,-3.4073793888092037,1.761117458343506,-8.922836303710938
1363,68150.0,-3.2829525470733643,1.8400806188583372,-9.133403778076172
1364,68200.0,-3.2829525470733643,1.8400806188583372,-9.133403778076172
1365,68250.0,-3.2829525470733643,1.8400806188583372,-9.133403778076172
1366,68300.0,-3.2829525470733643,1.8400806188583372,-9.133403778076172
1367,68350.0,-3.2829525470733643,1.8400806188583372,-9.133403778076172
1368,68400.0,-3.268595933914185,1.7252250909805298,-9.059226989746094
1369,68450.0,-3.268595933914185,1.7252250909805298,-9.059226989746094
1370,68500.0,-3.268595933914185,1.7252250909805298,-9.059226989746094
1371,68550.0,-3.268595933914185,1.7252250909805298,-9.059226989746094
1372,68600.0,-3.268595933914185,1.7252250909805298,-9.059226989746094
1373,68650.0,-3.292524099349976,1.6007983684539795,-9.140583038330078
1374,68700.0,-3.292524099349976,1.6007983684539795,-9.140583038330078
1375,68750.0,-3.292524099349976,1.6007983684539795,-9.140583038330078
1376,68800.0,-3.292524099349976,1.6007983684539795,-9.140583038330078
1377,68850.0,-3.292524099349976,1.6007983684539795,-9.140583038330078
1378,68900.0,-3.235095977783203,1.636690616607666,-8.987441062927246
1379,68950.0,-3.235095977783203,1.636690616607666,-8.987441062927246
1380,69000.0,-3.235095977783203,1.636690616607666,-8.987441062927246
1381,69050.0,-3.235095977783203,1.636690616607666,-8.987441062927246
1382,69100.0,-3.2973096370697017,1.6175479888916016,-8.944371223449707
1383,69150.0,-3.2973096370697017,1.6175479888916016,-8.944371223449707
1384,69200.0,-3.2973096370697017,1.6175479888916016,-8.944371223449707
1385,69250.0,-3.2973096370697017,1.6175479888916016,-8.944371223449707
1386,69300.0,-3.2973096370697017,1.6175479888916016,-8.944371223449707
1387,69350.0,-3.2207393646240234,1.5912269353866575,-8.968299865722656
1388,69400.0,-3.2207393646240234,1.5912269353866575,-8.968299865722656
1389,69450.0,-3.2207393646240234,1.5912269353866575,-8.968299865722656
1390,69500.0,-3.2207393646240234,1.5912269353866575,-8.968299865722656
1391,69550.0,-3.2207393646240234,1.5912269353866575,-8.968299865722656
1392,69600.0,-3.239881753921509,1.526620864868164,-9.12383270263672
1393,69650.0,-3.239881753921509,1.526620864868164,-9.12383270263672
1394,69700.0,-3.239881753921509,1.526620864868164,-9.12383270263672
1395,69750.0,-3.239881753921509,1.526620864868164,-9.12383270263672
1396,69800.0,-3.239881753921509,1.526620864868164,-9.12383270263672
1397,69850.0,-3.3547375202178955,1.5433706045150757,-9.379864692687988
1398,69900.0,-3.3547375202178955,1.5433706045150757,-9.379864692687988
1399,69950.0,-3.3547375202178955,1.5433706045150757,-9.379864692687988
1400,70000.0,-3.3547375202178955,1.5433706045150757,-9.379864692687988
1401,70050.0,-3.3547375202178955,1.5433706045150757,-9.379864692687988
1402,70100.0,-3.268595933914185,1.5768700838088991,-9.31047248840332
1403,70150.0,-3.268595933914185,1.5768700838088991,-9.31047248840332
1404,70200.0,-3.268595933914185,1.5768700838088991,-9.31047248840332
1405,70250.0,-3.268595933914185,1.5768700838088991,-9.31047248840332
1406,70300.0,-3.2542388439178467,1.5433706045150757,-9.174081802368164
1407,70350.0,-3.2542388439178467,1.5433706045150757,-9.174081802368164
1408,70400.0,-3.2542388439178467,1.5433706045150757,-9.174081802368164
1409,70450.0,-3.2542388439178467,1.5433706045150757,-9.174081802368164
1410,70500.0,-3.2542388439178467,1.5433706045150757,-9.174081802368164
1411,70550.0,-3.1968109607696533,1.5433706045150757,-9.128618240356444
1412,70600.0,-3.1968109607696533,1.5433706045150757,-9.128618240356444
1413,70650.0,-3.1968109607696533,1.5433706045150757,-9.128618240356444
1414,70700.0,-3.1968109607696533,1.5433706045150757,-9.128618240356444
1415,70750.0,-3.1968109607696533,1.5433706045150757,-9.128618240356444
1416,70800.0,-3.1345977783203125,1.5409778356552124,-8.98265552520752
1417,70850.0,-3.1345977783203125,1.5409778356552124,-8.98265552520752
1418,70900.0,-3.1345977783203125,1.5409778356552124,-8.98265552520752
1419,70950.0,-3.1345977783203125,1.5409778356552124,-8.98265552520752
1420,71000.0,-3.1345977783203125,1.5409778356552124,-8.98265552520752
1421,71050.0,-3.1968109607696533,1.5074783563613892,-8.930014610290527
1422,71100.0,-3.1968109607696533,1.5074783563613892,-8.930014610290527
1423,71150.0,-3.1968109607696533,1.5074783563613892,-8.930014610290527
1424,71200.0,-3.1968109607696533,1.5074783563613892,-8.930014610290527
1425,71250.0,-3.1968109607696533,1.5074783563613892,-8.930014610290527
1426,71300.0,-3.2207393646240234,1.5601203441619873,-9.042476654052734
1427,71350.0,-3.2207393646240234,1.5601203441619873,-9.042476654052734
1428,71400.0,-3.2207393646240234,1.5601203441619873,-9.042476654052734
1429,71450.0,-3.2207393646240234,1.5601203441619873,-9.042476654052734
1430,71500.0,-3.1585259437561035,1.6893328428268433,-9.035298347473145
1431,71550.0,-3.1585259437561035,1.6893328428268433,-9.035298347473145
1432,71600.0,-3.1585259437561035,1.6893328428268433,-9.035298347473145
1433,71650.0,-3.1585259437561035,1.6893328428268433,-9.035298347473145
1434,71700.0,-3.1585259437561035,1.6893328428268433,-9.035298347473145
1435,71750.0,-3.1489543914794917,1.6031911373138428,-9.049654960632324
1436,71800.0,-3.1489543914794917,1.6031911373138428,-9.049654960632324
1437,71850.0,-3.1489543914794917,1.6031911373138428,-9.049654960632324
1438,71900.0,-3.1489543914794917,1.6031911373138428,-9.049654960632324
1439,71950.0,-3.1489543914794917,1.6031911373138428,-9.049654960632324
1440,72000.0,-3.2255251407623287,1.5792629718780518,-9.087940216064453
1441,72050.0,-3.2255251407623287,1.5792629718780518,-9.087940216064453
1442,72100.0,-3.2255251407623287,1.5792629718780518,-9.087940216064453
1443,72150.0,-3.2255251407623287,1.5792629718780518,-9.087940216064453
1444,72200.0,-3.2255251407623287,1.5792629718780518,-9.087940216064453
1445,72250.0,-3.168097257614136,1.514656662940979,-9.078369140625
1446,72300.0,-3.168097257614136,1.514656662940979,-9.078369140625
1447,72350.0,-3.168097257614136,1.514656662940979,-9.078369140625
1448,72400.0,-3.168097257614136,1.514656662940979,-9.078369140625
1449,72450.0,-3.168097257614136,1.514656662940979,-9.078369140625
1450,72500.0,-3.1585259437561035,1.550549030303955,-8.965906143188477
1451,72550.0,-3.1585259437561035,1.550549030303955,-8.965906143188477
1452,72600.0,-3.1585259437561035,1.550549030303955,-8.965906143188477
1453,72650.0,-3.1585259437561035,1.550549030303955,-8.965906143188477
1454,72700.0,-3.211168050765991,1.56969153881073,-9.025726318359377
1455,72750.0,-3.211168050765991,1.56969153881073,-9.025726318359377
1456,72800.0,-3.211168050765991,1.56969153881073,-9.025726318359377
1457,72850.0,-3.211168050765991,1.56969153881073,-9.025726318359377
1458,72900.0,-3.1968109607696533,1.5792629718780518,-9.166903495788574
1459,72950.0,-3.1968109607696533,1.5792629718780518,-9.166903495788574
1460,73000.0,-3.1968109607696533,1.5792629718780518,-9.166903495788574
1461,73050.0,-3.1968109607696533,1.5792629718780518,-9.166903495788574
1462,73100.0,-3.1968109607696533,1.5792629718780518,-9.166903495788574
1463,73150.0,-3.1824538707733154,1.6055840253829956,-8.968299865722656
1464,73200.0,-3.1824538707733154,1.6055840253829956,-8.968299865722656
1465,73250.0,-3.1824538707733154,1.6055840253829956,-8.968299865722656
1466,73300.0,-3.1824538707733154,1.6055840253829956,-8.968299865722656
1467,73350.0,-3.1824538707733154,1.6055840253829956,-8.968299865722656
1468,73400.0,-3.005385160446167,1.3399806022644043,-9.23390293121338
1469,73450.0,-3.005385160446167,1.3399806022644043,-9.23390293121338
1470,73500.0,-3.005385160446167,1.3399806022644043,-9.23390293121338
1471,73550.0,-3.005385160446167,1.3399806022644043,-9.23390293121338
1472,73600.0,-3.005385160446167,1.3399806022644043,-9.23390293121338
1473,73650.0,-2.9623143672943115,1.2346963882446291,-9.279366493225098
1474,73700.0,-2.9623143672943115,1.2346963882446291,-9.279366493225098
1475,73750.0,-2.9623143672943115,1.2346963882446291,-9.279366493225098
1476,73800.0,-2.9623143672943115,1.2346963882446291,-9.279366493225098
1477,73850.0,-2.9623143672943115,1.2346963882446291,-9.279366493225098
1478,73900.0,-3.34995174407959,1.8113667964935305,-8.930014610290527
1479,73950.0,-3.34995174407959,1.8113667964935305,-8.930014610290527
1480,74000.0,-3.34995174407959,1.8113667964935305,-8.930014610290527
1481,74050.0,-3.34995174407959,1.8113667964935305,-8.930014610290527
1482,74100.0,-3.1824538707733154,1.4045867919921875,-9.183652877807617
1483,74150.0,-3.1824538707733154,1.4045867919921875,-9.183652877807617
1484,74200.0,-3.1824538707733154,1.4045867919921875,-9.183652877807617
1485,74250.0,-3.1824538707733154,1.4045867919921875,-9.183652877807617
1486,74300.0,-3.1824538707733154,1.4045867919921875,-9.183652877807617
1487,74350.0,-3.2446675300598145,1.497907042503357,-9.11426067352295
1488,74400.0,-3.2446675300598145,1.497907042503357,-9.11426067352295
1489,74450.0,-3.2446675300598145,1.497907042503357,-9.11426067352295
1490,74500.0,-3.2446675300598145,1.497907042503357,-9.11426067352295
1491,74550.0,-3.2446675300598145,1.497907042503357,-9.11426067352295
1492,74600.0,-3.16331148147583,1.4524433612823486,-9.11426067352295
1493,74650.0,-3.16331148147583,1.4524433612823486,-9.11426067352295
1494,74700.0,-3.16331148147583,1.4524433612823486,-9.11426067352295
1495,74750.0,-3.16331148147583,1.4524433612823486,-9.11426067352295
1496,74800.0,-3.16331148147583,1.4524433612823486,-9.11426067352295
1497,74850.0,-3.1728827953338623,1.3399806022644043,-9.174081802368164
1498,74900.0,-3.1728827953338623,1.3399806022644043,-9.174081802368164
1499,74950.0,-3.1728827953338623,1.3399806022644043,-9.174081802368164
1500,75000.0,-3.1728827953338623,1.3399806022644043,-9.174081802368164
1501,75050.0,-3.1728827953338623,1.3399806022644043,-9.174081802368164
1502,75100.0,-3.249453067779541,1.428515076637268,-9.099905014038086
1503,75150.0,-3.249453067779541,1.428515076637268,-9.099905014038086
1504,75200.0,-3.249453067779541,1.428515076637268,-9.099905014038086
1505,75250.0,-3.249453067779541,1.428515076637268,-9.099905014038086
1506,75300.0,-3.1058835983276367,1.4333008527755735,-9.128618240356444
1507,75350.0,-3.1058835983276367,1.4333008527755735,-9.128618240356444
1508,75400.0,-3.1058835983276367,1.4333008527755735,-9.128618240356444
1509,75450.0,-3.1058835983276367,1.4333008527755735,-9.128618240356444
1510,75500.0,-3.1058835983276367,1.4333008527755735,-9.128618240356444
1511,75550.0,-2.7278177738189697,1.241874933242798,-9.336793899536133
1512,75600.0,-2.7278177738189697,1.241874933242798,-9.336793899536133
1513,75650.0,-2.7278177738189697,1.241874933242798,-9.336793899536133
1514,75700.0,-2.7278177738189697,1.241874933242798,-9.336793899536133
1515,75750.0,-2.7278177738189697,1.241874933242798,-9.336793899536133
1516,75800.0,-2.756531953811645,1.3136597871780396,-9.12383270263672
1517,75850.0,-2.756531953811645,1.3136597871780396,-9.12383270263672
1518,75900.0,-2.756531953811645,1.3136597871780396,-9.12383270263672
1519,75950.0,-2.756531953811645,1.3136597871780396,-9.12383270263672
1520,76000.0,-2.799602746963501,1.308874011039734,-9.169296264648438
1521,76050.0,-2.799602746963501,1.308874011039734,-9.169296264648438
1522,76100.0,-2.799602746963501,1.308874011039734,-9.169296264648438
1523,76150.0,-2.799602746963501,1.308874011039734,-9.169296264648438
1524,76200.0,-2.799602746963501,1.308874011039734,-9.169296264648438
1525,76250.0,-2.770888566970825,1.6103696823120115,-8.513663291931152
1526,76300.0,-2.770888566970825,1.6103696823120115,-8.513663291931152
1527,76350.0,-2.770888566970825,1.6103696823120115,-8.513663291931152
1528,76400.0,-2.770888566970825,1.6103696823120115,-8.513663291931152
1529,76450.0,-2.770888566970825,1.6103696823120115,-8.513663291931152
1530,76500.0,-2.8043880462646484,1.6917256116867063,-9.650253295898438
1531,76550.0,-2.8043880462646484,1.6917256116867063,-9.650253295898438
1532,76600.0,-2.8043880462646484,1.6917256116867063,-9.650253295898438
1533,76650.0,-2.8043880462646484,1.6917256116867063,-9.650253295898438
1534,76700.0,-2.8043880462646484,1.6917256116867063,-9.650253295898438
1535,76750.0,-3.0436704158782963,2.1511476039886475,-9.18843936920166
1536,76800.0,-3.0436704158782963,2.1511476039886475,-9.18843936920166
1537,76850.0,-3.0436704158782963,2.1511476039886475,-9.18843936920166
1538,76900.0,-3.0436704158782963,2.1511476039886475,-9.18843936920166
1539,76950.0,-3.0436704158782963,2.1511476039886475,-9.18843936920166
1540,77000.0,-3.5270204544067383,3.395415067672729,-8.415557861328125
1541,77050.0,-3.5270204544067383,3.395415067672729,-8.415557861328125
1542,77100.0,-3.5270204544067383,3.395415067672729,-8.415557861328125
1543,77150.0,-3.5270204544067383,3.395415067672729,-8.415557861328125
1544,77200.0,-3.9146575927734375,4.180261135101318,-8.030312538146973
1545,77250.0,-3.9146575927734375,4.180261135101318,-8.030312538146973
1546,77300.0,-3.9146575927734375,4.180261135101318,-8.030312538146973
1547,77350.0,-3.9146575927734375,4.180261135101318,-8.030312538146973
1548,77400.0,-3.9146575927734375,4.180261135101318,-8.030312538146973
1549,77450.0,-5.752345561981201,2.833101987838745,-7.094719409942628
1550,77500.0,-5.752345561981201,2.833101987838745,-7.094719409942628
1551,77550.0,-5.752345561981201,2.833101987838745,-7.094719409942628
1552,77600.0,-5.752345561981201,2.833101987838745,-7.094719409942628
1553,77650.0,-5.752345561981201,2.833101987838745,-7.094719409942628
1554,77700.0,-5.182853698730469,2.715853452682495,-6.62333345413208
1555,77750.0,-5.182853698730469,2.715853452682495,-6.62333345413208
1556,77800.0,-5.182853698730469,2.715853452682495,-6.62333345413208
1557,77850.0,-5.182853698730469,2.715853452682495,-6.62333345413208
1558,77900.0,-5.182853698730469,2.715853452682495,-6.62333345413208
1559,77950.0,-3.0484561920166016,0.3110669553279877,-9.504291534423828
1560,78000.0,-3.0484561920166016,0.3110669553279877,-9.504291534423828
1561,78050.0,-3.0484561920166016,0.3110669553279877,-9.504291534423828
1562,78100.0,-3.0484561920166016,0.3110669553279877,-9.504291534423828
1563,78150.0,-2.00518536567688,0.9786643981933594,-10.16710376739502
1564,78200.0,-2.00518536567688,0.9786643981933594,-10.16710376739502
1565,78250.0,-2.00518536567688,0.9786643981933594,-10.16710376739502
1566,78300.0,-2.00518536567688,0.9786643981933594,-10.16710376739502
1567,78350.0,-2.00518536567688,0.9786643981933594,-10.16710376739502
1568,78400.0,-2.89052963256836,-0.2273181527853012,-9.437292098999023
1569,78450.0,-2.89052963256836,-0.2273181527853012,-9.437292098999023
1570,78500.0,-2.89052963256836,-0.2273181527853012,-9.437292098999023
1571,78550.0,-2.89052963256836,-0.2273181527853012,-9.437292098999023
1572,78600.0,-3.086741209030152,2.3617160320281982,-8.599804878234862
1573,78650.0,-3.086741209030152,2.3617160320281982,-8.599804878234862
1574,78700.0,-3.086741209030152,2.3617160320281982,-8.599804878234862
1575,78750.0,-3.086741209030152,2.3617160320281982,-8.599804878234862
1576,78800.0,-3.086741209030152,2.3617160320281982,-8.599804878234862
1577,78850.0,-3.0005996227264404,2.567498683929444,-10.00439167022705
1578,78900.0,-3.0005996227264404,2.567498683929444,-10.00439167022705
1579,78950.0,-3.0005996227264404,2.567498683929444,-10.00439167022705
1580,79000.0,-3.0005996227264404,2.567498683929444,-10.00439167022705
1581,79050.0,-3.230310440063477,2.9790639877319336,-8.606983184814451
1582,79100.0,-3.230310440063477,2.9790639877319336,-8.606983184814451
1583,79150.0,-3.230310440063477,2.9790639877319336,-8.606983184814451
1584,79200.0,-3.230310440063477,2.9790639877319336,-8.606983184814451
1585,79250.0,-3.230310440063477,2.9790639877319336,-8.606983184814451
1586,79300.0,-3.3403804302215576,3.1585259437561035,-9.080761909484863
1587,79350.0,-3.3403804302215576,3.1585259437561035,-9.080761909484863
1588,79400.0,-3.3403804302215576,3.1585259437561035,-9.080761909484863
1589,79450.0,-3.3403804302215576,3.1585259437561035,-9.080761909484863
1590,79500.0,-3.3403804302215576,3.1585259437561035,-9.080761909484863
1591,79550.0,-3.091526985168457,2.687139749526977,-8.657232284545897
1592,79600.0,-3.091526985168457,2.687139749526977,-8.657232284545897
1593,79650.0,-3.091526985168457,2.687139749526977,-8.657232284545897
1594,79700.0,-3.091526985168457,2.687139749526977,-8.657232284545897
1595,79750.0,-3.091526985168457,2.687139749526977,-8.657232284545897
1596,79800.0,-3.206382274627685,2.861815929412842,-8.640481948852539
1597,79850.0,-3.206382274627685,2.861815929412842,-8.640481948852539
1598,79900.0,-3.206382274627685,2.861815929412842,-8.640481948852539
1599,79950.0,-3.206382274627685,2.861815929412842,-8.640481948852539
1600,80000.0,-3.38823676109314,2.785245418548584,-8.755338668823242
1601,80050.0,-3.38823676109314,2.785245418548584,-8.755338668823242
1602,80100.0,-3.38823676109314,2.785245418548584,-8.755338668823242
1603,80150.0,-3.38823676109314,2.785245418548584,-8.755338668823242
1604,80200.0,-3.38823676109314,2.785245418548584,-8.755338668823242
1605,80250.0,-3.2159535884857178,2.8187451362609863,-8.614161491394043
1606,80300.0,-3.2159535884857178,2.8187451362609863,-8.614161491394043
1607,80350.0,-3.2159535884857178,2.8187451362609863,-8.614161491394043
1608,80400.0,-3.2159535884857178,2.8187451362609863,-8.614161491394043
1609,80450.0,-3.2159535884857178,2.8187451362609863,-8.614161491394043
1610,80500.0,-3.5844480991363525,3.122633695602417,-8.83669376373291
1611,80550.0,-3.5844480991363525,3.122633695602417,-8.83669376373291
1612,80600.0,-3.5844480991363525,3.122633695602417,-8.83669376373291
1613,80650.0,-3.5844480991363525,3.122633695602417,-8.83669376373291
1614,80700.0,-3.5844480991363525,3.122633695602417,-8.83669376373291
1615,80750.0,-3.464807271957397,3.0149567127227783,-8.59501838684082
1616,80800.0,-3.464807271957397,3.0149567127227783,-8.59501838684082
1617,80850.0,-3.464807271957397,3.0149567127227783,-8.59501838684082
1618,80900.0,-3.464807271957397,3.0149567127227783,-8.59501838684082
1619,80950.0,-3.383451223373413,2.9623143672943115,-8.606983184814451
1620,81000.0,-3.383451223373413,2.9623143672943115,-8.606983184814451
1621,81050.0,-3.383451223373413,2.9623143672943115,-8.606983184814451
1622,81100.0,-3.383451223373413,2.9623143672943115,-8.606983184814451
1623,81150.0,-3.383451223373413,2.9623143672943115,-8.606983184814451
1624,81200.0,-3.335594892501831,2.9838497638702397,-8.640481948852539
1625,81250.0,-3.335594892501831,2.9838497638702397,-8.640481948852539
1626,81300.0,-3.335594892501831,2.9838497638702397,-8.640481948852539
1627,81350.0,-3.335594892501831,2.9838497638702397,-8.640481948852539
1628,81400.0,-3.335594892501831,2.9838497638702397,-8.640481948852539
1629,81450.0,-3.3068809509277344,2.957528829574585,-8.870193481445312
1630,81500.0,-3.3068809509277344,2.957528829574585,-8.870193481445312
1631,81550.0,-3.3068809509277344,2.957528829574585,-8.870193481445312
1632,81600.0,-3.3068809509277344,2.957528829574585,-8.870193481445312
1633,81650.0,-3.3068809509277344,2.957528829574585,-8.870193481445312
1634,81700.0,-3.31166672706604,2.900100946426392,-8.628519058227539
1635,81750.0,-3.31166672706604,2.900100946426392,-8.628519058227539
1636,81800.0,-3.31166672706604,2.900100946426392,-8.628519058227539
1637,81850.0,-3.31166672706604,2.900100946426392,-8.628519058227539
1638,81900.0,-3.31166672706604,2.900100946426392,-8.628519058227539
1639,81950.0,-3.2542388439178467,2.8498516082763667,-8.70508861541748
1640,82000.0,-3.2542388439178467,2.8498516082763667,-8.70508861541748
1641,82050.0,-3.2542388439178467,2.8498516082763667,-8.70508861541748
1642,82100.0,-3.2542388439178467,2.8498516082763667,-8.70508861541748
1643,82150.0,-3.206382274627685,2.9383859634399414,-8.669197082519531
1644,82200.0,-3.206382274627685,2.9383859634399414,-8.669197082519531
1645,82250.0,-3.206382274627685,2.9383859634399414,-8.669197082519531
1646,82300.0,-3.206382274627685,2.9383859634399414,-8.669197082519531
1647,82350.0,-3.206382274627685,2.9383859634399414,-8.669197082519531
1648,82400.0,-3.2255251407623287,2.950350284576416,-8.781659126281737
1649,82450.0,-3.2255251407623287,2.950350284576416,-8.781659126281737
1650,82500.0,-3.2255251407623287,2.950350284576416,-8.781659126281737
1651,82550.0,-3.2255251407623287,2.950350284576416,-8.781659126281737
1652,82600.0,-3.2255251407623287,2.950350284576416,-8.781659126281737
1653,82650.0,-3.3068809509277344,2.861815929412842,-8.85105037689209
1654,82700.0,-3.3068809509277344,2.861815929412842,-8.85105037689209
1655,82750.0,-3.3068809509277344,2.861815929412842,-8.85105037689209
1656,82800.0,-3.3068809509277344,2.861815929412842,-8.85105037689209
1657,82850.0,-3.3068809509277344,2.861815929412842,-8.85105037689209
1658,82900.0,-3.2159535884857178,2.940778970718384,-8.61894702911377
1659,82950.0,-3.2159535884857178,2.940778970718384,-8.61894702911377
1660,83000.0,-3.2159535884857178,2.940778970718384,-8.61894702911377
1661,83050.0,-3.2159535884857178,2.940778970718384,-8.61894702911377
1662,83100.0,-3.2159535884857178,2.940778970718384,-8.61894702911377
1663,83150.0,-3.268595933914185,2.964707374572754,-8.626125335693361
1664,83200.0,-3.268595933914185,2.964707374572754,-8.626125335693361
1665,83250.0,-3.268595933914185,2.964707374572754,-8.626125335693361
1666,83300.0,-3.268595933914185,2.964707374572754,-8.626125335693361
1667,83350.0,-3.2973096370697017,2.943171739578247,-8.578269004821777
1668,83400.0,-3.2973096370697017,2.943171739578247,-8.578269004821777
1669,83450.0,-3.2973096370697017,2.943171739578247,-8.578269004821777
1670,83500.0,-3.2973096370697017,2.943171739578247,-8.578269004821777
1671,83550.0,-3.2973096370697017,2.943171739578247,-8.578269004821777
1672,83600.0,-3.249453067779541,2.919243574142456,-8.61176872253418
1673,83650.0,-3.249453067779541,2.919243574142456,-8.61176872253418
1674,83700.0,-3.249453067779541,2.919243574142456,-8.61176872253418
1675,83750.0,-3.249453067779541,2.919243574142456,-8.61176872253418
1676,83800.0,-3.249453067779541,2.919243574142456,-8.61176872253418
1677,83850.0,-3.2829525470733643,2.9527432918548584,-8.841480255126953
1678,83900.0,-3.2829525470733643,2.9527432918548584,-8.841480255126953
1679,83950.0,-3.2829525470733643,2.9527432918548584,-8.841480255126953
1680,84000.0,-3.2829525470733643,2.9527432918548584,-8.841480255126953
1681,84050.0,-3.2829525470733643,2.9527432918548584,-8.841480255126953
1682,84100.0,-3.273381233215332,2.9264223575592037,-8.724230766296388
1683,84150.0,-3.273381233215332,2.9264223575592037,-8.724230766296388
1684,84200.0,-3.273381233215332,2.9264223575592037,-8.724230766296388
1685,84250.0,-3.273381233215332,2.9264223575592037,-8.724230766296388
1686,84300.0,-3.273381233215332,2.9264223575592037,-8.724230766296388
1687,84350.0,-3.259024381637573,2.9168508052825928,-8.652446746826174
1688,84400.0,-3.259024381637573,2.9168508052825928,-8.652446746826174
1689,84450.0,-3.259024381637573,2.9168508052825928,-8.652446746826174
1690,84500.0,-3.259024381637573,2.9168508052825928,-8.652446746826174
1691,84550.0,-3.259024381637573,2.964707374572754,-8.676375389099121
1692,84600.0,-3.259024381637573,2.964707374572754,-8.676375389099121
1693,84650.0,-3.259024381637573,2.964707374572754,-8.676375389099121
1694,84700.0,-3.259024381637573,2.964707374572754,-8.676375389099121
1695,84750.0,-3.259024381637573,2.964707374572754,-8.676375389099121
1696,84800.0,-3.249453067779541,2.9551358222961426,-8.71944522857666
1697,84850.0,-3.249453067779541,2.9551358222961426,-8.71944522857666
1698,84900.0,-3.249453067779541,2.9551358222961426,-8.71944522857666
1699,84950.0,-3.249453067779541,2.9551358222961426,-8.71944522857666
1700,85000.0,-3.249453067779541,2.9551358222961426,-8.71944522857666
1701,85050.0,-3.273381233215332,2.919243574142456,-8.657232284545897
1702,85100.0,-3.273381233215332,2.919243574142456,-8.657232284545897
1703,85150.0,-3.273381233215332,2.919243574142456,-8.657232284545897
1704,85200.0,-3.273381233215332,2.919243574142456,-8.657232284545897
1705,85250.0,-3.273381233215332,2.919243574142456,-8.657232284545897
1706,85300.0,-3.2446675300598145,2.943171739578247,-8.652446746826174
1707,85350.0,-3.2446675300598145,2.943171739578247,-8.652446746826174
1708,85400.0,-3.2446675300598145,2.943171739578247,-8.652446746826174
1709,85450.0,-3.2446675300598145,2.943171739578247,-8.652446746826174
1710,85500.0,-3.2446675300598145,2.943171739578247,-8.652446746826174
1711,85550.0,-3.292524099349976,2.959921598434448,-8.566305160522461
1712,85600.0,-3.292524099349976,2.959921598434448,-8.566305160522461
1713,85650.0,-3.292524099349976,2.959921598434448,-8.566305160522461
1714,85700.0,-3.292524099349976,2.959921598434448,-8.566305160522461
1715,85750.0,-3.3164520263671875,3.0269205570220947,-8.707481384277344
1716,85800.0,-3.3164520263671875,3.0269205570220947,-8.707481384277344
1717,85850.0,-3.3164520263671875,3.0269205570220947,-8.707481384277344
1718,85900.0,-3.3164520263671875,3.0269205570220947,-8.707481384277344
1719,85950.0,-3.3164520263671875,3.0269205570220947,-8.707481384277344
1720,86000.0,-3.1441688537597656,2.885744333267212,-8.511269569396973
1721,86050.0,-3.1441688537597656,2.885744333267212,-8.511269569396973
1722,86100.0,-3.1441688537597656,2.885744333267212,-8.511269569396973
1723,86150.0,-3.1441688537597656,2.885744333267212,-8.511269569396973
1724,86200.0,-3.1441688537597656,2.885744333267212,-8.511269569396973
1725,86250.0,-3.259024381637573,2.974278450012207,-8.657232284545897
1726,86300.0,-3.259024381637573,2.974278450012207,-8.657232284545897
1727,86350.0,-3.259024381637573,2.974278450012207,-8.657232284545897
1728,86400.0,-3.259024381637573,2.974278450012207,-8.657232284545897
1729,86450.0,-3.259024381637573,2.974278450012207,-8.657232284545897
1730,86500.0,-3.259024381637573,2.914458036422729,-8.733802795410156
1731,86550.0,-3.259024381637573,2.914458036422729,-8.733802795410156
