timestamp,ax,ay,az
1481569063592,0.9619146585464478,0.7345964908599854,-10.248459815979004
1481569063795,-1.2825528383255005,5.816952228546143,-5.6207404136657715
1481569064030,3.689732551574707,4.448256969451904,-8.642874717712402
1481569064234,5.206782341003418,9.767501831054688,-8.810372352600098
1481569064435,2.3497519493103027,4.055834770202637,-8.236095428466797
1481569064675,3.13938307762146,2.7804601192474365,-9.57607650756836
1481569064876,2.9527432918548584,1.9094725847244263,-9.205188751220703
1481569065112,2.919243574142456,1.8185452222824097,-9.372685432434082
1481569065313,2.7326035499572754,2.871387243270874,-8.863015174865723
1481569065561,2.665604591369629,3.3427734375,-8.764908790588379
1481569065792,2.287538528442383,3.6681969165802,-8.654839515686035
1481569066017,2.359323024749756,3.8452658653259277,-8.592625617980957
1481569066232,2.5124638080596924,3.28773832321167,-9.075976371765137
1481569066471,2.770888566970825,2.8905296325683594,-9.375079154968262
1481569066711,2.225324869155884,6.312265872955322,-5.766702175140381
1481569066962,3.1441688537597656,5.347958564758301,-6.312265872955322
1481569067212,2.4502503871917725,7.211967468261719,-6.013163089752197
1481569067429,2.407179594039917,7.441678524017334,-5.893522262573242
1481569067669,2.3880369663238525,7.2502522468566895,-6.051448345184326
1481569067909,2.5363922119140625,7.372286796569824,-5.929414749145508
1481569068157,2.589033842086792,7.214360237121582,-5.986842632293701
1481569068358,2.3258235454559326,7.314858913421631,-6.049055576324463
1481569068586,2.431107759475708,7.1401824951171875,-6.082554817199707
1481569068796,2.4358932971954346,7.137789726257324,-6.027520179748535
1481569069007,2.579463005065918,7.190432548522949,-6.005984783172607
1481569069225,2.5746772289276123,7.302894115447998,-5.953342437744141
1481569069464,2.6608188152313232,7.2574310302734375,-6.137589931488037
1481569069704,2.5076780319213867,7.329216003417969,-5.9198431968688965
1481569069954,2.47896409034729,7.29093074798584,-5.881557941436768
1481569070204,2.550748825073242,7.477570533752441,-5.91505765914917
1481569070423,2.5698914527893066,7.274180889129639,-6.013163089752197
1481569070661,2.6225337982177734,7.3746795654296875,-5.924628734588623
1481569070864,2.5220348834991455,7.049255847930908,-6.27158784866333
1481569071095,2.5124638080596924,7.087540626525879,-6.063412666320801
1481569071301,2.47896409034729,7.274180889129639,-6.003591537475586
1481569071549,2.3545374870300293,7.774280071258545,-5.740381240844727
1481569071751,2.517249345779419,7.278966426849365,-5.905486583709717
1481569071980,2.5076780319213867,7.262216091156006,-5.982056617736816
1481569072189,2.5363922119140625,7.259823799133301,-6.001199245452881
1481569072402,2.5076780319213867,7.200003147125244,-6.017949104309082
1481569072617,2.5220348834991455,7.243074417114258,-5.982056617736816
1481569072858,2.550748825073242,7.22153902053833,-6.010770320892334
1481569073097,2.5459630489349365,7.307680606842041,-5.97727108001709
1481569073349,2.517249345779419,7.185646057128906,-5.991628170013428
1481569073575,2.526820659637451,7.197610855102539,-6.077769756317139
1481569073807,2.541177749633789,7.209574222564697,-5.989234924316406
1481569074016,2.4981069564819336,7.2574310302734375,-6.039484024047852
1481569074256,2.502892255783081,7.238288879394531,-6.044269561767578
1481569074495,2.541177749633789,7.255037784576416,-6.017949104309082
1481569074744,2.4406790733337402,7.204789161682129,-5.989234924316406
1481569074948,2.4741785526275635,7.240681171417236,-6.039484024047852
1481569075173,2.526820659637451,7.252645492553711,-5.994020462036133
1481569075380,2.5363922119140625,7.264609336853027,-6.03230619430542
1481569075615,2.493321180343628,7.207180976867676,-6.075376510620117
1481569075853,2.526820659637451,7.2574310302734375,-6.022734642028809
1481569076091,2.517249345779419,7.264609336853027,-6.03230619430542
1481569076345,2.565105676651001,6.867401123046875,-6.094519138336182
1481569076571,2.5938196182250977,6.9822564125061035,-6.324230670928955
1481569076777,2.6560330390930176,6.888936519622803,-6.424728870391846
1481569076994,2.6321046352386475,6.965506553649902,-6.288337707519531
1481569077210,2.636890411376953,6.955935001373291,-6.276373863220215
1481569077450,2.5746772289276123,7.025327682495117,-6.290730953216553
1481569077688,2.550748825073242,6.884150981903076,-6.376872539520264
1481569077937,2.526820659637451,6.781259536743164,-6.515655517578125
1481569078138,2.4981069564819336,6.814758777618408,-6.474977493286133
1481569078367,2.5220348834991455,6.831508636474609,-6.434299945831299
1481569078605,2.5220348834991455,6.850651264190674,-6.496513843536377
1481569078845,2.5076780319213867,6.829115867614746,-6.52044153213501
1481569079086,2.5076780319213867,6.781259536743164,-6.530013084411621
1481569079337,2.4981069564819336,6.963113307952881,-6.455835819244385
1481569079587,2.6560330390930176,6.805188179016113,-6.386443614959717
1481569079804,2.5842485427856445,6.759723663330078,-6.56829833984375
1481569080044,2.5842485427856445,6.86979341506958,-6.4319071769714355
1481569080283,2.6321046352386475,6.735795497894287,-6.515655517578125
1481569080534,2.6177480220794678,6.912864685058594,-6.372087001800537
1481569080772,2.5363922119140625,6.86261510848999,-6.388835906982422
1481569081001,2.531606435775757,6.929614543914795,-6.350551128387451
1481569081242,2.5220348834991455,6.843472957611084,-6.410372257232666
1481569081481,2.5603203773498535,6.874579429626465,-6.410372257232666
1481569081732,2.517249345779419,6.833901405334473,-6.427121639251709
1481569081971,2.4837498664855957,6.948756694793701,-6.329016208648682
1481569082172,2.6081764698028564,7.135397434234619,-6.209374904632568
1481569082400,2.4598214626312256,7.082754611968994,-6.2500529289245605
1481569082639,2.589033842086792,6.886543273925781,-6.388835906982422
1481569082878,2.68953275680542,6.750153064727783,-6.448657035827637
1481569083127,2.8283162117004395,6.726224899291992,-6.467799663543701
1481569083330,2.761317014694214,6.757331371307373,-6.472585201263428
1481569083556,2.8283162117004395,6.759723663330078,-6.446264266967773
1481569083764,2.8043880462646484,6.874579429626465,-6.338587284088135
1481569083997,2.7661027908325195,6.829115867614746,-6.424728870391846
1481569084236,2.770888566970825,6.757331371307373,-6.427121639251709
1481569084475,2.7182462215423584,6.819544315338135,-6.491727352142334
1481569084724,2.7421746253967285,6.601797103881836,-6.577868938446045
1481569084925,2.5698914527893066,6.963113307952881,-6.2500529289245605
1481569085128,2.75174617767334,6.812366485595703,-6.439085483551025
1481569085354,2.723031997680664,6.714260101318359,-6.491727352142334
1481569085564,2.746960401535034,6.774080753326416,-6.472585201263428
1481569085792,2.699103832244873,6.915257453918457,-6.386443614959717
1481569085993,2.770888566970825,6.697510242462158,-6.532405853271484
1481569086232,2.847458839416504,6.723831653594971,-6.458228588104248
1481569086471,2.6799612045288086,6.606583118438721,-6.592226982116699
1481569086722,2.785245418548584,6.6592254638671875,-6.508477687835693
1481569086976,2.7421746253967285,6.714260101318359,-6.522834300994873
1481569087190,2.7421746253967285,6.704688549041748,-6.510870456695557
1481569087429,2.6177480220794678,6.87697172164917,-6.403193473815918
1481569087669,2.68953275680542,6.783651828765869,-6.474977493286133
1481569087917,2.7038896083831787,6.726224899291992,-6.403193473815918
1481569088122,2.7661027908325195,6.673582077026367,-6.534798622131348
1481569088348,2.723031997680664,6.6520466804504395,-6.551548480987549
1481569088557,2.675175428390503,6.704688549041748,-6.525227069854736
1481569088762,2.7086753845214844,6.692724704742432,-6.489335060119629
1481569088987,2.6703903675079346,6.8171515464782715,-6.417550563812256
1481569089226,2.579463005065918,6.891329765319824,-6.374479293823242
1481569089465,2.5986053943634033,6.910471439361572,-6.38165807723999
1481569089715,2.636890411376953,6.786045074462891,-6.463014125823975
1481569089944,2.723031997680664,6.821937084197998,-6.451050281524658
1481569090168,2.6081764698028564,6.826723098754883,-6.419942855834961
1481569090384,2.651247262954712,6.778866291046143,-6.424728870391846
1481569090624,2.665604591369629,6.786045074462891,-6.403193473815918
1481569090826,2.6177480220794678,6.7932233810424805,-6.410372257232666
1481569091053,2.7086753845214844,6.814758777618408,-6.429513931274414
1481569091262,2.6464619636535645,6.8410797119140625,-6.405585765838623
1481569091513,2.636890411376953,6.747759819030762,-6.501298904418945
1481569091741,2.6177480220794678,6.742973804473877,-6.458228588104248
1481569091946,2.641676187515259,6.795616626739502,-6.460620880126953
1481569092162,2.603391170501709,6.805188179016113,-6.446264266967773
1481569092380,2.665604591369629,6.75493860244751,-6.429513931274414
1481569092619,2.6464619636535645,6.764510154724121,-6.510870456695557
1481569092857,2.665604591369629,6.819544315338135,-6.4319071769714355
1481569093060,2.665604591369629,6.824329853057861,-6.415157318115234
1481569093307,2.6225337982177734,6.7621169090271,-6.451050281524658
1481569093547,2.6560330390930176,6.745367050170898,-6.491727352142334
1481569093775,2.6703903675079346,6.836294651031494,-6.417550563812256
1481569094014,2.71346116065979,6.7692952156066895,-6.463014125823975
1481569094215,2.589033842086792,6.764510154724121,-6.474977493286133
1481569094455,2.6321046352386475,6.786045074462891,-6.467799663543701
1481569094707,2.675175428390503,6.745367050170898,-6.460620880126953
1481569094934,2.651247262954712,6.735795497894287,-6.465407371520996
1481569095144,2.675175428390503,6.776473522186279,-6.482156753540039
1481569095358,2.665604591369629,6.747759819030762,-6.470191955566406
1481569095572,2.6608188152313232,6.819544315338135,-6.427121639251709
1481569095813,2.7086753845214844,6.726224899291992,-6.448657035827637
1481569096053,2.7086753845214844,6.774080753326416,-6.491727352142334
1481569096303,2.6943180561065674,6.704688549041748,-6.4941205978393555
1481569096506,2.6943180561065674,6.757331371307373,-6.527620315551758
1481569096731,2.71346116065979,6.764510154724121,-6.446264266967773
1481569096971,2.6703903675079346,6.781259536743164,-6.448657035827637
1481569097210,2.636890411376953,6.687938690185547,-6.506085395812988
1481569097449,2.699103832244873,6.687938690185547,-6.506085395812988
1481569097697,2.665604591369629,6.69990348815918,-6.510870456695557
1481569097928,2.5986053943634033,6.640083312988281,-6.496513843536377
1481569098155,2.7278177738189697,6.642475128173828,-6.580262184143066
1481569098368,2.68953275680542,6.750153064727783,-6.460620880126953
1481569098606,2.7086753845214844,6.685546875,-6.515655517578125
1481569098847,2.71346116065979,6.750153064727783,-6.4941205978393555
1481569099097,2.651247262954712,6.728617191314697,-6.501298904418945
1481569099326,2.627319574356079,6.726224899291992,-6.467799663543701
1481569099550,2.6081764698028564,6.788437843322754,-6.391229152679443
1481569099765,2.6560330390930176,6.723831653594971,-6.5180487632751465
1481569100004,2.71346116065979,6.692724704742432,-6.5180487632751465
1481569100244,2.665604591369629,6.654439926147461,-6.587440490722656
1481569100495,2.71346116065979,6.6831536293029785,-6.537191867828369
1481569100733,2.723031997680664,6.6352972984313965,-6.62333345413208
1481569100962,2.5603203773498535,6.963113307952881,-6.374479293823242
1481569101203,2.565105676651001,6.80040168762207,-6.417550563812256
1481569101442,2.6177480220794678,6.685546875,-6.601797103881836
1481569101692,2.4885356426239014,6.786045074462891,-6.434299945831299
1481569101932,2.737389087677002,6.910471439361572,-6.417550563812256
1481569102142,2.5746772289276123,6.759723663330078,-6.541977405548096
1481569102361,2.6847469806671143,6.788437843322754,-6.486942291259766
1481569102600,2.6703903675079346,6.728617191314697,-6.491727352142334
1481569102838,2.7900311946868896,6.723831653594971,-6.489335060119629
1481569103087,2.6847469806671143,6.671189785003662,-6.515655517578125
1481569103291,2.641676187515259,6.874579429626465,-6.273981094360352
1481569103518,2.775674343109131,6.783651828765869,-6.4079790115356445
1481569103723,2.761317014694214,6.721438884735107,-6.424728870391846
1481569103939,2.823530912399292,6.860222339630127,-6.369694232940674
1481569104155,2.7421746253967285,6.903293132781982,-6.2189459800720215
1481569104356,2.809173583984375,6.86261510848999,-6.331408977508545
1481569104594,2.8809585571289062,6.903293132781982,-6.283552646636963
1481569104795,2.6321046352386475,7.099504470825195,-6.068198204040527
1481569105033,2.68953275680542,7.046862602233887,-6.211767196655273
1481569105234,2.7804601192474365,7.010970115661621,-6.273981094360352
1481569105483,2.737389087677002,6.747759819030762,-6.597012042999268
1481569105713,2.3784656524658203,6.809973239898682,-6.537191867828369
1481569105920,2.2444677352905273,6.6831536293029785,-6.611368656158447
1481569106135,2.392822742462158,6.582655429840088,-6.75493860244751
1481569106391,2.416750907897949,6.647261142730713,-6.704688549041748
1481569106632,2.4119651317596436,6.649653911590576,-6.618547439575195
1481569106887,2.4837498664855957,6.6520466804504395,-6.656832218170166
1481569107111,2.469392776489258,6.640083312988281,-6.6520466804504395
1481569107320,2.493321180343628,6.589833736419678,-6.819544315338135
1481569107549,2.469392776489258,6.73818826675415,-6.56829833984375
1481569107812,2.3018953800201416,7.36032247543335,-5.8337016105651855
1481569108029,2.2779672145843506,7.1473612785339355,-6.154339790344238
1481569108280,2.3162522315979004,6.742973804473877,-6.522834300994873
1481569108508,2.4119651317596436,6.752545356750488,-6.561119556427002
1481569108721,2.4502503871917725,6.7692952156066895,-6.585048198699951
1481569108926,2.431107759475708,6.771688461303711,-6.527620315551758
1481569109145,2.3736801147460938,6.671189785003662,-6.501298904418945
1481569109386,2.4885356426239014,6.601797103881836,-6.436692714691162
1481569109625,2.47896409034729,6.403193473815918,-6.898508071899414
1481569109876,2.4646072387695312,6.553941249847412,-6.695117950439453
1481569110104,2.5124638080596924,6.51326322555542,-6.788437843322754
1481569110329,2.47896409034729,6.52044153213501,-6.807580471038818
1481569110544,2.502892255783081,6.515655517578125,-6.807580471038818
1481569110783,2.4837498664855957,6.5180487632751465,-6.802794933319092
1481569111023,2.4981069564819336,6.4941205978393555,-6.824329853057861
1481569111272,2.4837498664855957,6.515655517578125,-6.7932233810424805
1481569111473,2.4646072387695312,6.51326322555542,-6.7692952156066895
1481569111701,2.47896409034729,6.52044153213501,-6.7310099601745605
1481569111910,2.47896409034729,6.496513843536377,-6.747759819030762
1481569112125,2.4741785526275635,6.508477687835693,-6.7692952156066895
1481569112340,2.4598214626312256,6.491727352142334,-6.75493860244751
1481569112580,2.416750907897949,6.534798622131348,-6.790830135345459
1481569112820,2.455036163330078,6.530013084411621,-6.733402729034424
1481569113067,2.493321180343628,6.479763507843018,-6.805188179016113
1481569113270,2.517249345779419,6.477370738983154,-6.850651264190674
1481569113498,2.502892255783081,6.52044153213501,-6.807580471038818
1481569113705,2.4358932971954346,6.482156753540039,-6.814758777618408
1481569113923,2.469392776489258,6.489335060119629,-6.805188179016113
1481569114138,2.4741785526275635,6.5180487632751465,-6.831508636474609
1481569114376,2.4837498664855957,6.510870456695557,-6.824329853057861
1481569114615,2.469392776489258,6.4941205978393555,-6.774080753326416
1481569114867,2.493321180343628,6.506085395812988,-6.831508636474609
1481569115095,2.455036163330078,6.491727352142334,-6.750153064727783
1481569115320,2.445464611053467,6.546762466430664,-6.766902446746826
1481569115539,2.469392776489258,6.5180487632751465,-6.802794933319092
1481569115774,2.4837498664855957,6.501298904418945,-6.766902446746826
1481569116013,2.4885356426239014,6.4941205978393555,-6.850651264190674
1481569116264,2.47896409034729,6.486942291259766,-6.831508636474609
1481569116509,2.4837498664855957,6.501298904418945,-6.776473522186279
1481569116734,2.47896409034729,6.532405853271484,-6.798008918762207
1481569116971,2.531606435775757,6.491727352142334,-6.845865249633789
1481569117211,2.565105676651001,6.384050369262695,-6.886543273925781
1481569117460,2.5603203773498535,6.410372257232666,-6.891329765319824
1481569117707,2.550748825073242,6.424728870391846,-6.853044033050537
1481569117927,2.6703903675079346,6.367300987243652,-6.8650078773498535
1481569118131,2.6225337982177734,6.412764549255371,-6.786045074462891
1481569118371,2.68953275680542,6.405585765838623,-6.783651828765869
1481569118607,2.775674343109131,6.434299945831299,-6.728617191314697
1481569118857,2.737389087677002,6.242874622344971,-7.0061845779418945
1481569119086,2.8043880462646484,6.393621921539307,-6.771688461303711
1481569119287,2.885744333267212,6.417550563812256,-6.788437843322754
1481569119503,2.8187451362609863,6.601797103881836,-6.628118515014648
1481569119726,2.8139593601226807,6.537191867828369,-6.6592254638671875
1481569119965,2.699103832244873,6.625725746154785,-6.620940208435059
1481569120205,2.7086753845214844,6.6520466804504395,-6.597012042999268
1481569120454,2.7948169708251953,6.790830135345459,-6.417550563812256
1481569120683,2.770888566970825,6.73818826675415,-6.412764549255371
1481569120892,2.857030153274536,6.8410797119140625,-6.324230670928955
1481569121122,3.081955671310425,6.57547664642334,-6.546762466430664
1481569121323,3.1920251846313477,6.472585201263428,-6.508477687835693
1481569121562,3.263810157775879,6.398407459259033,-6.482156753540039
1481569121804,3.5126638412475586,6.192624568939209,-6.561119556427002
1481569122052,3.445664882659912,6.259624004364014,-6.735795497894287
1481569122253,3.115455150604248,6.3529438972473145,-6.745367050170898
1481569122481,2.8809585571289062,6.8410797119140625,-6.384050369262695
1481569122689,2.737389087677002,6.900900363922119,-6.305087566375732
1481569122904,2.775674343109131,7.042076587677002,-6.183053970336914
1481569123120,2.5842485427856445,7.1473612785339355,-5.9676995277404785
1481569123359,2.4837498664855957,7.010970115661621,-6.305087566375732
1481569123598,2.5603203773498535,6.857830047607422,-6.379265785217285
1481569123849,2.5220348834991455,6.8650078773498535,-6.398407459259033
1481569124051,2.517249345779419,6.850651264190674,-6.446264266967773
1481569124277,2.5986053943634033,6.86979341506958,-6.441478729248047
1481569124487,2.565105676651001,6.896114826202393,-6.38165807723999
1481569124715,2.5459630489349365,6.884150981903076,-6.396015167236328
1481569124918,2.5459630489349365,6.857830047607422,-6.419942855834961
1481569125155,2.5363922119140625,6.87697172164917,-6.434299945831299
1481569125395,2.555534601211548,6.776473522186279,-6.527620315551758
1481569125644,2.493321180343628,6.546762466430664,-6.733402729034424
1481569125849,2.526820659637451,6.508477687835693,-6.819544315338135
1481569126073,2.531606435775757,6.508477687835693,-6.774080753326416
1481569126280,2.5076780319213867,6.470191955566406,-6.821937084197998
1481569126495,2.5076780319213867,6.474977493286133,-6.776473522186279
1481569126715,2.541177749633789,6.391229152679443,-6.857830047607422
1481569126950,2.550748825073242,6.484549045562744,-6.853044033050537
1481569127152,2.5363922119140625,6.441478729248047,-6.826723098754883
1481569127389,2.565105676651001,6.429513931274414,-6.809973239898682
1481569127590,2.6225337982177734,6.546762466430664,-6.721438884735107
1481569127842,2.526820659637451,6.917649745941162,-6.238089084625244
1481569128069,2.431107759475708,7.264609336853027,-6.0466628074646
1481569128280,2.4885356426239014,7.149754047393799,-6.037091255187988
1481569128493,2.431107759475708,7.101897716522217,-6.044269561767578
1481569128708,2.526820659637451,6.922436237335205,-6.293124198913574
1481569128947,2.502892255783081,7.101897716522217,-6.273981094360352
1481569129186,2.5698914527893066,7.037291049957275,-6.029913425445557
1481569129437,2.6321046352386475,7.025327682495117,-6.455835819244385
1481569129670,2.5124638080596924,6.838686943054199,-6.3361945152282715
1481569129889,2.555534601211548,7.003791332244873,-6.297908782958984
1481569130105,2.579463005065918,6.910471439361572,-6.38165807723999
1481569130345,2.4023938179016113,6.833901405334473,-6.307480335235596
1481569130584,2.5842485427856445,6.647261142730713,-6.577868938446045
1481569130832,2.5842485427856445,6.661618232727051,-6.57547664642334
1481569131034,2.5698914527893066,6.620940208435059,-6.702296257019043
1481569131265,2.5746772289276123,6.6352972984313965,-6.62333345413208
1481569131472,2.589033842086792,6.604190349578857,-6.67836856842041
1481569131684,2.603391170501709,6.63051176071167,-6.668797016143799
1481569131902,2.589033842086792,6.640083312988281,-6.6520466804504395
1481569132141,2.5842485427856445,6.654439926147461,-6.6520466804504395
1481569132381,2.5220348834991455,6.63051176071167,-6.714260101318359
1481569132629,2.531606435775757,6.625725746154785,-6.6520466804504395
1481569132863,2.526820659637451,6.620940208435059,-6.668797016143799
1481569133079,2.5842485427856445,6.6592254638671875,-6.616154670715332
1481569133299,2.579463005065918,6.618547439575195,-6.6592254638671875
1481569133537,2.589033842086792,6.620940208435059,-6.656832218170166
1481569133739,2.699103832244873,6.372087001800537,-6.829115867614746
1481569133978,2.675175428390503,6.62333345413208,-6.611368656158447
1481569134227,2.7326035499572754,6.51326322555542,-6.73818826675415
1481569134464,2.636890411376953,6.32662296295166,-6.9583282470703125
1481569134695,2.517249345779419,6.573083877563477,-6.664010524749756
1481569134899,2.5842485427856445,6.625725746154785,-6.702296257019043
1481569135135,2.5842485427856445,6.592226982116699,-6.7070817947387695
1481569135375,2.5746772289276123,6.6592254638671875,-6.690331935882568
1481569135626,2.603391170501709,6.625725746154785,-6.685546875
1481569135829,2.579463005065918,6.63051176071167,-6.664010524749756
1481569136053,2.5938196182250977,6.613761901855469,-6.6592254638671875
1481569136263,2.5459630489349365,6.628118515014648,-6.63051176071167
1481569136492,2.6081764698028564,6.63051176071167,-6.649653911590576
1481569136756,2.5986053943634033,6.642475128173828,-6.640083312988281
1481569136972,2.550748825073242,6.640083312988281,-6.601797103881836
1481569137223,2.5459630489349365,6.664010524749756,-6.649653911590576
1481569137450,2.589033842086792,6.587440490722656,-6.613761901855469
1481569137660,2.579463005065918,6.63051176071167,-6.649653911590576
1481569137880,2.517249345779419,6.6352972984313965,-6.697510242462158
1481569138089,2.589033842086792,6.606583118438721,-6.656832218170166
1481569138290,2.5986053943634033,6.6592254638671875,-6.690331935882568
1481569138527,2.565105676651001,6.661618232727051,-6.690331935882568
1481569138759,2.502892255783081,6.551548480987549,-6.69990348815918
1481569138967,2.541177749633789,6.608975887298584,-6.661618232727051
1481569139216,2.5459630489349365,6.625725746154785,-6.697510242462158
1481569139418,2.5698914527893066,6.589833736419678,-6.668797016143799
1481569139646,2.502892255783081,6.642475128173828,-6.63051176071167
1481569139855,2.5363922119140625,6.632904052734375,-6.704688549041748
1481569140085,2.565105676651001,6.654439926147461,-6.680760860443115
1481569140325,2.5124638080596924,6.625725746154785,-6.6520466804504395
1481569140558,2.5603203773498535,6.618547439575195,-6.647261142730713
1481569140764,2.579463005065918,6.664010524749756,-6.6592254638671875
1481569141013,2.541177749633789,6.62333345413208,-6.7070817947387695
1481569141245,2.5603203773498535,6.618547439575195,-6.601797103881836
1481569141452,2.579463005065918,6.654439926147461,-6.63769006729126
1481569141662,2.517249345779419,6.601797103881836,-6.685546875
1481569141882,2.5220348834991455,6.599405288696289,-6.664010524749756
1481569142121,2.5363922119140625,6.628118515014648,-6.63051176071167
1481569142360,2.5459630489349365,6.6592254638671875,-6.589833736419678
1481569142612,2.526820659637451,6.6831536293029785,-6.611368656158447
1481569142858,2.5459630489349365,6.675975322723389,-6.668797016143799
1481569143078,2.5363922119140625,6.704688549041748,-6.666403770446777
1481569143319,2.531606435775757,6.656832218170166,-6.620940208435059
1481569143558,2.579463005065918,6.594619274139404,-6.63051176071167
1481569143808,2.5698914527893066,6.6352972984313965,-6.63769006729126
1481569144037,2.5363922119140625,6.618547439575195,-6.647261142730713
1481569144260,2.531606435775757,6.608975887298584,-6.661618232727051
1481569144476,2.5076780319213867,6.6592254638671875,-6.695117950439453
1481569144743,2.565105676651001,6.585048198699951,-6.62333345413208
1481569144955,2.550748825073242,6.747759819030762,-6.57547664642334
1481569145206,2.565105676651001,6.719045639038086,-6.5659050941467285
1481569145434,2.5363922119140625,6.618547439575195,-6.587440490722656
1481569145644,2.6608188152313232,6.625725746154785,-6.716653347015381
1481569145859,2.5459630489349365,6.585048198699951,-6.69990348815918
1481569146077,2.5746772289276123,6.680760860443115,-6.604190349578857
1481569146313,2.5842485427856445,6.606583118438721,-6.582655429840088
1481569146551,2.4981069564819336,6.601797103881836,-6.6592254638671875
1481569146802,2.550748825073242,6.6352972984313965,-6.587440490722656
1481569147052,2.541177749633789,6.618547439575195,-6.64486837387085
1481569147275,2.531606435775757,6.613761901855469,-6.649653911590576
1481569147511,2.517249345779419,6.625725746154785,-6.620940208435059
1481569147751,2.541177749633789,6.632904052734375,-6.673582077026367
1481569147997,2.502892255783081,6.63051176071167,-6.664010524749756
1481569148200,2.5076780319213867,6.613761901855469,-6.618547439575195
1481569148429,2.493321180343628,6.697510242462158,-6.673582077026367
1481569148637,2.5124638080596924,6.62333345413208,-6.661618232727051
1481569148848,2.526820659637451,6.563512325286865,-6.680760860443115
1481569149068,2.4885356426239014,6.63051176071167,-6.654439926147461
1481569149308,2.4981069564819336,6.616154670715332,-6.640083312988281
1481569149545,2.502892255783081,6.625725746154785,-6.697510242462158
1481569149796,2.493321180343628,6.620940208435059,-6.697510242462158
1481569150046,2.4741785526275635,6.632904052734375,-6.67836856842041
1481569150265,2.5220348834991455,6.675975322723389,-6.640083312988281
1481569150504,2.5363922119140625,6.632904052734375,-6.613761901855469
1481569150743,2.5076780319213867,6.6831536293029785,-6.67836856842041
1481569150996,2.5124638080596924,6.56829833984375,-6.613761901855469
1481569151237,2.5363922119140625,6.63769006729126,-6.7070817947387695
1481569151462,2.517249345779419,6.6592254638671875,-6.680760860443115
1481569151702,2.517249345779419,6.63769006729126,-6.656832218170166
1481569151942,2.502892255783081,6.640083312988281,-6.6352972984313965
1481569152192,2.4981069564819336,6.6592254638671875,-6.690331935882568
1481569152421,2.5124638080596924,6.656832218170166,-6.625725746154785
1481569152640,2.5220348834991455,6.601797103881836,-6.673582077026367
1481569152860,2.5363922119140625,6.711867332458496,-6.6592254638671875
1481569153099,2.4023938179016113,6.661618232727051,-6.690331935882568
1481569153342,2.531606435775757,6.613761901855469,-6.649653911590576
1481569153587,2.5459630489349365,6.6592254638671875,-6.604190349578857
1481569153788,2.5746772289276123,6.75493860244751,-6.649653911590576
1481569154018,2.517249345779419,6.6592254638671875,-6.690331935882568
1481569154259,2.5220348834991455,6.63051176071167,-6.654439926147461
1481569154482,2.541177749633789,6.692724704742432,-6.671189785003662
1481569154697,2.526820659637451,6.666403770446777,-6.608975887298584
1481569154924,2.541177749633789,6.640083312988281,-6.697510242462158
1481569155135,2.4885356426239014,6.63769006729126,-6.702296257019043
1481569155385,2.4837498664855957,6.668797016143799,-6.647261142730713
1481569155614,2.4981069564819336,6.647261142730713,-6.668797016143799
1481569155854,2.5220348834991455,6.616154670715332,-6.733402729034424
1481569156093,2.526820659637451,6.6592254638671875,-6.711867332458496
1481569156333,2.469392776489258,6.599405288696289,-6.726224899291992
1481569156582,2.531606435775757,6.649653911590576,-6.664010524749756
1481569156825,2.526820659637451,6.63051176071167,-6.654439926147461
1481569157033,2.4885356426239014,6.654439926147461,-6.647261142730713
1481569157253,2.526820659637451,6.63769006729126,-6.766902446746826
1481569157491,2.5603203773498535,6.618547439575195,-6.664010524749756
1481569157731,2.531606435775757,6.573083877563477,-6.687938690185547
1481569157981,2.5220348834991455,6.6592254638671875,-6.675975322723389
1481569158226,2.5363922119140625,6.661618232727051,-6.690331935882568
1481569158450,2.5220348834991455,6.608975887298584,-6.7070817947387695
1481569158689,2.469392776489258,6.647261142730713,-6.613761901855469
1481569158928,2.5076780319213867,6.654439926147461,-6.647261142730713
1481569159180,2.47896409034729,6.695117950439453,-6.6831536293029785
1481569159408,2.7278177738189697,6.417550563812256,-7.015756130218506
1481569159616,2.531606435775757,6.752545356750488,-6.534798622131348
1481569159831,2.5220348834991455,6.63769006729126,-6.692724704742432
1481569160045,2.4981069564819336,6.654439926147461,-6.661618232727051
1481569160286,2.531606435775757,6.620940208435059,-6.6831536293029785
1481569160525,2.541177749633789,6.661618232727051,-6.608975887298584
1481569160775,2.5603203773498535,6.67836856842041,-6.690331935882568
1481569161028,2.526820659637451,6.642475128173828,-6.702296257019043
1481569161244,2.455036163330078,6.608975887298584,-6.711867332458496
1481569161483,2.47896409034729,6.687938690185547,-6.64486837387085
1481569161723,2.4646072387695312,6.6352972984313965,-6.6831536293029785
1481569161977,2.531606435775757,6.661618232727051,-6.735795497894287
1481569162204,2.531606435775757,6.671189785003662,-6.640083312988281
1481569162440,2.5076780319213867,6.589833736419678,-6.6831536293029785
1481569162681,2.502892255783081,6.585048198699951,-6.69990348815918
1481569162920,2.455036163330078,6.67836856842041,-6.690331935882568
1481569163174,2.555534601211548,6.709475040435791,-6.618547439575195
1481569163413,2.531606435775757,6.5659050941467285,-6.654439926147461
1481569163638,2.550748825073242,6.675975322723389,-6.6352972984313965
1481569163839,2.5076780319213867,6.62333345413208,-6.642475128173828
1481569164078,2.469392776489258,6.719045639038086,-6.63051176071167
1481569164318,2.3976082801818848,6.759723663330078,-6.601797103881836
1481569164569,2.555534601211548,6.580262184143066,-6.711867332458496
1481569164804,2.5124638080596924,6.38165807723999,-6.831508636474609
1481569165036,2.4598214626312256,6.386443614959717,-6.891329765319824
1481569165275,2.4406790733337402,6.443871021270752,-6.776473522186279
1481569165515,2.4598214626312256,6.558726787567139,-6.73818826675415
1481569165766,2.550748825073242,6.525227069854736,-6.778866291046143
1481569166005,2.4502503871917725,6.556333541870117,-6.719045639038086
1481569166218,2.4981069564819336,6.613761901855469,-6.690331935882568
1481569166434,2.5698914527893066,6.628118515014648,-6.7070817947387695
1481569166673,2.5459630489349365,6.56829833984375,-6.709475040435791
1481569166875,2.4981069564819336,6.587440490722656,-6.687938690185547
1481569167102,2.5124638080596924,6.597012042999268,-6.716653347015381
1481569167312,2.4837498664855957,6.5659050941467285,-6.685546875
1481569167562,2.47896409034729,6.592226982116699,-6.766902446746826
1481569167789,2.502892255783081,6.63769006729126,-6.719045639038086
1481569168000,2.4646072387695312,6.601797103881836,-6.673582077026367
1481569168213,2.5076780319213867,6.6352972984313965,-6.6831536293029785
1481569168431,2.469392776489258,6.63769006729126,-6.692724704742432
1481569168669,2.4885356426239014,6.649653911590576,-6.709475040435791
1481569168908,2.5124638080596924,6.608975887298584,-6.675975322723389
1481569169159,2.4646072387695312,6.611368656158447,-6.721438884735107
1481569169387,2.4885356426239014,6.599405288696289,-6.759723663330078
1481569169604,2.4741785526275635,6.604190349578857,-6.668797016143799
1481569169825,2.469392776489258,6.62333345413208,-6.7070817947387695
1481569170026,2.541177749633789,6.675975322723389,-6.69990348815918
1481569170266,2.493321180343628,6.654439926147461,-6.711867332458496
1481569170505,2.4885356426239014,6.625725746154785,-6.711867332458496
1481569170756,2.469392776489258,6.585048198699951,-6.714260101318359
1481569170987,2.431107759475708,6.63051176071167,-6.668797016143799
1481569171209,2.4741785526275635,6.6520466804504395,-6.719045639038086
1481569171423,2.517249345779419,6.613761901855469,-6.675975322723389
1481569171663,2.5076780319213867,6.599405288696289,-6.69990348815918
1481569171903,2.4741785526275635,6.601797103881836,-6.687938690185547
1481569172153,2.502892255783081,6.601797103881836,-6.685546875
1481569172356,2.4981069564819336,6.632904052734375,-6.673582077026367
1481569172581,2.4646072387695312,6.695117950439453,-6.728617191314697
1481569172788,2.4646072387695312,6.63769006729126,-6.73818826675415
1481569173005,2.517249345779419,6.63051176071167,-6.680760860443115
1481569173220,2.4837498664855957,6.611368656158447,-6.747759819030762
1481569173422,2.5220348834991455,6.604190349578857,-6.728617191314697
1481569173659,2.502892255783081,6.604190349578857,-6.697510242462158
1481569173861,2.392822742462158,6.582655429840088,-6.750153064727783
1481569174098,2.517249345779419,6.608975887298584,-6.721438884735107
1481569174348,2.4981069564819336,6.608975887298584,-6.711867332458496
1481569174577,2.4598214626312256,6.587440490722656,-6.719045639038086
1481569174786,2.4741785526275635,6.537191867828369,-6.704688549041748
1481569175015,2.4885356426239014,6.604190349578857,-6.6831536293029785
1481569175217,2.3976082801818848,6.675975322723389,-6.666403770446777
1481569175455,2.469392776489258,6.587440490722656,-6.704688549041748
1481569175695,2.555534601211548,6.580262184143066,-6.742973804473877
1481569175945,2.455036163330078,6.63051176071167,-6.714260101318359
1481569176189,2.493321180343628,6.632904052734375,-6.709475040435791
1481569176413,2.5124638080596924,6.618547439575195,-6.73818826675415
1481569176653,2.5124638080596924,6.589833736419678,-6.647261142730713
1481569176892,2.4837498664855957,6.592226982116699,-6.687938690185547
1481569177145,2.4837498664855957,6.618547439575195,-6.673582077026367
1481569177385,2.493321180343628,6.587440490722656,-6.704688549041748
1481569177609,2.5076780319213867,6.628118515014648,-6.726224899291992
1481569177811,2.5363922119140625,6.625725746154785,-6.671189785003662
1481569178051,2.517249345779419,6.616154670715332,-6.714260101318359
1481569178289,2.502892255783081,6.597012042999268,-6.702296257019043
1481569178539,2.526820659637451,6.63769006729126,-6.702296257019043
1481569178740,2.4837498664855957,6.647261142730713,-6.673582077026367
1481569178978,2.4646072387695312,6.625725746154785,-6.711867332458496
1481569179207,2.4646072387695312,6.541977405548096,-6.73818826675415
1481569179410,2.47896409034729,6.606583118438721,-6.673582077026367
1481569179647,2.5363922119140625,6.62333345413208,-6.7070817947387695
1481569179887,2.541177749633789,6.618547439575195,-6.6592254638671875
1481569180138,2.517249345779419,6.606583118438721,-6.702296257019043
1481569180366,2.4981069564819336,6.599405288696289,-6.7310099601745605
1481569180591,2.5603203773498535,6.587440490722656,-6.73818826675415
1481569180804,2.493321180343628,6.625725746154785,-6.666403770446777
1481569181044,2.4598214626312256,6.582655429840088,-6.709475040435791
1481569181284,2.47896409034729,6.594619274139404,-6.680760860443115
1481569181535,2.6703903675079346,6.582655429840088,-6.740581512451172
1481569181777,2.455036163330078,6.580262184143066,-6.807580471038818
1481569182003,2.517249345779419,6.640083312988281,-6.697510242462158
1481569182243,2.493321180343628,6.587440490722656,-6.719045639038086
1481569182482,2.502892255783081,6.640083312988281,-6.666403770446777
1481569182732,2.4837498664855957,6.675975322723389,-6.649653911590576
1481569182986,2.47896409034729,6.62333345413208,-6.661618232727051
1481569183204,2.47896409034729,6.673582077026367,-6.695117950439453
1481569183440,2.517249345779419,6.508477687835693,-6.759723663330078
1481569183679,2.526820659637451,6.525227069854736,-6.733402729034424
1481569183930,2.4837498664855957,6.640083312988281,-6.680760860443115
1481569184159,2.541177749633789,6.656832218170166,-6.640083312988281
1481569184360,2.502892255783081,6.92482852935791,-6.695117950439453
1481569184584,2.5603203773498535,6.350551128387451,-6.87697172164917
1481569184797,2.4981069564819336,6.558726787567139,-6.723831653594971
1481569185037,2.4598214626312256,6.716653347015381,-6.625725746154785
1481569185276,2.4646072387695312,6.620940208435059,-6.687938690185547
1481569185527,2.455036163330078,6.599405288696289,-6.745367050170898
1481569185755,2.445464611053467,6.27876615524292,-7.010970115661621
1481569185963,2.502892255783081,6.228517532348633,-7.1473612785339355
1481569186176,2.359323024749756,6.27158784866333,-6.972684860229492
1481569186394,2.383251428604126,6.477370738983154,-6.8650078773498535
1481569186634,2.392822742462158,6.589833736419678,-6.668797016143799
1481569186876,2.3641088008880615,6.7932233810424805,-6.5659050941467285
1481569187123,2.4119651317596436,6.9822564125061035,-6.434299945831299
1481569187366,2.3545374870300293,7.422535419464111,-5.714060306549072
1481569187590,2.4119651317596436,7.668996810913086,-6.039484024047852
1481569187792,2.4358932971954346,7.451249599456787,-5.814558982849121
1481569188029,2.3736801147460938,7.403393745422363,-5.855237007141113
1481569188263,2.3545374870300293,7.345965385437012,-6.034698486328125
1481569188468,2.359323024749756,7.381857395172119,-6.008377552032471
1481569188669,2.3976082801818848,7.353143692016602,-5.840879917144775
1481569188920,2.455036163330078,7.345965385437012,-6.0538411140441895
1481569189149,2.4358932971954346,7.314858913421631,-6.044269561767578
1481569189358,2.368894338607788,7.36032247543335,-6.001199245452881
1481569189569,2.421536445617676,7.365108013153076,-5.986842632293701
1481569189786,2.4358932971954346,7.23589563369751,-6.065804958343506
1481569190054,2.4981069564819336,7.161717891693115,-6.245267391204834
1481569190267,2.4119651317596436,7.149754047393799,-6.113661766052246
1481569190516,2.392822742462158,7.211967468261719,-6.058626651763916
1481569190719,2.4119651317596436,7.156932830810547,-6.087340831756592
1481569190945,2.416750907897949,7.197610855102539,-6.1328043937683105
1481569191155,2.4741785526275635,7.231109619140625,-6.070591449737549
1481569191383,2.5076780319213867,7.300501823425293,-6.020341873168945
1481569191623,2.416750907897949,7.238288879394531,-6.058626651763916
1481569191862,2.4646072387695312,7.276573657989502,-6.072984218597412
1481569192063,2.421536445617676,7.226324081420898,-6.0538411140441895
1481569192313,2.4502503871917725,7.2574310302734375,-6.022734642028809
1481569192540,2.431107759475708,7.255037784576416,-6.049055576324463
1481569192750,2.421536445617676,7.331608772277832,-6.039484024047852
1481569192965,2.416750907897949,7.245467185974121,-6.037091255187988
1481569193183,2.4358932971954346,7.051648139953613,-6.135197162628174
1481569193419,2.4358932971954346,7.22153902053833,-6.0538411140441895
1481569193659,2.3976082801818848,7.269395351409912,-6.003591537475586
1481569193910,2.421536445617676,7.2574310302734375,-6.039484024047852
1481569194154,2.4119651317596436,7.276573657989502,-6.051448345184326
1481569194378,2.3976082801818848,7.223931312561035,-6.017949104309082
1481569194617,2.455036163330078,7.269395351409912,-6.044269561767578
1481569194818,2.359323024749756,7.534998416900635,-5.670989990234375
1481569195050,2.421536445617676,7.348358631134033,-6.013163089752197
1481569195257,2.335394859313965,7.22871732711792,-6.027520179748535
1481569195506,2.344966173171997,7.3052873611450195,-5.907878875732422
1481569195735,2.431107759475708,7.34357213973999,-5.998805999755859
1481569195942,2.469392776489258,7.271787643432617,-6.08494758605957
1481569196154,2.4598214626312256,7.125825881958008,-6.151947498321533
1481569196375,2.4741785526275635,7.288537979125977,-6.118447780609131
1481569196614,2.4741785526275635,7.192824840545654,-6.149554252624512
1481569196817,2.4598214626312256,7.195217609405518,-6.063412666320801
1481569197046,2.4837498664855957,7.161717891693115,-6.120840072631836
1481569197252,2.416750907897949,7.176074504852295,-6.116055011749268
1481569197503,2.431107759475708,7.22153902053833,-6.166304588317871
1481569197732,2.4358932971954346,7.223931312561035,-6.1399827003479
1481569197940,2.407179594039917,7.176074504852295,-6.070591449737549
1481569198170,2.3976082801818848,7.113861560821533,-6.1256256103515625
1481569198411,2.421536445617676,7.226324081420898,-6.113661766052246
1481569198652,2.4502503871917725,7.178467750549316,-6.094519138336182
1481569198897,2.4646072387695312,7.180860996246338,-6.118447780609131
1481569199100,2.4502503871917725,7.22153902053833,-6.104090690612793
1481569199328,2.3880369663238525,7.22153902053833,-6.130411148071289
1481569199567,2.4598214626312256,7.23589563369751,-6.08016300201416
1481569199807,2.421536445617676,7.176074504852295,-6.120840072631836
1481569200046,2.431107759475708,7.161717891693115,-6.070591449737549
1481569200298,2.4119651317596436,7.180860996246338,-6.1328043937683105
1481569200526,2.416750907897949,7.15932559967041,-6.130411148071289
1481569200736,2.4741785526275635,7.226324081420898,-6.128018856048584
1481569200965,2.4406790733337402,7.219145774841309,-6.111269474029541
1481569201204,2.4263222217559814,7.17368221282959,-6.1256256103515625
1481569201444,2.3976082801818848,7.149754047393799,-6.190232276916504
1481569201693,2.383251428604126,7.204789161682129,-6.08016300201416
1481569201930,2.421536445617676,7.22871732711792,-6.1088762283325195
1481569202136,2.416750907897949,7.197610855102539,-6.149554252624512
1481569202360,2.416750907897949,7.209574222564697,-6.068198204040527
1481569202563,2.3880369663238525,7.188039302825928,-6.137589931488037
1481569202805,2.392822742462158,7.216752529144287,-6.116055011749268
1481569203040,2.4406790733337402,7.195217609405518,-6.068198204040527
1481569203291,2.4598214626312256,7.252645492553711,-6.104090690612793
1481569203534,2.4263222217559814,7.202396392822266,-6.10169792175293
1481569203758,2.493321180343628,7.207180976867676,-6.0538411140441895
1481569203959,2.3784656524658203,7.219145774841309,-6.065804958343506
1481569204199,2.4263222217559814,7.231109619140625,-6.10169792175293
1481569204438,2.455036163330078,7.226324081420898,-6.0538411140441895
1481569204687,2.3736801147460938,7.142575740814209,-6.1256256103515625
1481569204889,2.541177749633789,7.192824840545654,-6.123232841491699
1481569205117,2.4837498664855957,7.216752529144287,-6.147161483764648
1481569205327,2.4741785526275635,7.240681171417236,-6.039484024047852
1481569205554,2.392822742462158,7.255037784576416,-6.068198204040527
1481569205819,2.4119651317596436,7.23589563369751,-6.08494758605957
1481569206035,2.4598214626312256,7.22153902053833,-6.089733123779297
1481569206287,2.469392776489258,7.223931312561035,-6.013163089752197
1481569206515,2.4406790733337402,7.252645492553711,-6.075376510620117
1481569206723,2.445464611053467,7.209574222564697,-6.063412666320801
1481569206939,2.4358932971954346,7.180860996246338,-6.082554817199707
1481569207153,2.421536445617676,7.197610855102539,-6.092126369476318
1481569207393,2.4263222217559814,7.22871732711792,-6.077769756317139
1481569207632,2.421536445617676,7.247859954833984,-6.10169792175293
1481569207883,2.416750907897949,7.207180976867676,-6.135197162628174
1481569208085,2.4023938179016113,7.152146816253662,-6.092126369476318
1481569208314,2.4406790733337402,7.219145774841309,-6.1256256103515625
1481569208520,2.4119651317596436,7.207180976867676,-6.044269561767578
1481569208749,2.4119651317596436,7.209574222564697,-6.034698486328125
1481569209014,2.4263222217559814,7.264609336853027,-6.065804958343506
1481569209229,2.469392776489258,7.22153902053833,-6.104090690612793
1481569209479,2.421536445617676,7.180860996246338,-6.082554817199707
1481569209707,2.3880369663238525,7.264609336853027,-6.065804958343506
1481569209918,2.431107759475708,7.17368221282959,-6.034698486328125
1481569210127,2.4502503871917725,7.183253765106201,-6.092126369476318
1481569210347,2.421536445617676,7.22153902053833,-6.116055011749268
1481569210588,2.4263222217559814,7.207180976867676,-6.075376510620117
1481569210825,2.4119651317596436,7.216752529144287,-6.056234359741211
1481569211076,2.416750907897949,7.226324081420898,-6.099304676055908
1481569211305,2.4263222217559814,7.231109619140625,-6.087340831756592
1481569211512,2.445464611053467,7.22871732711792,-6.1088762283325195
1481569211726,2.4358932971954346,7.207180976867676,-6.039484024047852
1481569211942,2.383251428604126,7.214360237121582,-6.096912384033203
1481569212143,2.3976082801818848,7.214360237121582,-6.092126369476318
1481569212380,2.3736801147460938,7.295715808868408,-6.08016300201416
1481569212610,2.4263222217559814,7.202396392822266,-6.087340831756592
1481569212822,2.431107759475708,7.2335028648376465,-6.106483459472656
1481569213073,2.4406790733337402,7.192824840545654,-6.089733123779297
1481569213300,2.416750907897949,7.216752529144287,-6.10169792175293
1481569213510,2.4598214626312256,7.214360237121582,-6.082554817199707
1481569213724,2.392822742462158,7.226324081420898,-6.058626651763916
1481569213940,2.431107759475708,7.2502522468566895,-6.130411148071289
1481569214175,2.392822742462158,7.238288879394531,-6.104090690612793
1481569214376,2.392822742462158,7.211967468261719,-6.058626651763916
1481569214608,2.3976082801818848,7.214360237121582,-6.092126369476318
1481569214817,2.431107759475708,7.190432548522949,-6.049055576324463
1481569215069,2.421536445617676,7.22871732711792,-6.0466628074646
1481569215297,2.4119651317596436,7.190432548522949,-6.020341873168945
1481569215506,2.431107759475708,7.226324081420898,-6.068198204040527
1481569215736,2.407179594039917,7.271787643432617,-6.089733123779297
1481569215976,2.383251428604126,7.197610855102539,-6.1328043937683105
1481569216215,2.392822742462158,7.23589563369751,-6.065804958343506
1481569216466,2.4119651317596436,7.2574310302734375,-6.058626651763916
1481569216707,2.416750907897949,7.202396392822266,-6.10169792175293
1481569216933,2.4263222217559814,7.245467185974121,-6.037091255187988
1481569217173,2.3976082801818848,7.23589563369751,-6.02512788772583
1481569217375,2.4023938179016113,7.238288879394531,-6.058626651763916
1481569217603,2.407179594039917,7.190432548522949,-6.161518096923828
1481569217812,2.431107759475708,7.238288879394531,-6.058626651763916
1481569218013,2.431107759475708,7.202396392822266,-6.092126369476318
1481569218260,2.3976082801818848,7.23589563369751,-6.08016300201416
1481569218465,2.416750907897949,7.216752529144287,-6.1328043937683105
1481569218690,2.3162522315979004,7.190432548522949,-6.094519138336182
1481569218899,2.4598214626312256,7.204789161682129,-6.161518096923828
1481569219100,2.4119651317596436,7.188039302825928,-6.106483459472656
1481569219312,2.3976082801818848,7.23589563369751,-6.039484024047852
1481569219529,2.4119651317596436,7.23589563369751,-6.051448345184326
1481569219768,2.4119651317596436,7.152146816253662,-6.092126369476318
1481569219969,2.4406790733337402,7.207180976867676,-6.08494758605957
1481569220206,2.5076780319213867,7.168896198272705,-6.111269474029541
1481569220407,2.4885356426239014,7.15932559967041,-6.161518096923828
1481569220656,2.4598214626312256,7.180860996246338,-6.1328043937683105
1481569220857,2.4358932971954346,7.154539585113525,-6.082554817199707
1481569221085,2.3880369663238525,7.190432548522949,-6.099304676055908
1481569221295,2.4406790733337402,7.130610942840576,-6.190232276916504
1481569221510,2.4119651317596436,7.264609336853027,-6.0610198974609375
1481569221725,2.4358932971954346,7.247859954833984,-6.087340831756592
1481569221964,2.3784656524658203,7.180860996246338,-6.1328043937683105
1481569222203,2.392822742462158,7.214360237121582,-6.077769756317139
1481569222452,2.416750907897949,7.271787643432617,-6.0538411140441895
1481569222688,2.416750907897949,7.255037784576416,-6.08016300201416
1481569222905,2.3880369663238525,7.226324081420898,-6.039484024047852
1481569223121,2.3976082801818848,7.200003147125244,-6.065804958343506
1481569223361,2.4263222217559814,7.231109619140625,-6.027520179748535
1481569223600,2.4263222217559814,7.252645492553711,-6.044269561767578
1481569223847,2.421536445617676,7.240681171417236,-6.08494758605957
1481569224052,2.4263222217559814,7.156932830810547,-6.166304588317871
1481569224279,2.407179594039917,7.243074417114258,-6.137589931488037
1481569224490,2.431107759475708,7.226324081420898,-6.08494758605957
1481569224717,2.421536445617676,7.209574222564697,-6.159125804901123
1481569224984,2.431107759475708,7.2813591957092285,-6.005984783172607
1481569225198,2.4119651317596436,7.171289443969727,-6.116055011749268
1481569225447,2.4119651317596436,7.188039302825928,-6.137589931488037
1481569225677,2.416750907897949,7.238288879394531,-6.075376510620117
1481569225891,2.4119651317596436,7.185646057128906,-6.128018856048584
1481569226098,2.421536445617676,7.207180976867676,-6.08494758605957
1481569226318,2.4263222217559814,7.190432548522949,-6.08016300201416
1481569226553,2.4119651317596436,7.226324081420898,-6.068198204040527
1481569226755,2.421536445617676,7.240681171417236,-6.149554252624512
1481569226994,2.421536445617676,7.231109619140625,-6.051448345184326
1481569227245,2.421536445617676,7.209574222564697,-6.063412666320801
1481569227448,2.407179594039917,7.262216091156006,-6.027520179748535
1481569227672,2.431107759475708,7.231109619140625,-6.041877269744873
1481569227881,2.4263222217559814,7.219145774841309,-6.005984783172607
1481569228112,2.407179594039917,7.231109619140625,-6.056234359741211
1481569228351,2.416750907897949,7.216752529144287,-6.070591449737549
1481569228591,2.4263222217559814,7.2574310302734375,-6.089733123779297
1481569228841,2.407179594039917,7.216752529144287,-6.056234359741211
1481569229094,2.368894338607788,7.238288879394531,-6.1256256103515625
1481569229313,2.4119651317596436,7.22153902053833,-6.104090690612793
1481569229548,2.407179594039917,7.252645492553711,-6.056234359741211
1481569229788,2.4119651317596436,7.247859954833984,-6.056234359741211
1481569230036,2.4119651317596436,7.259823799133301,-6.063412666320801
1481569230238,2.407179594039917,7.204789161682129,-6.065804958343506
1481569230467,2.383251428604126,7.231109619140625,-6.082554817199707
1481569230674,2.421536445617676,7.209574222564697,-6.144768238067627
1481569230890,2.4023938179016113,7.185646057128906,-6.10169792175293
1481569231106,2.3784656524658203,7.262216091156006,-6.056234359741211
1481569231346,2.445464611053467,7.243074417114258,-6.0466628074646
1481569231585,2.3880369663238525,7.2335028648376465,-6.106483459472656
1481569231833,2.4358932971954346,7.243074417114258,-6.104090690612793
1481569232034,2.383251428604126,7.255037784576416,-6.068198204040527
1481569232284,2.4023938179016113,7.214360237121582,-6.082554817199707
1481569232503,2.416750907897949,7.267002105712891,-6.10169792175293
1481569232742,2.4023938179016113,7.2335028648376465,-6.0610198974609375
1481569232981,2.3880369663238525,7.22871732711792,-6.017949104309082
1481569233234,2.4023938179016113,7.2335028648376465,-6.075376510620117
1481569233476,2.3976082801818848,7.211967468261719,-6.041877269744873
1481569233699,2.392822742462158,7.176074504852295,-6.116055011749268
1481569233940,2.421536445617676,7.324430465698242,-6.077769756317139
1481569234180,2.4502503871917725,7.111469268798828,-6.180660724639893
1481569234427,2.455036163330078,7.113861560821533,-6.20219612121582
1481569234631,2.4358932971954346,7.030113220214844,-6.257230758666992
1481569234858,2.4598214626312256,7.094719409942627,-6.252446174621582
1481569235065,2.469392776489258,7.013362884521484,-6.247659683227539
1481569235283,2.445464611053467,7.0683979988098145,-6.190232276916504
1481569235497,2.445464611053467,7.070791244506836,-6.228517532348633
1481569235738,2.47896409034729,7.087540626525879,-6.199803352355957
1481569235976,2.47896409034729,7.111469268798828,-6.211767196655273
1481569236226,2.416750907897949,7.113861560821533,-6.235695838928223
1481569236455,2.3641088008880615,7.125825881958008,-6.211767196655273
1481569236694,2.4598214626312256,7.149754047393799,-6.178267955780029
1481569236934,2.4358932971954346,7.097111701965332,-6.151947498321533
1481569237135,2.4502503871917725,7.154539585113525,-6.111269474029541
1481569237363,2.3976082801818848,7.133004188537598,-6.168696403503418
1481569237571,2.4741785526275635,7.190432548522949,-6.116055011749268
1481569237775,2.5459630489349365,7.264609336853027,-6.0466628074646
1481569238022,2.455036163330078,7.202396392822266,-6.0610198974609375
1481569238251,2.4502503871917725,7.214360237121582,-6.142375946044922
1481569238460,2.407179594039917,7.1641106605529785,-6.123232841491699
1481569238665,2.469392776489258,7.192824840545654,-6.094519138336182
1481569238891,2.4263222217559814,7.209574222564697,-6.034698486328125
1481569239130,2.344966173171997,7.211967468261719,-6.027520179748535
1481569239370,2.3162522315979004,7.22153902053833,-6.161518096923828
1481569239619,2.392822742462158,7.2574310302734375,-6.072984218597412
1481569239854,2.359323024749756,7.243074417114258,-6.1088762283325195
1481569240065,2.3641088008880615,7.329216003417969,-6.049055576324463
1481569240288,2.431107759475708,7.252645492553711,-6.104090690612793
1481569240527,2.407179594039917,7.183253765106201,-6.151947498321533
1481569240766,2.4358932971954346,7.202396392822266,-6.106483459472656
1481569241016,2.4119651317596436,7.144968032836914,-6.175874710083008
1481569241245,2.416750907897949,7.2574310302734375,-6.022734642028809
1481569241466,2.4358932971954346,7.142575740814209,-6.166304588317871
1481569241684,2.3497519493103027,7.200003147125244,-6.142375946044922
1481569241885,2.3497519493103027,7.185646057128906,-6.082554817199707
1481569242125,2.455036163330078,7.324430465698242,-6.128018856048584
1481569242363,2.4406790733337402,6.824329853057861,-6.429513931274414
1481569242615,2.3976082801818848,6.656832218170166,-6.716653347015381
1481569242858,2.4502503871917725,6.829115867614746,-6.410372257232666
1481569243083,2.445464611053467,7.037291049957275,-6.290730953216553
1481569243322,2.445464611053467,7.044469833374023,-6.223731517791748
1481569243560,2.4358932971954346,7.044469833374023,-6.238089084625244
1481569243811,2.4263222217559814,7.082754611968994,-6.2668023109436035
1481569244059,2.4598214626312256,7.180860996246338,-6.1950178146362305
1481569244279,2.47896409034729,6.92482852935791,-6.4941205978393555
1481569244480,2.431107759475708,7.094719409942627,-6.238089084625244
1481569244719,2.4598214626312256,7.082754611968994,-6.230910301208496
1481569244950,2.3545374870300293,7.044469833374023,-6.302694320678711
1481569245158,2.297109842300415,7.216752529144287,-6.151947498321533
1481569245408,2.421536445617676,7.058826446533203,-6.192624568939209
1481569245652,2.416750907897949,7.111469268798828,-6.242874622344971
1481569245877,2.4358932971954346,7.0923261642456055,-6.187839508056641
1481569246117,2.4263222217559814,7.075576305389404,-6.178267955780029
1481569246356,2.4837498664855957,7.063612461090088,-6.221338748931885
1481569246606,2.4119651317596436,7.106683254241943,-6.228517532348633
1481569246839,2.4358932971954346,7.125825881958008,-6.166304588317871
1481569247073,2.4263222217559814,7.085147857666016,-6.226124286651611
1481569247313,2.4502503871917725,7.0683979988098145,-6.204589366912842
1481569247552,2.407179594039917,7.101897716522217,-6.180660724639893
1481569247806,2.407179594039917,7.135397434234619,-6.159125804901123
1481569248042,2.4119651317596436,7.097111701965332,-6.199803352355957
1481569248252,2.421536445617676,7.125825881958008,-6.180660724639893
1481569248472,2.407179594039917,7.116254806518555,-6.1950178146362305
1481569248711,2.431107759475708,7.130610942840576,-6.226124286651611
1481569248951,2.4119651317596436,7.118647575378418,-6.204589366912842
1481569249201,2.4119651317596436,7.080362319946289,-6.211767196655273
1481569249442,2.407179594039917,7.097111701965332,-6.197411060333252
1481569249667,2.383251428604126,7.125825881958008,-6.180660724639893
1481569249868,2.4263222217559814,7.104290962219238,-6.209374904632568
1481569250106,2.4502503871917725,7.121039390563965,-6.223731517791748
1481569250307,2.416750907897949,7.085147857666016,-6.226124286651611
1481569250508,2.407179594039917,7.063612461090088,-6.175874710083008
1481569250747,2.3976082801818848,7.1401824951171875,-6.221338748931885
1481569250997,2.392822742462158,7.056434154510498,-6.1950178146362305
1481569251226,2.4358932971954346,7.085147857666016,-6.285945415496826
1481569251458,2.407179594039917,7.054040908813477,-6.130411148071289
1481569251665,2.4263222217559814,6.948756694793701,-6.350551128387451
1481569251905,2.3545374870300293,7.137789726257324,-6.214160442352295
1481569252144,2.3784656524658203,7.200003147125244,-6.252446174621582
1481569252394,2.407179594039917,7.003791332244873,-6.32662296295166
1481569252637,2.4119651317596436,7.202396392822266,-6.056234359741211
1481569252864,2.3736801147460938,7.192824840545654,-6.168696403503418
1481569253123,2.589033842086792,6.860222339630127,-6.553941249847412
1481569253343,2.47896409034729,6.967899799346924,-6.357729434967041
1481569253593,2.4981069564819336,6.898508071899414,-6.391229152679443