,timestamp,ax,ay,az
0,5000.0,-8.842385292053223,1.3563152551651,2.421136379241944
1,5100.0,-8.842385292053223,1.3563152551651,2.421136379241944
2,5200.0,-8.842385292053223,1.3563152551651,2.421136379241944
3,5300.0,-7.877521991729736,-19.608510971069336,-7.933785915374756
4,5400.0,-7.877521991729736,-19.608510971069336,-7.933785915374756
5,5500.0,-3.4404678344726562,-0.02454056777060032,0.6003460884094238
6,5600.0,-4.047996520996094,-11.12106704711914,0.5602431893348694
7,5700.0,-4.047996520996094,-11.12106704711914,0.5602431893348694
8,5800.0,4.467580318450928,4.4933180809021,3.9013516902923584
9,5900.0,4.467580318450928,4.4933180809021,3.9013516902923584
10,6000.0,1.4544775485992432,-10.452486038208008,1.039083480834961
11,6100.0,1.4544775485992432,-10.452486038208008,1.039083480834961
12,6200.0,-8.212111473083496,-2.5671827793121342,-5.545569896697998
13,6300.0,-8.212111473083496,-2.5671827793121342,-5.545569896697998
14,6400.0,-6.568492412567139,-19.608510971069336,7.046135425567628
15,6500.0,2.36188006401062,-2.8107926845550537,-2.4905683994293213
16,6600.0,2.36188006401062,-2.8107926845550537,-2.4905683994293213
17,6700.0,-8.231863975524902,-19.608510971069336,-0.3076549172401428
18,6800.0,-8.231863975524902,-19.608510971069336,-0.3076549172401428
19,6900.0,-11.668142318725586,-5.77062463760376,4.463390350341797
20,6000.0,1.4544775485992432,-10.452486038208008,1.039083480834961
21,6100.0,1.4544775485992432,-10.452486038208008,1.039083480834961
22,6200.0,-8.212111473083496,-2.5671827793121342,-5.545569896697998
23,6300.0,-8.212111473083496,-2.5671827793121342,-5.545569896697998
24,6400.0,-6.568492412567139,-19.608510971069336,7.046135425567628
25,6500.0,2.36188006401062,-2.8107926845550537,-2.4905683994293213
26,6600.0,2.36188006401062,-2.8107926845550537,-2.4905683994293213
27,6700.0,-8.231863975524902,-19.608510971069336,-0.3076549172401428
28,6800.0,-8.231863975524902,-19.608510971069336,-0.3076549172401428
29,6900.0,-11.668142318725586,-5.77062463760376,4.463390350341797
30,7000.0,-11.668142318725586,-5.77062463760376,4.463390350341797
31,7100.0,-3.725377798080444,-7.262810707092285,-2.1990742683410645
32,7200.0,-3.725377798080444,-7.262810707092285,-2.1990742683410645
33,7300.0,-2.350507497787476,-7.1490864753723145,0.4626794755458832
34,7400.0,1.0109516382217407,-15.686809539794922,8.260594367980957
35,7500.0,1.0109516382217407,-15.686809539794922,8.260594367980957
36,7600.0,-7.105990409851074,-9.189544677734377,-1.7956513166427612
37,7700.0,-7.105990409851074,-9.189544677734377,-1.7956513166427612
38,7800.0,0.4291606545448303,0.487220048904419,-0.7475894689559937
39,7900.0,0.4291606545448303,0.487220048904419,-0.7475894689559937
40,7000.0,-11.668142318725586,-5.77062463760376,4.463390350341797
41,7100.0,-3.725377798080444,-7.262810707092285,-2.1990742683410645
42,7200.0,-3.725377798080444,-7.262810707092285,-2.1990742683410645
43,7300.0,-2.350507497787476,-7.1490864753723145,0.4626794755458832
44,7400.0,1.0109516382217407,-15.686809539794922,8.260594367980957
45,7500.0,1.0109516382217407,-15.686809539794922,8.260594367980957
46,7600.0,-7.105990409851074,-9.189544677734377,-1.7956513166427612
47,7700.0,-7.105990409851074,-9.189544677734377,-1.7956513166427612
48,7800.0,0.4291606545448303,0.487220048904419,-0.7475894689559937
49,7900.0,0.4291606545448303,0.487220048904419,-0.7475894689559937
50,8000.0,-6.8617820739746085,-9.993996620178224,-1.0642226934432983
51,8100.0,-6.8617820739746085,-9.993996620178224,-1.0642226934432983
52,8200.0,-1.2384008169174194,-3.7487213611602783,-4.061164855957031
53,8300.0,-7.4794859886169425,-18.373703002929688,-1.859097599983216
54,8400.0,-7.4794859886169425,-18.373703002929688,-1.859097599983216
55,8500.0,-1.4107834100723269,1.4431051015853882,-1.6059107780456543
56,8600.0,-1.4107834100723269,1.4431051015853882,-1.6059107780456543
57,8700.0,-4.274248600006104,-12.419920921325685,1.2743138074874878
58,8800.0,-4.274248600006104,-12.419920921325685,1.2743138074874878
59,8900.0,-2.448071241378784,3.9474401473999023,11.95365047454834
60,8000.0,-6.8617820739746085,-9.993996620178224,-1.0642226934432983
61,8100.0,-6.8617820739746085,-9.993996620178224,-1.0642226934432983
62,8200.0,-1.2384008169174194,-3.7487213611602783,-4.061164855957031
63,8300.0,-7.4794859886169425,-18.373703002929688,-1.859097599983216
64,8400.0,-7.4794859886169425,-18.373703002929688,-1.859097599983216
65,8500.0,-1.4107834100723269,1.4431051015853882,-1.6059107780456543
66,8600.0,-1.4107834100723269,1.4431051015853882,-1.6059107780456543
67,8700.0,-4.274248600006104,-12.419920921325685,1.2743138074874878
68,8800.0,-4.274248600006104,-12.419920921325685,1.2743138074874878
69,8900.0,-2.448071241378784,3.9474401473999023,11.95365047454834
70,9000.0,-2.448071241378784,3.9474401473999023,11.95365047454834
71,9100.0,0.7032967209815979,-9.77672290802002,-4.887164115905762
72,9200.0,-4.262277603149413,-2.832340717315674,-2.0362684726715092
73,9300.0,-4.262277603149413,-2.832340717315674,-2.0362684726715092
74,9400.0,1.3078327178955078,-19.542072296142575,2.1422119140625
75,9500.0,1.3078327178955078,-19.542072296142575,2.1422119140625
76,9600.0,5.744886875152588,2.4612393379211426,-0.041299980133771896
77,9700.0,5.744886875152588,2.4612393379211426,-0.041299980133771896
78,9800.0,-2.1888988018035893,-16.75282859802246,-8.409034729003906
79,9900.0,-2.1888988018035893,-16.75282859802246,-8.409034729003906
80,9000.0,-2.448071241378784,3.9474401473999023,11.95365047454834
81,9100.0,0.7032967209815979,-9.77672290802002,-4.887164115905762
82,9200.0,-4.262277603149413,-2.832340717315674,-2.0362684726715092
83,9300.0,-4.262277603149413,-2.832340717315674,-2.0362684726715092
84,9400.0,1.3078327178955078,-19.542072296142575,2.1422119140625
85,9500.0,1.3078327178955078,-19.542072296142575,2.1422119140625
86,9600.0,5.744886875152588,2.4612393379211426,-0.041299980133771896
87,9700.0,5.744886875152588,2.4612393379211426,-0.041299980133771896
88,9800.0,-2.1888988018035893,-16.75282859802246,-8.409034729003906
89,9900.0,-2.1888988018035893,-16.75282859802246,-8.409034729003906
90,10000.0,-11.316792488098145,-1.016338586807251,-0.013168109580874443
91,10100.0,-7.3891048431396475,-19.608510971069336,5.439626216888428
92,10200.0,-7.3891048431396475,-19.608510971069336,5.439626216888428
93,10300.0,3.5559880733489986,-3.26688814163208,-2.185906171798706
94,10400.0,3.5559880733489986,-3.26688814163208,-2.185906171798706
95,10500.0,-5.527613162994385,-19.608510971069336,0.3740940093994141
96,10600.0,-5.527613162994385,-19.608510971069336,0.3740940093994141
97,10700.0,-10.773308753967283,-1.7764976024627686,-1.5442601442337036
98,10800.0,-10.773308753967283,-1.7764976024627686,-1.5442601442337036
99,10900.0,-15.07329559326172,-19.608510971069336,2.1332337856292725
100,10000.0,-11.316792488098145,-1.016338586807251,-0.013168109580874443
101,10100.0,-7.3891048431396475,-19.608510971069336,5.439626216888428
102,10200.0,-7.3891048431396475,-19.608510971069336,5.439626216888428
103,10300.0,3.5559880733489986,-3.26688814163208,-2.185906171798706
104,10400.0,3.5559880733489986,-3.26688814163208,-2.185906171798706
105,10500.0,-5.527613162994385,-19.608510971069336,0.3740940093994141
106,10600.0,-5.527613162994385,-19.608510971069336,0.3740940093994141
107,10700.0,-10.773308753967283,-1.7764976024627686,-1.5442601442337036
108,10800.0,-10.773308753967283,-1.7764976024627686,-1.5442601442337036
109,10900.0,-15.07329559326172,-19.608510971069336,2.1332337856292725
110,11000.0,1.4131776094436646,-6.380547523498535,-1.5286977291107178
111,11100.0,1.4131776094436646,-6.380547523498535,-1.5286977291107178
112,11200.0,0.6661866307258606,-14.07730770111084,2.188300371170044
113,11300.0,0.6661866307258606,-14.07730770111084,2.188300371170044
114,11400.0,-6.880337238311768,-4.2706570625305185,-4.552574634552002
115,11500.0,-6.880337238311768,-4.2706570625305185,-4.552574634552002
116,11600.0,-7.062296390533447,-6.202777862548827,-3.515286684036255
117,11700.0,-7.062296390533447,-6.202777862548827,-3.515286684036255
118,11800.0,-0.8738836050033569,-6.540360450744629,-1.8471266031265257
119,11900.0,1.1222820281982422,-2.2625205516815186,2.320580005645752
120,11000.0,1.4131776094436646,-6.380547523498535,-1.5286977291107178
121,11100.0,1.4131776094436646,-6.380547523498535,-1.5286977291107178
122,11200.0,0.6661866307258606,-14.07730770111084,2.188300371170044
123,11300.0,0.6661866307258606,-14.07730770111084,2.188300371170044
124,11400.0,-6.880337238311768,-4.2706570625305185,-4.552574634552002
125,11500.0,-6.880337238311768,-4.2706570625305185,-4.552574634552002
126,11600.0,-7.062296390533447,-6.202777862548827,-3.515286684036255
127,11700.0,-7.062296390533447,-6.202777862548827,-3.515286684036255
128,11800.0,-0.8738836050033569,-6.540360450744629,-1.8471266031265257
129,11900.0,1.1222820281982422,-2.2625205516815186,2.320580005645752
130,12000.0,1.1222820281982422,-2.2625205516815186,2.320580005645752
131,12100.0,-17.264589309692386,-5.779603004455566,11.063606262207033
132,12200.0,-17.264589309692386,-5.779603004455566,11.063606262207033
133,12300.0,-2.6222493648529053,-3.9223008155822754,-3.4763808250427246
134,12400.0,-2.6222493648529053,-3.9223008155822754,-3.4763808250427246
135,12500.0,0.7487865686416626,-7.836222171783447,-1.162384867668152
136,12600.0,0.7487865686416626,-7.836222171783447,-1.162384867668152
137,12700.0,0.008978256024420261,-2.80899715423584,-1.1240776777267456
138,12800.0,-15.36239528656006,-5.728725910186768,10.814010620117188
139,12900.0,-15.36239528656006,-5.728725910186768,10.814010620117188
140,12000.0,1.1222820281982422,-2.2625205516815186,2.320580005645752
141,12100.0,-17.264589309692386,-5.779603004455566,11.063606262207033
142,12200.0,-17.264589309692386,-5.779603004455566,11.063606262207033
143,12300.0,-2.6222493648529053,-3.9223008155822754,-3.4763808250427246
144,12400.0,-2.6222493648529053,-3.9223008155822754,-3.4763808250427246
145,12500.0,0.7487865686416626,-7.836222171783447,-1.162384867668152
146,12600.0,0.7487865686416626,-7.836222171783447,-1.162384867668152
147,12700.0,0.008978256024420261,-2.80899715423584,-1.1240776777267456
148,12800.0,-15.36239528656006,-5.728725910186768,10.814010620117188
149,12900.0,-15.36239528656006,-5.728725910186768,10.814010620117188
150,13000.0,-0.4896142482757568,0.6500257849693298,-2.106298923492432
151,13100.0,-0.4896142482757568,0.6500257849693298,-2.106298923492432
152,13200.0,-4.879981517791748,-6.5912370681762695,2.482787132263184
153,13300.0,-4.879981517791748,-6.5912370681762695,2.482787132263184
154,13400.0,1.0271124839782717,-0.6159083843231201,-2.682703018188477
155,13500.0,1.0271124839782717,-0.6159083843231201,-2.682703018188477
156,13600.0,-9.556455612182617,-6.543353080749513,11.511919975280762
157,13700.0,1.4311341047286987,1.6178817749023438,-0.8319851160049438
158,13800.0,1.4311341047286987,1.6178817749023438,-0.8319851160049438
159,13900.0,-5.9944825172424325,-5.809530258178711,-3.899555921554565
160,13000.0,-0.4896142482757568,0.6500257849693298,-2.106298923492432
161,13100.0,-0.4896142482757568,0.6500257849693298,-2.106298923492432
162,13200.0,-4.879981517791748,-6.5912370681762695,2.482787132263184
163,13300.0,-4.879981517791748,-6.5912370681762695,2.482787132263184
164,13400.0,1.0271124839782717,-0.6159083843231201,-2.682703018188477
165,13500.0,1.0271124839782717,-0.6159083843231201,-2.682703018188477
166,13600.0,-9.556455612182617,-6.543353080749513,11.511919975280762
167,13700.0,1.4311341047286987,1.6178817749023438,-0.8319851160049438
168,13800.0,1.4311341047286987,1.6178817749023438,-0.8319851160049438
169,13900.0,-5.9944825172424325,-5.809530258178711,-3.899555921554565
170,14000.0,-5.9944825172424325,-5.809530258178711,-3.899555921554565
171,14100.0,-5.065532207489014,-3.335721492767334,2.1039047241210938
172,14200.0,-5.065532207489014,-3.335721492767334,2.1039047241210938
173,14300.0,-10.553641319274902,-14.195820808410645,-3.131017208099365
174,14400.0,-10.553641319274902,-14.195820808410645,-3.131017208099365
175,14500.0,0.7212532758712769,0.9397241473197936,0.5536591410636902
176,14600.0,-5.549759387969972,-7.993042469024657,-3.405751943588257
177,14700.0,-5.549759387969972,-7.993042469024657,-3.405751943588257
178,14800.0,-6.710947513580322,-4.254496574401856,4.034828186035156
179,14900.0,-6.710947513580322,-4.254496574401856,4.034828186035156
180,14000.0,-5.9944825172424325,-5.809530258178711,-3.899555921554565
181,14100.0,-5.065532207489014,-3.335721492767334,2.1039047241210938
182,14200.0,-5.065532207489014,-3.335721492767334,2.1039047241210938
183,14300.0,-10.553641319274902,-14.195820808410645,-3.131017208099365
184,14400.0,-10.553641319274902,-14.195820808410645,-3.131017208099365
185,14500.0,0.7212532758712769,0.9397241473197936,0.5536591410636902
186,14600.0,-5.549759387969972,-7.993042469024657,-3.405751943588257
187,14700.0,-5.549759387969972,-7.993042469024657,-3.405751943588257
188,14800.0,-6.710947513580322,-4.254496574401856,4.034828186035156
189,14900.0,-6.710947513580322,-4.254496574401856,4.034828186035156
190,15000.0,-9.273940086364746,-19.608510971069336,-4.746504783630371
191,15100.0,-9.273940086364746,-19.608510971069336,-4.746504783630371
192,15200.0,-1.8872294425964355,-1.1725603342056274,-1.8997989892959601
193,15300.0,-1.8872294425964355,-1.1725603342056274,-1.8997989892959601
194,15400.0,-7.177816867828369,-11.82915210723877,0.04369417950510979
195,15500.0,5.393537998199463,4.480149745941162,4.7195701599121085
196,15600.0,5.393537998199463,4.480149745941162,4.7195701599121085
197,15700.0,-0.1867477297782898,-12.991537094116213,-4.902726650238037
198,15800.0,-0.1867477297782898,-12.991537094116213,-4.902726650238037
199,15900.0,-4.67827033996582,-4.912901878356934,-2.8640637397766118
200,15000.0,-9.273940086364746,-19.608510971069336,-4.746504783630371
201,15100.0,-9.273940086364746,-19.608510971069336,-4.746504783630371
202,15200.0,-1.8872294425964355,-1.1725603342056274,-1.8997989892959601
203,15300.0,-1.8872294425964355,-1.1725603342056274,-1.8997989892959601
204,15400.0,-7.177816867828369,-11.82915210723877,0.04369417950510979
205,15500.0,5.393537998199463,4.480149745941162,4.7195701599121085
206,15600.0,5.393537998199463,4.480149745941162,4.7195701599121085
207,15700.0,-0.1867477297782898,-12.991537094116213,-4.902726650238037
208,15800.0,-0.1867477297782898,-12.991537094116213,-4.902726650238037
209,15900.0,-4.67827033996582,-4.912901878356934,-2.8640637397766118
210,16000.0,-4.67827033996582,-4.912901878356934,-2.8640637397766118
211,16100.0,0.1735796183347702,-19.608510971069336,3.133411407470703
212,16200.0,0.1735796183347702,-19.608510971069336,3.133411407470703
213,16300.0,12.934076309204102,6.336853504180907,6.385934352874756
214,16400.0,-1.423951506614685,-12.542624473571776,-6.473921298980713
215,16500.0,-1.423951506614685,-12.542624473571776,-6.473921298980713
216,16600.0,-4.605247020721436,-0.5776011347770691,-1.0229226350784302
217,16700.0,-4.605247020721436,-0.5776011347770691,-1.0229226350784302
218,16800.0,-7.393294811248777,-19.608510971069336,3.631405353546143
219,16900.0,-7.393294811248777,-19.608510971069336,3.631405353546143
220,16000.0,-4.67827033996582,-4.912901878356934,-2.8640637397766118
221,16100.0,0.1735796183347702,-19.608510971069336,3.133411407470703
222,16200.0,0.1735796183347702,-19.608510971069336,3.133411407470703
223,16300.0,12.934076309204102,6.336853504180907,6.385934352874756
224,16400.0,-1.423951506614685,-12.542624473571776,-6.473921298980713
225,16500.0,-1.423951506614685,-12.542624473571776,-6.473921298980713
226,16600.0,-4.605247020721436,-0.5776011347770691,-1.0229226350784302
227,16700.0,-4.605247020721436,-0.5776011347770691,-1.0229226350784302
228,16800.0,-7.393294811248777,-19.608510971069336,3.631405353546143
229,16900.0,-7.393294811248777,-19.608510971069336,3.631405353546143
230,17000.0,4.752490520477295,2.115875720977783,-0.5931634902954102
231,17100.0,4.752490520477295,2.115875720977783,-0.5931634902954102
232,17200.0,-0.30885201692581177,-12.847286224365234,-6.568492412567139
233,17300.0,-8.191761016845701,-1.7998411655426023,-1.6089035272598269
234,17400.0,-8.191761016845701,-1.7998411655426023,-1.6089035272598269
235,17500.0,-6.994660377502441,-19.608510971069336,3.251325845718384
236,17600.0,-6.994660377502441,-19.608510971069336,3.251325845718384
237,17700.0,4.598662853240967,1.7561469078063965,-0.9720458984375
238,17800.0,4.598662853240967,1.7561469078063965,-0.9720458984375
239,17900.0,-0.6117185354232788,-19.596540451049805,-6.3272767066955575
240,17000.0,4.752490520477295,2.115875720977783,-0.5931634902954102
241,17100.0,4.752490520477295,2.115875720977783,-0.5931634902954102
242,17200.0,-0.30885201692581177,-12.847286224365234,-6.568492412567139
243,17300.0,-8.191761016845701,-1.7998411655426023,-1.6089035272598269
244,17400.0,-8.191761016845701,-1.7998411655426023,-1.6089035272598269
245,17500.0,-6.994660377502441,-19.608510971069336,3.251325845718384
246,17600.0,-6.994660377502441,-19.608510971069336,3.251325845718384
247,17700.0,4.598662853240967,1.7561469078063965,-0.9720458984375
248,17800.0,4.598662853240967,1.7561469078063965,-0.9720458984375
249,17900.0,-0.6117185354232788,-19.596540451049805,-6.3272767066955575
250,18000.0,-0.6117185354232788,-19.596540451049805,-6.3272767066955575
251,18100.0,-6.9479732513427725,-2.233191728591919,-2.9765913486480717
252,18200.0,-16.633716583251953,-19.608510971069336,3.287837505340576
253,18300.0,-16.633716583251953,-19.608510971069336,3.287837505340576
254,18400.0,4.178480625152588,0.9510966539382936,-2.9155390262603764
255,18500.0,4.178480625152588,0.9510966539382936,-2.9155390262603764
256,18600.0,2.8119897842407227,-19.608510971069336,-6.454169273376465
257,18700.0,2.8119897842407227,-19.608510971069336,-6.454169273376465
258,18800.0,-8.674192428588867,2.831143617630005,-1.498770236968994
259,18900.0,-8.674192428588867,2.831143617630005,-1.498770236968994
260,18000.0,-0.6117185354232788,-19.596540451049805,-6.3272767066955575
261,18100.0,-6.9479732513427725,-2.233191728591919,-2.9765913486480717
262,18200.0,-16.633716583251953,-19.608510971069336,3.287837505340576
263,18300.0,-16.633716583251953,-19.608510971069336,3.287837505340576
264,18400.0,4.178480625152588,0.9510966539382936,-2.9155390262603764
265,18500.0,4.178480625152588,0.9510966539382936,-2.9155390262603764
266,18600.0,2.8119897842407227,-19.608510971069336,-6.454169273376465
267,18700.0,2.8119897842407227,-19.608510971069336,-6.454169273376465
268,18800.0,-8.674192428588867,2.831143617630005,-1.498770236968994
269,18900.0,-8.674192428588867,2.831143617630005,-1.498770236968994
270,19000.0,-12.627019882202148,-19.608510971069336,2.873640537261963
271,19100.0,4.2969937324523935,0.20709845423698425,-3.678690910339357
272,19200.0,4.2969937324523935,0.20709845423698425,-3.678690910339357
273,19300.0,1.6974890232086182,-19.608510971069336,-5.902305603027344
274,19400.0,1.6974890232086182,-19.608510971069336,-5.902305603027344
275,19500.0,-6.494272232055664,-1.63344407081604,-1.0384849309921265
276,19600.0,-6.494272232055664,-1.63344407081604,-1.0384849309921265
277,19700.0,-17.75719451904297,-19.608510971069336,0.6967126727104187
278,19800.0,-17.75719451904297,-19.608510971069336,0.6967126727104187
279,19900.0,3.0621838569641118,-1.839944005012512,-2.9017724990844727
280,19000.0,-12.627019882202148,-19.608510971069336,2.873640537261963
281,19100.0,4.2969937324523935,0.20709845423698425,-3.678690910339357
282,19200.0,4.2969937324523935,0.20709845423698425,-3.678690910339357
283,19300.0,1.6974890232086182,-19.608510971069336,-5.902305603027344
284,19400.0,1.6974890232086182,-19.608510971069336,-5.902305603027344
285,19500.0,-6.494272232055664,-1.63344407081604,-1.0384849309921265
286,19600.0,-6.494272232055664,-1.63344407081604,-1.0384849309921265
287,19700.0,-17.75719451904297,-19.608510971069336,0.6967126727104187
288,19800.0,-17.75719451904297,-19.608510971069336,0.6967126727104187
289,19900.0,3.0621838569641118,-1.839944005012512,-2.9017724990844727
290,20000.0,4.811148166656494,-19.608510971069336,6.8144965171813965
291,20100.0,4.811148166656494,-19.608510971069336,6.8144965171813965
292,20200.0,-11.091737747192383,-0.5153518915176392,-6.105813026428223
293,20300.0,-11.091737747192383,-0.5153518915176392,-6.105813026428223
294,20400.0,-10.948684692382812,-16.724098205566403,5.470152378082275
295,20500.0,-10.948684692382812,-16.724098205566403,5.470152378082275
296,20600.0,1.7334020137786863,-4.003105163574219,-1.5520412921905518
297,20700.0,1.7334020137786863,-4.003105163574219,-1.5520412921905518
298,20800.0,5.000290393829347,-18.212093353271484,8.476072311401367
299,20900.0,-6.953360080718994,-1.853710651397705,-8.675390243530272
300,20000.0,4.811148166656494,-19.608510971069336,6.8144965171813965
301,20100.0,4.811148166656494,-19.608510971069336,6.8144965171813965
302,20200.0,-11.091737747192383,-0.5153518915176392,-6.105813026428223
303,20300.0,-11.091737747192383,-0.5153518915176392,-6.105813026428223
304,20400.0,-10.948684692382812,-16.724098205566403,5.470152378082275
305,20500.0,-10.948684692382812,-16.724098205566403,5.470152378082275
306,20600.0,1.7334020137786863,-4.003105163574219,-1.5520412921905518
307,20700.0,1.7334020137786863,-4.003105163574219,-1.5520412921905518
308,20800.0,5.000290393829347,-18.212093353271484,8.476072311401367
309,20900.0,-6.953360080718994,-1.853710651397705,-8.675390243530272
310,21000.0,-6.953360080718994,-1.853710651397705,-8.675390243530272
311,21100.0,-5.037400245666504,-5.0906715393066415,0.7134721279144287
312,21200.0,-5.037400245666504,-5.0906715393066415,0.7134721279144287
313,21300.0,-0.3740940093994141,-5.9501895904541025,0.0867898091673851
314,21400.0,-0.3740940093994141,-5.9501895904541025,0.0867898091673851
315,21500.0,2.0135235786438,-19.608510971069336,3.67928957939148
316,21600.0,2.0135235786438,-19.608510971069336,3.67928957939148
317,21700.0,-6.469731330871582,-4.514267444610597,-8.471882820129395
318,21800.0,-0.7050924301147461,-4.0970778465271005,2.346317768096924
319,21900.0,-0.7050924301147461,-4.0970778465271005,2.346317768096924
320,21000.0,-6.953360080718994,-1.853710651397705,-8.675390243530272
321,21100.0,-5.037400245666504,-5.0906715393066415,0.7134721279144287
322,21200.0,-5.037400245666504,-5.0906715393066415,0.7134721279144287
323,21300.0,-0.3740940093994141,-5.9501895904541025,0.0867898091673851
324,21400.0,-0.3740940093994141,-5.9501895904541025,0.0867898091673851
325,21500.0,2.0135235786438,-19.608510971069336,3.67928957939148
326,21600.0,2.0135235786438,-19.608510971069336,3.67928957939148
327,21700.0,-6.469731330871582,-4.514267444610597,-8.471882820129395
328,21800.0,-0.7050924301147461,-4.0970778465271005,2.346317768096924
329,21900.0,-0.7050924301147461,-4.0970778465271005,2.346317768096924
330,22000.0,0.656609833240509,-6.53377628326416,-0.2855085432529449
331,22100.0,0.656609833240509,-6.53377628326416,-0.2855085432529449
332,22200.0,-2.783259391784668,-10.36988639831543,2.2667105197906494
333,22300.0,-2.783259391784668,-10.36988639831543,2.2667105197906494
334,22400.0,-10.568604469299316,-3.652953147888184,-1.4790180921554563
335,22500.0,-10.568604469299316,-3.652953147888184,-1.4790180921554563
336,22600.0,-3.471592426300049,-4.715978622436523,0.8020575642585754
337,22700.0,-3.471592426300049,-4.715978622436523,0.8020575642585754
338,22800.0,-0.7745242714881897,-6.7714009284973145,-1.3000515699386597
339,22900.0,-3.7906198501586914,-3.957615375518799,-4.954201698303223
340,22000.0,0.656609833240509,-6.53377628326416,-0.2855085432529449
341,22100.0,0.656609833240509,-6.53377628326416,-0.2855085432529449
342,22200.0,-2.783259391784668,-10.36988639831543,2.2667105197906494
343,22300.0,-2.783259391784668,-10.36988639831543,2.2667105197906494
344,22400.0,-10.568604469299316,-3.652953147888184,-1.4790180921554563
345,22500.0,-10.568604469299316,-3.652953147888184,-1.4790180921554563
346,22600.0,-3.471592426300049,-4.715978622436523,0.8020575642585754
347,22700.0,-3.471592426300049,-4.715978622436523,0.8020575642585754
348,22800.0,-0.7745242714881897,-6.7714009284973145,-1.3000515699386597
349,22900.0,-3.7906198501586914,-3.957615375518799,-4.954201698303223
350,23000.0,-3.7906198501586914,-3.957615375518799,-4.954201698303223
351,23100.0,-7.308300495147705,-7.514202117919923,-2.8760347366333012
352,23200.0,-7.308300495147705,-7.514202117919923,-2.8760347366333012
353,23300.0,-1.7088614702224731,-5.011662483215332,2.749740600585937
354,23400.0,-1.7088614702224731,-5.011662483215332,2.749740600585937
355,23500.0,0.8038532137870789,-7.1281371116638175,1.561618089675903
356,23600.0,0.8038532137870789,-7.1281371116638175,1.561618089675903
357,23700.0,-1.4766238927841189,-1.0456676483154297,-6.3242835998535165
358,23800.0,-9.326014518737793,-9.424775123596193,-2.1559786796569824
359,23900.0,-9.326014518737793,-9.424775123596193,-2.1559786796569824
360,23000.0,-3.7906198501586914,-3.957615375518799,-4.954201698303223
361,23100.0,-7.308300495147705,-7.514202117919923,-2.8760347366333012
362,23200.0,-7.308300495147705,-7.514202117919923,-2.8760347366333012
363,23300.0,-1.7088614702224731,-5.011662483215332,2.749740600585937
364,23400.0,-1.7088614702224731,-5.011662483215332,2.749740600585937
365,23500.0,0.8038532137870789,-7.1281371116638175,1.561618089675903
366,23600.0,0.8038532137870789,-7.1281371116638175,1.561618089675903
367,23700.0,-1.4766238927841189,-1.0456676483154297,-6.3242835998535165
368,23800.0,-9.326014518737793,-9.424775123596193,-2.1559786796569824
369,23900.0,-9.326014518737793,-9.424775123596193,-2.1559786796569824
370,24000.0,0.7667431235313416,1.8986018896102903,0.6865373253822327
371,24100.0,0.7667431235313416,1.8986018896102903,0.6865373253822327
372,24200.0,-0.518943190574646,-6.913856029510497,1.5167267322540283
373,24300.0,-0.518943190574646,-6.913856029510497,1.5167267322540283
374,24400.0,-1.1713632345199585,-0.7799112200737,-3.9396588802337646
375,24500.0,-1.1713632345199585,-0.7799112200737,-3.9396588802337646
376,24600.0,-9.282320022583008,-7.728483200073242,-0.9391255974769592
377,24700.0,0.5949591398239136,2.5755624771118164,1.6406266689300537
378,24800.0,0.5949591398239136,2.5755624771118164,1.6406266689300537
379,24900.0,-2.879626035690308,-6.762422561645508,0.0041898530907928935
380,24000.0,0.7667431235313416,1.8986018896102903,0.6865373253822327
381,24100.0,0.7667431235313416,1.8986018896102903,0.6865373253822327
382,24200.0,-0.518943190574646,-6.913856029510497,1.5167267322540283
383,24300.0,-0.518943190574646,-6.913856029510497,1.5167267322540283
384,24400.0,-1.1713632345199585,-0.7799112200737,-3.9396588802337646
385,24500.0,-1.1713632345199585,-0.7799112200737,-3.9396588802337646
386,24600.0,-9.282320022583008,-7.728483200073242,-0.9391255974769592
387,24700.0,0.5949591398239136,2.5755624771118164,1.6406266689300537
388,24800.0,0.5949591398239136,2.5755624771118164,1.6406266689300537
389,24900.0,-2.879626035690308,-6.762422561645508,0.0041898530907928935
390,25000.0,-2.879626035690308,-6.762422561645508,0.0041898530907928935
391,25100.0,-1.8710685968399048,-0.5925649404525757,-4.763862609863281
392,25200.0,-1.8710685968399048,-0.5925649404525757,-4.763862609863281
393,25300.0,-7.888296127319336,-8.491036415100098,-2.495356798171997
394,25400.0,1.2761094570159912,1.0097545385360718,2.268506050109864
395,25500.0,1.2761094570159912,1.0097545385360718,2.268506050109864
396,25600.0,-4.1216182708740225,-5.698798656463622,-0.4626794755458832
397,25700.0,-4.1216182708740225,-5.698798656463622,-0.4626794755458832
398,25800.0,-3.457825899124145,-0.7966706156730652,-2.3038206100463867
399,25900.0,-3.457825899124145,-0.7966706156730652,-2.3038206100463867
400,25000.0,-2.879626035690308,-6.762422561645508,0.0041898530907928935
401,25100.0,-1.8710685968399048,-0.5925649404525757,-4.763862609863281
402,25200.0,-1.8710685968399048,-0.5925649404525757,-4.763862609863281
403,25300.0,-7.888296127319336,-8.491036415100098,-2.495356798171997
404,25400.0,1.2761094570159912,1.0097545385360718,2.268506050109864
405,25500.0,1.2761094570159912,1.0097545385360718,2.268506050109864
406,25600.0,-4.1216182708740225,-5.698798656463622,-0.4626794755458832
407,25700.0,-4.1216182708740225,-5.698798656463622,-0.4626794755458832
408,25800.0,-3.457825899124145,-0.7966706156730652,-2.3038206100463867
409,25900.0,-3.457825899124145,-0.7966706156730652,-2.3038206100463867
410,26000.0,-9.89463710784912,-13.009493827819824,-1.1558008193969729
411,26100.0,-9.89463710784912,-13.009493827819824,-1.1558008193969729
412,26200.0,0.18195933103561399,3.138798475265503,3.7798459529876713
413,26300.0,0.18195933103561399,3.138798475265503,3.7798459529876713
414,26400.0,-3.5170822143554688,-5.722740650177003,-1.4790180921554563
415,26500.0,-3.67390251159668,1.7256208658218384,-3.6930561065673833
416,26600.0,-3.67390251159668,1.7256208658218384,-3.6930561065673833
417,26700.0,-12.25113010406494,-18.074426651000977,-2.3511061668396
418,26800.0,-12.25113010406494,-18.074426651000977,-2.3511061668396
419,26900.0,-2.20924973487854,0.3812766075134277,1.3988122940063477
420,26000.0,-9.89463710784912,-13.009493827819824,-1.1558008193969729
421,26100.0,-9.89463710784912,-13.009493827819824,-1.1558008193969729
422,26200.0,0.18195933103561399,3.138798475265503,3.7798459529876713
423,26300.0,0.18195933103561399,3.138798475265503,3.7798459529876713
424,26400.0,-3.5170822143554688,-5.722740650177003,-1.4790180921554563
425,26500.0,-3.67390251159668,1.7256208658218384,-3.6930561065673833
426,26600.0,-3.67390251159668,1.7256208658218384,-3.6930561065673833
427,26700.0,-12.25113010406494,-18.074426651000977,-2.3511061668396
428,26800.0,-12.25113010406494,-18.074426651000977,-2.3511061668396
429,26900.0,-2.20924973487854,0.3812766075134277,1.3988122940063477
430,27000.0,-2.20924973487854,0.3812766075134277,1.3988122940063477
431,27100.0,-2.7006595134735107,-10.163984298706056,-2.734776973724365
432,27200.0,-2.7006595134735107,-10.163984298706056,-2.734776973724365
433,27300.0,-0.8277952671051025,2.4331073760986333,6.807313919067383
434,27400.0,-0.8277952671051025,2.4331073760986333,6.807313919067383
435,27500.0,-12.375029563903807,-19.542072296142575,-2.9113492965698238
436,27600.0,-5.397727966308594,-0.44412440061569214,-0.9241618514060974
437,27700.0,-5.397727966308594,-0.44412440061569214,-0.9241618514060974
438,27800.0,-3.57214903831482,-17.96010398864746,1.5143325328826904
439,27900.0,-3.57214903831482,-17.96010398864746,1.5143325328826904
440,27000.0,-2.20924973487854,0.3812766075134277,1.3988122940063477
441,27100.0,-2.7006595134735107,-10.163984298706056,-2.734776973724365
442,27200.0,-2.7006595134735107,-10.163984298706056,-2.734776973724365
443,27300.0,-0.8277952671051025,2.4331073760986333,6.807313919067383
444,27400.0,-0.8277952671051025,2.4331073760986333,6.807313919067383
445,27500.0,-12.375029563903807,-19.542072296142575,-2.9113492965698238
446,27600.0,-5.397727966308594,-0.44412440061569214,-0.9241618514060974
447,27700.0,-5.397727966308594,-0.44412440061569214,-0.9241618514060974
448,27800.0,-3.57214903831482,-17.96010398864746,1.5143325328826904
449,27900.0,-3.57214903831482,-17.96010398864746,1.5143325328826904
450,28000.0,3.94983434677124,0.6440402865409851,0.4602852761745453
451,28100.0,3.94983434677124,0.6440402865409851,0.4602852761745453
452,28200.0,-1.3108254671096802,-10.674548149108887,-3.9923312664031982
453,28300.0,-10.595540046691896,-2.6144683361053467,0.05446808785200119
454,28400.0,-10.595540046691896,-2.6144683361053467,0.05446808785200119
455,28500.0,-11.601702690124512,-19.608510971069336,3.1968579292297363
456,28600.0,-11.601702690124512,-19.608510971069336,3.1968579292297363
457,28700.0,5.87776517868042,-1.1210849285125732,-1.0684125423431396
458,28800.0,5.87776517868042,-1.1210849285125732,-1.0684125423431396
459,28900.0,4.924274444580078,-8.578424453735353,-4.910507678985597
460,28000.0,3.94983434677124,0.6440402865409851,0.4602852761745453
461,28100.0,3.94983434677124,0.6440402865409851,0.4602852761745453
462,28200.0,-1.3108254671096802,-10.674548149108887,-3.9923312664031982
463,28300.0,-10.595540046691896,-2.6144683361053467,0.05446808785200119
464,28400.0,-10.595540046691896,-2.6144683361053467,0.05446808785200119
465,28500.0,-11.601702690124512,-19.608510971069336,3.1968579292297363
466,28600.0,-11.601702690124512,-19.608510971069336,3.1968579292297363
467,28700.0,5.87776517868042,-1.1210849285125732,-1.0684125423431396
468,28800.0,5.87776517868042,-1.1210849285125732,-1.0684125423431396
469,28900.0,4.924274444580078,-8.578424453735353,-4.910507678985597
470,29000.0,4.924274444580078,-8.578424453735353,-4.910507678985597
471,29100.0,-9.892841339111328,-1.9638439416885376,4.49870491027832
472,29200.0,-14.211980819702148,-19.608510971069336,0.6643909811973572
473,29300.0,-14.211980819702148,-19.608510971069336,0.6643909811973572
474,29400.0,3.90554141998291,-1.6316484212875366,-4.268861770629884
475,29500.0,3.90554141998291,-1.6316484212875366,-4.268861770629884
476,29600.0,6.110002517700195,-19.608510971069336,-5.11461353302002
477,29700.0,6.110002517700195,-19.608510971069336,-5.11461353302002
478,29800.0,-5.238513469696045,0.12988543510437012,-2.493561029434204
479,29900.0,-5.238513469696045,0.12988543510437012,-2.493561029434204
480,29000.0,4.924274444580078,-8.578424453735353,-4.910507678985597
481,29100.0,-9.892841339111328,-1.9638439416885376,4.49870491027832
482,29200.0,-14.211980819702148,-19.608510971069336,0.6643909811973572
483,29300.0,-14.211980819702148,-19.608510971069336,0.6643909811973572
484,29400.0,3.90554141998291,-1.6316484212875366,-4.268861770629884
485,29500.0,3.90554141998291,-1.6316484212875366,-4.268861770629884
486,29600.0,6.110002517700195,-19.608510971069336,-5.11461353302002
487,29700.0,6.110002517700195,-19.608510971069336,-5.11461353302002
488,29800.0,-5.238513469696045,0.12988543510437012,-2.493561029434204
489,29900.0,-5.238513469696045,0.12988543510437012,-2.493561029434204
490,30000.0,-8.455721855163574,-19.266738891601566,-1.3952209949493408
491,30100.0,4.518456935882568,-3.494935989379884,-1.920748353004456
492,30200.0,4.518456935882568,-3.494935989379884,-1.920748353004456
493,30300.0,1.490989089012146,-19.608510971069336,0.15981295704841614
494,30400.0,1.490989089012146,-19.608510971069336,0.15981295704841614
495,30500.0,-6.51641845703125,-2.516904592514038,-6.564900875091553
496,30600.0,-6.51641845703125,-2.516904592514038,-6.564900875091553
497,30700.0,-2.477400302886963,-3.709815502166748,-0.8038532137870789
498,30800.0,-2.477400302886963,-3.709815502166748,-0.8038532137870789
499,30900.0,2.7551276683807373,-7.271190643310548,1.6047136783599854
500,30000.0,-8.455721855163574,-19.266738891601566,-1.3952209949493408
501,30100.0,4.518456935882568,-3.494935989379884,-1.920748353004456
502,30200.0,4.518456935882568,-3.494935989379884,-1.920748353004456
503,30300.0,1.490989089012146,-19.608510971069336,0.15981295704841614
504,30400.0,1.490989089012146,-19.608510971069336,0.15981295704841614
505,30500.0,-6.51641845703125,-2.516904592514038,-6.564900875091553
506,30600.0,-6.51641845703125,-2.516904592514038,-6.564900875091553
507,30700.0,-2.477400302886963,-3.709815502166748,-0.8038532137870789
508,30800.0,-2.477400302886963,-3.709815502166748,-0.8038532137870789
509,30900.0,2.7551276683807373,-7.271190643310548,1.6047136783599854
510,31000.0,-2.9514522552490234,-19.60611724853516,9.832387924194336
511,31100.0,-2.9514522552490234,-19.60611724853516,9.832387924194336
512,31200.0,-9.18355941772461,-1.8447324037551882,6.952163219451902
513,31300.0,-9.18355941772461,-1.8447324037551882,6.952163219451902
514,31400.0,-8.331821441650389,-16.576255798339847,1.8800468444824217
515,31500.0,-8.331821441650389,-16.576255798339847,1.8800468444824217
516,31600.0,2.1051018238067627,-6.523002624511719,0.2783259451389313
517,31700.0,2.1051018238067627,-6.523002624511719,0.2783259451389313
518,31800.0,-0.6637924313545227,-0.9570821523666382,-0.7553706169128418
519,31900.0,-9.170391082763672,-7.5429325103759775,-2.715623378753662
520,31000.0,-2.9514522552490234,-19.60611724853516,9.832387924194336
521,31100.0,-2.9514522552490234,-19.60611724853516,9.832387924194336
522,31200.0,-9.18355941772461,-1.8447324037551882,6.952163219451902
523,31300.0,-9.18355941772461,-1.8447324037551882,6.952163219451902
524,31400.0,-8.331821441650389,-16.576255798339847,1.8800468444824217
525,31500.0,-8.331821441650389,-16.576255798339847,1.8800468444824217
526,31600.0,2.1051018238067627,-6.523002624511719,0.2783259451389313
527,31700.0,2.1051018238067627,-6.523002624511719,0.2783259451389313
528,31800.0,-0.6637924313545227,-0.9570821523666382,-0.7553706169128418
529,31900.0,-9.170391082763672,-7.5429325103759775,-2.715623378753662
530,32000.0,-9.170391082763672,-7.5429325103759775,-2.715623378753662
531,32100.0,-0.040701430290937424,-4.564545631408691,2.427720546722412
532,32200.0,-0.040701430290937424,-4.564545631408691,2.427720546722412
533,32300.0,1.969230890274048,-7.598597526550293,0.751779317855835
534,32400.0,1.969230890274048,-7.598597526550293,0.751779317855835
535,32500.0,-0.7852981686592102,-1.813607811927796,-3.608062028884888
536,32600.0,-0.7852981686592102,-1.813607811927796,-3.608062028884888
537,32700.0,-8.548497200012207,-6.688800811767577,-3.720589399337769
538,32800.0,1.91595995426178,0.9385270476341248,0.7212532758712769
539,32900.0,1.91595995426178,0.9385270476341248,0.7212532758712769
540,32000.0,-9.170391082763672,-7.5429325103759775,-2.715623378753662
541,32100.0,-0.040701430290937424,-4.564545631408691,2.427720546722412
542,32200.0,-0.040701430290937424,-4.564545631408691,2.427720546722412
543,32300.0,1.969230890274048,-7.598597526550293,0.751779317855835
544,32400.0,1.969230890274048,-7.598597526550293,0.751779317855835
545,32500.0,-0.7852981686592102,-1.813607811927796,-3.608062028884888
546,32600.0,-0.7852981686592102,-1.813607811927796,-3.608062028884888
547,32700.0,-8.548497200012207,-6.688800811767577,-3.720589399337769
548,32800.0,1.91595995426178,0.9385270476341248,0.7212532758712769
549,32900.0,1.91595995426178,0.9385270476341248,0.7212532758712769
550,33000.0,-0.11671733111143112,-6.552929878234862,0.5333084464073181
551,33100.0,-0.11671733111143112,-6.552929878234862,0.5333084464073181
552,33200.0,-0.15801730751991272,-1.1845313310623171,-3.626018524169922
553,33300.0,-0.15801730751991272,-1.1845313310623171,-3.626018524169922
554,33400.0,-8.553884506225586,-7.688380241394043,-3.2902317047119136
555,33500.0,-8.553884506225586,-7.688380241394043,-3.2902317047119136
556,33600.0,1.450287699699402,0.4620809257030487,0.5811924338340759
557,33700.0,-2.352303266525269,-7.4345946311950675,3.1872811317443848
558,33800.0,-2.352303266525269,-7.4345946311950675,3.1872811317443848
559,33900.0,-3.84269380569458,-1.9405004978179927,-6.427234649658202
560,33000.0,-0.11671733111143112,-6.552929878234862,0.5333084464073181
561,33100.0,-0.11671733111143112,-6.552929878234862,0.5333084464073181
562,33200.0,-0.15801730751991272,-1.1845313310623171,-3.626018524169922
563,33300.0,-0.15801730751991272,-1.1845313310623171,-3.626018524169922
564,33400.0,-8.553884506225586,-7.688380241394043,-3.2902317047119136
565,33500.0,-8.553884506225586,-7.688380241394043,-3.2902317047119136
566,33600.0,1.450287699699402,0.4620809257030487,0.5811924338340759
567,33700.0,-2.352303266525269,-7.4345946311950675,3.1872811317443848
568,33800.0,-2.352303266525269,-7.4345946311950675,3.1872811317443848
569,33900.0,-3.84269380569458,-1.9405004978179927,-6.427234649658202
570,34000.0,-3.84269380569458,-1.9405004978179927,-6.427234649658202
571,34100.0,-9.211690902709961,-7.547720909118652,-2.7766754627227783
572,34200.0,-9.211690902709961,-7.547720909118652,-2.7766754627227783
573,34300.0,1.469441294670105,2.404376983642578,1.7052701711654663
574,34400.0,1.469441294670105,2.404376983642578,1.7052701711654663
575,34500.0,-3.83730673789978,-5.4881086349487305,-0.9840168952941896
576,34600.0,-4.216189384460448,-0.6757634282112122,1.3533225059509275
577,34700.0,-4.216189384460448,-0.6757634282112122,1.3533225059509275
578,34800.0,-9.440337181091307,-10.60272216796875,-1.2114660739898682
579,34900.0,-9.440337181091307,-10.60272216796875,-1.2114660739898682
580,34000.0,-3.84269380569458,-1.9405004978179927,-6.427234649658202
581,34100.0,-9.211690902709961,-7.547720909118652,-2.7766754627227783
582,34200.0,-9.211690902709961,-7.547720909118652,-2.7766754627227783
583,34300.0,1.469441294670105,2.404376983642578,1.7052701711654663
584,34400.0,1.469441294670105,2.404376983642578,1.7052701711654663
585,34500.0,-3.83730673789978,-5.4881086349487305,-0.9840168952941896
586,34600.0,-4.216189384460448,-0.6757634282112122,1.3533225059509275
587,34700.0,-4.216189384460448,-0.6757634282112122,1.3533225059509275
588,34800.0,-9.440337181091307,-10.60272216796875,-1.2114660739898682
589,34900.0,-9.440337181091307,-10.60272216796875,-1.2114660739898682
590,35000.0,1.0534487962722778,1.9369091987609863,3.341108560562134
591,35100.0,1.0534487962722778,1.9369091987609863,3.341108560562134
592,35200.0,-1.5508441925048828,-5.4893059730529785,-0.2920926213264465
593,35300.0,-1.5508441925048828,-5.4893059730529785,-0.2920926213264465
594,35400.0,-3.3231520652771,-3.1513679027557373,-0.524330198764801
595,35500.0,-8.67479133605957,-11.616666793823242,-1.977012038230896
596,35600.0,-8.67479133605957,-11.616666793823242,-1.977012038230896
597,35700.0,-1.3646949529647827,-0.0035913025494664907,-0.8242039084434509
598,35800.0,-1.3646949529647827,-0.0035913025494664907,-0.8242039084434509
599,35900.0,-1.3527239561080933,-7.581838130950928,-2.1739351749420166
600,35000.0,1.0534487962722778,1.9369091987609863,3.341108560562134
601,35100.0,1.0534487962722778,1.9369091987609863,3.341108560562134
602,35200.0,-1.5508441925048828,-5.4893059730529785,-0.2920926213264465
603,35300.0,-1.5508441925048828,-5.4893059730529785,-0.2920926213264465
604,35400.0,-3.3231520652771,-3.1513679027557373,-0.524330198764801
605,35500.0,-8.67479133605957,-11.616666793823242,-1.977012038230896
606,35600.0,-8.67479133605957,-11.616666793823242,-1.977012038230896
607,35700.0,-1.3646949529647827,-0.0035913025494664907,-0.8242039084434509
608,35800.0,-1.3646949529647827,-0.0035913025494664907,-0.8242039084434509
609,35900.0,-1.3527239561080933,-7.581838130950928,-2.1739351749420166
610,36000.0,-1.3527239561080933,-7.581838130950928,-2.1739351749420166
611,36100.0,-4.289810657501222,0.8373720645904541,7.462128162384032
612,36200.0,-4.289810657501222,0.8373720645904541,7.462128162384032
613,36300.0,-11.593921661376953,-17.85835075378418,-2.7509377002716064
614,36400.0,-4.478952884674072,-0.5392939448356628,0.3722983598709105
615,36500.0,-4.478952884674072,-0.5392939448356628,0.3722983598709105
616,36600.0,-4.610035419464111,-12.394782066345215,3.7223851680755615
617,36700.0,-4.610035419464111,-12.394782066345215,3.7223851680755615
618,36800.0,2.7712883949279785,4.1623196601867685,5.4480061531066895
619,36900.0,2.7712883949279785,4.1623196601867685,5.4480061531066895
620,36000.0,-1.3527239561080933,-7.581838130950928,-2.1739351749420166
621,36100.0,-4.289810657501222,0.8373720645904541,7.462128162384032
622,36200.0,-4.289810657501222,0.8373720645904541,7.462128162384032
623,36300.0,-11.593921661376953,-17.85835075378418,-2.7509377002716064
624,36400.0,-4.478952884674072,-0.5392939448356628,0.3722983598709105
625,36500.0,-4.478952884674072,-0.5392939448356628,0.3722983598709105
626,36600.0,-4.610035419464111,-12.394782066345215,3.7223851680755615
627,36700.0,-4.610035419464111,-12.394782066345215,3.7223851680755615
628,36800.0,2.7712883949279785,4.1623196601867685,5.4480061531066895
629,36900.0,2.7712883949279785,4.1623196601867685,5.4480061531066895
630,37000.0,-11.265317916870115,-19.608510971069336,-7.466916561126709
631,37100.0,-11.265317916870115,-19.608510971069336,-7.466916561126709
632,37200.0,-7.220313549041747,-0.016759412363171574,-0.8391677141189575
633,37300.0,-2.412158250808716,-17.655441284179688,1.0157400369644165
634,37400.0,-2.412158250808716,-17.655441284179688,1.0157400369644165
635,37500.0,-2.412158250808716,-17.655441284179688,1.0157400369644165
636,37600.0,2.587533473968506,3.0358476638793945,4.1641154289245605
637,37700.0,-8.752004623413086,-19.49837875366211,-10.19989776611328
638,37800.0,-8.752004623413086,-19.49837875366211,-10.19989776611328
639,37900.0,-4.146158695220946,-1.3000515699386597,-0.4997895956039429
640,37000.0,-11.265317916870115,-19.608510971069336,-7.466916561126709
641,37100.0,-11.265317916870115,-19.608510971069336,-7.466916561126709
642,37200.0,-7.220313549041747,-0.016759412363171574,-0.8391677141189575
643,37300.0,-2.412158250808716,-17.655441284179688,1.0157400369644165
644,37400.0,-2.412158250808716,-17.655441284179688,1.0157400369644165
645,37500.0,-2.412158250808716,-17.655441284179688,1.0157400369644165
646,37600.0,2.587533473968506,3.0358476638793945,4.1641154289245605
647,37700.0,-8.752004623413086,-19.49837875366211,-10.19989776611328
648,37800.0,-8.752004623413086,-19.49837875366211,-10.19989776611328
649,37900.0,-4.146158695220946,-1.3000515699386597,-0.4997895956039429
650,38000.0,-4.146158695220946,-1.3000515699386597,-0.4997895956039429
651,38100.0,-5.046378612518311,-16.40506935119629,2.5480291843414307
652,38200.0,2.273294448852539,2.5276784896850586,3.728969097137451
653,38300.0,2.273294448852539,2.5276784896850586,3.728969097137451
654,38400.0,-0.9289502501487732,-19.608510971069336,-6.578667640686035
655,38500.0,-0.9289502501487732,-19.608510971069336,-6.578667640686035
656,38600.0,-5.5132479667663565,-3.3746273517608643,-1.6160861253738403
657,38700.0,-5.5132479667663565,-3.3746273517608643,-1.6160861253738403
658,38800.0,-2.7712883949279785,-19.608510971069336,3.2836475372314453
659,38900.0,-2.7712883949279785,-19.608510971069336,3.2836475372314453
660,38000.0,-4.146158695220946,-1.3000515699386597,-0.4997895956039429
661,38100.0,-5.046378612518311,-16.40506935119629,2.5480291843414307
662,38200.0,2.273294448852539,2.5276784896850586,3.728969097137451
663,38300.0,2.273294448852539,2.5276784896850586,3.728969097137451
664,38400.0,-0.9289502501487732,-19.608510971069336,-6.578667640686035
665,38500.0,-0.9289502501487732,-19.608510971069336,-6.578667640686035
666,38600.0,-5.5132479667663565,-3.3746273517608643,-1.6160861253738403
667,38700.0,-5.5132479667663565,-3.3746273517608643,-1.6160861253738403
668,38800.0,-2.7712883949279785,-19.608510971069336,3.2836475372314453
669,38900.0,-2.7712883949279785,-19.608510971069336,3.2836475372314453
670,39000.0,4.216189384460448,2.738966703414917,0.12749123573303225
671,39100.0,-0.5476736426353455,-17.626710891723633,-4.079121112823486
672,39200.0,-0.5476736426353455,-17.626710891723633,-4.079121112823486
673,39300.0,-7.192780494689941,2.519298791885376,-1.9548656940460205
674,39400.0,-7.192780494689941,2.519298791885376,-1.9548656940460205
675,39500.0,-5.695207118988037,-19.608510971069336,2.4402899742126465
676,39600.0,-5.695207118988037,-19.608510971069336,2.4402899742126465
677,39700.0,2.6533739566802983,0.8954314589500427,-3.445256233215332
678,39800.0,2.6533739566802983,0.8954314589500427,-3.445256233215332
679,39900.0,10.283096313476564,-19.608510971069336,-3.3506853580474854
680,39000.0,4.216189384460448,2.738966703414917,0.12749123573303225
681,39100.0,-0.5476736426353455,-17.626710891723633,-4.079121112823486
682,39200.0,-0.5476736426353455,-17.626710891723633,-4.079121112823486
683,39300.0,-7.192780494689941,2.519298791885376,-1.9548656940460205
684,39400.0,-7.192780494689941,2.519298791885376,-1.9548656940460205
685,39500.0,-5.695207118988037,-19.608510971069336,2.4402899742126465
686,39600.0,-5.695207118988037,-19.608510971069336,2.4402899742126465
687,39700.0,2.6533739566802983,0.8954314589500427,-3.445256233215332
688,39800.0,2.6533739566802983,0.8954314589500427,-3.445256233215332
689,39900.0,10.283096313476564,-19.608510971069336,-3.3506853580474854
690,40000.0,-7.502231121063232,3.5458126068115234,-1.8926163911819456
691,40100.0,-7.502231121063232,3.5458126068115234,-1.8926163911819456
692,40200.0,-16.07347297668457,-19.608510971069336,0.9205705523490906
693,40300.0,-16.07347297668457,-19.608510971069336,0.9205705523490906
694,40400.0,6.60739803314209,0.5321113467216492,-2.11946702003479
695,40500.0,6.60739803314209,0.5321113467216492,-2.11946702003479
696,40600.0,8.483255386352539,-19.608510971069336,-6.494272232055664
697,40700.0,8.483255386352539,-19.608510971069336,-6.494272232055664
698,40800.0,-12.22658920288086,1.2228385210037231,-1.5059528350830078
699,40900.0,-18.730438232421875,-19.608510971069336,-3.7211880683898926
700,40000.0,-7.502231121063232,3.5458126068115234,-1.8926163911819456
701,40100.0,-7.502231121063232,3.5458126068115234,-1.8926163911819456
702,40200.0,-16.07347297668457,-19.608510971069336,0.9205705523490906
703,40300.0,-16.07347297668457,-19.608510971069336,0.9205705523490906
704,40400.0,6.60739803314209,0.5321113467216492,-2.11946702003479
705,40500.0,6.60739803314209,0.5321113467216492,-2.11946702003479
706,40600.0,8.483255386352539,-19.608510971069336,-6.494272232055664
707,40700.0,8.483255386352539,-19.608510971069336,-6.494272232055664
708,40800.0,-12.22658920288086,1.2228385210037231,-1.5059528350830078
709,40900.0,-18.730438232421875,-19.608510971069336,-3.7211880683898926
710,41000.0,-18.730438232421875,-19.608510971069336,-3.7211880683898926
711,41100.0,5.989694118499756,-0.6141127347946167,-1.0414776802062988
712,41200.0,5.989694118499756,-0.6141127347946167,-1.0414776802062988
713,41300.0,3.391386747360228,-19.608510971069336,4.993706226348877
714,41400.0,3.391386747360228,-19.608510971069336,4.993706226348877
715,41500.0,-8.167220115661621,-3.029263734817505,-7.829039573669434
716,41600.0,-8.167220115661621,-3.029263734817505,-7.829039573669434
717,41700.0,-10.022128105163574,-18.45450592041016,-1.0097545385360718
718,41800.0,5.409698963165283,-5.462371349334717,0.2292448133230209
719,41900.0,5.409698963165283,-5.462371349334717,0.2292448133230209
720,41000.0,-18.730438232421875,-19.608510971069336,-3.7211880683898926
721,41100.0,5.989694118499756,-0.6141127347946167,-1.0414776802062988
722,41200.0,5.989694118499756,-0.6141127347946167,-1.0414776802062988
723,41300.0,3.391386747360228,-19.608510971069336,4.993706226348877
724,41400.0,3.391386747360228,-19.608510971069336,4.993706226348877
725,41500.0,-8.167220115661621,-3.029263734817505,-7.829039573669434
726,41600.0,-8.167220115661621,-3.029263734817505,-7.829039573669434
727,41700.0,-10.022128105163574,-18.45450592041016,-1.0097545385360718
728,41800.0,5.409698963165283,-5.462371349334717,0.2292448133230209
729,41900.0,5.409698963165283,-5.462371349334717,0.2292448133230209
730,42000.0,-3.059789657592773,-19.608510971069336,-2.1374235153198238
731,42100.0,-3.059789657592773,-19.608510971069336,-2.1374235153198238
732,42200.0,-9.455301284790039,-4.72376012802124,-7.425017833709718
733,42300.0,-9.455301284790039,-4.72376012802124,-7.425017833709718
734,42400.0,-5.342660903930664,-12.090718269348145,-0.4357447028160095
735,42500.0,-5.342660903930664,-12.090718269348145,-0.4357447028160095
736,42600.0,3.3842041492462163,-6.095637321472168,0.586579442024231
737,42700.0,-4.445434093475342,-9.96107578277588,6.51522159576416
738,42800.0,-4.445434093475342,-9.96107578277588,6.51522159576416
739,42900.0,-8.478466987609862,-3.661332845687866,-11.149198532104492
740,42000.0,-3.059789657592773,-19.608510971069336,-2.1374235153198238
741,42100.0,-3.059789657592773,-19.608510971069336,-2.1374235153198238
742,42200.0,-9.455301284790039,-4.72376012802124,-7.425017833709718
743,42300.0,-9.455301284790039,-4.72376012802124,-7.425017833709718
744,42400.0,-5.342660903930664,-12.090718269348145,-0.4357447028160095
745,42500.0,-5.342660903930664,-12.090718269348145,-0.4357447028160095
746,42600.0,3.3842041492462163,-6.095637321472168,0.586579442024231
747,42700.0,-4.445434093475342,-9.96107578277588,6.51522159576416
748,42800.0,-4.445434093475342,-9.96107578277588,6.51522159576416
749,42900.0,-8.478466987609862,-3.661332845687866,-11.149198532104492
750,43000.0,-8.478466987609862,-3.661332845687866,-11.149198532104492
751,43100.0,-5.7969608306884775,-9.603142738342283,-2.7341783046722408
752,43200.0,-5.7969608306884775,-9.603142738342283,-2.7341783046722408
753,43300.0,1.9572598934173584,-7.469310760498048,-0.5351040959358215
754,43400.0,1.9572598934173584,-7.469310760498048,-0.5351040959358215
755,43500.0,0.9169792532920836,-2.1984755992889404,-3.0771477222442627
756,43600.0,-7.9619178771972665,-2.3026235103607178,18.228853225708008
757,43700.0,-7.9619178771972665,-2.3026235103607178,18.228853225708008
758,43800.0,-0.07541735470294952,-1.3239935636520386,0.5764040350914001
759,43900.0,-0.07541735470294952,-1.3239935636520386,0.5764040350914001
760,43000.0,-8.478466987609862,-3.661332845687866,-11.149198532104492
761,43100.0,-5.7969608306884775,-9.603142738342283,-2.7341783046722408
762,43200.0,-5.7969608306884775,-9.603142738342283,-2.7341783046722408
763,43300.0,1.9572598934173584,-7.469310760498048,-0.5351040959358215
764,43400.0,1.9572598934173584,-7.469310760498048,-0.5351040959358215
765,43500.0,0.9169792532920836,-2.1984755992889404,-3.0771477222442627
766,43600.0,-7.9619178771972665,-2.3026235103607178,18.228853225708008
767,43700.0,-7.9619178771972665,-2.3026235103607178,18.228853225708008
768,43800.0,-0.07541735470294952,-1.3239935636520386,0.5764040350914001
769,43900.0,-0.07541735470294952,-1.3239935636520386,0.5764040350914001
770,44000.0,-1.2934675216674805,-5.474342346191406,0.0520738884806633
771,44100.0,-1.2934675216674805,-5.474342346191406,0.0520738884806633
772,44200.0,-1.0043675899505615,-1.6202759742736816,-5.6910176277160645
773,44300.0,-1.0043675899505615,-1.6202759742736816,-5.6910176277160645
774,44400.0,-9.59057331085205,-8.207921981811522,-2.8491001129150386
775,44500.0,-9.59057331085205,-8.207921981811522,-2.8491001129150386
776,44600.0,0.5787982344627379,-1.0797849893569946,1.7519570589065552
777,44700.0,0.6087257862091064,-7.043741226196289,0.5087678432464601
778,44800.0,0.6087257862091064,-7.043741226196289,0.5087678432464601
779,44900.0,-1.8477251529693604,-1.6436194181442259,-7.428609371185303
780,44000.0,-1.2934675216674805,-5.474342346191406,0.0520738884806633
781,44100.0,-1.2934675216674805,-5.474342346191406,0.0520738884806633
782,44200.0,-1.0043675899505615,-1.6202759742736816,-5.6910176277160645
783,44300.0,-1.0043675899505615,-1.6202759742736816,-5.6910176277160645
784,44400.0,-9.59057331085205,-8.207921981811522,-2.8491001129150386
785,44500.0,-9.59057331085205,-8.207921981811522,-2.8491001129150386
786,44600.0,0.5787982344627379,-1.0797849893569946,1.7519570589065552
787,44700.0,0.6087257862091064,-7.043741226196289,0.5087678432464601
788,44800.0,0.6087257862091064,-7.043741226196289,0.5087678432464601
789,44900.0,-1.8477251529693604,-1.6436194181442259,-7.428609371185303
790,45000.0,-1.8477251529693604,-1.6436194181442259,-7.428609371185303
791,45100.0,-8.421604156494139,-8.467693328857424,-2.2433669567108154
792,45200.0,-8.421604156494139,-8.467693328857424,-2.2433669567108154
793,45300.0,1.321599364280701,1.701080322265625,2.5546131134033203
794,45400.0,1.321599364280701,1.701080322265625,2.5546131134033203
795,45500.0,-0.34416648745536804,-6.356605529785156,0.2172738015651703
796,45600.0,-1.9237411022186282,-1.1761516332626345,-3.3417069911956787
797,45700.0,-1.9237411022186282,-1.1761516332626345,-3.3417069911956787
798,45800.0,-7.906851291656494,-9.57979965209961,-0.496198296546936
799,45900.0,-7.906851291656494,-9.57979965209961,-0.496198296546936
800,45000.0,-1.8477251529693604,-1.6436194181442259,-7.428609371185303
801,45100.0,-8.421604156494139,-8.467693328857424,-2.2433669567108154
802,45200.0,-8.421604156494139,-8.467693328857424,-2.2433669567108154
803,45300.0,1.321599364280701,1.701080322265625,2.5546131134033203
804,45400.0,1.321599364280701,1.701080322265625,2.5546131134033203
805,45500.0,-0.34416648745536804,-6.356605529785156,0.2172738015651703
806,45600.0,-1.9237411022186282,-1.1761516332626345,-3.3417069911956787
807,45700.0,-1.9237411022186282,-1.1761516332626345,-3.3417069911956787
808,45800.0,-7.906851291656494,-9.57979965209961,-0.496198296546936
809,45900.0,-7.906851291656494,-9.57979965209961,-0.496198296546936
810,46000.0,1.7286136150360107,1.8327614068984983,0.2974795699119568
811,46100.0,1.7286136150360107,1.8327614068984983,0.2974795699119568
812,46200.0,-1.9057846069335933,-4.778826713562012,0.8696937561035156
813,46300.0,-1.9057846069335933,-4.778826713562012,0.8696937561035156
814,46400.0,-0.6045359373092651,1.1713632345199585,-1.2485761642456057
815,46500.0,-7.709329605102539,-11.259930610656738,-2.25473952293396
816,46600.0,-7.709329605102539,-11.259930610656738,-2.25473952293396
817,46700.0,1.1701661348342896,-0.04369417950510979,3.1340100765228267
818,46800.0,1.1701661348342896,-0.04369417950510979,3.1340100765228267
819,46900.0,-3.579331636428833,-4.237138271331787,0.3483563363552093
820,46000.0,1.7286136150360107,1.8327614068984983,0.2974795699119568
821,46100.0,1.7286136150360107,1.8327614068984983,0.2974795699119568
822,46200.0,-1.9057846069335933,-4.778826713562012,0.8696937561035156
823,46300.0,-1.9057846069335933,-4.778826713562012,0.8696937561035156
824,46400.0,-0.6045359373092651,1.1713632345199585,-1.2485761642456057
825,46500.0,-7.709329605102539,-11.259930610656738,-2.25473952293396
826,46600.0,-7.709329605102539,-11.259930610656738,-2.25473952293396
827,46700.0,1.1701661348342896,-0.04369417950510979,3.1340100765228267
828,46800.0,1.1701661348342896,-0.04369417950510979,3.1340100765228267
829,46900.0,-3.579331636428833,-4.237138271331787,0.3483563363552093
830,47000.0,-3.579331636428833,-4.237138271331787,0.3483563363552093
831,47100.0,-2.322375535964966,0.34416648745536804,-2.1314380168914795
832,47200.0,-2.322375535964966,0.34416648745536804,-2.1314380168914795
833,47300.0,-13.645752906799315,-19.324199676513672,-5.50007963180542
834,47400.0,-0.6572083830833435,1.4083890914916992,2.28287124633789
835,47500.0,-0.6572083830833435,1.4083890914916992,2.28287124633789
836,47600.0,-6.18182897567749,-6.192004203796388,-3.523666381835937
837,47700.0,-6.18182897567749,-6.192004203796388,-3.523666381835937
838,47800.0,-12.600683212280273,1.6472107172012331,2.695871114730835
839,47900.0,-12.600683212280273,1.6472107172012331,2.695871114730835
840,47000.0,-3.579331636428833,-4.237138271331787,0.3483563363552093
841,47100.0,-2.322375535964966,0.34416648745536804,-2.1314380168914795
842,47200.0,-2.322375535964966,0.34416648745536804,-2.1314380168914795
843,47300.0,-13.645752906799315,-19.324199676513672,-5.50007963180542
844,47400.0,-0.6572083830833435,1.4083890914916992,2.28287124633789
845,47500.0,-0.6572083830833435,1.4083890914916992,2.28287124633789
846,47600.0,-6.18182897567749,-6.192004203796388,-3.523666381835937
847,47700.0,-6.18182897567749,-6.192004203796388,-3.523666381835937
848,47800.0,-12.600683212280273,1.6472107172012331,2.695871114730835
849,47900.0,-12.600683212280273,1.6472107172012331,2.695871114730835
850,48000.0,-11.814188003540039,-18.674774169921875,-4.155735492706299
851,48100.0,-11.814188003540039,-18.674774169921875,-4.155735492706299
852,48200.0,-3.04602313041687,-0.4159925580024719,-0.1885433793067932
853,48300.0,-0.17058686912059784,-9.317634582519533,-1.8339585065841681
854,48400.0,-0.17058686912059784,-9.317634582519533,-1.8339585065841681
855,48500.0,1.092953085899353,2.2361843585968018,5.191826343536377
856,48600.0,1.092953085899353,2.2361843585968018,5.191826343536377
857,48700.0,-5.652710437774657,-17.490242004394528,-5.7335143089294425
858,48800.0,-5.652710437774657,-17.490242004394528,-5.7335143089294425
859,48900.0,-1.8579005002975464,-3.026270866394043,-2.472013235092163
860,48000.0,-11.814188003540039,-18.674774169921875,-4.155735492706299
861,48100.0,-11.814188003540039,-18.674774169921875,-4.155735492706299
862,48200.0,-3.04602313041687,-0.4159925580024719,-0.1885433793067932
863,48300.0,-0.17058686912059784,-9.317634582519533,-1.8339585065841681
864,48400.0,-0.17058686912059784,-9.317634582519533,-1.8339585065841681
865,48500.0,1.092953085899353,2.2361843585968018,5.191826343536377
866,48600.0,1.092953085899353,2.2361843585968018,5.191826343536377
867,48700.0,-5.652710437774657,-17.490242004394528,-5.7335143089294425
868,48800.0,-5.652710437774657,-17.490242004394528,-5.7335143089294425
869,48900.0,-1.8579005002975464,-3.026270866394043,-2.472013235092163
870,49000.0,-1.8579005002975464,-3.026270866394043,-2.472013235092163
871,49100.0,-4.876988887786865,-17.642871856689453,-0.10295066982507706
872,49200.0,6.694188117980957,3.1944637298583984,0.426167905330658
873,49300.0,6.694188117980957,3.1944637298583984,0.426167905330658
874,49400.0,-4.868608951568604,-17.35377311706543,-5.6018333435058585
875,49500.0,-4.868608951568604,-17.35377311706543,-5.6018333435058585
876,49600.0,-4.444835662841797,-3.175309896469116,-2.832340717315674
877,49700.0,-4.444835662841797,-3.175309896469116,-2.832340717315674
878,49800.0,-1.6699557304382324,-17.565658569335938,-3.270479440689087
879,49900.0,-1.6699557304382324,-17.565658569335938,-3.270479440689087
880,49000.0,-1.8579005002975464,-3.026270866394043,-2.472013235092163
881,49100.0,-4.876988887786865,-17.642871856689453,-0.10295066982507706
882,49200.0,6.694188117980957,3.1944637298583984,0.426167905330658
883,49300.0,6.694188117980957,3.1944637298583984,0.426167905330658
884,49400.0,-4.868608951568604,-17.35377311706543,-5.6018333435058585
885,49500.0,-4.868608951568604,-17.35377311706543,-5.6018333435058585
886,49600.0,-4.444835662841797,-3.175309896469116,-2.832340717315674
887,49700.0,-4.444835662841797,-3.175309896469116,-2.832340717315674
888,49800.0,-1.6699557304382324,-17.565658569335938,-3.270479440689087
889,49900.0,-1.6699557304382324,-17.565658569335938,-3.270479440689087
890,50000.0,6.450577735900879,4.6070427894592285,3.5919010639190674
891,50100.0,-4.356249809265137,-16.685192108154293,-6.916250228881836
892,50200.0,-4.356249809265137,-16.685192108154293,-6.916250228881836
893,50300.0,-4.7584757804870605,-4.159327030181885,-1.9357120990753167
894,50400.0,-4.7584757804870605,-4.159327030181885,-1.9357120990753167
895,50500.0,-1.9674352407455444,-11.693281173706055,-1.0187327861785889
896,50600.0,-1.9674352407455444,-11.693281173706055,-1.0187327861785889
897,50700.0,3.3842041492462163,3.471592426300049,4.04081392288208
898,50800.0,3.3842041492462163,3.471592426300049,4.04081392288208
899,50900.0,-7.4076600074768075,-18.9022216796875,-7.850587368011475
900,50000.0,6.450577735900879,4.6070427894592285,3.5919010639190674
901,50100.0,-4.356249809265137,-16.685192108154293,-6.916250228881836
902,50200.0,-4.356249809265137,-16.685192108154293,-6.916250228881836
903,50300.0,-4.7584757804870605,-4.159327030181885,-1.9357120990753167
904,50400.0,-4.7584757804870605,-4.159327030181885,-1.9357120990753167
905,50500.0,-1.9674352407455444,-11.693281173706055,-1.0187327861785889
906,50600.0,-1.9674352407455444,-11.693281173706055,-1.0187327861785889
907,50700.0,3.3842041492462163,3.471592426300049,4.04081392288208
908,50800.0,3.3842041492462163,3.471592426300049,4.04081392288208
909,50900.0,-7.4076600074768075,-18.9022216796875,-7.850587368011475
910,51000.0,-4.070741653442384,-0.8571242094039917,-0.2124854028224945
911,51100.0,-4.070741653442384,-0.8571242094039917,-0.2124854028224945
912,51200.0,-2.515707492828369,-19.026123046875,3.134608507156372
913,51300.0,-2.515707492828369,-19.026123046875,3.134608507156372
914,51400.0,5.890933513641357,3.7241806983947767,0.3800795078277588
915,51500.0,5.890933513641357,3.7241806983947767,0.3800795078277588
916,51600.0,0.25258827209472656,-14.929643630981445,-1.072602391242981
917,51700.0,0.25258827209472656,-14.929643630981445,-1.072602391242981
918,51800.0,-6.925228595733643,3.308786630630493,0.3878606855869293
919,51900.0,-1.6974890232086182,-19.608510971069336,4.8464627265930185
920,51000.0,-4.070741653442384,-0.8571242094039917,-0.2124854028224945
921,51100.0,-4.070741653442384,-0.8571242094039917,-0.2124854028224945
922,51200.0,-2.515707492828369,-19.026123046875,3.134608507156372
923,51300.0,-2.515707492828369,-19.026123046875,3.134608507156372
924,51400.0,5.890933513641357,3.7241806983947767,0.3800795078277588
925,51500.0,5.890933513641357,3.7241806983947767,0.3800795078277588
926,51600.0,0.25258827209472656,-14.929643630981445,-1.072602391242981
927,51700.0,0.25258827209472656,-14.929643630981445,-1.072602391242981
928,51800.0,-6.925228595733643,3.308786630630493,0.3878606855869293
929,51900.0,-1.6974890232086182,-19.608510971069336,4.8464627265930185
930,52000.0,-1.6974890232086182,-19.608510971069336,4.8464627265930185
931,52100.0,7.197568893432617,3.1250317096710205,0.4471171796321869
932,52200.0,7.197568893432617,3.1250317096710205,0.4471171796321869
933,52300.0,3.2453403472900386,-19.608510971069336,-9.231443405151367
934,52400.0,3.2453403472900386,-19.608510971069336,-9.231443405151367
935,52500.0,-6.868964672088622,-1.9572598934173584,-3.4135329723358154
936,52600.0,-6.868964672088622,-1.9572598934173584,-3.4135329723358154
937,52700.0,-16.217124938964847,-19.608510971069336,3.138798475265503
938,52800.0,8.437167167663574,2.816179752349853,-1.7675193548202517
939,52900.0,8.437167167663574,2.816179752349853,-1.7675193548202517
940,52000.0,-1.6974890232086182,-19.608510971069336,4.8464627265930185
941,52100.0,7.197568893432617,3.1250317096710205,0.4471171796321869
942,52200.0,7.197568893432617,3.1250317096710205,0.4471171796321869
943,52300.0,3.2453403472900386,-19.608510971069336,-9.231443405151367
944,52400.0,3.2453403472900386,-19.608510971069336,-9.231443405151367
945,52500.0,-6.868964672088622,-1.9572598934173584,-3.4135329723358154
946,52600.0,-6.868964672088622,-1.9572598934173584,-3.4135329723358154
947,52700.0,-16.217124938964847,-19.608510971069336,3.138798475265503
948,52800.0,8.437167167663574,2.816179752349853,-1.7675193548202517
949,52900.0,8.437167167663574,2.816179752349853,-1.7675193548202517
950,53000.0,6.342838764190674,-19.608510971069336,-9.692925453186037
951,53100.0,6.342838764190674,-19.608510971069336,-9.692925453186037
952,53200.0,-12.217611312866213,3.3722331523895264,-2.272696018218994
953,53300.0,-12.217611312866213,3.3722331523895264,-2.272696018218994
954,53400.0,-15.731101989746096,-19.608510971069336,1.0115501880645752
955,53500.0,-15.731101989746096,-19.608510971069336,1.0115501880645752
956,53600.0,7.862558364868164,3.33392596244812,-1.6376339197158811
957,53700.0,14.053963661193848,-19.608510971069336,-10.204686164855957
958,53800.0,14.053963661193848,-19.608510971069336,-10.204686164855957
959,53900.0,-8.40424633026123,-0.959476351737976,-1.5861586332321167
960,53000.0,6.342838764190674,-19.608510971069336,-9.692925453186037
961,53100.0,6.342838764190674,-19.608510971069336,-9.692925453186037
962,53200.0,-12.217611312866213,3.3722331523895264,-2.272696018218994
963,53300.0,-12.217611312866213,3.3722331523895264,-2.272696018218994
964,53400.0,-15.731101989746096,-19.608510971069336,1.0115501880645752
965,53500.0,-15.731101989746096,-19.608510971069336,1.0115501880645752
966,53600.0,7.862558364868164,3.33392596244812,-1.6376339197158811
967,53700.0,14.053963661193848,-19.608510971069336,-10.204686164855957
968,53800.0,14.053963661193848,-19.608510971069336,-10.204686164855957
969,53900.0,-8.40424633026123,-0.959476351737976,-1.5861586332321167
970,54000.0,-8.40424633026123,-0.959476351737976,-1.5861586332321167
971,54100.0,-19.566015243530273,-19.608510971069336,0.8607155084609985
972,54200.0,-19.566015243530273,-19.608510971069336,0.8607155084609985
973,54300.0,5.689221858978272,1.1581950187683103,-2.2792799472808842
974,54400.0,5.689221858978272,1.1581950187683103,-2.2792799472808842
975,54500.0,6.069900035858152,-19.608510971069336,-7.6740150451660165
976,54600.0,-11.27190113067627,-0.5129576921463013,1.4484920501708984
977,54700.0,-11.27190113067627,-0.5129576921463013,1.4484920501708984
978,54800.0,-18.51555824279785,-19.608510971069336,0.9762357473373412
979,54900.0,-18.51555824279785,-19.608510971069336,0.9762357473373412
980,54000.0,-8.40424633026123,-0.959476351737976,-1.5861586332321167
981,54100.0,-19.566015243530273,-19.608510971069336,0.8607155084609985
982,54200.0,-19.566015243530273,-19.608510971069336,0.8607155084609985
983,54300.0,5.689221858978272,1.1581950187683103,-2.2792799472808842
984,54400.0,5.689221858978272,1.1581950187683103,-2.2792799472808842
985,54500.0,6.069900035858152,-19.608510971069336,-7.6740150451660165
986,54600.0,-11.27190113067627,-0.5129576921463013,1.4484920501708984
987,54700.0,-11.27190113067627,-0.5129576921463013,1.4484920501708984
988,54800.0,-18.51555824279785,-19.608510971069336,0.9762357473373412
989,54900.0,-18.51555824279785,-19.608510971069336,0.9762357473373412
990,55000.0,5.523423194885254,-0.17178396880626678,-0.2495955228805542
991,55100.0,5.523423194885254,-0.17178396880626678,-0.2495955228805542
992,55200.0,10.791864395141602,-19.608510971069336,-5.406107425689697
993,55300.0,10.791864395141602,-19.608510971069336,-5.406107425689697
994,55400.0,-10.257957458496094,-4.468777656555176,-4.771644115447998
995,55500.0,-8.468890190124513,-11.26292324066162,0.5626373887062073
996,55600.0,-8.468890190124513,-11.26292324066162,0.5626373887062073
997,55700.0,2.45824670791626,-5.37558126449585,-1.7363947629928589
998,55800.0,2.45824670791626,-5.37558126449585,-1.7363947629928589
999,55900.0,10.521918296813963,-18.785505294799805,6.074089527130128
1000,55000.0,5.523423194885254,-0.17178396880626678,-0.2495955228805542
1001,55100.0,5.523423194885254,-0.17178396880626678,-0.2495955228805542
1002,55200.0,10.791864395141602,-19.608510971069336,-5.406107425689697
1003,55300.0,10.791864395141602,-19.608510971069336,-5.406107425689697
1004,55400.0,-10.257957458496094,-4.468777656555176,-4.771644115447998
1005,55500.0,-8.468890190124513,-11.26292324066162,0.5626373887062073
1006,55600.0,-8.468890190124513,-11.26292324066162,0.5626373887062073
1007,55700.0,2.45824670791626,-5.37558126449585,-1.7363947629928589
1008,55800.0,2.45824670791626,-5.37558126449585,-1.7363947629928589
1009,55900.0,10.521918296813963,-18.785505294799805,6.074089527130128
1010,56000.0,10.521918296813963,-18.785505294799805,6.074089527130128
1011,56100.0,-8.316259384155272,-3.126228809356689,-3.3464953899383545
1012,56200.0,-8.316259384155272,-3.126228809356689,-3.3464953899383545
1013,56300.0,-6.290764808654785,-11.116876602172852,-1.9321208000183103
1014,56400.0,3.678690910339357,-5.318718910217285,-0.6087257862091064
1015,56500.0,3.678690910339357,-5.318718910217285,-0.6087257862091064
1016,56600.0,4.3191399574279785,-13.91390323638916,8.97765827178955
1017,56700.0,4.3191399574279785,-13.91390323638916,8.97765827178955
1018,56800.0,-11.438298225402832,0.5123591423034668,-9.140463829040527
1019,56900.0,-11.438298225402832,0.5123591423034668,-9.140463829040527
1020,56000.0,10.521918296813963,-18.785505294799805,6.074089527130128
1021,56100.0,-8.316259384155272,-3.126228809356689,-3.3464953899383545
1022,56200.0,-8.316259384155272,-3.126228809356689,-3.3464953899383545
1023,56300.0,-6.290764808654785,-11.116876602172852,-1.9321208000183103
1024,56400.0,3.678690910339357,-5.318718910217285,-0.6087257862091064
1025,56500.0,3.678690910339357,-5.318718910217285,-0.6087257862091064
1026,56600.0,4.3191399574279785,-13.91390323638916,8.97765827178955
1027,56700.0,4.3191399574279785,-13.91390323638916,8.97765827178955
1028,56800.0,-11.438298225402832,0.5123591423034668,-9.140463829040527
1029,56900.0,-11.438298225402832,0.5123591423034668,-9.140463829040527
1030,57000.0,-4.222174644470215,-3.8612487316131587,-1.7363947629928589
1031,57100.0,-4.222174644470215,-3.8612487316131587,-1.7363947629928589
1032,57200.0,0.24660277366638186,-4.594472885131836,-0.6075286865234375
1033,57300.0,0.2436100244522095,-0.6051344871520996,-1.1324573755264282
1034,57400.0,0.2436100244522095,-0.6051344871520996,-1.1324573755264282
1035,57500.0,-12.468403816223145,-9.35893440246582,-2.9305028915405287
1036,57600.0,-12.468403816223145,-9.35893440246582,-2.9305028915405287
1037,57700.0,-0.5530605912208557,-2.583343744277954,1.1061211824417114
1038,57800.0,-0.5530605912208557,-2.583343744277954,1.1061211824417114
1039,57900.0,1.1641805171966553,-5.990292549133301,-2.1583728790283203
1040,57000.0,-4.222174644470215,-3.8612487316131587,-1.7363947629928589
1041,57100.0,-4.222174644470215,-3.8612487316131587,-1.7363947629928589
1042,57200.0,0.24660277366638186,-4.594472885131836,-0.6075286865234375
1043,57300.0,0.2436100244522095,-0.6051344871520996,-1.1324573755264282
1044,57400.0,0.2436100244522095,-0.6051344871520996,-1.1324573755264282
1045,57500.0,-12.468403816223145,-9.35893440246582,-2.9305028915405287
1046,57600.0,-12.468403816223145,-9.35893440246582,-2.9305028915405287
1047,57700.0,-0.5530605912208557,-2.583343744277954,1.1061211824417114
1048,57800.0,-0.5530605912208557,-2.583343744277954,1.1061211824417114
1049,57900.0,1.1641805171966553,-5.990292549133301,-2.1583728790283203
1050,58000.0,1.1641805171966553,-5.990292549133301,-2.1583728790283203
1051,58100.0,-1.0193313360214231,-1.7190368175506592,-3.2387564182281494
1052,58200.0,-11.356895446777346,-8.668207168579103,-5.745485305786133
1053,58300.0,-11.356895446777346,-8.668207168579103,-5.745485305786133
1054,58400.0,-0.12689268589019775,-1.6837223768234253,3.25611424446106
1055,58500.0,-0.12689268589019775,-1.6837223768234253,3.25611424446106
1056,58600.0,-2.1074960231781006,-8.253412246704103,1.5382746458053589
1057,58700.0,-2.1074960231781006,-8.253412246704103,1.5382746458053589
1058,58800.0,-1.9806033372879028,-0.9038111567497252,-0.5811924338340759
1059,58900.0,-1.9806033372879028,-0.9038111567497252,-0.5811924338340759
1060,58000.0,1.1641805171966553,-5.990292549133301,-2.1583728790283203
1061,58100.0,-1.0193313360214231,-1.7190368175506592,-3.2387564182281494
1062,58200.0,-11.356895446777346,-8.668207168579103,-5.745485305786133
1063,58300.0,-11.356895446777346,-8.668207168579103,-5.745485305786133
1064,58400.0,-0.12689268589019775,-1.6837223768234253,3.25611424446106
1065,58500.0,-0.12689268589019775,-1.6837223768234253,3.25611424446106
1066,58600.0,-2.1074960231781006,-8.253412246704103,1.5382746458053589
1067,58700.0,-2.1074960231781006,-8.253412246704103,1.5382746458053589
1068,58800.0,-1.9806033372879028,-0.9038111567497252,-0.5811924338340759
1069,58900.0,-1.9806033372879028,-0.9038111567497252,-0.5811924338340759
1070,59000.0,-13.672088623046875,-8.498817443847656,-1.8926163911819456
1071,59100.0,1.9231425523757928,3.144185304641724,4.511873245239258
1072,59200.0,1.9231425523757928,3.144185304641724,4.511873245239258
1073,59300.0,-3.04602313041687,-7.417835235595702,1.8034324645996087
1074,59400.0,-3.04602313041687,-7.417835235595702,1.8034324645996087
1075,59500.0,-2.534262418746948,-0.7242460250854492,3.6966474056243896
1076,59600.0,-2.534262418746948,-0.7242460250854492,3.6966474056243896
1077,59700.0,-12.033257484436035,-11.856685638427734,-2.0213048458099365
1078,59800.0,-12.033257484436035,-11.856685638427734,-2.0213048458099365
1079,59900.0,0.5823895931243896,2.4791958332061768,3.288435935974121
1080,59000.0,-13.672088623046875,-8.498817443847656,-1.8926163911819456
1081,59100.0,1.9231425523757928,3.144185304641724,4.511873245239258
1082,59200.0,1.9231425523757928,3.144185304641724,4.511873245239258
1083,59300.0,-3.04602313041687,-7.417835235595702,1.8034324645996087
1084,59400.0,-3.04602313041687,-7.417835235595702,1.8034324645996087
1085,59500.0,-2.534262418746948,-0.7242460250854492,3.6966474056243896
1086,59600.0,-2.534262418746948,-0.7242460250854492,3.6966474056243896
1087,59700.0,-12.033257484436035,-11.856685638427734,-2.0213048458099365
1088,59800.0,-12.033257484436035,-11.856685638427734,-2.0213048458099365
1089,59900.0,0.5823895931243896,2.4791958332061768,3.288435935974121
1090,60000.0,2.0494365692138667,-7.775169849395753,2.2008697986602783
1091,60100.0,2.0494365692138667,-7.775169849395753,2.2008697986602783
1092,60200.0,-2.7036523818969727,-0.4465186297893524,3.25491714477539
1093,60300.0,-2.7036523818969727,-0.4465186297893524,3.25491714477539
1094,60400.0,-13.192649841308596,-2.01232647895813,19.608510971069336
1095,60500.0,-13.192649841308596,-2.01232647895813,19.608510971069336
1096,60600.0,0.6787561774253845,1.71245276927948,1.0995371341705322
1097,60700.0,0.6787561774253845,1.71245276927948,1.0995371341705322
1098,60800.0,-2.28406834602356,-4.338293552398682,2.937685489654541
1099,60900.0,-0.0802057534456253,-1.978209137916565,-1.5981296300888062
1100,60000.0,2.0494365692138667,-7.775169849395753,2.2008697986602783
1101,60100.0,2.0494365692138667,-7.775169849395753,2.2008697986602783
1102,60200.0,-2.7036523818969727,-0.4465186297893524,3.25491714477539
1103,60300.0,-2.7036523818969727,-0.4465186297893524,3.25491714477539
1104,60400.0,-13.192649841308596,-2.01232647895813,19.608510971069336
1105,60500.0,-13.192649841308596,-2.01232647895813,19.608510971069336
1106,60600.0,0.6787561774253845,1.71245276927948,1.0995371341705322
1107,60700.0,0.6787561774253845,1.71245276927948,1.0995371341705322
1108,60800.0,-2.28406834602356,-4.338293552398682,2.937685489654541
1109,60900.0,-0.0802057534456253,-1.978209137916565,-1.5981296300888062
1110,61000.0,-0.0802057534456253,-1.978209137916565,-1.5981296300888062
1111,61100.0,-17.47647476196289,-12.791621208190918,0.10893617570400238
1112,61200.0,-17.47647476196289,-12.791621208190918,0.10893617570400238
1113,61300.0,1.6280571222305298,3.714005470275879,4.747103214263916
1114,61400.0,1.6280571222305298,3.714005470275879,4.747103214263916
1115,61500.0,-6.8821330070495605,-3.6044707298278813,1.1976994276046753
1116,61600.0,-6.8821330070495605,-3.6044707298278813,1.1976994276046753
1117,61700.0,-3.357269287109375,-0.6212953329086304,5.937620162963867
1118,61800.0,-12.746729850769045,-13.081319808959961,-1.4562731981277466
1119,61900.0,-12.746729850769045,-13.081319808959961,-1.4562731981277466
1120,61000.0,-0.0802057534456253,-1.978209137916565,-1.5981296300888062
1121,61100.0,-17.47647476196289,-12.791621208190918,0.10893617570400238
1122,61200.0,-17.47647476196289,-12.791621208190918,0.10893617570400238
1123,61300.0,1.6280571222305298,3.714005470275879,4.747103214263916
1124,61400.0,1.6280571222305298,3.714005470275879,4.747103214263916
1125,61500.0,-6.8821330070495605,-3.6044707298278813,1.1976994276046753
1126,61600.0,-6.8821330070495605,-3.6044707298278813,1.1976994276046753
1127,61700.0,-3.357269287109375,-0.6212953329086304,5.937620162963867
1128,61800.0,-12.746729850769045,-13.081319808959961,-1.4562731981277466
1129,61900.0,-12.746729850769045,-13.081319808959961,-1.4562731981277466
1130,62000.0,2.3948001861572266,5.27263069152832,6.367379188537598
1131,62100.0,2.3948001861572266,5.27263069152832,6.367379188537598
1132,62200.0,-1.7896658182144165,-3.1058781147003174,-6.433818340301514
1133,62300.0,-1.7896658182144165,-3.1058781147003174,-6.433818340301514
1134,62400.0,-4.964377403259277,1.2455834150314329,3.0963013172149663
1135,62500.0,-4.964377403259277,1.2455834150314329,3.0963013172149663
1136,62600.0,-14.544177055358887,-18.44074058532715,-5.496488571166992
1137,62700.0,1.3640964031219482,2.844910144805908,6.757634162902832
1138,62800.0,1.3640964031219482,2.844910144805908,6.757634162902832
1139,62900.0,-5.904101371765138,-4.992508888244629,-2.2002713680267334
1140,62000.0,2.3948001861572266,5.27263069152832,6.367379188537598
1141,62100.0,2.3948001861572266,5.27263069152832,6.367379188537598
1142,62200.0,-1.7896658182144165,-3.1058781147003174,-6.433818340301514
1143,62300.0,-1.7896658182144165,-3.1058781147003174,-6.433818340301514
1144,62400.0,-4.964377403259277,1.2455834150314329,3.0963013172149663
1145,62500.0,-4.964377403259277,1.2455834150314329,3.0963013172149663
1146,62600.0,-14.544177055358887,-18.44074058532715,-5.496488571166992
1147,62700.0,1.3640964031219482,2.844910144805908,6.757634162902832
1148,62800.0,1.3640964031219482,2.844910144805908,6.757634162902832
1149,62900.0,-5.904101371765138,-4.992508888244629,-2.2002713680267334
1150,63000.0,-5.904101371765138,-4.992508888244629,-2.2002713680267334
1151,63100.0,-7.2789716720581055,2.699462413787842,5.980715751647949
1152,63200.0,-7.2789716720581055,2.699462413787842,5.980715751647949
1153,63300.0,-13.263877868652346,-18.91120147705078,-5.04218864440918
1154,63400.0,-13.263877868652346,-18.91120147705078,-5.04218864440918
1155,63500.0,-1.9434932470321653,1.1007342338562012,3.2980127334594727
1156,63600.0,-3.794211149215698,-5.811924457550049,-5.245696067810059
1157,63700.0,-3.794211149215698,-5.811924457550049,-5.245696067810059
1158,63800.0,-8.914810180664062,3.2363622188568115,12.479776382446287
1159,63900.0,-8.914810180664062,3.2363622188568115,12.479776382446287
1160,63000.0,-5.904101371765138,-4.992508888244629,-2.2002713680267334
1161,63100.0,-7.2789716720581055,2.699462413787842,5.980715751647949
1162,63200.0,-7.2789716720581055,2.699462413787842,5.980715751647949
1163,63300.0,-13.263877868652346,-18.91120147705078,-5.04218864440918
1164,63400.0,-13.263877868652346,-18.91120147705078,-5.04218864440918
1165,63500.0,-1.9434932470321653,1.1007342338562012,3.2980127334594727
1166,63600.0,-3.794211149215698,-5.811924457550049,-5.245696067810059
1167,63700.0,-3.794211149215698,-5.811924457550049,-5.245696067810059
1168,63800.0,-8.914810180664062,3.2363622188568115,12.479776382446287
1169,63900.0,-8.914810180664062,3.2363622188568115,12.479776382446287
1170,64000.0,-10.317811965942383,-19.594146728515625,-5.95258378982544
1171,64100.0,-10.317811965942383,-19.594146728515625,-5.95258378982544
1172,64200.0,-3.5817258358001722,-1.422754406929016,-0.35254621505737305
1173,64300.0,-3.5817258358001722,-1.422754406929016,-0.35254621505737305
1174,64400.0,-3.1717185974121094,-12.10328769683838,-4.124610900878906
1175,64500.0,2.2655134201049805,2.239177227020264,3.6092591285705566
1176,64600.0,2.2655134201049805,2.239177227020264,3.6092591285705566
1177,64700.0,-4.626196384429932,-16.223709106445312,-5.971138954162598
1178,64800.0,-4.626196384429932,-16.223709106445312,-5.971138954162598
1179,64900.0,-3.78104305267334,-1.294066071510315,-0.2992752194404602
1180,64000.0,-10.317811965942383,-19.594146728515625,-5.95258378982544
1181,64100.0,-10.317811965942383,-19.594146728515625,-5.95258378982544
1182,64200.0,-3.5817258358001722,-1.422754406929016,-0.35254621505737305
1183,64300.0,-3.5817258358001722,-1.422754406929016,-0.35254621505737305
1184,64400.0,-3.1717185974121094,-12.10328769683838,-4.124610900878906
1185,64500.0,2.2655134201049805,2.239177227020264,3.6092591285705566
1186,64600.0,2.2655134201049805,2.239177227020264,3.6092591285705566
1187,64700.0,-4.626196384429932,-16.223709106445312,-5.971138954162598
1188,64800.0,-4.626196384429932,-16.223709106445312,-5.971138954162598
1189,64900.0,-3.78104305267334,-1.294066071510315,-0.2992752194404602
1190,65000.0,-3.78104305267334,-1.294066071510315,-0.2992752194404602
1191,65100.0,-2.628833532333374,-16.49485206604004,-6.253056526184082
1192,65200.0,-2.628833532333374,-16.49485206604004,-6.253056526184082
1193,65300.0,5.761646270751952,4.256890773773193,5.665279865264893
1194,65400.0,5.761646270751952,4.256890773773193,5.665279865264893
1195,65500.0,-4.047996520996094,-16.565481185913086,-7.653664112091064
1196,65600.0,-3.2866404056549072,-1.8519150018692017,-0.17058686912059784
1197,65700.0,-3.2866404056549072,-1.8519150018692017,-0.17058686912059784
1198,65800.0,-1.4407109022140503,-14.894927024841307,4.2550950050353995
1199,65900.0,-1.4407109022140503,-14.894927024841307,4.2550950050353995
1200,65000.0,-3.78104305267334,-1.294066071510315,-0.2992752194404602
1201,65100.0,-2.628833532333374,-16.49485206604004,-6.253056526184082
1202,65200.0,-2.628833532333374,-16.49485206604004,-6.253056526184082
1203,65300.0,5.761646270751952,4.256890773773193,5.665279865264893
1204,65400.0,5.761646270751952,4.256890773773193,5.665279865264893
1205,65500.0,-4.047996520996094,-16.565481185913086,-7.653664112091064
1206,65600.0,-3.2866404056549072,-1.8519150018692017,-0.17058686912059784
1207,65700.0,-3.2866404056549072,-1.8519150018692017,-0.17058686912059784
1208,65800.0,-1.4407109022140503,-14.894927024841307,4.2550950050353995
1209,65900.0,-1.4407109022140503,-14.894927024841307,4.2550950050353995
1210,66000.0,4.531026840209961,3.308786630630493,0.4531026780605316
1211,66100.0,4.531026840209961,3.308786630630493,0.4531026780605316
1212,66200.0,-1.9147628545761108,-19.608510971069336,-13.581707954406738
1213,66300.0,-1.9147628545761108,-19.608510971069336,-13.581707954406738
1214,66400.0,-5.400720596313477,-3.317166566848755,-1.0229226350784302
1215,66500.0,-10.375871658325195,-19.608510971069336,4.434061527252197
1216,66600.0,-10.375871658325195,-19.608510971069336,4.434061527252197
1217,66700.0,6.671442985534668,2.631227731704712,0.03950432687997818
1218,66800.0,6.671442985534668,2.631227731704712,0.03950432687997818
1219,66900.0,-4.714183330535889,-18.7843074798584,-7.111976146697997
1220,66000.0,4.531026840209961,3.308786630630493,0.4531026780605316
1221,66100.0,4.531026840209961,3.308786630630493,0.4531026780605316
1222,66200.0,-1.9147628545761108,-19.608510971069336,-13.581707954406738
1223,66300.0,-1.9147628545761108,-19.608510971069336,-13.581707954406738
1224,66400.0,-5.400720596313477,-3.317166566848755,-1.0229226350784302
1225,66500.0,-10.375871658325195,-19.608510971069336,4.434061527252197
1226,66600.0,-10.375871658325195,-19.608510971069336,4.434061527252197
1227,66700.0,6.671442985534668,2.631227731704712,0.03950432687997818
1228,66800.0,6.671442985534668,2.631227731704712,0.03950432687997818
1229,66900.0,-4.714183330535889,-18.7843074798584,-7.111976146697997
1230,67000.0,-4.714183330535889,-18.7843074798584,-7.111976146697997
1231,67100.0,-6.486490726470947,-4.268262863159181,-2.8335378170013428
1232,67200.0,-8.347982406616211,-19.608510971069336,-0.1586158573627472
1233,67300.0,-8.347982406616211,-19.608510971069336,-0.1586158573627472
1234,67400.0,4.839280128479004,0.6703764796257019,0.8319851160049438
1235,67500.0,4.839280128479004,0.6703764796257019,0.8319851160049438
1236,67600.0,-1.1264718770980835,-17.03115463256836,-3.904344320297241
1237,67700.0,-1.1264718770980835,-17.03115463256836,-3.904344320297241
1238,67800.0,-9.923367500305176,-1.0055646896362305,-3.979761838912964
1239,67900.0,-9.923367500305176,-1.0055646896362305,-3.979761838912964
1240,67000.0,-4.714183330535889,-18.7843074798584,-7.111976146697997
1241,67100.0,-6.486490726470947,-4.268262863159181,-2.8335378170013428
1242,67200.0,-8.347982406616211,-19.608510971069336,-0.1586158573627472
1243,67300.0,-8.347982406616211,-19.608510971069336,-0.1586158573627472
1244,67400.0,4.839280128479004,0.6703764796257019,0.8319851160049438
1245,67500.0,4.839280128479004,0.6703764796257019,0.8319851160049438
1246,67600.0,-1.1264718770980835,-17.03115463256836,-3.904344320297241
1247,67700.0,-1.1264718770980835,-17.03115463256836,-3.904344320297241
1248,67800.0,-9.923367500305176,-1.0055646896362305,-3.979761838912964
1249,67900.0,-9.923367500305176,-1.0055646896362305,-3.979761838912964
1250,68000.0,-11.394604682922365,-19.608510971069336,4.254496574401856
1251,68100.0,-11.394604682922365,-19.608510971069336,4.254496574401856
1252,68200.0,5.568314552307129,0.7344213724136353,-1.5478514432907104
1253,68300.0,11.622053146362305,-19.608510971069336,-0.3549404144287109
1254,68400.0,11.622053146362305,-19.608510971069336,-0.3549404144287109
1255,68500.0,-11.933897972106935,-0.7170634269714355,0.5213374495506287
1256,68600.0,-11.933897972106935,-0.7170634269714355,0.5213374495506287
1257,68700.0,-16.823457717895508,-19.608510971069336,2.0446481704711914
1258,68800.0,-16.823457717895508,-19.608510971069336,2.0446481704711914
1259,68900.0,12.476184844970705,2.6581623554229736,-1.8237831592559808
1260,68000.0,-11.394604682922365,-19.608510971069336,4.254496574401856
1261,68100.0,-11.394604682922365,-19.608510971069336,4.254496574401856
1262,68200.0,5.568314552307129,0.7344213724136353,-1.5478514432907104
1263,68300.0,11.622053146362305,-19.608510971069336,-0.3549404144287109
1264,68400.0,11.622053146362305,-19.608510971069336,-0.3549404144287109
1265,68500.0,-11.933897972106935,-0.7170634269714355,0.5213374495506287
1266,68600.0,-11.933897972106935,-0.7170634269714355,0.5213374495506287
1267,68700.0,-16.823457717895508,-19.608510971069336,2.0446481704711914
1268,68800.0,-16.823457717895508,-19.608510971069336,2.0446481704711914
1269,68900.0,12.476184844970705,2.6581623554229736,-1.8237831592559808
1270,69000.0,12.476184844970705,2.6581623554229736,-1.8237831592559808
1271,69100.0,13.480552673339846,-19.608510971069336,-11.883021354675293
1272,69200.0,-9.964069366455078,0.0017956512747332454,-0.29388827085494995
1273,69300.0,-9.964069366455078,0.0017956512747332454,-0.29388827085494995
1274,69400.0,-16.988656997680664,-19.608510971069336,3.1076738834381104
1275,69500.0,-16.988656997680664,-19.608510971069336,3.1076738834381104
1276,69600.0,6.147112846374513,-0.7697358727455139,-0.30047231912612915
1277,69700.0,6.147112846374513,-0.7697358727455139,-0.30047231912612915
1278,69800.0,12.262502670288086,-17.79849624633789,6.6181721687316895
1279,69900.0,12.262502670288086,-17.79849624633789,6.6181721687316895
1280,69000.0,12.476184844970705,2.6581623554229736,-1.8237831592559808
1281,69100.0,13.480552673339846,-19.608510971069336,-11.883021354675293
1282,69200.0,-9.964069366455078,0.0017956512747332454,-0.29388827085494995
1283,69300.0,-9.964069366455078,0.0017956512747332454,-0.29388827085494995
1284,69400.0,-16.988656997680664,-19.608510971069336,3.1076738834381104
1285,69500.0,-16.988656997680664,-19.608510971069336,3.1076738834381104
1286,69600.0,6.147112846374513,-0.7697358727455139,-0.30047231912612915
1287,69700.0,6.147112846374513,-0.7697358727455139,-0.30047231912612915
1288,69800.0,12.262502670288086,-17.79849624633789,6.6181721687316895
1289,69900.0,12.262502670288086,-17.79849624633789,6.6181721687316895
1290,70000.0,-13.657723426818848,2.4396915435791016,-1.1803414821624756
1291,70100.0,-13.427281379699707,-19.608510971069336,-1.0055646896362305
1292,70200.0,-13.427281379699707,-19.608510971069336,-1.0055646896362305
1293,70300.0,5.6658782958984375,-4.492120742797852,1.0438719987869265
1294,70400.0,5.6658782958984375,-4.492120742797852,1.0438719987869265
1295,70500.0,9.9772367477417,-16.698957443237305,5.196016311645508
1296,70600.0,9.9772367477417,-16.698957443237305,5.196016311645508
1297,70700.0,-11.063007354736328,2.9604303836822514,-3.5003228187561035
1298,70800.0,-11.063007354736328,2.9604303836822514,-3.5003228187561035
1299,70900.0,-12.918514251708984,-19.282899856567386,1.173158884048462
1300,70000.0,-13.657723426818848,2.4396915435791016,-1.1803414821624756
1301,70100.0,-13.427281379699707,-19.608510971069336,-1.0055646896362305
1302,70200.0,-13.427281379699707,-19.608510971069336,-1.0055646896362305
1303,70300.0,5.6658782958984375,-4.492120742797852,1.0438719987869265
1304,70400.0,5.6658782958984375,-4.492120742797852,1.0438719987869265
1305,70500.0,9.9772367477417,-16.698957443237305,5.196016311645508
1306,70600.0,9.9772367477417,-16.698957443237305,5.196016311645508
1307,70700.0,-11.063007354736328,2.9604303836822514,-3.5003228187561035
1308,70800.0,-11.063007354736328,2.9604303836822514,-3.5003228187561035
1309,70900.0,-12.918514251708984,-19.282899856567386,1.173158884048462
1310,71000.0,4.337695121765137,-4.049792289733887,-2.5079262256622314
1311,71100.0,4.337695121765137,-4.049792289733887,-2.5079262256622314
1312,71200.0,1.2372037172317505,-4.35684871673584,3.590105533599853
1313,71300.0,1.2372037172317505,-4.35684871673584,3.590105533599853
1314,71400.0,-12.95682144165039,-1.128267526626587,-8.455721855163574
1315,71500.0,-12.95682144165039,-1.128267526626587,-8.455721855163574
1316,71600.0,-11.825560569763185,-19.608510971069336,-2.4426841735839844
1317,71700.0,-11.825560569763185,-19.608510971069336,-2.4426841735839844
1318,71800.0,6.117185115814209,-3.4793736934661865,-1.7214310169219968
1319,71900.0,2.0649988651275635,-13.743914604187012,3.8492777347564697
1320,71000.0,4.337695121765137,-4.049792289733887,-2.5079262256622314
1321,71100.0,4.337695121765137,-4.049792289733887,-2.5079262256622314
1322,71200.0,1.2372037172317505,-4.35684871673584,3.590105533599853
1323,71300.0,1.2372037172317505,-4.35684871673584,3.590105533599853
1324,71400.0,-12.95682144165039,-1.128267526626587,-8.455721855163574
1325,71500.0,-12.95682144165039,-1.128267526626587,-8.455721855163574
1326,71600.0,-11.825560569763185,-19.608510971069336,-2.4426841735839844
1327,71700.0,-11.825560569763185,-19.608510971069336,-2.4426841735839844
1328,71800.0,6.117185115814209,-3.4793736934661865,-1.7214310169219968
1329,71900.0,2.0649988651275635,-13.743914604187012,3.8492777347564697
1330,72000.0,2.0649988651275635,-13.743914604187012,3.8492777347564697
1331,72100.0,-10.845733642578123,-1.1204863786697388,-8.251017570495605
1332,72200.0,-10.845733642578123,-1.1204863786697388,-8.251017570495605
1333,72300.0,-10.457873344421387,-16.236278533935547,0.547075092792511
1334,72400.0,-10.457873344421387,-16.236278533935547,0.547075092792511
1335,72500.0,4.949413299560547,-5.16549015045166,-2.67372465133667
1336,72600.0,4.949413299560547,-5.16549015045166,-2.67372465133667
1337,72700.0,2.472611904144287,-13.95280933380127,1.1863269805908203
1338,72800.0,-9.907206535339355,-2.636016130447388,-1.9740192890167243
1339,72900.0,-9.907206535339355,-2.636016130447388,-1.9740192890167243
1340,72000.0,2.0649988651275635,-13.743914604187012,3.8492777347564697
1341,72100.0,-10.845733642578123,-1.1204863786697388,-8.251017570495605
1342,72200.0,-10.845733642578123,-1.1204863786697388,-8.251017570495605
1343,72300.0,-10.457873344421387,-16.236278533935547,0.547075092792511
1344,72400.0,-10.457873344421387,-16.236278533935547,0.547075092792511
1345,72500.0,4.949413299560547,-5.16549015045166,-2.67372465133667
1346,72600.0,4.949413299560547,-5.16549015045166,-2.67372465133667
1347,72700.0,2.472611904144287,-13.95280933380127,1.1863269805908203
1348,72800.0,-9.907206535339355,-2.636016130447388,-1.9740192890167243
1349,72900.0,-9.907206535339355,-2.636016130447388,-1.9740192890167243
1350,73000.0,-4.924872875213623,-2.9927520751953125,-3.450643301010132
1351,73100.0,-4.924872875213623,-2.9927520751953125,-3.450643301010132
1352,73200.0,2.8778305053710938,-6.819284915924072,-0.6404489278793335
1353,73300.0,2.8778305053710938,-6.819284915924072,-0.6404489278793335
1354,73400.0,3.889380693435669,-8.661025047302246,0.004788403399288654
1355,73500.0,3.889380693435669,-8.661025047302246,0.004788403399288654
1356,73600.0,-9.370306968688963,-2.0512323379516597,4.686051368713379
1357,73700.0,-4.111443042755127,-5.623979568481445,-2.6138696670532227
1358,73800.0,-4.111443042755127,-5.623979568481445,-2.6138696670532227
1359,73900.0,4.35684871673584,-4.203619480133057,-0.7026981711387634
1360,73000.0,-4.924872875213623,-2.9927520751953125,-3.450643301010132
1361,73100.0,-4.924872875213623,-2.9927520751953125,-3.450643301010132
1362,73200.0,2.8778305053710938,-6.819284915924072,-0.6404489278793335
1363,73300.0,2.8778305053710938,-6.819284915924072,-0.6404489278793335
1364,73400.0,3.889380693435669,-8.661025047302246,0.004788403399288654
1365,73500.0,3.889380693435669,-8.661025047302246,0.004788403399288654
1366,73600.0,-9.370306968688963,-2.0512323379516597,4.686051368713379
1367,73700.0,-4.111443042755127,-5.623979568481445,-2.6138696670532227
1368,73800.0,-4.111443042755127,-5.623979568481445,-2.6138696670532227
1369,73900.0,4.35684871673584,-4.203619480133057,-0.7026981711387634
1370,74000.0,4.35684871673584,-4.203619480133057,-0.7026981711387634
1371,74100.0,-0.2950853705406189,-1.9788076877594,-1.5017629861831665
1372,74200.0,-0.2950853705406189,-1.9788076877594,-1.5017629861831665
1373,74300.0,-11.07138729095459,0.9307458996772766,9.255983352661133
1374,74400.0,-11.07138729095459,0.9307458996772766,9.255983352661133
1375,74500.0,-4.2102036476135245,-9.49121379852295,0.7613561153411865
1376,74600.0,5.760449409484862,-6.278195381164551,-0.8547300100326538
1377,74700.0,5.760449409484862,-6.278195381164551,-0.8547300100326538
1378,74800.0,-0.5931634902954102,-2.607884168624878,-0.0011971008498221636
1379,74900.0,-0.5931634902954102,-2.607884168624878,-0.0011971008498221636
1380,74000.0,4.35684871673584,-4.203619480133057,-0.7026981711387634
1381,74100.0,-0.2950853705406189,-1.9788076877594,-1.5017629861831665
1382,74200.0,-0.2950853705406189,-1.9788076877594,-1.5017629861831665
1383,74300.0,-11.07138729095459,0.9307458996772766,9.255983352661133
1384,74400.0,-11.07138729095459,0.9307458996772766,9.255983352661133
1385,74500.0,-4.2102036476135245,-9.49121379852295,0.7613561153411865
1386,74600.0,5.760449409484862,-6.278195381164551,-0.8547300100326538
1387,74700.0,5.760449409484862,-6.278195381164551,-0.8547300100326538
1388,74800.0,-0.5931634902954102,-2.607884168624878,-0.0011971008498221636
1389,74900.0,-0.5931634902954102,-2.607884168624878,-0.0011971008498221636
1390,75000.0,-12.874220848083494,-1.3108254671096802,-11.225214958190918
1391,75100.0,-12.874220848083494,-1.3108254671096802,-11.225214958190918
1392,75200.0,-2.0626046657562256,-2.715623378753662,-2.80899715423584
1393,75300.0,-2.0626046657562256,-2.715623378753662,-2.80899715423584
1394,75400.0,2.4181437492370605,-4.261080265045166,-1.9117701053619385
1395,75500.0,5.52701473236084,-5.593453884124756,4.850054264068604
1396,75600.0,5.52701473236084,-5.593453884124756,4.850054264068604
1397,75700.0,-18.42757225036621,-1.3533225059509275,19.207483291625977
1398,75800.0,-18.42757225036621,-1.3533225059509275,19.207483291625977
1399,75900.0,0.2406172752380371,-1.6472107172012331,0.5069721937179565
1400,75000.0,-12.874220848083494,-1.3108254671096802,-11.225214958190918
1401,75100.0,-12.874220848083494,-1.3108254671096802,-11.225214958190918
1402,75200.0,-2.0626046657562256,-2.715623378753662,-2.80899715423584
1403,75300.0,-2.0626046657562256,-2.715623378753662,-2.80899715423584
1404,75400.0,2.4181437492370605,-4.261080265045166,-1.9117701053619385
1405,75500.0,5.52701473236084,-5.593453884124756,4.850054264068604
1406,75600.0,5.52701473236084,-5.593453884124756,4.850054264068604
1407,75700.0,-18.42757225036621,-1.3533225059509275,19.207483291625977
1408,75800.0,-18.42757225036621,-1.3533225059509275,19.207483291625977
1409,75900.0,0.2406172752380371,-1.6472107172012331,0.5069721937179565
1410,76000.0,0.2406172752380371,-1.6472107172012331,0.5069721937179565
1411,76100.0,-2.925714492797852,-5.740696907043457,-0.7463923692703247
1412,76200.0,-2.925714492797852,-5.740696907043457,-0.7463923692703247
1413,76300.0,-2.518700122833252,-0.7553706169128418,-2.7910406589508057
1414,76400.0,-12.595296859741213,-10.569802284240724,-3.7158010005950928
1415,76500.0,-12.595296859741213,-10.569802284240724,-3.7158010005950928
1416,76600.0,-2.583942174911499,3.01250433921814,4.465784549713135
1417,76700.0,-2.583942174911499,3.01250433921814,4.465784549713135
1418,76800.0,-6.274604320526122,-2.8095955848693848,-0.4782418012619018
1419,76900.0,-6.274604320526122,-2.8095955848693848,-0.4782418012619018
1420,76000.0,0.2406172752380371,-1.6472107172012331,0.5069721937179565
1421,76100.0,-2.925714492797852,-5.740696907043457,-0.7463923692703247
1422,76200.0,-2.925714492797852,-5.740696907043457,-0.7463923692703247
1423,76300.0,-2.518700122833252,-0.7553706169128418,-2.7910406589508057
1424,76400.0,-12.595296859741213,-10.569802284240724,-3.7158010005950928
1425,76500.0,-12.595296859741213,-10.569802284240724,-3.7158010005950928
1426,76600.0,-2.583942174911499,3.01250433921814,4.465784549713135
1427,76700.0,-2.583942174911499,3.01250433921814,4.465784549713135
1428,76800.0,-6.274604320526122,-2.8095955848693848,-0.4782418012619018
1429,76900.0,-6.274604320526122,-2.8095955848693848,-0.4782418012619018
1430,77000.0,-2.896984100341797,-2.2792799472808842,1.2425906658172607
1431,77100.0,-2.896984100341797,-2.2792799472808842,1.2425906658172607
1432,77200.0,-17.211915969848633,-19.608510971069336,-7.268796443939209
1433,77300.0,-2.0027496814727783,1.6196774244308472,3.711611270904541
1434,77400.0,-2.0027496814727783,1.6196774244308472,3.711611270904541
1435,77500.0,-2.3277626037597656,-1.1845313310623171,-3.878606796264648
1436,77600.0,-2.3277626037597656,-1.1845313310623171,-3.878606796264648
1437,77700.0,-0.9080010056495668,2.925714492797852,2.6252422332763667
1438,77800.0,-0.9080010056495668,2.925714492797852,2.6252422332763667
1439,77900.0,-7.122750282287598,-15.752650260925293,-5.045181751251222
1440,77000.0,-2.896984100341797,-2.2792799472808842,1.2425906658172607
1441,77100.0,-2.896984100341797,-2.2792799472808842,1.2425906658172607
1442,77200.0,-17.211915969848633,-19.608510971069336,-7.268796443939209
1443,77300.0,-2.0027496814727783,1.6196774244308472,3.711611270904541
1444,77400.0,-2.0027496814727783,1.6196774244308472,3.711611270904541
1445,77500.0,-2.3277626037597656,-1.1845313310623171,-3.878606796264648
1446,77600.0,-2.3277626037597656,-1.1845313310623171,-3.878606796264648
1447,77700.0,-0.9080010056495668,2.925714492797852,2.6252422332763667
1448,77800.0,-0.9080010056495668,2.925714492797852,2.6252422332763667
1449,77900.0,-7.122750282287598,-15.752650260925293,-5.045181751251222
1450,78000.0,-7.122750282287598,-15.752650260925293,-5.045181751251222
1451,78100.0,-2.9508535861968994,-0.9726444482803344,-0.9415197968482972
1452,78200.0,-4.113837242126465,-13.66071605682373,-3.027467966079712
1453,78300.0,-4.113837242126465,-13.66071605682373,-3.027467966079712
1454,78400.0,5.320514678955078,3.6709096431732178,3.24414324760437
1455,78500.0,5.320514678955078,3.6709096431732178,3.24414324760437
1456,78600.0,-9.644442558288574,-19.00816535949707,-8.025363922119139
1457,78700.0,-9.644442558288574,-19.00816535949707,-8.025363922119139
1458,78800.0,-2.3020248413085938,0.6009446382522583,0.10893617570400238
1459,78900.0,-2.3020248413085938,0.6009446382522583,0.10893617570400238
1460,78000.0,-7.122750282287598,-15.752650260925293,-5.045181751251222
1461,78100.0,-2.9508535861968994,-0.9726444482803344,-0.9415197968482972
1462,78200.0,-4.113837242126465,-13.66071605682373,-3.027467966079712
1463,78300.0,-4.113837242126465,-13.66071605682373,-3.027467966079712
1464,78400.0,5.320514678955078,3.6709096431732178,3.24414324760437
1465,78500.0,5.320514678955078,3.6709096431732178,3.24414324760437
1466,78600.0,-9.644442558288574,-19.00816535949707,-8.025363922119139
1467,78700.0,-9.644442558288574,-19.00816535949707,-8.025363922119139
1468,78800.0,-2.3020248413085938,0.6009446382522583,0.10893617570400238
1469,78900.0,-2.3020248413085938,0.6009446382522583,0.10893617570400238
1470,79000.0,-6.434417247772218,-19.03569984436035,1.578976035118103
1471,79100.0,6.379350662231445,2.663549423217773,1.0702081918716428
1472,79200.0,6.379350662231445,2.663549423217773,1.0702081918716428
1473,79300.0,0.166995570063591,-19.608510971069336,-6.799532890319824
1474,79400.0,0.166995570063591,-19.608510971069336,-6.799532890319824
1475,79500.0,-6.92462968826294,-4.433463096618652,-4.978742599487305
1476,79600.0,-6.92462968826294,-4.433463096618652,-4.978742599487305
1477,79700.0,-1.1402385234832764,-19.608510971069336,0.44771572947502136
1478,79800.0,-1.1402385234832764,-19.608510971069336,0.44771572947502136
1479,79900.0,5.476137638092041,2.551620483398437,0.6715735793113708
1480,79000.0,-6.434417247772218,-19.03569984436035,1.578976035118103
1481,79100.0,6.379350662231445,2.663549423217773,1.0702081918716428
1482,79200.0,6.379350662231445,2.663549423217773,1.0702081918716428
1483,79300.0,0.166995570063591,-19.608510971069336,-6.799532890319824
1484,79400.0,0.166995570063591,-19.608510971069336,-6.799532890319824
1485,79500.0,-6.92462968826294,-4.433463096618652,-4.978742599487305
1486,79600.0,-6.92462968826294,-4.433463096618652,-4.978742599487305
1487,79700.0,-1.1402385234832764,-19.608510971069336,0.44771572947502136
1488,79800.0,-1.1402385234832764,-19.608510971069336,0.44771572947502136
1489,79900.0,5.476137638092041,2.551620483398437,0.6715735793113708
1490,80000.0,-1.0660183429718018,-19.608510971069336,-6.941389083862305
1491,80100.0,-1.0660183429718018,-19.608510971069336,-6.941389083862305
1492,80200.0,-8.200140953063965,-3.7307648658752437,-2.793434858322144
1493,80300.0,-8.200140953063965,-3.7307648658752437,-2.793434858322144
1494,80400.0,-0.7487865686416626,-19.608510971069336,4.039616584777832
1495,80500.0,-0.7487865686416626,-19.608510971069336,4.039616584777832
1496,80600.0,9.2033109664917,3.4997243881225586,0.7050924301147461
1497,80700.0,9.2033109664917,3.4997243881225586,0.7050924301147461
1498,80800.0,-2.457049608230591,-19.608510971069336,-14.585476875305176
1499,80900.0,-5.464765548706055,-1.903390407562256,-0.6368576288223267
1500,80000.0,-1.0660183429718018,-19.608510971069336,-6.941389083862305
1501,80100.0,-1.0660183429718018,-19.608510971069336,-6.941389083862305
1502,80200.0,-8.200140953063965,-3.7307648658752437,-2.793434858322144
1503,80300.0,-8.200140953063965,-3.7307648658752437,-2.793434858322144
1504,80400.0,-0.7487865686416626,-19.608510971069336,4.039616584777832
1505,80500.0,-0.7487865686416626,-19.608510971069336,4.039616584777832
1506,80600.0,9.2033109664917,3.4997243881225586,0.7050924301147461
1507,80700.0,9.2033109664917,3.4997243881225586,0.7050924301147461
1508,80800.0,-2.457049608230591,-19.608510971069336,-14.585476875305176
1509,80900.0,-5.464765548706055,-1.903390407562256,-0.6368576288223267
1510,81000.0,-5.464765548706055,-1.903390407562256,-0.6368576288223267
1511,81100.0,-3.0759506225585938,-19.608510971069336,9.05487060546875
1512,81200.0,-3.0759506225585938,-19.608510971069336,9.05487060546875
1513,81300.0,7.046135425567628,2.220622062683105,-0.17058686912059784
1514,81400.0,7.046135425567628,2.220622062683105,-0.17058686912059784
1515,81500.0,7.531559944152832,-19.608510971069336,-13.262680053710938
1516,81600.0,7.531559944152832,-19.608510971069336,-13.262680053710938
1517,81700.0,-9.682151794433594,-0.2274491637945175,-1.3832499980926514
1518,81800.0,-18.53830337524414,-19.608510971069336,-0.9780313968658448
1519,81900.0,-18.53830337524414,-19.608510971069336,-0.9780313968658448
1520,81000.0,-5.464765548706055,-1.903390407562256,-0.6368576288223267
1521,81100.0,-3.0759506225585938,-19.608510971069336,9.05487060546875
1522,81200.0,-3.0759506225585938,-19.608510971069336,9.05487060546875
1523,81300.0,7.046135425567628,2.220622062683105,-0.17058686912059784
1524,81400.0,7.046135425567628,2.220622062683105,-0.17058686912059784
1525,81500.0,7.531559944152832,-19.608510971069336,-13.262680053710938
1526,81600.0,7.531559944152832,-19.608510971069336,-13.262680053710938
1527,81700.0,-9.682151794433594,-0.2274491637945175,-1.3832499980926514
1528,81800.0,-18.53830337524414,-19.608510971069336,-0.9780313968658448
1529,81900.0,-18.53830337524414,-19.608510971069336,-0.9780313968658448
1530,82000.0,6.169857978820801,0.8619126081466675,-2.96162748336792
1531,82100.0,6.169857978820801,0.8619126081466675,-2.96162748336792
1532,82200.0,11.639411926269533,-18.94172668457032,3.983951568603516
1533,82300.0,11.639411926269533,-18.94172668457032,3.983951568603516
1534,82400.0,-9.470264434814453,0.8451532125473022,-1.1049240827560425
1535,82500.0,-9.470264434814453,0.8451532125473022,-1.1049240827560425
1536,82600.0,-19.58935737609864,-19.608510971069336,1.9961656332015991
1537,82700.0,4.258087635040283,-3.632602453231812,-1.7328034639358518
1538,82800.0,4.258087635040283,-3.632602453231812,-1.7328034639358518
1539,82900.0,2.115875720977783,-1.8052281141281128,0.487220048904419
1540,82000.0,6.169857978820801,0.8619126081466675,-2.96162748336792
1541,82100.0,6.169857978820801,0.8619126081466675,-2.96162748336792
1542,82200.0,11.639411926269533,-18.94172668457032,3.983951568603516
1543,82300.0,11.639411926269533,-18.94172668457032,3.983951568603516
1544,82400.0,-9.470264434814453,0.8451532125473022,-1.1049240827560425
1545,82500.0,-9.470264434814453,0.8451532125473022,-1.1049240827560425
1546,82600.0,-19.58935737609864,-19.608510971069336,1.9961656332015991
1547,82700.0,4.258087635040283,-3.632602453231812,-1.7328034639358518
1548,82800.0,4.258087635040283,-3.632602453231812,-1.7328034639358518
1549,82900.0,2.115875720977783,-1.8052281141281128,0.487220048904419
1550,83000.0,2.115875720977783,-1.8052281141281128,0.487220048904419
1551,83100.0,-14.379575729370115,-4.399345397949219,-1.042674899101257
1552,83200.0,-14.379575729370115,-4.399345397949219,-1.042674899101257
1553,83300.0,-1.0857704877853394,-3.525461912155152,-0.03770867735147476
1554,83400.0,-1.0857704877853394,-3.525461912155152,-0.03770867735147476
1555,83500.0,3.1340100765228267,-8.378508567810059,-2.2822728157043457
1556,83600.0,-1.6639702320098877,-1.0893617868423462,1.4706383943557741
1557,83700.0,-1.6639702320098877,-1.0893617868423462,1.4706383943557741
1558,83800.0,-18.06305503845215,-3.86005163192749,17.480066299438473
1559,83900.0,-18.06305503845215,-3.86005163192749,17.480066299438473
1560,83000.0,2.115875720977783,-1.8052281141281128,0.487220048904419
1561,83100.0,-14.379575729370115,-4.399345397949219,-1.042674899101257
1562,83200.0,-14.379575729370115,-4.399345397949219,-1.042674899101257
1563,83300.0,-1.0857704877853394,-3.525461912155152,-0.03770867735147476
1564,83400.0,-1.0857704877853394,-3.525461912155152,-0.03770867735147476
1565,83500.0,3.1340100765228267,-8.378508567810059,-2.2822728157043457
1566,83600.0,-1.6639702320098877,-1.0893617868423462,1.4706383943557741
1567,83700.0,-1.6639702320098877,-1.0893617868423462,1.4706383943557741
1568,83800.0,-18.06305503845215,-3.86005163192749,17.480066299438473
1569,83900.0,-18.06305503845215,-3.86005163192749,17.480066299438473
1570,84000.0,-0.46627077460289,2.4001872539520264,1.075595140457153
1571,84100.0,-0.46627077460289,2.4001872539520264,1.075595140457153
1572,84200.0,-6.254253387451173,-5.771223068237305,1.4484920501708984
1573,84300.0,-6.254253387451173,-5.771223068237305,1.4484920501708984
1574,84400.0,-3.0184898376464844,0.5698199868202211,1.235408067703247
1575,84500.0,-14.336480140686035,-9.907206535339355,1.4562731981277466
1576,84600.0,-14.336480140686035,-9.907206535339355,1.4562731981277466
1577,84700.0,-0.07960720360279082,2.8784289360046387,6.393715858459473
1578,84800.0,-0.07960720360279082,2.8784289360046387,6.393715858459473
1579,84900.0,-6.367379188537598,-2.097919225692749,-1.5125368833541868
1580,84000.0,-0.46627077460289,2.4001872539520264,1.075595140457153
1581,84100.0,-0.46627077460289,2.4001872539520264,1.075595140457153
1582,84200.0,-6.254253387451173,-5.771223068237305,1.4484920501708984
1583,84300.0,-6.254253387451173,-5.771223068237305,1.4484920501708984
1584,84400.0,-3.0184898376464844,0.5698199868202211,1.235408067703247
1585,84500.0,-14.336480140686035,-9.907206535339355,1.4562731981277466
1586,84600.0,-14.336480140686035,-9.907206535339355,1.4562731981277466
1587,84700.0,-0.07960720360279082,2.8784289360046387,6.393715858459473
1588,84800.0,-0.07960720360279082,2.8784289360046387,6.393715858459473
1589,84900.0,-6.367379188537598,-2.097919225692749,-1.5125368833541868
1590,85000.0,-6.367379188537598,-2.097919225692749,-1.5125368833541868
1591,85100.0,-1.5167267322540283,1.1617863178253174,5.239710330963135
1592,85200.0,-1.5167267322540283,1.1617863178253174,5.239710330963135
1593,85300.0,-15.920244216918945,-19.608510971069336,-6.27280855178833
1594,85400.0,-0.801459014415741,0.323815792798996,0.5249287486076355
1595,85500.0,-0.801459014415741,0.323815792798996,0.5249287486076355
1596,85600.0,-5.281609058380127,-9.00279712677002,-3.554192304611206
1597,85700.0,-5.281609058380127,-9.00279712677002,-3.554192304611206
1598,85800.0,6.2195372581481925,1.3198037147521973,-0.7212532758712769
1599,85900.0,6.2195372581481925,1.3198037147521973,-0.7212532758712769
1600,85000.0,-6.367379188537598,-2.097919225692749,-1.5125368833541868
1601,85100.0,-1.5167267322540283,1.1617863178253174,5.239710330963135
1602,85200.0,-1.5167267322540283,1.1617863178253174,5.239710330963135
1603,85300.0,-15.920244216918945,-19.608510971069336,-6.27280855178833
1604,85400.0,-0.801459014415741,0.323815792798996,0.5249287486076355
1605,85500.0,-0.801459014415741,0.323815792798996,0.5249287486076355
1606,85600.0,-5.281609058380127,-9.00279712677002,-3.554192304611206
1607,85700.0,-5.281609058380127,-9.00279712677002,-3.554192304611206
1608,85800.0,6.2195372581481925,1.3198037147521973,-0.7212532758712769
1609,85900.0,6.2195372581481925,1.3198037147521973,-0.7212532758712769
1610,86000.0,-10.542867660522461,-19.608510971069336,-14.723143577575685
1611,86100.0,-10.542867660522461,-19.608510971069336,-14.723143577575685
1612,86200.0,-7.4076600074768075,-4.547187805175781,-5.7329158782958975
1613,86300.0,-19.60910987854004,-19.608510971069336,5.14813232421875
1614,86400.0,-19.60910987854004,-19.608510971069336,5.14813232421875
1615,86500.0,9.396044731140137,2.457049608230591,-1.1109095811843872
1616,86600.0,9.396044731140137,2.457049608230591,-1.1109095811843872
1617,86700.0,-0.5776011347770691,-19.608510971069336,-18.36292839050293
1618,86800.0,-0.5776011347770691,-19.608510971069336,-18.36292839050293
1619,86900.0,-8.539519309997559,-0.5776011347770691,0.4584896266460418
1620,86000.0,-10.542867660522461,-19.608510971069336,-14.723143577575685
1621,86100.0,-10.542867660522461,-19.608510971069336,-14.723143577575685
1622,86200.0,-7.4076600074768075,-4.547187805175781,-5.7329158782958975
1623,86300.0,-19.60910987854004,-19.608510971069336,5.14813232421875
1624,86400.0,-19.60910987854004,-19.608510971069336,5.14813232421875
1625,86500.0,9.396044731140137,2.457049608230591,-1.1109095811843872
1626,86600.0,9.396044731140137,2.457049608230591,-1.1109095811843872
1627,86700.0,-0.5776011347770691,-19.608510971069336,-18.36292839050293
1628,86800.0,-0.5776011347770691,-19.608510971069336,-18.36292839050293
1629,86900.0,-8.539519309997559,-0.5776011347770691,0.4584896266460418
1630,87000.0,-8.539519309997559,-0.5776011347770691,0.4584896266460418
1631,87100.0,-16.343420028686527,-15.760431289672852,2.7108349800109863
1632,87200.0,5.734711647033691,-3.220201253890991,-0.8589198589324951
1633,87300.0,5.734711647033691,-3.220201253890991,-0.8589198589324951
1634,87400.0,2.472611904144287,-1.8201918601989744,0.5123591423034668
1635,87500.0,2.472611904144287,-1.8201918601989744,0.5123591423034668
1636,87600.0,-14.251485824584961,2.3026235103607178,-2.584540843963623
1637,87700.0,-14.251485824584961,2.3026235103607178,-2.584540843963623
1638,87800.0,-8.737040519714355,-5.562329292297363,-3.1322143077850337
1639,87900.0,-8.737040519714355,-5.562329292297363,-3.1322143077850337
1640,87000.0,-8.539519309997559,-0.5776011347770691,0.4584896266460418
1641,87100.0,-16.343420028686527,-15.760431289672852,2.7108349800109863
1642,87200.0,5.734711647033691,-3.220201253890991,-0.8589198589324951
1643,87300.0,5.734711647033691,-3.220201253890991,-0.8589198589324951
1644,87400.0,2.472611904144287,-1.8201918601989744,0.5123591423034668
1645,87500.0,2.472611904144287,-1.8201918601989744,0.5123591423034668
1646,87600.0,-14.251485824584961,2.3026235103607178,-2.584540843963623
1647,87700.0,-14.251485824584961,2.3026235103607178,-2.584540843963623
1648,87800.0,-8.737040519714355,-5.562329292297363,-3.1322143077850337
1649,87900.0,-8.737040519714355,-5.562329292297363,-3.1322143077850337
1650,88000.0,5.652710437774657,-3.2800562381744385,-2.0416555404663086
1651,88100.0,5.652710437774657,-3.2800562381744385,-2.0416555404663086
1652,88200.0,4.396951198577882,-0.6314706802368164,-0.487220048904419
1653,88300.0,-12.796409606933596,1.53169047832489,-0.0454898327589035
1654,88400.0,-12.796409606933596,1.53169047832489,-0.0454898327589035
1655,88500.0,-3.614645957946777,2.4905683994293213,-3.310582399368286
1656,88600.0,-3.614645957946777,2.4905683994293213,-3.310582399368286
1657,88700.0,3.8145618438720703,-8.429984092712402,-1.997362732887268
1658,88800.0,3.8145618438720703,-8.429984092712402,-1.997362732887268
1659,88900.0,-0.7948749661445618,-1.7196353673934937,2.387019157409668
1660,88000.0,5.652710437774657,-3.2800562381744385,-2.0416555404663086
1661,88100.0,5.652710437774657,-3.2800562381744385,-2.0416555404663086
1662,88200.0,4.396951198577882,-0.6314706802368164,-0.487220048904419
1663,88300.0,-12.796409606933596,1.53169047832489,-0.0454898327589035
1664,88400.0,-12.796409606933596,1.53169047832489,-0.0454898327589035
1665,88500.0,-3.614645957946777,2.4905683994293213,-3.310582399368286
1666,88600.0,-3.614645957946777,2.4905683994293213,-3.310582399368286
1667,88700.0,3.8145618438720703,-8.429984092712402,-1.997362732887268
1668,88800.0,3.8145618438720703,-8.429984092712402,-1.997362732887268
1669,88900.0,-0.7948749661445618,-1.7196353673934937,2.387019157409668
1670,89000.0,-0.7948749661445618,-1.7196353673934937,2.387019157409668
1671,89100.0,-10.80084228515625,2.4396915435791016,-2.3319525718688965
1672,89200.0,-3.75291109085083,2.756923198699951,-1.839944005012512
1673,89300.0,-3.75291109085083,2.756923198699951,-1.839944005012512
1674,89400.0,-0.9457096457481384,-7.735067367553711,-1.049857497215271
1675,89500.0,-0.9457096457481384,-7.735067367553711,-1.049857497215271
1676,89600.0,-0.9127894043922424,-0.12928688526153564,2.4450783729553223
1677,89700.0,-0.9127894043922424,-0.12928688526153564,2.4450783729553223
1678,89800.0,-16.704345703125,-3.1495723724365234,3.9743747711181636
1679,89900.0,-2.0260932445526123,3.123236179351806,5.806537628173827
1680,89000.0,-0.7948749661445618,-1.7196353673934937,2.387019157409668
1681,89100.0,-10.80084228515625,2.4396915435791016,-2.3319525718688965
1682,89200.0,-3.75291109085083,2.756923198699951,-1.839944005012512
1683,89300.0,-3.75291109085083,2.756923198699951,-1.839944005012512
1684,89400.0,-0.9457096457481384,-7.735067367553711,-1.049857497215271
1685,89500.0,-0.9457096457481384,-7.735067367553711,-1.049857497215271
1686,89600.0,-0.9127894043922424,-0.12928688526153564,2.4450783729553223
1687,89700.0,-0.9127894043922424,-0.12928688526153564,2.4450783729553223
1688,89800.0,-16.704345703125,-3.1495723724365234,3.9743747711181636
1689,89900.0,-2.0260932445526123,3.123236179351806,5.806537628173827
1690,90000.0,-2.0260932445526123,3.123236179351806,5.806537628173827
1691,90100.0,-4.876988887786865,-4.443638324737549,-1.9117701053619385
1692,90200.0,-4.876988887786865,-4.443638324737549,-1.9117701053619385
1693,90300.0,-1.9201498031616209,1.898003339767456,-0.2298433631658554
1694,90400.0,-1.9201498031616209,1.898003339767456,-0.2298433631658554
1695,90500.0,-14.727333068847654,-12.90714168548584,-10.126276016235352
1696,90600.0,-14.727333068847654,-12.90714168548584,-10.126276016235352
1697,90700.0,-6.21235466003418,1.3138182163238523,4.473566055297852
1698,90800.0,-6.21235466003418,1.3138182163238523,4.473566055297852
1699,90900.0,-1.988384485244751,-10.70986270904541,-6.8611836433410645
1700,90000.0,-2.0260932445526123,3.123236179351806,5.806537628173827
1701,90100.0,-4.876988887786865,-4.443638324737549,-1.9117701053619385
1702,90200.0,-4.876988887786865,-4.443638324737549,-1.9117701053619385
1703,90300.0,-1.9201498031616209,1.898003339767456,-0.2298433631658554
1704,90400.0,-1.9201498031616209,1.898003339767456,-0.2298433631658554
1705,90500.0,-14.727333068847654,-12.90714168548584,-10.126276016235352
1706,90600.0,-14.727333068847654,-12.90714168548584,-10.126276016235352
1707,90700.0,-6.21235466003418,1.3138182163238523,4.473566055297852
1708,90800.0,-6.21235466003418,1.3138182163238523,4.473566055297852
1709,90900.0,-1.988384485244751,-10.70986270904541,-6.8611836433410645
1710,91000.0,5.067926406860352,4.1006689071655265,3.7223851680755615
1711,91100.0,5.067926406860352,4.1006689071655265,3.7223851680755615
1712,91200.0,-14.410101890563965,-19.608510971069336,-11.369464874267578
1713,91300.0,-14.410101890563965,-19.608510971069336,-11.369464874267578
1714,91400.0,-4.183867454528809,-2.208052635192871,-3.265691041946411
1715,91500.0,-4.183867454528809,-2.208052635192871,-3.265691041946411
