,timestamp,ax,ay,az
0,0.0,-1.9919757843017576,-8.476072311401367,3.66851544380188
1,100.0,-1.9919757843017576,-8.476072311401367,3.66851544380188
2,200.0,-2.27209734916687,-7.019200801849365,2.695272445678711
3,300.0,-2.27209734916687,-7.019200801849365,2.695272445678711
4,400.0,-1.349731206893921,-7.009025573730469,0.9504981040954591
5,500.0,-1.349731206893921,-7.009025573730469,0.9504981040954591
6,600.0,-7.368754386901855,-17.269376754760742,-10.736199378967283
7,700.0,-7.368754386901855,-17.269376754760742,-10.736199378967283
8,800.0,-2.647388458251953,-10.545860290527344,-0.5530605912208557
9,900.0,-2.647388458251953,-10.545860290527344,-0.5530605912208557
10,1000.0,-6.782773494720459,-11.907562255859375,2.018910646438598
11,1100.0,1.823184609413147,-8.677783966064451,-1.0247182846069336
12,1200.0,1.823184609413147,-8.677783966064451,-1.0247182846069336
13,1300.0,1.026513934135437,-12.061389923095705,5.382763862609863
14,1400.0,1.026513934135437,-12.061389923095705,5.382763862609863
15,1500.0,5.929240703582764,-19.608510971069336,5.2480902671813965
16,1600.0,5.929240703582764,-19.608510971069336,5.2480902671813965
17,1700.0,-8.043919563293457,-9.80365753173828,10.883441925048828
18,1800.0,-8.043919563293457,-9.80365753173828,10.883441925048828
19,1900.0,-0.4411316514015198,-0.9546879529953004,-2.668936252593994
20,2000.0,3.1052796840667725,-0.018555063754320145,-5.820304393768311
21,2100.0,3.1052796840667725,-0.018555063754320145,-5.820304393768311
22,2200.0,19.607913970947266,-16.154876708984375,-19.608510971069336
23,2300.0,19.607913970947266,-16.154876708984375,-19.608510971069336
24,2400.0,-1.6322469711303709,-4.480748653411865,14.095263481140135
25,2500.0,-1.6322469711303709,-4.480748653411865,14.095263481140135
26,2600.0,-0.5105634927749634,0.10115502029657364,-1.4024035930633545
27,2700.0,-0.5105634927749634,0.10115502029657364,-1.4024035930633545
28,2800.0,5.345654010772705,-3.269881010055542,0.07841010391712189
29,2900.0,8.457517623901367,-4.7381253242492685,-13.85644245147705
30,3000.0,8.457517623901367,-4.7381253242492685,-13.85644245147705
31,3100.0,-1.953668594360352,-12.197858810424805,4.793790340423584
32,3200.0,-1.953668594360352,-12.197858810424805,4.793790340423584
33,3300.0,-0.5614402890205383,0.04728548228740692,-0.7697358727455139
34,3400.0,-0.5614402890205383,0.04728548228740692,-0.7697358727455139
35,3500.0,4.268861770629884,-3.3746273517608643,-1.1929110288619995
36,3600.0,4.268861770629884,-3.3746273517608643,-1.1929110288619995
37,3700.0,1.8590975999832156,-0.6835445761680603,-11.541848182678224
38,3800.0,-3.0424318313598637,-11.694478034973145,11.552621841430664
39,3900.0,-3.0424318313598637,-11.694478034973145,11.552621841430664
40,2000.0,3.1052796840667725,-0.018555063754320145,-5.820304393768311
41,2100.0,3.1052796840667725,-0.018555063754320145,-5.820304393768311
42,2200.0,19.607913970947266,-16.154876708984375,-19.608510971069336
43,2300.0,19.607913970947266,-16.154876708984375,-19.608510971069336
44,2400.0,-1.6322469711303709,-4.480748653411865,14.095263481140135
45,2500.0,-1.6322469711303709,-4.480748653411865,14.095263481140135
46,2600.0,-0.5105634927749634,0.10115502029657364,-1.4024035930633545
47,2700.0,-0.5105634927749634,0.10115502029657364,-1.4024035930633545
48,2800.0,5.345654010772705,-3.269881010055542,0.07841010391712189
49,2900.0,8.457517623901367,-4.7381253242492685,-13.85644245147705
50,3000.0,8.457517623901367,-4.7381253242492685,-13.85644245147705
51,3100.0,-1.953668594360352,-12.197858810424805,4.793790340423584
52,3200.0,-1.953668594360352,-12.197858810424805,4.793790340423584
53,3300.0,-0.5614402890205383,0.04728548228740692,-0.7697358727455139
54,3400.0,-0.5614402890205383,0.04728548228740692,-0.7697358727455139
55,3500.0,4.268861770629884,-3.3746273517608643,-1.1929110288619995
56,3600.0,4.268861770629884,-3.3746273517608643,-1.1929110288619995
57,3700.0,1.8590975999832156,-0.6835445761680603,-11.541848182678224
58,3800.0,-3.0424318313598637,-11.694478034973145,11.552621841430664
59,3900.0,-3.0424318313598637,-11.694478034973145,11.552621841430664
60,4000.0,-1.1528080701828003,0.27653029561042786,-0.6332663297653198
61,4100.0,-1.1528080701828003,0.27653029561042786,-0.6332663297653198
62,4200.0,3.597886562347412,-7.597400665283202,0.10893617570400238
63,4300.0,3.597886562347412,-7.597400665283202,0.10893617570400238
64,4400.0,0.7152677774429321,-1.81959331035614,-4.607641220092773
65,4500.0,0.7152677774429321,-1.81959331035614,-4.607641220092773
66,4600.0,-2.3786394596099854,-15.24867057800293,5.218760967254639
67,4700.0,-1.217451572418213,0.16759411990642548,-0.5943605899810791
68,4800.0,-1.217451572418213,0.16759411990642548,-0.5943605899810791
69,4900.0,3.2866404056549072,-7.10958194732666,0.1975216418504715
70,5000.0,3.2866404056549072,-7.10958194732666,0.1975216418504715
71,5100.0,-1.3413515090942385,-7.5878238677978525,6.6636619567871085
72,5200.0,-1.3413515090942385,-7.5878238677978525,6.6636619567871085
73,5300.0,1.4724340438842771,-18.710086822509766,-3.496133089065552
74,5400.0,1.4724340438842771,-18.710086822509766,-3.496133089065552
75,5500.0,-4.158129692077637,1.8656816482543943,0.8134300112724304
76,5600.0,2.3744494915008545,-11.21324348449707,-2.680907249450684
77,5700.0,2.3744494915008545,-11.21324348449707,-2.680907249450684
78,5800.0,-1.7818846702575684,-10.049062728881836,17.29451560974121
79,5900.0,-1.7818846702575684,-10.049062728881836,17.29451560974121
80,4000.0,-1.1528080701828003,0.27653029561042786,-0.6332663297653198
81,4100.0,-1.1528080701828003,0.27653029561042786,-0.6332663297653198
82,4200.0,3.597886562347412,-7.597400665283202,0.10893617570400238
83,4300.0,3.597886562347412,-7.597400665283202,0.10893617570400238
84,4400.0,0.7152677774429321,-1.81959331035614,-4.607641220092773
85,4500.0,0.7152677774429321,-1.81959331035614,-4.607641220092773
86,4600.0,-2.3786394596099854,-15.24867057800293,5.218760967254639
87,4700.0,-1.217451572418213,0.16759411990642548,-0.5943605899810791
88,4800.0,-1.217451572418213,0.16759411990642548,-0.5943605899810791
89,4900.0,3.2866404056549072,-7.10958194732666,0.1975216418504715
90,5000.0,3.2866404056549072,-7.10958194732666,0.1975216418504715
91,5100.0,-1.3413515090942385,-7.5878238677978525,6.6636619567871085
92,5200.0,-1.3413515090942385,-7.5878238677978525,6.6636619567871085
93,5300.0,1.4724340438842771,-18.710086822509766,-3.496133089065552
94,5400.0,1.4724340438842771,-18.710086822509766,-3.496133089065552
95,5500.0,-4.158129692077637,1.8656816482543943,0.8134300112724304
96,5600.0,2.3744494915008545,-11.21324348449707,-2.680907249450684
97,5700.0,2.3744494915008545,-11.21324348449707,-2.680907249450684
98,5800.0,-1.7818846702575684,-10.049062728881836,17.29451560974121
99,5900.0,-1.7818846702575684,-10.049062728881836,17.29451560974121
100,6000.0,6.582259178161621,-19.608510971069336,-8.040328025817871
101,6100.0,6.582259178161621,-19.608510971069336,-8.040328025817871
102,6200.0,-4.721365928649902,2.655169725418091,3.9923312664031982
103,6300.0,-4.721365928649902,2.655169725418091,3.9923312664031982
104,6400.0,8.672995567321777,-1.7860745191574097,3.1705214977264404
105,6500.0,-4.0102877616882315,-6.807912349700928,0.5728127360343933
106,6600.0,-4.0102877616882315,-6.807912349700928,0.5728127360343933
107,6700.0,9.695918083190918,-18.89264488220215,-13.505691528320312
108,6800.0,9.695918083190918,-18.89264488220215,-13.505691528320312
109,6900.0,-3.1058781147003174,0.9409212470054626,-1.590348482131958
110,7000.0,-3.1058781147003174,0.9409212470054626,-1.590348482131958
111,7100.0,19.50316619873047,-16.87014389038086,9.110535621643066
112,7200.0,19.50316619873047,-16.87014389038086,9.110535621643066
113,7300.0,-1.091755986213684,6.072892665863037,3.1280245780944824
114,7400.0,18.312650680541992,-18.559253692626953,-0.5680243372917175
115,7500.0,18.312650680541992,-18.559253692626953,-0.5680243372917175
116,7600.0,-4.109647274017334,1.8860323429107664,-3.325546264648437
117,7700.0,-4.109647274017334,1.8860323429107664,-3.325546264648437
118,7800.0,19.607913970947266,-19.608510971069336,13.155539512634276
119,7900.0,19.607913970947266,-19.608510971069336,13.155539512634276
120,6000.0,6.582259178161621,-19.608510971069336,-8.040328025817871
121,6100.0,6.582259178161621,-19.608510971069336,-8.040328025817871
122,6200.0,-4.721365928649902,2.655169725418091,3.9923312664031982
123,6300.0,-4.721365928649902,2.655169725418091,3.9923312664031982
124,6400.0,8.672995567321777,-1.7860745191574097,3.1705214977264404
125,6500.0,-4.0102877616882315,-6.807912349700928,0.5728127360343933
126,6600.0,-4.0102877616882315,-6.807912349700928,0.5728127360343933
127,6700.0,9.695918083190918,-18.89264488220215,-13.505691528320312
128,6800.0,9.695918083190918,-18.89264488220215,-13.505691528320312
129,6900.0,-3.1058781147003174,0.9409212470054626,-1.590348482131958
130,7000.0,-3.1058781147003174,0.9409212470054626,-1.590348482131958
131,7100.0,19.50316619873047,-16.87014389038086,9.110535621643066
132,7200.0,19.50316619873047,-16.87014389038086,9.110535621643066
133,7300.0,-1.091755986213684,6.072892665863037,3.1280245780944824
134,7400.0,18.312650680541992,-18.559253692626953,-0.5680243372917175
135,7500.0,18.312650680541992,-18.559253692626953,-0.5680243372917175
136,7600.0,-4.109647274017334,1.8860323429107664,-3.325546264648437
137,7700.0,-4.109647274017334,1.8860323429107664,-3.325546264648437
138,7800.0,19.607913970947266,-19.608510971069336,13.155539512634276
139,7900.0,19.607913970947266,-19.608510971069336,13.155539512634276
140,8000.0,-1.9800047874450684,5.548562526702881,0.2513911724090576
141,8100.0,-1.9800047874450684,5.548562526702881,0.2513911724090576
142,8200.0,11.28447151184082,-1.269525408744812,-7.414244174957275
143,8300.0,-1.646013617515564,-3.8546648025512695,0.4028244316577912
144,8400.0,-1.646013617515564,-3.8546648025512695,0.4028244316577912
145,8500.0,19.607913970947266,-19.608510971069336,-8.483853340148926
146,8600.0,19.607913970947266,-19.608510971069336,-8.483853340148926
147,8700.0,-2.3481132984161377,5.676652431488037,-2.793434858322144
148,8800.0,-2.3481132984161377,5.676652431488037,-2.793434858322144
149,8900.0,9.565434455871582,1.985990285873413,12.254721641540527
150,9000.0,9.565434455871582,1.985990285873413,12.254721641540527
151,9100.0,-0.8571242094039917,-2.7234044075012207,3.1298201084136963
152,9200.0,19.607913970947266,-19.608510971069336,0.7254431247711182
153,9300.0,19.607913970947266,-19.608510971069336,0.7254431247711182
154,9400.0,-2.1853075027465816,4.926668643951416,-4.3418846130371085
155,9500.0,-2.1853075027465816,4.926668643951416,-4.3418846130371085
156,9600.0,13.507487297058105,-8.364143371582031,3.7541081905364986
157,9700.0,13.507487297058105,-8.364143371582031,3.7541081905364986
158,9800.0,-1.722628116607666,-5.440224647521973,-1.5981296300888062
159,9900.0,-1.722628116607666,-5.440224647521973,-1.5981296300888062
160,8000.0,-1.9800047874450684,5.548562526702881,0.2513911724090576
161,8100.0,-1.9800047874450684,5.548562526702881,0.2513911724090576
162,8200.0,11.28447151184082,-1.269525408744812,-7.414244174957275
163,8300.0,-1.646013617515564,-3.8546648025512695,0.4028244316577912
164,8400.0,-1.646013617515564,-3.8546648025512695,0.4028244316577912
165,8500.0,19.607913970947266,-19.608510971069336,-8.483853340148926
166,8600.0,19.607913970947266,-19.608510971069336,-8.483853340148926
167,8700.0,-2.3481132984161377,5.676652431488037,-2.793434858322144
168,8800.0,-2.3481132984161377,5.676652431488037,-2.793434858322144
169,8900.0,9.565434455871582,1.985990285873413,12.254721641540527
170,9000.0,9.565434455871582,1.985990285873413,12.254721641540527
171,9100.0,-0.8571242094039917,-2.7234044075012207,3.1298201084136963
172,9200.0,19.607913970947266,-19.608510971069336,0.7254431247711182
173,9300.0,19.607913970947266,-19.608510971069336,0.7254431247711182
174,9400.0,-2.1853075027465816,4.926668643951416,-4.3418846130371085
175,9500.0,-2.1853075027465816,4.926668643951416,-4.3418846130371085
176,9600.0,13.507487297058105,-8.364143371582031,3.7541081905364986
177,9700.0,13.507487297058105,-8.364143371582031,3.7541081905364986
178,9800.0,-1.722628116607666,-5.440224647521973,-1.5981296300888062
179,9900.0,-1.722628116607666,-5.440224647521973,-1.5981296300888062
180,10000.0,18.262969970703125,-18.200122833251953,2.654571056365967
181,10100.0,-0.3872621357440949,4.0976762771606445,-3.45962142944336
182,10200.0,-0.3872621357440949,4.0976762771606445,-3.45962142944336
183,10300.0,8.181585311889647,-8.04810905456543,18.168399810791016
184,10400.0,8.181585311889647,-8.04810905456543,18.168399810791016
185,10500.0,0.4435258507728577,-3.666719913482666,-0.9564836025238036
186,10600.0,0.4435258507728577,-3.666719913482666,-0.9564836025238036
187,10700.0,19.607913970947266,-19.608510971069336,-7.250241279602051
188,10800.0,19.607913970947266,-19.608510971069336,-7.250241279602051
189,10900.0,-2.5767595767974854,4.660912036895752,-2.761711597442627
190,11000.0,9.884461402893066,2.9682116508483887,12.066776275634766
191,11100.0,9.884461402893066,2.9682116508483887,12.066776275634766
192,11200.0,-2.719813108444214,-1.840542554855347,5.6215853691101065
193,11300.0,-2.719813108444214,-1.840542554855347,5.6215853691101065
194,11400.0,9.208099365234377,-16.201562881469727,7.9170265197753915
195,11500.0,9.208099365234377,-16.201562881469727,7.9170265197753915
196,11600.0,1.7573440074920654,5.024232387542725,-3.796006679534912
197,11700.0,1.7573440074920654,5.024232387542725,-3.796006679534912
198,11800.0,15.07329559326172,-17.937957763671875,-10.3363676071167
199,11900.0,-0.4572925269603729,-9.759963035583496,14.82968521118164
200,10000.0,18.262969970703125,-18.200122833251953,2.654571056365967
201,10100.0,-0.3872621357440949,4.0976762771606445,-3.45962142944336
202,10200.0,-0.3872621357440949,4.0976762771606445,-3.45962142944336
203,10300.0,8.181585311889647,-8.04810905456543,18.168399810791016
204,10400.0,8.181585311889647,-8.04810905456543,18.168399810791016
205,10500.0,0.4435258507728577,-3.666719913482666,-0.9564836025238036
206,10600.0,0.4435258507728577,-3.666719913482666,-0.9564836025238036
207,10700.0,19.607913970947266,-19.608510971069336,-7.250241279602051
208,10800.0,19.607913970947266,-19.608510971069336,-7.250241279602051
209,10900.0,-2.5767595767974854,4.660912036895752,-2.761711597442627
210,11000.0,9.884461402893066,2.9682116508483887,12.066776275634766
211,11100.0,9.884461402893066,2.9682116508483887,12.066776275634766
212,11200.0,-2.719813108444214,-1.840542554855347,5.6215853691101065
213,11300.0,-2.719813108444214,-1.840542554855347,5.6215853691101065
214,11400.0,9.208099365234377,-16.201562881469727,7.9170265197753915
215,11500.0,9.208099365234377,-16.201562881469727,7.9170265197753915
216,11600.0,1.7573440074920654,5.024232387542725,-3.796006679534912
217,11700.0,1.7573440074920654,5.024232387542725,-3.796006679534912
218,11800.0,15.07329559326172,-17.937957763671875,-10.3363676071167
219,11900.0,-0.4572925269603729,-9.759963035583496,14.82968521118164
220,12000.0,-0.4572925269603729,-9.759963035583496,14.82968521118164
221,12100.0,0.1951274424791336,-1.9482816457748413,1.6543933153152466
222,12200.0,0.1951274424791336,-1.9482816457748413,1.6543933153152466
223,12300.0,3.3578679561614986,4.627991676330566,-1.240795016288757
224,12400.0,3.3578679561614986,4.627991676330566,-1.240795016288757
225,12500.0,19.607913970947266,-19.608510971069336,-18.5496768951416
226,12600.0,19.607913970947266,-19.608510971069336,-18.5496768951416
227,12700.0,-2.5324668884277344,-10.458471298217773,19.608510971069336
228,12800.0,-1.366490602493286,0.14365209639072418,-0.984615445137024
229,12900.0,-1.366490602493286,0.14365209639072418,-0.984615445137024
230,13000.0,6.004059314727782,-4.428674697875977,-2.1074960231781006
231,13100.0,6.004059314727782,-4.428674697875977,-2.1074960231781006
232,13200.0,10.917559623718262,-7.83801794052124,-4.667496204376222
233,13300.0,10.917559623718262,-7.83801794052124,-4.667496204376222
234,13400.0,-2.848501443862915,-16.995840072631836,14.621988296508787
235,13500.0,-2.848501443862915,-16.995840072631836,14.621988296508787
236,13600.0,-1.9877859354019165,0.6045359373092651,-0.6123170852661133
237,13700.0,3.2782607078552246,-11.285069465637207,-2.671929121017456
238,13800.0,3.2782607078552246,-11.285069465637207,-2.671929121017456
239,13900.0,-1.569997787475586,-6.089053630828857,0.44412440061569214
240,12000.0,-0.4572925269603729,-9.759963035583496,14.82968521118164
241,12100.0,0.1951274424791336,-1.9482816457748413,1.6543933153152466
242,12200.0,0.1951274424791336,-1.9482816457748413,1.6543933153152466
243,12300.0,3.3578679561614986,4.627991676330566,-1.240795016288757
244,12400.0,3.3578679561614986,4.627991676330566,-1.240795016288757
245,12500.0,19.607913970947266,-19.608510971069336,-18.5496768951416
246,12600.0,19.607913970947266,-19.608510971069336,-18.5496768951416
247,12700.0,-2.5324668884277344,-10.458471298217773,19.608510971069336
248,12800.0,-1.366490602493286,0.14365209639072418,-0.984615445137024
249,12900.0,-1.366490602493286,0.14365209639072418,-0.984615445137024
250,13000.0,6.004059314727782,-4.428674697875977,-2.1074960231781006
251,13100.0,6.004059314727782,-4.428674697875977,-2.1074960231781006
252,13200.0,10.917559623718262,-7.83801794052124,-4.667496204376222
253,13300.0,10.917559623718262,-7.83801794052124,-4.667496204376222
254,13400.0,-2.848501443862915,-16.995840072631836,14.621988296508787
255,13500.0,-2.848501443862915,-16.995840072631836,14.621988296508787
256,13600.0,-1.9877859354019165,0.6045359373092651,-0.6123170852661133
257,13700.0,3.2782607078552246,-11.285069465637207,-2.671929121017456
258,13800.0,3.2782607078552246,-11.285069465637207,-2.671929121017456
259,13900.0,-1.569997787475586,-6.089053630828857,0.44412440061569214
260,14000.0,-1.569997787475586,-6.089053630828857,0.44412440061569214
261,14100.0,7.463325023651122,-19.608510971069336,-5.875969409942628
262,14200.0,7.463325023651122,-19.608510971069336,-5.875969409942628
263,14300.0,-1.6639702320098877,1.8351556062698364,5.6209869384765625
264,14400.0,-1.6639702320098877,1.8351556062698364,5.6209869384765625
265,14500.0,3.6092591285705566,-12.01829433441162,-1.0223240852355957
266,14600.0,-2.1823148727416988,-9.302072525024414,-4.245518207550049
267,14700.0,-2.1823148727416988,-9.302072525024414,-4.245518207550049
268,14800.0,10.27232265472412,-19.509153366088867,-12.29003620147705
269,14900.0,10.27232265472412,-19.509153366088867,-12.29003620147705
270,15000.0,-4.587290287017822,0.7781155705451965,2.9029695987701416
271,15100.0,-4.587290287017822,0.7781155705451965,2.9029695987701416
272,15200.0,7.597999095916747,-4.543596267700195,0.5021837949752808
273,15300.0,7.597999095916747,-4.543596267700195,0.5021837949752808
274,15400.0,-1.1234791278839111,-0.9702502489089966,0.8966285586357117
275,15500.0,11.673528671264648,-17.363349914550778,2.891597032546997
276,15600.0,11.673528671264648,-17.363349914550778,2.891597032546997
277,15700.0,-5.245097160339356,-1.9524714946746824,-1.942894697189331
278,15800.0,-5.245097160339356,-1.9524714946746824,-1.942894697189331
279,15900.0,19.607913970947266,-18.35395050048828,16.96232032775879
280,14000.0,-1.569997787475586,-6.089053630828857,0.44412440061569214
281,14100.0,7.463325023651122,-19.608510971069336,-5.875969409942628
282,14200.0,7.463325023651122,-19.608510971069336,-5.875969409942628
283,14300.0,-1.6639702320098877,1.8351556062698364,5.6209869384765625
284,14400.0,-1.6639702320098877,1.8351556062698364,5.6209869384765625
285,14500.0,3.6092591285705566,-12.01829433441162,-1.0223240852355957
286,14600.0,-2.1823148727416988,-9.302072525024414,-4.245518207550049
287,14700.0,-2.1823148727416988,-9.302072525024414,-4.245518207550049
288,14800.0,10.27232265472412,-19.509153366088867,-12.29003620147705
289,14900.0,10.27232265472412,-19.509153366088867,-12.29003620147705
290,15000.0,-4.587290287017822,0.7781155705451965,2.9029695987701416
291,15100.0,-4.587290287017822,0.7781155705451965,2.9029695987701416
292,15200.0,7.597999095916747,-4.543596267700195,0.5021837949752808
293,15300.0,7.597999095916747,-4.543596267700195,0.5021837949752808
294,15400.0,-1.1234791278839111,-0.9702502489089966,0.8966285586357117
295,15500.0,11.673528671264648,-17.363349914550778,2.891597032546997
296,15600.0,11.673528671264648,-17.363349914550778,2.891597032546997
297,15700.0,-5.245097160339356,-1.9524714946746824,-1.942894697189331
298,15800.0,-5.245097160339356,-1.9524714946746824,-1.942894697189331
299,15900.0,19.607913970947266,-18.35395050048828,16.96232032775879
300,16000.0,19.607913970947266,-18.35395050048828,16.96232032775879
301,16100.0,0.2519897222518921,10.454880714416504,1.8483237028121948
302,16200.0,0.2519897222518921,10.454880714416504,1.8483237028121948
303,16300.0,13.606846809387207,-10.308834075927734,-3.858256101608277
304,16400.0,-0.8182184100151062,-0.11312603205442427,-1.4879963397979736
305,16500.0,-0.8182184100151062,-0.11312603205442427,-1.4879963397979736
306,16600.0,19.607913970947266,-19.608510971069336,8.258798599243164
307,16700.0,19.607913970947266,-19.608510971069336,8.258798599243164
308,16800.0,-1.997362732887268,7.158663272857666,-4.7135844230651855
309,16900.0,-1.997362732887268,7.158663272857666,-4.7135844230651855
310,17000.0,10.872668266296387,1.8112136125564573,10.924742698669434
311,17100.0,10.872668266296387,1.8112136125564573,10.924742698669434
312,17200.0,-1.1563993692398071,-4.95001220703125,1.50355863571167
313,17300.0,-1.1563993692398071,-4.95001220703125,1.50355863571167
314,17400.0,8.917203903198242,-16.265008926391598,7.714118003845215
315,17500.0,2.636016130447388,4.279036998748778,-2.2810757160186768
316,17600.0,2.636016130447388,4.279036998748778,-2.2810757160186768
317,17700.0,19.607913970947266,-19.608510971069336,-19.608510971069336
318,17800.0,19.607913970947266,-19.608510971069336,-19.608510971069336
319,17900.0,0.9385270476341248,-7.026981830596924,14.410699844360352
320,16000.0,19.607913970947266,-18.35395050048828,16.96232032775879
321,16100.0,0.2519897222518921,10.454880714416504,1.8483237028121948
322,16200.0,0.2519897222518921,10.454880714416504,1.8483237028121948
323,16300.0,13.606846809387207,-10.308834075927734,-3.858256101608277
324,16400.0,-0.8182184100151062,-0.11312603205442427,-1.4879963397979736
325,16500.0,-0.8182184100151062,-0.11312603205442427,-1.4879963397979736
326,16600.0,19.607913970947266,-19.608510971069336,8.258798599243164
327,16700.0,19.607913970947266,-19.608510971069336,8.258798599243164
328,16800.0,-1.997362732887268,7.158663272857666,-4.7135844230651855
329,16900.0,-1.997362732887268,7.158663272857666,-4.7135844230651855
330,17000.0,10.872668266296387,1.8112136125564573,10.924742698669434
331,17100.0,10.872668266296387,1.8112136125564573,10.924742698669434
332,17200.0,-1.1563993692398071,-4.95001220703125,1.50355863571167
333,17300.0,-1.1563993692398071,-4.95001220703125,1.50355863571167
334,17400.0,8.917203903198242,-16.265008926391598,7.714118003845215
335,17500.0,2.636016130447388,4.279036998748778,-2.2810757160186768
336,17600.0,2.636016130447388,4.279036998748778,-2.2810757160186768
337,17700.0,19.607913970947266,-19.608510971069336,-19.608510971069336
338,17800.0,19.607913970947266,-19.608510971069336,-19.608510971069336
339,17900.0,0.9385270476341248,-7.026981830596924,14.410699844360352
340,18000.0,0.9385270476341248,-7.026981830596924,14.410699844360352
341,18100.0,-0.497395396232605,-0.17896658182144165,-0.4387374520301819
342,18200.0,-0.497395396232605,-0.17896658182144165,-0.4387374520301819
343,18300.0,6.713940143585205,-0.04489128291606903,-3.4428620338439937
344,18400.0,10.042478561401367,-8.463502883911133,-2.48757553100586
345,18500.0,10.042478561401367,-8.463502883911133,-2.48757553100586
346,18600.0,1.7579425573349,-16.09621810913086,-1.8171991109848025
347,18700.0,1.7579425573349,-16.09621810913086,-1.8171991109848025
348,18800.0,-2.100313425064087,1.2767080068588257,-1.0660183429718018
349,18900.0,-2.100313425064087,1.2767080068588257,-1.0660183429718018
350,19000.0,5.388749599456787,-6.733093738555907,-2.161365509033203
351,19100.0,2.719813108444214,-6.806715488433838,-1.049857497215271
352,19200.0,2.719813108444214,-6.806715488433838,-1.049857497215271
353,19300.0,1.2144588232040403,-19.437326431274414,-2.759916067123413
354,19400.0,1.2144588232040403,-19.437326431274414,-2.759916067123413
355,19500.0,-4.845864295959473,1.699883222579956,2.2403743267059326
356,19600.0,-4.845864295959473,1.699883222579956,2.2403743267059326
357,19700.0,4.815338134765625,-10.46325969696045,-3.42490553855896
358,19800.0,4.815338134765625,-10.46325969696045,-3.42490553855896
359,19900.0,-1.1605892181396484,-8.219893455505371,-0.8756792545318604
360,18000.0,0.9385270476341248,-7.026981830596924,14.410699844360352
361,18100.0,-0.497395396232605,-0.17896658182144165,-0.4387374520301819
362,18200.0,-0.497395396232605,-0.17896658182144165,-0.4387374520301819
363,18300.0,6.713940143585205,-0.04489128291606903,-3.4428620338439937
364,18400.0,10.042478561401367,-8.463502883911133,-2.48757553100586
365,18500.0,10.042478561401367,-8.463502883911133,-2.48757553100586
366,18600.0,1.7579425573349,-16.09621810913086,-1.8171991109848025
367,18700.0,1.7579425573349,-16.09621810913086,-1.8171991109848025
368,18800.0,-2.100313425064087,1.2767080068588257,-1.0660183429718018
369,18900.0,-2.100313425064087,1.2767080068588257,-1.0660183429718018
370,19000.0,5.388749599456787,-6.733093738555907,-2.161365509033203
371,19100.0,2.719813108444214,-6.806715488433838,-1.049857497215271
372,19200.0,2.719813108444214,-6.806715488433838,-1.049857497215271
373,19300.0,1.2144588232040403,-19.437326431274414,-2.759916067123413
374,19400.0,1.2144588232040403,-19.437326431274414,-2.759916067123413
375,19500.0,-4.845864295959473,1.699883222579956,2.2403743267059326
376,19600.0,-4.845864295959473,1.699883222579956,2.2403743267059326
377,19700.0,4.815338134765625,-10.46325969696045,-3.42490553855896
378,19800.0,4.815338134765625,-10.46325969696045,-3.42490553855896
379,19900.0,-1.1605892181396484,-8.219893455505371,-0.8756792545318604
380,20000.0,-1.1605892181396484,-8.219893455505371,-0.8756792545318604
381,20100.0,5.6634840965271,-18.75198554992676,-6.187215805053711
382,20200.0,-4.797980308532715,1.3910311460494995,1.295263171195984
383,20300.0,-4.797980308532715,1.3910311460494995,1.295263171195984
384,20400.0,4.78122091293335,-10.483012199401855,-3.1340100765228267
385,20500.0,4.78122091293335,-10.483012199401855,-3.1340100765228267
386,20600.0,0.10534487664699554,-7.97329044342041,-2.6132712364196777
387,20700.0,0.10534487664699554,-7.97329044342041,-2.6132712364196777
388,20800.0,14.01266384124756,-15.849017143249512,-5.6341552734375
389,20900.0,14.01266384124756,-15.849017143249512,-5.6341552734375
390,21000.0,-7.044938564300537,2.3151929378509517,4.792593479156494
391,21100.0,6.234501361846924,-9.46727180480957,1.8064252138137815
392,21200.0,6.234501361846924,-9.46727180480957,1.8064252138137815
393,21300.0,-2.2798786163330083,-12.808380126953125,-4.141968727111816
394,21400.0,-2.2798786163330083,-12.808380126953125,-4.141968727111816
395,21500.0,12.155961036682127,-19.608510971069336,-4.417302131652832
396,21600.0,12.155961036682127,-19.608510971069336,-4.417302131652832
397,21700.0,-7.9236106872558585,1.7196353673934937,4.185064792633057
398,21800.0,-7.9236106872558585,1.7196353673934937,4.185064792633057
399,21900.0,10.391433715820312,-6.380547523498535,2.756923198699951
400,20000.0,-1.1605892181396484,-8.219893455505371,-0.8756792545318604
401,20100.0,5.6634840965271,-18.75198554992676,-6.187215805053711
402,20200.0,-4.797980308532715,1.3910311460494995,1.295263171195984
403,20300.0,-4.797980308532715,1.3910311460494995,1.295263171195984
404,20400.0,4.78122091293335,-10.483012199401855,-3.1340100765228267
405,20500.0,4.78122091293335,-10.483012199401855,-3.1340100765228267
406,20600.0,0.10534487664699554,-7.97329044342041,-2.6132712364196777
407,20700.0,0.10534487664699554,-7.97329044342041,-2.6132712364196777
408,20800.0,14.01266384124756,-15.849017143249512,-5.6341552734375
409,20900.0,14.01266384124756,-15.849017143249512,-5.6341552734375
410,21000.0,-7.044938564300537,2.3151929378509517,4.792593479156494
411,21100.0,6.234501361846924,-9.46727180480957,1.8064252138137815
412,21200.0,6.234501361846924,-9.46727180480957,1.8064252138137815
413,21300.0,-2.2798786163330083,-12.808380126953125,-4.141968727111816
414,21400.0,-2.2798786163330083,-12.808380126953125,-4.141968727111816
415,21500.0,12.155961036682127,-19.608510971069336,-4.417302131652832
416,21600.0,12.155961036682127,-19.608510971069336,-4.417302131652832
417,21700.0,-7.9236106872558585,1.7196353673934937,4.185064792633057
418,21800.0,-7.9236106872558585,1.7196353673934937,4.185064792633057
419,21900.0,10.391433715820312,-6.380547523498535,2.756923198699951
420,22000.0,-1.920748353004456,-3.6158430576324463,1.192312479019165
421,22100.0,-1.920748353004456,-3.6158430576324463,1.192312479019165
422,22200.0,11.773487091064453,-19.26554298400879,-3.1747114658355717
423,22300.0,11.773487091064453,-19.26554298400879,-3.1747114658355717
424,22400.0,-6.430825710296631,-2.9993362426757812,-2.927510023117065
425,22500.0,-6.430825710296631,-2.9993362426757812,-2.927510023117065
426,22600.0,18.652029037475586,-4.829703330993652,6.403292655944824
427,22700.0,18.652029037475586,-4.829703330993652,6.403292655944824
428,22800.0,-2.7994203567504883,-2.7748796939849854,2.362478494644165
429,22900.0,15.482105255126953,-16.039955139160153,-2.6390087604522705
430,23000.0,15.482105255126953,-16.039955139160153,-2.6390087604522705
431,23100.0,-4.264671802520752,-3.669114112854004,0.2753331959247589
432,23200.0,-4.264671802520752,-3.669114112854004,0.2753331959247589
433,23300.0,19.607913970947266,-19.608510971069336,7.784746646881103
434,23400.0,19.607913970947266,-19.608510971069336,7.784746646881103
435,23500.0,-0.7218518257141113,7.761403560638428,1.7693150043487549
436,23600.0,-0.7218518257141113,7.761403560638428,1.7693150043487549
437,23700.0,14.45080280303955,-2.7078421115875244,-2.4809916019439697
438,23800.0,-4.8739962577819815,-4.976348400115967,-0.15562310814857486
439,23900.0,-4.8739962577819815,-4.976348400115967,-0.15562310814857486
440,22000.0,-1.920748353004456,-3.6158430576324463,1.192312479019165
441,22100.0,-1.920748353004456,-3.6158430576324463,1.192312479019165
442,22200.0,11.773487091064453,-19.26554298400879,-3.1747114658355717
443,22300.0,11.773487091064453,-19.26554298400879,-3.1747114658355717
444,22400.0,-6.430825710296631,-2.9993362426757812,-2.927510023117065
445,22500.0,-6.430825710296631,-2.9993362426757812,-2.927510023117065
446,22600.0,18.652029037475586,-4.829703330993652,6.403292655944824
447,22700.0,18.652029037475586,-4.829703330993652,6.403292655944824
448,22800.0,-2.7994203567504883,-2.7748796939849854,2.362478494644165
449,22900.0,15.482105255126953,-16.039955139160153,-2.6390087604522705
450,23000.0,15.482105255126953,-16.039955139160153,-2.6390087604522705
451,23100.0,-4.264671802520752,-3.669114112854004,0.2753331959247589
452,23200.0,-4.264671802520752,-3.669114112854004,0.2753331959247589
453,23300.0,19.607913970947266,-19.608510971069336,7.784746646881103
454,23400.0,19.607913970947266,-19.608510971069336,7.784746646881103
455,23500.0,-0.7218518257141113,7.761403560638428,1.7693150043487549
456,23600.0,-0.7218518257141113,7.761403560638428,1.7693150043487549
457,23700.0,14.45080280303955,-2.7078421115875244,-2.4809916019439697
458,23800.0,-4.8739962577819815,-4.976348400115967,-0.15562310814857486
459,23900.0,-4.8739962577819815,-4.976348400115967,-0.15562310814857486
460,24000.0,19.607913970947266,-19.608510971069336,-0.3178302645683289
461,24100.0,19.607913970947266,-19.608510971069336,-0.3178302645683289
462,24200.0,-0.28311434388160706,3.995922565460205,-4.286219596862793
463,24300.0,-0.28311434388160706,3.995922565460205,-4.286219596862793
464,24400.0,7.339425086975098,2.16495680809021,5.5329999923706055
465,24500.0,7.339425086975098,2.16495680809021,5.5329999923706055
466,24600.0,-0.9265560507774352,-4.288015365600587,3.806182146072388
467,24700.0,14.147936820983887,-17.58481216430664,3.0759506225585938
468,24800.0,14.147936820983887,-17.58481216430664,3.0759506225585938
469,24900.0,0.5991489887237549,3.1639375686645512,-4.026448726654054
470,25000.0,0.5991489887237549,3.1639375686645512,-4.026448726654054
471,25100.0,7.556699275970459,-0.9415197968482972,-2.1039047241210938
472,25200.0,7.556699275970459,-0.9415197968482972,-2.1039047241210938
473,25300.0,1.4718354940414429,-7.3711485862731925,6.120776653289795
474,25400.0,1.4718354940414429,-7.3711485862731925,6.120776653289795
475,25500.0,0.7098808288574219,-6.9449806213378915,2.928108692169189
476,25600.0,1.14742112159729,4.490325450897217,-2.39120888710022
477,25700.0,1.14742112159729,4.490325450897217,-2.39120888710022
478,25800.0,9.776124000549316,-18.99380111694336,-19.45169258117676
479,25900.0,9.776124000549316,-18.99380111694336,-19.45169258117676
480,24000.0,19.607913970947266,-19.608510971069336,-0.3178302645683289
481,24100.0,19.607913970947266,-19.608510971069336,-0.3178302645683289
482,24200.0,-0.28311434388160706,3.995922565460205,-4.286219596862793
483,24300.0,-0.28311434388160706,3.995922565460205,-4.286219596862793
484,24400.0,7.339425086975098,2.16495680809021,5.5329999923706055
485,24500.0,7.339425086975098,2.16495680809021,5.5329999923706055
486,24600.0,-0.9265560507774352,-4.288015365600587,3.806182146072388
487,24700.0,14.147936820983887,-17.58481216430664,3.0759506225585938
488,24800.0,14.147936820983887,-17.58481216430664,3.0759506225585938
489,24900.0,0.5991489887237549,3.1639375686645512,-4.026448726654054
490,25000.0,0.5991489887237549,3.1639375686645512,-4.026448726654054
491,25100.0,7.556699275970459,-0.9415197968482972,-2.1039047241210938
492,25200.0,7.556699275970459,-0.9415197968482972,-2.1039047241210938
493,25300.0,1.4718354940414429,-7.3711485862731925,6.120776653289795
494,25400.0,1.4718354940414429,-7.3711485862731925,6.120776653289795
495,25500.0,0.7098808288574219,-6.9449806213378915,2.928108692169189
496,25600.0,1.14742112159729,4.490325450897217,-2.39120888710022
497,25700.0,1.14742112159729,4.490325450897217,-2.39120888710022
498,25800.0,9.776124000549316,-18.99380111694336,-19.45169258117676
499,25900.0,9.776124000549316,-18.99380111694336,-19.45169258117676
500,26000.0,2.108693122863769,-5.666476726531982,19.49837875366211
501,26100.0,2.108693122863769,-5.666476726531982,19.49837875366211
502,26200.0,0.5422866940498352,-5.550358295440674,1.2635399103164673
503,26300.0,0.5422866940498352,-5.550358295440674,1.2635399103164673
504,26400.0,2.8413188457489014,2.320580005645752,-2.1661539077758794
505,26500.0,6.433219909667969,-17.767370223999023,-5.524022102355957
506,26600.0,6.433219909667969,-17.767370223999023,-5.524022102355957
507,26700.0,-2.4241292476654053,-9.337387084960938,9.1045503616333
508,26800.0,-2.4241292476654053,-9.337387084960938,9.1045503616333
509,26900.0,0.4333505034446716,-2.96162748336792,0.18375498056411746
510,27000.0,0.4333505034446716,-2.96162748336792,0.18375498056411746
511,27100.0,3.7481226921081534,2.5091233253479004,-2.670732021331787
512,27200.0,3.7481226921081534,2.5091233253479004,-2.670732021331787
513,27300.0,19.607913970947266,-19.08358383178711,-10.810419082641602
514,27400.0,1.5975310802459717,-12.38879680633545,-0.6362590789794922
515,27500.0,1.5975310802459717,-12.38879680633545,-0.6362590789794922
516,27600.0,0.14844051003456116,-1.314416766166687,-0.5309142470359802
517,27700.0,0.14844051003456116,-1.314416766166687,-0.5309142470359802
518,27800.0,6.21235466003418,-0.3884592354297638,-2.780266761779785
519,27900.0,6.21235466003418,-0.3884592354297638,-2.780266761779785
520,26000.0,2.108693122863769,-5.666476726531982,19.49837875366211
521,26100.0,2.108693122863769,-5.666476726531982,19.49837875366211
522,26200.0,0.5422866940498352,-5.550358295440674,1.2635399103164673
523,26300.0,0.5422866940498352,-5.550358295440674,1.2635399103164673
524,26400.0,2.8413188457489014,2.320580005645752,-2.1661539077758794
525,26500.0,6.433219909667969,-17.767370223999023,-5.524022102355957
526,26600.0,6.433219909667969,-17.767370223999023,-5.524022102355957
527,26700.0,-2.4241292476654053,-9.337387084960938,9.1045503616333
528,26800.0,-2.4241292476654053,-9.337387084960938,9.1045503616333
529,26900.0,0.4333505034446716,-2.96162748336792,0.18375498056411746
530,27000.0,0.4333505034446716,-2.96162748336792,0.18375498056411746
531,27100.0,3.7481226921081534,2.5091233253479004,-2.670732021331787
532,27200.0,3.7481226921081534,2.5091233253479004,-2.670732021331787
533,27300.0,19.607913970947266,-19.08358383178711,-10.810419082641602
534,27400.0,1.5975310802459717,-12.38879680633545,-0.6362590789794922
535,27500.0,1.5975310802459717,-12.38879680633545,-0.6362590789794922
536,27600.0,0.14844051003456116,-1.314416766166687,-0.5309142470359802
537,27700.0,0.14844051003456116,-1.314416766166687,-0.5309142470359802
538,27800.0,6.21235466003418,-0.3884592354297638,-2.780266761779785
539,27900.0,6.21235466003418,-0.3884592354297638,-2.780266761779785
540,28000.0,16.223709106445312,-11.950657844543455,-3.522469282150269
541,28100.0,16.223709106445312,-11.950657844543455,-3.522469282150269
542,28200.0,4.605247020721436,-13.813944816589355,-2.9299042224884038
543,28300.0,-0.4734533727169037,-0.15023615956306458,-0.6356605291366577
544,28400.0,-0.4734533727169037,-0.15023615956306458,-0.6356605291366577
545,28500.0,5.430647850036621,-8.7669677734375,-2.410961151123047
546,28600.0,5.430647850036621,-8.7669677734375,-2.410961151123047
547,28700.0,2.3367409706115723,-6.863577842712402,1.1204863786697388
548,28800.0,2.3367409706115723,-6.863577842712402,1.1204863786697388
549,28900.0,9.275136947631836,-13.728352546691895,-19.60013198852539
550,29000.0,9.275136947631836,-13.728352546691895,-19.60013198852539
551,29100.0,-6.344634532928468,-0.67815762758255,5.169081687927246
552,29200.0,3.800795316696167,-12.05300998687744,-0.8319851160049438
553,29300.0,3.800795316696167,-12.05300998687744,-0.8319851160049438
554,29400.0,-3.28963303565979,-10.188525199890137,-2.232593059539795
555,29500.0,-3.28963303565979,-10.188525199890137,-2.232593059539795
556,29600.0,9.516353607177734,-18.665794372558594,-4.99550199508667
557,29700.0,9.516353607177734,-18.665794372558594,-4.99550199508667
558,29800.0,-8.832210540771484,1.821987509727478,8.811859130859375
559,29900.0,-8.832210540771484,1.821987509727478,8.811859130859375
560,28000.0,16.223709106445312,-11.950657844543455,-3.522469282150269
561,28100.0,16.223709106445312,-11.950657844543455,-3.522469282150269
562,28200.0,4.605247020721436,-13.813944816589355,-2.9299042224884038
563,28300.0,-0.4734533727169037,-0.15023615956306458,-0.6356605291366577
564,28400.0,-0.4734533727169037,-0.15023615956306458,-0.6356605291366577
565,28500.0,5.430647850036621,-8.7669677734375,-2.410961151123047
566,28600.0,5.430647850036621,-8.7669677734375,-2.410961151123047
567,28700.0,2.3367409706115723,-6.863577842712402,1.1204863786697388
568,28800.0,2.3367409706115723,-6.863577842712402,1.1204863786697388
569,28900.0,9.275136947631836,-13.728352546691895,-19.60013198852539
570,29000.0,9.275136947631836,-13.728352546691895,-19.60013198852539
571,29100.0,-6.344634532928468,-0.67815762758255,5.169081687927246
572,29200.0,3.800795316696167,-12.05300998687744,-0.8319851160049438
573,29300.0,3.800795316696167,-12.05300998687744,-0.8319851160049438
574,29400.0,-3.28963303565979,-10.188525199890137,-2.232593059539795
575,29500.0,-3.28963303565979,-10.188525199890137,-2.232593059539795
576,29600.0,9.516353607177734,-18.665794372558594,-4.99550199508667
577,29700.0,9.516353607177734,-18.665794372558594,-4.99550199508667
578,29800.0,-8.832210540771484,1.821987509727478,8.811859130859375
579,29900.0,-8.832210540771484,1.821987509727478,8.811859130859375
580,30000.0,4.0330328941345215,-8.010998725891112,-0.7805097699165344
581,30100.0,-6.959944248199463,-11.70345687866211,-3.933074951171875
582,30200.0,-6.959944248199463,-11.70345687866211,-3.933074951171875
583,30300.0,11.478401184082033,-17.502212524414066,-4.5423994064331055
584,30400.0,11.478401184082033,-17.502212524414066,-4.5423994064331055
585,30500.0,-7.7218990325927725,-0.2609679996967316,7.706935405731201
586,30600.0,-7.7218990325927725,-0.2609679996967316,7.706935405731201
587,30700.0,2.1769278049468994,-9.6618013381958,-2.1057004928588867
588,30800.0,2.1769278049468994,-9.6618013381958,-2.1057004928588867
589,30900.0,-5.943006992340088,-12.76229190826416,-0.969651699066162
590,31000.0,10.814010620117188,-19.46366310119629,-12.270283699035645
591,31100.0,10.814010620117188,-19.46366310119629,-12.270283699035645
592,31200.0,-4.793790340423584,1.1330559253692627,3.1340100765228267
593,31300.0,-4.793790340423584,1.1330559253692627,3.1340100765228267
594,31400.0,3.9468414783477774,-8.240243911743164,0.74040687084198
595,31500.0,3.9468414783477774,-8.240243911743164,0.74040687084198
596,31600.0,-1.9129672050476076,-5.8442463874816895,-2.254140853881836
597,31700.0,-1.9129672050476076,-5.8442463874816895,-2.254140853881836
598,31800.0,11.288661003112793,-16.229694366455078,-8.639476776123049
599,31900.0,-5.521028995513916,-0.228047713637352,4.426878929138184
600,30000.0,4.0330328941345215,-8.010998725891112,-0.7805097699165344
601,30100.0,-6.959944248199463,-11.70345687866211,-3.933074951171875
602,30200.0,-6.959944248199463,-11.70345687866211,-3.933074951171875
603,30300.0,11.478401184082033,-17.502212524414066,-4.5423994064331055
604,30400.0,11.478401184082033,-17.502212524414066,-4.5423994064331055
605,30500.0,-7.7218990325927725,-0.2609679996967316,7.706935405731201
606,30600.0,-7.7218990325927725,-0.2609679996967316,7.706935405731201
607,30700.0,2.1769278049468994,-9.6618013381958,-2.1057004928588867
608,30800.0,2.1769278049468994,-9.6618013381958,-2.1057004928588867
609,30900.0,-5.943006992340088,-12.76229190826416,-0.969651699066162
610,31000.0,10.814010620117188,-19.46366310119629,-12.270283699035645
611,31100.0,10.814010620117188,-19.46366310119629,-12.270283699035645
612,31200.0,-4.793790340423584,1.1330559253692627,3.1340100765228267
613,31300.0,-4.793790340423584,1.1330559253692627,3.1340100765228267
614,31400.0,3.9468414783477774,-8.240243911743164,0.74040687084198
615,31500.0,3.9468414783477774,-8.240243911743164,0.74040687084198
616,31600.0,-1.9129672050476076,-5.8442463874816895,-2.254140853881836
617,31700.0,-1.9129672050476076,-5.8442463874816895,-2.254140853881836
618,31800.0,11.288661003112793,-16.229694366455078,-8.639476776123049
619,31900.0,-5.521028995513916,-0.228047713637352,4.426878929138184
620,32000.0,-5.521028995513916,-0.228047713637352,4.426878929138184
621,32100.0,5.681440830230713,-8.24622917175293,-0.8092401623725891
622,32200.0,5.681440830230713,-8.24622917175293,-0.8092401623725891
623,32300.0,-3.5200750827789307,-7.905055522918701,-3.579331636428833
624,32400.0,-3.5200750827789307,-7.905055522918701,-3.579331636428833
625,32500.0,11.544241905212402,-19.1811466217041,-5.95258378982544
626,32600.0,11.544241905212402,-19.1811466217041,-5.95258378982544
627,32700.0,-4.954800605773926,-1.323395013809204,1.2006921768188477
628,32800.0,16.005237579345707,-6.001665115356445,5.562329292297363
629,32900.0,16.005237579345707,-6.001665115356445,5.562329292297363
630,33000.0,-1.1605892181396484,8.643068313598633,3.490746021270752
631,33100.0,-1.1605892181396484,8.643068313598633,3.490746021270752
632,33200.0,11.42872142791748,-19.608510971069336,-0.6135141849517822
633,33300.0,11.42872142791748,-19.608510971069336,-0.6135141849517822
634,33400.0,-4.31135892868042,-1.9620482921600344,-1.3724761009216309
635,33500.0,-4.31135892868042,-1.9620482921600344,-1.3724761009216309
636,33600.0,17.656639099121094,-7.6357078552246085,6.281786918640138
637,33700.0,-0.9457096457481384,5.404311656951903,1.0283095836639404
638,33800.0,-0.9457096457481384,5.404311656951903,1.0283095836639404
639,33900.0,16.378135681152347,-9.5007905960083,-3.181894063949585
640,32000.0,-5.521028995513916,-0.228047713637352,4.426878929138184
641,32100.0,5.681440830230713,-8.24622917175293,-0.8092401623725891
642,32200.0,5.681440830230713,-8.24622917175293,-0.8092401623725891
643,32300.0,-3.5200750827789307,-7.905055522918701,-3.579331636428833
644,32400.0,-3.5200750827789307,-7.905055522918701,-3.579331636428833
645,32500.0,11.544241905212402,-19.1811466217041,-5.95258378982544
646,32600.0,11.544241905212402,-19.1811466217041,-5.95258378982544
647,32700.0,-4.954800605773926,-1.323395013809204,1.2006921768188477
648,32800.0,16.005237579345707,-6.001665115356445,5.562329292297363
649,32900.0,16.005237579345707,-6.001665115356445,5.562329292297363
650,33000.0,-1.1605892181396484,8.643068313598633,3.490746021270752
651,33100.0,-1.1605892181396484,8.643068313598633,3.490746021270752
652,33200.0,11.42872142791748,-19.608510971069336,-0.6135141849517822
653,33300.0,11.42872142791748,-19.608510971069336,-0.6135141849517822
654,33400.0,-4.31135892868042,-1.9620482921600344,-1.3724761009216309
655,33500.0,-4.31135892868042,-1.9620482921600344,-1.3724761009216309
656,33600.0,17.656639099121094,-7.6357078552246085,6.281786918640138
657,33700.0,-0.9457096457481384,5.404311656951903,1.0283095836639404
658,33800.0,-0.9457096457481384,5.404311656951903,1.0283095836639404
659,33900.0,16.378135681152347,-9.5007905960083,-3.181894063949585
660,34000.0,16.378135681152347,-9.5007905960083,-3.181894063949585
661,34100.0,-5.309741020202637,-6.124367713928223,-1.708262920379639
662,34200.0,-5.309741020202637,-6.124367713928223,-1.708262920379639
663,34300.0,19.607913970947266,-19.608510971069336,0.6194996833801271
664,34400.0,19.607913970947266,-19.608510971069336,0.6194996833801271
665,34500.0,-1.824381709098816,9.72584629058838,7.5459251403808585
666,34600.0,10.549450874328613,-3.0831332206726074,-7.508216381072997
667,34700.0,10.549450874328613,-3.0831332206726074,-7.508216381072997
668,34800.0,-5.3588218688964835,-9.281123161315918,4.345476150512694
669,34900.0,-5.3588218688964835,-9.281123161315918,4.345476150512694
670,35000.0,19.607913970947266,-19.608510971069336,1.5705963373184204
671,35100.0,19.607913970947266,-19.608510971069336,1.5705963373184204
672,35200.0,-2.3074119091033936,4.677671432495117,-6.208763599395753
673,35300.0,-2.3074119091033936,4.677671432495117,-6.208763599395753
674,35400.0,8.135497093200684,-4.50947904586792,-1.535880446434021
675,35500.0,-3.1274259090423584,-9.877877235412598,14.848240852355955
676,35600.0,-3.1274259090423584,-9.877877235412598,14.848240852355955
677,35700.0,0.10474632680416107,-3.770867586135864,0.689530074596405
678,35800.0,0.10474632680416107,-3.770867586135864,0.689530074596405
679,35900.0,4.103063106536865,4.254496574401856,-2.4049756526947017
680,34000.0,16.378135681152347,-9.5007905960083,-3.181894063949585
681,34100.0,-5.309741020202637,-6.124367713928223,-1.708262920379639
682,34200.0,-5.309741020202637,-6.124367713928223,-1.708262920379639
683,34300.0,19.607913970947266,-19.608510971069336,0.6194996833801271
684,34400.0,19.607913970947266,-19.608510971069336,0.6194996833801271
685,34500.0,-1.824381709098816,9.72584629058838,7.5459251403808585
686,34600.0,10.549450874328613,-3.0831332206726074,-7.508216381072997
687,34700.0,10.549450874328613,-3.0831332206726074,-7.508216381072997
688,34800.0,-5.3588218688964835,-9.281123161315918,4.345476150512694
689,34900.0,-5.3588218688964835,-9.281123161315918,4.345476150512694
690,35000.0,19.607913970947266,-19.608510971069336,1.5705963373184204
691,35100.0,19.607913970947266,-19.608510971069336,1.5705963373184204
692,35200.0,-2.3074119091033936,4.677671432495117,-6.208763599395753
693,35300.0,-2.3074119091033936,4.677671432495117,-6.208763599395753
694,35400.0,8.135497093200684,-4.50947904586792,-1.535880446434021
695,35500.0,-3.1274259090423584,-9.877877235412598,14.848240852355955
696,35600.0,-3.1274259090423584,-9.877877235412598,14.848240852355955
697,35700.0,0.10474632680416107,-3.770867586135864,0.689530074596405
698,35800.0,0.10474632680416107,-3.770867586135864,0.689530074596405
699,35900.0,4.103063106536865,4.254496574401856,-2.4049756526947017
700,36000.0,4.103063106536865,4.254496574401856,-2.4049756526947017
701,36100.0,19.13924789428711,-12.094908714294435,-4.286219596862793
702,36200.0,19.13924789428711,-12.094908714294435,-4.286219596862793
703,36300.0,-0.7230489253997803,-14.269442558288574,1.7663222551345823
704,36400.0,-3.3662476539611816,-0.406415730714798,-0.4501099288463593
705,36500.0,-3.3662476539611816,-0.406415730714798,-0.4501099288463593
706,36600.0,6.601412773132324,-9.51455783843994,-2.343923568725586
707,36700.0,6.601412773132324,-9.51455783843994,-2.343923568725586
708,36800.0,1.206079125404358,-8.003816604614258,-2.2900538444519043
709,36900.0,1.206079125404358,-8.003816604614258,-2.2900538444519043
710,37000.0,4.057573318481444,-19.608510971069336,-6.005256175994872
711,37100.0,4.057573318481444,-19.608510971069336,-6.005256175994872
712,37200.0,-7.025784969329834,-0.06763619929552077,4.148552894592285
713,37300.0,3.8181531429290767,-10.323798179626463,-1.9913772344589236
714,37400.0,3.8181531429290767,-10.323798179626463,-1.9913772344589236
715,37500.0,-1.6466121673583984,-5.810727596282959,-2.2218191623687744
716,37600.0,-1.6466121673583984,-5.810727596282959,-2.2218191623687744
717,37700.0,7.580641269683838,-15.483901023864744,-5.233126163482666
718,37800.0,7.580641269683838,-15.483901023864744,-5.233126163482666
719,37900.0,-6.6792240142822275,1.8758569955825808,4.614823818206787
720,36000.0,4.103063106536865,4.254496574401856,-2.4049756526947017
721,36100.0,19.13924789428711,-12.094908714294435,-4.286219596862793
722,36200.0,19.13924789428711,-12.094908714294435,-4.286219596862793
723,36300.0,-0.7230489253997803,-14.269442558288574,1.7663222551345823
724,36400.0,-3.3662476539611816,-0.406415730714798,-0.4501099288463593
725,36500.0,-3.3662476539611816,-0.406415730714798,-0.4501099288463593
726,36600.0,6.601412773132324,-9.51455783843994,-2.343923568725586
727,36700.0,6.601412773132324,-9.51455783843994,-2.343923568725586
728,36800.0,1.206079125404358,-8.003816604614258,-2.2900538444519043
729,36900.0,1.206079125404358,-8.003816604614258,-2.2900538444519043
730,37000.0,4.057573318481444,-19.608510971069336,-6.005256175994872
731,37100.0,4.057573318481444,-19.608510971069336,-6.005256175994872
732,37200.0,-7.025784969329834,-0.06763619929552077,4.148552894592285
733,37300.0,3.8181531429290767,-10.323798179626463,-1.9913772344589236
734,37400.0,3.8181531429290767,-10.323798179626463,-1.9913772344589236
735,37500.0,-1.6466121673583984,-5.810727596282959,-2.2218191623687744
736,37600.0,-1.6466121673583984,-5.810727596282959,-2.2218191623687744
737,37700.0,7.580641269683838,-15.483901023864744,-5.233126163482666
738,37800.0,7.580641269683838,-15.483901023864744,-5.233126163482666
739,37900.0,-6.6792240142822275,1.8758569955825808,4.614823818206787
740,38000.0,-6.6792240142822275,1.8758569955825808,4.614823818206787
741,38100.0,4.514267444610597,-10.516530990600586,-0.6362590789794922
742,38200.0,-0.9876081943511964,-5.16429328918457,-8.190564155578612
743,38300.0,-0.9876081943511964,-5.16429328918457,-8.190564155578612
744,38400.0,12.72637939453125,-16.570869445800778,-4.84406852722168
745,38500.0,12.72637939453125,-16.570869445800778,-4.84406852722168
746,38600.0,-7.176021099090576,-1.2084733247756958,2.595314741134644
747,38700.0,-7.176021099090576,-1.2084733247756958,2.595314741134644
748,38800.0,15.892112731933596,-3.155557870864868,3.6852750778198238
749,38900.0,15.892112731933596,-3.155557870864868,3.6852750778198238
750,39000.0,-5.518036365509033,-0.497395396232605,-1.2000936269760132
751,39100.0,9.53849983215332,-19.608510971069336,-9.027337074279783
752,39200.0,9.53849983215332,-19.608510971069336,-9.027337074279783
753,39300.0,-6.897695064544678,-0.9995791912078856,0.5309142470359802
754,39400.0,-6.897695064544678,-0.9995791912078856,0.5309142470359802
755,39500.0,19.607913970947266,-9.063849449157717,3.852869033813477
756,39600.0,19.607913970947266,-9.063849449157717,3.852869033813477
757,39700.0,0.15442600846290588,15.950770378112793,11.829751014709473
758,39800.0,0.15442600846290588,15.950770378112793,11.829751014709473
759,39900.0,13.576919555664064,-12.736554145812988,-0.16220717132091522
760,38000.0,-6.6792240142822275,1.8758569955825808,4.614823818206787
761,38100.0,4.514267444610597,-10.516530990600586,-0.6362590789794922
762,38200.0,-0.9876081943511964,-5.16429328918457,-8.190564155578612
763,38300.0,-0.9876081943511964,-5.16429328918457,-8.190564155578612
764,38400.0,12.72637939453125,-16.570869445800778,-4.84406852722168
765,38500.0,12.72637939453125,-16.570869445800778,-4.84406852722168
766,38600.0,-7.176021099090576,-1.2084733247756958,2.595314741134644
767,38700.0,-7.176021099090576,-1.2084733247756958,2.595314741134644
768,38800.0,15.892112731933596,-3.155557870864868,3.6852750778198238
769,38900.0,15.892112731933596,-3.155557870864868,3.6852750778198238
770,39000.0,-5.518036365509033,-0.497395396232605,-1.2000936269760132
771,39100.0,9.53849983215332,-19.608510971069336,-9.027337074279783
772,39200.0,9.53849983215332,-19.608510971069336,-9.027337074279783
773,39300.0,-6.897695064544678,-0.9995791912078856,0.5309142470359802
774,39400.0,-6.897695064544678,-0.9995791912078856,0.5309142470359802
775,39500.0,19.607913970947266,-9.063849449157717,3.852869033813477
776,39600.0,19.607913970947266,-9.063849449157717,3.852869033813477
777,39700.0,0.15442600846290588,15.950770378112793,11.829751014709473
778,39800.0,0.15442600846290588,15.950770378112793,11.829751014709473
779,39900.0,13.576919555664064,-12.736554145812988,-0.16220717132091522
780,40000.0,13.576919555664064,-12.736554145812988,-0.16220717132091522
781,40100.0,-3.601477861404419,-3.4512417316436768,-1.5412673950195312
782,40200.0,19.607913970947266,-19.2427978515625,-0.20051439106464386
783,40300.0,19.607913970947266,-19.2427978515625,-0.20051439106464386
784,40400.0,-0.9421183466911316,11.179126739501953,2.4049756526947017
785,40500.0,-0.9421183466911316,11.179126739501953,2.4049756526947017
786,40600.0,12.561179161071776,-5.969343185424805,1.9333178997039795
787,40700.0,12.561179161071776,-5.969343185424805,1.9333178997039795
788,40800.0,-3.023876667022705,-6.303933143615723,1.9237411022186282
789,40900.0,-3.023876667022705,-6.303933143615723,1.9237411022186282
790,41000.0,19.607913970947266,-19.608510971069336,-4.374804973602295
791,41100.0,-1.4951789379119873,6.721721172332764,-1.7280150651931765
792,41200.0,-1.4951789379119873,6.721721172332764,-1.7280150651931765
793,41300.0,10.706271171569824,-6.703764915466309,12.157755851745605
794,41400.0,10.706271171569824,-6.703764915466309,12.157755851745605
795,41500.0,-3.380612850189209,-13.37281322479248,12.730568885803224
796,41600.0,-3.380612850189209,-13.37281322479248,12.730568885803224
797,41700.0,12.00871753692627,-18.398242950439453,3.0286650657653813
798,41800.0,12.00871753692627,-18.398242950439453,3.0286650657653813
799,41900.0,-0.13587094843387604,5.828683853149414,-4.389170169830321
800,40000.0,13.576919555664064,-12.736554145812988,-0.16220717132091522
801,40100.0,-3.601477861404419,-3.4512417316436768,-1.5412673950195312
802,40200.0,19.607913970947266,-19.2427978515625,-0.20051439106464386
803,40300.0,19.607913970947266,-19.2427978515625,-0.20051439106464386
804,40400.0,-0.9421183466911316,11.179126739501953,2.4049756526947017
805,40500.0,-0.9421183466911316,11.179126739501953,2.4049756526947017
806,40600.0,12.561179161071776,-5.969343185424805,1.9333178997039795
807,40700.0,12.561179161071776,-5.969343185424805,1.9333178997039795
808,40800.0,-3.023876667022705,-6.303933143615723,1.9237411022186282
809,40900.0,-3.023876667022705,-6.303933143615723,1.9237411022186282
810,41000.0,19.607913970947266,-19.608510971069336,-4.374804973602295
811,41100.0,-1.4951789379119873,6.721721172332764,-1.7280150651931765
812,41200.0,-1.4951789379119873,6.721721172332764,-1.7280150651931765
813,41300.0,10.706271171569824,-6.703764915466309,12.157755851745605
814,41400.0,10.706271171569824,-6.703764915466309,12.157755851745605
815,41500.0,-3.380612850189209,-13.37281322479248,12.730568885803224
816,41600.0,-3.380612850189209,-13.37281322479248,12.730568885803224
817,41700.0,12.00871753692627,-18.398242950439453,3.0286650657653813
818,41800.0,12.00871753692627,-18.398242950439453,3.0286650657653813
819,41900.0,-0.13587094843387604,5.828683853149414,-4.389170169830321
820,42000.0,12.002731323242188,-0.6200982332229614,5.230133533477783
821,42100.0,12.002731323242188,-0.6200982332229614,5.230133533477783
822,42200.0,-1.5717934370040894,-6.405686855316162,18.845359802246094
823,42300.0,-1.5717934370040894,-6.405686855316162,18.845359802246094
824,42400.0,7.071274757385254,-18.53770446777344,-0.24839842319488525
825,42500.0,7.071274757385254,-18.53770446777344,-0.24839842319488525
826,42600.0,1.2186486721038818,4.3191399574279785,-3.4787750244140625
827,42700.0,5.6455278396606445,-8.152256965637207,-2.09672212600708
828,42800.0,5.6455278396606445,-8.152256965637207,-2.09672212600708
829,42900.0,-0.04908113554120064,-5.05715274810791,14.735114097595215
830,43000.0,-0.04908113554120064,-5.05715274810791,14.735114097595215
831,43100.0,9.56483554840088,-19.347543716430664,1.2791022062301636
832,43200.0,9.56483554840088,-19.347543716430664,1.2791022062301636
833,43300.0,2.04045844078064,2.9430725574493413,-3.4829649925231934
834,43400.0,2.04045844078064,2.9430725574493413,-3.4829649925231934
835,43500.0,1.600523829460144,-2.538452386856079,7.387907981872559
836,43600.0,1.600523829460144,-2.538452386856079,7.387907981872559
837,43700.0,-1.5717934370040894,-6.669647216796875,19.15540885925293
838,43800.0,2.2661118507385254,-16.90485954284668,3.3859996795654297
839,43900.0,2.2661118507385254,-16.90485954284668,3.3859996795654297
840,42000.0,12.002731323242188,-0.6200982332229614,5.230133533477783
841,42100.0,12.002731323242188,-0.6200982332229614,5.230133533477783
842,42200.0,-1.5717934370040894,-6.405686855316162,18.845359802246094
843,42300.0,-1.5717934370040894,-6.405686855316162,18.845359802246094
844,42400.0,7.071274757385254,-18.53770446777344,-0.24839842319488525
845,42500.0,7.071274757385254,-18.53770446777344,-0.24839842319488525
846,42600.0,1.2186486721038818,4.3191399574279785,-3.4787750244140625
847,42700.0,5.6455278396606445,-8.152256965637207,-2.09672212600708
848,42800.0,5.6455278396606445,-8.152256965637207,-2.09672212600708
849,42900.0,-0.04908113554120064,-5.05715274810791,14.735114097595215
850,43000.0,-0.04908113554120064,-5.05715274810791,14.735114097595215
851,43100.0,9.56483554840088,-19.347543716430664,1.2791022062301636
852,43200.0,9.56483554840088,-19.347543716430664,1.2791022062301636
853,43300.0,2.04045844078064,2.9430725574493413,-3.4829649925231934
854,43400.0,2.04045844078064,2.9430725574493413,-3.4829649925231934
855,43500.0,1.600523829460144,-2.538452386856079,7.387907981872559
856,43600.0,1.600523829460144,-2.538452386856079,7.387907981872559
857,43700.0,-1.5717934370040894,-6.669647216796875,19.15540885925293
858,43800.0,2.2661118507385254,-16.90485954284668,3.3859996795654297
859,43900.0,2.2661118507385254,-16.90485954284668,3.3859996795654297
860,44000.0,0.8236053586006165,4.52683687210083,-2.683301448822021
861,44100.0,0.8236053586006165,4.52683687210083,-2.683301448822021
862,44200.0,-3.659537315368652,-8.312667846679688,18.17438507080078
863,44300.0,-3.659537315368652,-8.312667846679688,18.17438507080078
864,44400.0,0.07182604819536209,-7.218518257141112,19.608510971069336
865,44500.0,0.07182604819536209,-7.218518257141112,19.608510971069336
866,44600.0,-0.5165489912033081,-1.469441294670105,-0.31603461503982544
867,44700.0,4.682459831237793,-0.5596446394920349,-1.9237411022186282
868,44800.0,4.682459831237793,-0.5596446394920349,-1.9237411022186282
869,44900.0,19.23322105407715,-18.6047420501709,-2.9472622871398926
870,45000.0,19.23322105407715,-18.6047420501709,-2.9472622871398926
871,45100.0,-0.20889410376548767,-15.161282539367676,0.35075053572654724
872,45200.0,-0.20889410376548767,-15.161282539367676,0.35075053572654724
873,45300.0,-4.613028049468994,0.8068459630012512,1.525106430053711
874,45400.0,-4.613028049468994,0.8068459630012512,1.525106430053711
875,45500.0,6.433219909667969,-12.123040199279785,-3.466804027557373
876,45600.0,-0.6524199843406677,-5.128379821777344,0.52552729845047
877,45700.0,-0.6524199843406677,-5.128379821777344,0.52552729845047
878,45800.0,9.802460670471193,-16.077064514160153,-8.307879447937013
879,45900.0,9.802460670471193,-16.077064514160153,-8.307879447937013
880,44000.0,0.8236053586006165,4.52683687210083,-2.683301448822021
881,44100.0,0.8236053586006165,4.52683687210083,-2.683301448822021
882,44200.0,-3.659537315368652,-8.312667846679688,18.17438507080078
883,44300.0,-3.659537315368652,-8.312667846679688,18.17438507080078
884,44400.0,0.07182604819536209,-7.218518257141112,19.608510971069336
885,44500.0,0.07182604819536209,-7.218518257141112,19.608510971069336
886,44600.0,-0.5165489912033081,-1.469441294670105,-0.31603461503982544
887,44700.0,4.682459831237793,-0.5596446394920349,-1.9237411022186282
888,44800.0,4.682459831237793,-0.5596446394920349,-1.9237411022186282
889,44900.0,19.23322105407715,-18.6047420501709,-2.9472622871398926
890,45000.0,19.23322105407715,-18.6047420501709,-2.9472622871398926
891,45100.0,-0.20889410376548767,-15.161282539367676,0.35075053572654724
892,45200.0,-0.20889410376548767,-15.161282539367676,0.35075053572654724
893,45300.0,-4.613028049468994,0.8068459630012512,1.525106430053711
894,45400.0,-4.613028049468994,0.8068459630012512,1.525106430053711
895,45500.0,6.433219909667969,-12.123040199279785,-3.466804027557373
896,45600.0,-0.6524199843406677,-5.128379821777344,0.52552729845047
897,45700.0,-0.6524199843406677,-5.128379821777344,0.52552729845047
898,45800.0,9.802460670471193,-16.077064514160153,-8.307879447937013
899,45900.0,9.802460670471193,-16.077064514160153,-8.307879447937013
900,46000.0,-8.809465408325195,1.4616601467132568,5.649717330932617
901,46100.0,-8.809465408325195,1.4616601467132568,5.649717330932617
902,46200.0,7.481281757354736,-10.9307279586792,1.804031014442444
903,46300.0,7.481281757354736,-10.9307279586792,1.804031014442444
904,46400.0,-7.253233909606934,-12.44087028503418,-7.791330814361572
905,46500.0,16.148889541625973,-19.276914596557614,-1.1324573755264282
906,46600.0,16.148889541625973,-19.276914596557614,-1.1324573755264282
907,46700.0,-5.127781391143799,2.9418752193450928,-0.1215057373046875
908,46800.0,-5.127781391143799,2.9418752193450928,-0.1215057373046875
909,46900.0,19.607913970947266,-1.6687586307525637,7.21791934967041
910,47000.0,19.607913970947266,-1.6687586307525637,7.21791934967041
911,47100.0,-5.521627902984619,8.683769226074219,10.008959770202637
912,47200.0,-5.521627902984619,8.683769226074219,10.008959770202637
913,47300.0,15.505448341369627,-19.34874153137207,-5.943605899810791
914,47400.0,-3.758896589279175,-3.454833030700684,-2.319382905960083
915,47500.0,-3.758896589279175,-3.454833030700684,-2.319382905960083
916,47600.0,19.607913970947266,-19.54925537109375,8.801085472106934
917,47700.0,19.607913970947266,-19.54925537109375,8.801085472106934
918,47800.0,-0.7230489253997803,13.891158103942873,7.799111843109131
919,47900.0,-0.7230489253997803,13.891158103942873,7.799111843109131
920,46000.0,-8.809465408325195,1.4616601467132568,5.649717330932617
921,46100.0,-8.809465408325195,1.4616601467132568,5.649717330932617
922,46200.0,7.481281757354736,-10.9307279586792,1.804031014442444
923,46300.0,7.481281757354736,-10.9307279586792,1.804031014442444
924,46400.0,-7.253233909606934,-12.44087028503418,-7.791330814361572
925,46500.0,16.148889541625973,-19.276914596557614,-1.1324573755264282
926,46600.0,16.148889541625973,-19.276914596557614,-1.1324573755264282
927,46700.0,-5.127781391143799,2.9418752193450928,-0.1215057373046875
928,46800.0,-5.127781391143799,2.9418752193450928,-0.1215057373046875
929,46900.0,19.607913970947266,-1.6687586307525637,7.21791934967041
930,47000.0,19.607913970947266,-1.6687586307525637,7.21791934967041
931,47100.0,-5.521627902984619,8.683769226074219,10.008959770202637
932,47200.0,-5.521627902984619,8.683769226074219,10.008959770202637
933,47300.0,15.505448341369627,-19.34874153137207,-5.943605899810791
934,47400.0,-3.758896589279175,-3.454833030700684,-2.319382905960083
935,47500.0,-3.758896589279175,-3.454833030700684,-2.319382905960083
936,47600.0,19.607913970947266,-19.54925537109375,8.801085472106934
937,47700.0,19.607913970947266,-19.54925537109375,8.801085472106934
938,47800.0,-0.7230489253997803,13.891158103942873,7.799111843109131
939,47900.0,-0.7230489253997803,13.891158103942873,7.799111843109131
940,48000.0,16.445173263549805,-12.891578674316404,-0.4231751561164856
941,48100.0,16.445173263549805,-12.891578674316404,-0.4231751561164856
942,48200.0,-1.1336544752120972,-3.63918662071228,1.668160080909729
943,48300.0,19.607913970947266,-19.608510971069336,-0.1951274424791336
944,48400.0,19.607913970947266,-19.608510971069336,-0.1951274424791336
945,48500.0,-3.5284547805786133,4.578910827636719,-7.6985554695129395
946,48600.0,-3.5284547805786133,4.578910827636719,-7.6985554695129395
947,48700.0,0.008978256024420261,-1.913565754890442,19.278112411499023
948,48800.0,0.008978256024420261,-1.913565754890442,19.278112411499023
949,48900.0,-2.602497339248657,-9.700706481933594,8.746018409729004
950,49000.0,-2.602497339248657,-9.700706481933594,8.746018409729004
951,49100.0,-0.02693476900458336,-5.660491466522218,1.0642226934432983
952,49200.0,3.378817081451416,5.673060894012451,-1.61069917678833
953,49300.0,3.378817081451416,5.673060894012451,-1.61069917678833
954,49400.0,19.607913970947266,-19.608510971069336,-14.035408973693848
955,49500.0,19.607913970947266,-19.608510971069336,-14.035408973693848
956,49600.0,-2.1817162036895748,-8.778939247131348,14.802151679992676
957,49700.0,-2.1817162036895748,-8.778939247131348,14.802151679992676
958,49800.0,-0.10354922711849213,-2.6455929279327397,0.05746084079146385
959,49900.0,-0.10354922711849213,-2.6455929279327397,0.05746084079146385
960,48000.0,16.445173263549805,-12.891578674316404,-0.4231751561164856
961,48100.0,16.445173263549805,-12.891578674316404,-0.4231751561164856
962,48200.0,-1.1336544752120972,-3.63918662071228,1.668160080909729
963,48300.0,19.607913970947266,-19.608510971069336,-0.1951274424791336
964,48400.0,19.607913970947266,-19.608510971069336,-0.1951274424791336
965,48500.0,-3.5284547805786133,4.578910827636719,-7.6985554695129395
966,48600.0,-3.5284547805786133,4.578910827636719,-7.6985554695129395
967,48700.0,0.008978256024420261,-1.913565754890442,19.278112411499023
968,48800.0,0.008978256024420261,-1.913565754890442,19.278112411499023
969,48900.0,-2.602497339248657,-9.700706481933594,8.746018409729004
970,49000.0,-2.602497339248657,-9.700706481933594,8.746018409729004
971,49100.0,-0.02693476900458336,-5.660491466522218,1.0642226934432983
972,49200.0,3.378817081451416,5.673060894012451,-1.61069917678833
973,49300.0,3.378817081451416,5.673060894012451,-1.61069917678833
974,49400.0,19.607913970947266,-19.608510971069336,-14.035408973693848
975,49500.0,19.607913970947266,-19.608510971069336,-14.035408973693848
976,49600.0,-2.1817162036895748,-8.778939247131348,14.802151679992676
977,49700.0,-2.1817162036895748,-8.778939247131348,14.802151679992676
978,49800.0,-0.10354922711849213,-2.6455929279327397,0.05746084079146385
979,49900.0,-0.10354922711849213,-2.6455929279327397,0.05746084079146385
980,50000.0,5.4934959411621085,1.0857704877853394,-1.8279730081558228
981,50100.0,6.5499372482299805,-6.9934630393981925,0.19393034279346466
982,50200.0,6.5499372482299805,-6.9934630393981925,0.19393034279346466
983,50300.0,1.6962919235229492,-16.341623306274414,-4.477755546569824
984,50400.0,1.6962919235229492,-16.341623306274414,-4.477755546569824
985,50500.0,-3.448847532272339,0.04848258569836617,1.3126211166381836
986,50600.0,-3.448847532272339,0.04848258569836617,1.3126211166381836
987,50700.0,4.761468410491943,-12.22658920288086,-1.1881226301193235
988,50800.0,4.761468410491943,-12.22658920288086,-1.1881226301193235
989,50900.0,-0.2693476974964142,-3.553593873977661,-1.4053963422775269
990,51000.0,11.459846496582033,-19.457677841186523,-15.275605201721193
991,51100.0,11.459846496582033,-19.457677841186523,-15.275605201721193
992,51200.0,-4.79857873916626,1.6047136783599854,2.913144826889038
993,51300.0,-4.79857873916626,1.6047136783599854,2.913144826889038
994,51400.0,6.8372416496276855,-8.160037994384767,0.4926069974899292
995,51500.0,6.8372416496276855,-8.160037994384767,0.4926069974899292
996,51600.0,-7.365162849426269,-11.753734588623047,-2.318185806274414
997,51700.0,-7.365162849426269,-11.753734588623047,-2.318185806274414
998,51800.0,9.6618013381958,-19.608510971069336,-6.589441776275635
999,51900.0,-3.8295257091522217,-1.3437457084655762,-2.210446834564209
1000,50000.0,5.4934959411621085,1.0857704877853394,-1.8279730081558228
1001,50100.0,6.5499372482299805,-6.9934630393981925,0.19393034279346466
1002,50200.0,6.5499372482299805,-6.9934630393981925,0.19393034279346466
1003,50300.0,1.6962919235229492,-16.341623306274414,-4.477755546569824
1004,50400.0,1.6962919235229492,-16.341623306274414,-4.477755546569824
1005,50500.0,-3.448847532272339,0.04848258569836617,1.3126211166381836
1006,50600.0,-3.448847532272339,0.04848258569836617,1.3126211166381836
1007,50700.0,4.761468410491943,-12.22658920288086,-1.1881226301193235
1008,50800.0,4.761468410491943,-12.22658920288086,-1.1881226301193235
1009,50900.0,-0.2693476974964142,-3.553593873977661,-1.4053963422775269
1010,51000.0,11.459846496582033,-19.457677841186523,-15.275605201721193
1011,51100.0,11.459846496582033,-19.457677841186523,-15.275605201721193
1012,51200.0,-4.79857873916626,1.6047136783599854,2.913144826889038
1013,51300.0,-4.79857873916626,1.6047136783599854,2.913144826889038
1014,51400.0,6.8372416496276855,-8.160037994384767,0.4926069974899292
1015,51500.0,6.8372416496276855,-8.160037994384767,0.4926069974899292
1016,51600.0,-7.365162849426269,-11.753734588623047,-2.318185806274414
1017,51700.0,-7.365162849426269,-11.753734588623047,-2.318185806274414
1018,51800.0,9.6618013381958,-19.608510971069336,-6.589441776275635
1019,51900.0,-3.8295257091522217,-1.3437457084655762,-2.210446834564209
1020,52000.0,-3.8295257091522217,-1.3437457084655762,-2.210446834564209
1021,52100.0,19.607913970947266,-13.233351707458494,6.567893981933594
1022,52200.0,19.607913970947266,-13.233351707458494,6.567893981933594
1023,52300.0,-0.21847090125083926,15.23011589050293,4.44782829284668
1024,52400.0,-0.21847090125083926,15.23011589050293,4.44782829284668
1025,52500.0,13.259089469909668,-19.03270721435547,-1.2862848043441772
1026,52600.0,13.259089469909668,-19.03270721435547,-1.2862848043441772
1027,52700.0,-2.7287914752960205,-0.585382342338562,-0.8696937561035156
1028,52800.0,19.607913970947266,-19.608510971069336,-6.376956462860107
1029,52900.0,19.607913970947266,-19.608510971069336,-6.376956462860107
1030,53000.0,-2.553416013717652,5.788581371307372,-2.615665435791016
1031,53100.0,-2.553416013717652,5.788581371307372,-2.615665435791016
1032,53200.0,4.9565958976745605,-5.992686748504639,14.429853439331055
1033,53300.0,4.9565958976745605,-5.992686748504639,14.429853439331055
1034,53400.0,-3.912125587463379,-8.012195587158201,2.727594375610352
1035,53500.0,-3.912125587463379,-8.012195587158201,2.727594375610352
1036,53600.0,11.462839126586914,-19.586963653564453,2.0697872638702397
1037,53700.0,1.4131776094436646,5.52821159362793,-4.0120835304260245
1038,53800.0,1.4131776094436646,5.52821159362793,-4.0120835304260245
1039,53900.0,8.923190116882324,-2.697666883468628,16.952743530273438
1040,52000.0,-3.8295257091522217,-1.3437457084655762,-2.210446834564209
1041,52100.0,19.607913970947266,-13.233351707458494,6.567893981933594
1042,52200.0,19.607913970947266,-13.233351707458494,6.567893981933594
1043,52300.0,-0.21847090125083926,15.23011589050293,4.44782829284668
1044,52400.0,-0.21847090125083926,15.23011589050293,4.44782829284668
1045,52500.0,13.259089469909668,-19.03270721435547,-1.2862848043441772
1046,52600.0,13.259089469909668,-19.03270721435547,-1.2862848043441772
1047,52700.0,-2.7287914752960205,-0.585382342338562,-0.8696937561035156
1048,52800.0,19.607913970947266,-19.608510971069336,-6.376956462860107
1049,52900.0,19.607913970947266,-19.608510971069336,-6.376956462860107
1050,53000.0,-2.553416013717652,5.788581371307372,-2.615665435791016
1051,53100.0,-2.553416013717652,5.788581371307372,-2.615665435791016
1052,53200.0,4.9565958976745605,-5.992686748504639,14.429853439331055
1053,53300.0,4.9565958976745605,-5.992686748504639,14.429853439331055
1054,53400.0,-3.912125587463379,-8.012195587158201,2.727594375610352
1055,53500.0,-3.912125587463379,-8.012195587158201,2.727594375610352
1056,53600.0,11.462839126586914,-19.586963653564453,2.0697872638702397
1057,53700.0,1.4131776094436646,5.52821159362793,-4.0120835304260245
1058,53800.0,1.4131776094436646,5.52821159362793,-4.0120835304260245
1059,53900.0,8.923190116882324,-2.697666883468628,16.952743530273438
1060,54000.0,8.923190116882324,-2.697666883468628,16.952743530273438
1061,54100.0,-0.545877993106842,-3.694253206253052,17.604564666748047
1062,54200.0,-0.545877993106842,-3.694253206253052,17.604564666748047
1063,54300.0,2.937685489654541,-15.844826698303224,0.9056068062782288
1064,54400.0,2.937685489654541,-15.844826698303224,0.9056068062782288
1065,54500.0,-1.1456254720687866,4.7830166816711435,-3.658938646316528
1066,54600.0,8.813055992126465,-14.955979347229006,-17.714099884033203
1067,54700.0,8.813055992126465,-14.955979347229006,-17.714099884033203
1068,54800.0,8.813055992126465,-14.955979347229006,-17.714099884033203
1069,54900.0,-3.1693243980407715,-10.055048942565918,16.449363708496097
1070,55000.0,-2.20386266708374,-2.0542249679565434,-0.3435679376125336
1071,55100.0,-2.20386266708374,-2.0542249679565434,-0.3435679376125336
1072,55200.0,6.432023048400879,-1.354519605636597,-2.4361002445220947
1073,55300.0,6.432023048400879,-1.354519605636597,-2.4361002445220947
1074,55400.0,15.996858596801758,-12.343905448913574,-2.9227216243743896
1075,55500.0,0.7416039705276489,-13.834894180297852,-3.0873231887817383
1076,55600.0,0.7416039705276489,-13.834894180297852,-3.0873231887817383
1077,55700.0,-2.015319347381592,-0.667982280254364,-1.5861586332321167
1078,55800.0,-2.015319347381592,-0.667982280254364,-1.5861586332321167
1079,55900.0,4.975749492645264,-8.736441612243652,-1.6112977266311646
1080,54000.0,8.923190116882324,-2.697666883468628,16.952743530273438
1081,54100.0,-0.545877993106842,-3.694253206253052,17.604564666748047
1082,54200.0,-0.545877993106842,-3.694253206253052,17.604564666748047
1083,54300.0,2.937685489654541,-15.844826698303224,0.9056068062782288
1084,54400.0,2.937685489654541,-15.844826698303224,0.9056068062782288
1085,54500.0,-1.1456254720687866,4.7830166816711435,-3.658938646316528
1086,54600.0,8.813055992126465,-14.955979347229006,-17.714099884033203
1087,54700.0,8.813055992126465,-14.955979347229006,-17.714099884033203
1088,54800.0,8.813055992126465,-14.955979347229006,-17.714099884033203
1089,54900.0,-3.1693243980407715,-10.055048942565918,16.449363708496097
1090,55000.0,-2.20386266708374,-2.0542249679565434,-0.3435679376125336
1091,55100.0,-2.20386266708374,-2.0542249679565434,-0.3435679376125336
1092,55200.0,6.432023048400879,-1.354519605636597,-2.4361002445220947
1093,55300.0,6.432023048400879,-1.354519605636597,-2.4361002445220947
1094,55400.0,15.996858596801758,-12.343905448913574,-2.9227216243743896
1095,55500.0,0.7416039705276489,-13.834894180297852,-3.0873231887817383
1096,55600.0,0.7416039705276489,-13.834894180297852,-3.0873231887817383
1097,55700.0,-2.015319347381592,-0.667982280254364,-1.5861586332321167
1098,55800.0,-2.015319347381592,-0.667982280254364,-1.5861586332321167
1099,55900.0,4.975749492645264,-8.736441612243652,-1.6112977266311646
1100,56000.0,4.975749492645264,-8.736441612243652,-1.6112977266311646
1101,56100.0,0.7487865686416626,-3.4512417316436768,2.186504602432251
1102,56200.0,0.7487865686416626,-3.4512417316436768,2.186504602432251
1103,56300.0,6.424840450286865,-16.357784271240234,-11.079168319702148
1104,56400.0,-7.776965618133545,1.7687164545059204,4.339490413665772
1105,56500.0,-7.776965618133545,1.7687164545059204,4.339490413665772
1106,56600.0,3.97257924079895,-12.836512565612793,0.3501519858837128
1107,56700.0,3.97257924079895,-12.836512565612793,0.3501519858837128
1108,56800.0,-2.5336639881134038,-11.401188850402832,-3.311779499053955
1109,56900.0,-2.5336639881134038,-11.401188850402832,-3.311779499053955
1110,57000.0,11.793837547302244,-17.547103881835938,-6.36378812789917
1111,57100.0,11.793837547302244,-17.547103881835938,-6.36378812789917
1112,57200.0,-5.966948986053468,2.1308395862579346,2.1326351165771484
1113,57300.0,-5.966948986053468,2.1308395862579346,2.1326351165771484
1114,57400.0,11.763910293579102,-7.4316020011901855,1.9195512533187864
1115,57500.0,-1.5304933786392212,-0.5267243981361389,3.9228994846344
1116,57600.0,-1.5304933786392212,-0.5267243981361389,3.9228994846344
1117,57700.0,13.927071571350098,-19.00577163696289,-8.531737327575684
1118,57800.0,13.927071571350098,-19.00577163696289,-8.531737327575684
1119,57900.0,-2.557007312774658,0.1825578808784485,-1.3210008144378662
1120,56000.0,4.975749492645264,-8.736441612243652,-1.6112977266311646
1121,56100.0,0.7487865686416626,-3.4512417316436768,2.186504602432251
1122,56200.0,0.7487865686416626,-3.4512417316436768,2.186504602432251
1123,56300.0,6.424840450286865,-16.357784271240234,-11.079168319702148
1124,56400.0,-7.776965618133545,1.7687164545059204,4.339490413665772
1125,56500.0,-7.776965618133545,1.7687164545059204,4.339490413665772
1126,56600.0,3.97257924079895,-12.836512565612793,0.3501519858837128
1127,56700.0,3.97257924079895,-12.836512565612793,0.3501519858837128
1128,56800.0,-2.5336639881134038,-11.401188850402832,-3.311779499053955
1129,56900.0,-2.5336639881134038,-11.401188850402832,-3.311779499053955
1130,57000.0,11.793837547302244,-17.547103881835938,-6.36378812789917
1131,57100.0,11.793837547302244,-17.547103881835938,-6.36378812789917
1132,57200.0,-5.966948986053468,2.1308395862579346,2.1326351165771484
1133,57300.0,-5.966948986053468,2.1308395862579346,2.1326351165771484
1134,57400.0,11.763910293579102,-7.4316020011901855,1.9195512533187864
1135,57500.0,-1.5304933786392212,-0.5267243981361389,3.9228994846344
1136,57600.0,-1.5304933786392212,-0.5267243981361389,3.9228994846344
1137,57700.0,13.927071571350098,-19.00577163696289,-8.531737327575684
1138,57800.0,13.927071571350098,-19.00577163696289,-8.531737327575684
1139,57900.0,-2.557007312774658,0.1825578808784485,-1.3210008144378662
1140,58000.0,-2.557007312774658,0.1825578808784485,-1.3210008144378662
1141,58100.0,19.607913970947266,-19.608510971069336,-5.073912143707275
1142,58200.0,1.1139023303985596,16.45534896850586,6.999448776245117
1143,58300.0,1.1139023303985596,16.45534896850586,6.999448776245117
1144,58400.0,14.29936981201172,-6.168062210083008,-5.535993099212647
1145,58500.0,14.29936981201172,-6.168062210083008,-5.535993099212647
1146,58600.0,-1.1552022695541382,-2.4444799423217773,0.01975216343998909
1147,58700.0,-1.1552022695541382,-2.4444799423217773,0.01975216343998909
1148,58800.0,19.24698829650879,-19.608510971069336,4.601057052612305
1149,58900.0,19.24698829650879,-19.608510971069336,4.601057052612305
1150,59000.0,-0.8631097078323364,5.825092792510986,-8.383296966552733
1151,59100.0,-0.8631097078323364,5.825092792510986,-8.383296966552733
1152,59200.0,7.017405033111572,-15.905879020690918,-18.107946395874023
1153,59300.0,1.4119805097579956,-6.090848922729492,-5.10383939743042
1154,59400.0,1.4119805097579956,-6.090848922729492,-5.10383939743042
1155,59500.0,-0.12928688526153564,-0.5225345492362976,-0.3776853084564209
1156,59600.0,-0.12928688526153564,-0.5225345492362976,-0.3776853084564209
1157,59700.0,6.489483833312987,-4.915296077728272,-2.1182699203491206
1158,59800.0,6.489483833312987,-4.915296077728272,-2.1182699203491206
1159,59900.0,7.787140846252441,-8.401253700256348,-2.38462495803833
1160,58000.0,-2.557007312774658,0.1825578808784485,-1.3210008144378662
1161,58100.0,19.607913970947266,-19.608510971069336,-5.073912143707275
1162,58200.0,1.1139023303985596,16.45534896850586,6.999448776245117
1163,58300.0,1.1139023303985596,16.45534896850586,6.999448776245117
1164,58400.0,14.29936981201172,-6.168062210083008,-5.535993099212647
1165,58500.0,14.29936981201172,-6.168062210083008,-5.535993099212647
1166,58600.0,-1.1552022695541382,-2.4444799423217773,0.01975216343998909
1167,58700.0,-1.1552022695541382,-2.4444799423217773,0.01975216343998909
1168,58800.0,19.24698829650879,-19.608510971069336,4.601057052612305
1169,58900.0,19.24698829650879,-19.608510971069336,4.601057052612305
1170,59000.0,-0.8631097078323364,5.825092792510986,-8.383296966552733
1171,59100.0,-0.8631097078323364,5.825092792510986,-8.383296966552733
1172,59200.0,7.017405033111572,-15.905879020690918,-18.107946395874023
1173,59300.0,1.4119805097579956,-6.090848922729492,-5.10383939743042
1174,59400.0,1.4119805097579956,-6.090848922729492,-5.10383939743042
1175,59500.0,-0.12928688526153564,-0.5225345492362976,-0.3776853084564209
1176,59600.0,-0.12928688526153564,-0.5225345492362976,-0.3776853084564209
1177,59700.0,6.489483833312987,-4.915296077728272,-2.1182699203491206
1178,59800.0,6.489483833312987,-4.915296077728272,-2.1182699203491206
1179,59900.0,7.787140846252441,-8.401253700256348,-2.38462495803833
1180,60000.0,7.787140846252441,-8.401253700256348,-2.38462495803833
1181,60100.0,-0.30945056676864624,-19.599533081054688,-0.7200561761856079
1182,60200.0,-2.8784289360046387,0.484825849533081,-0.13766659796237946
1183,60300.0,-2.8784289360046387,0.484825849533081,-0.13766659796237946
1184,60400.0,6.397905349731445,-9.917980194091797,-2.233191728591919
1185,60500.0,6.397905349731445,-9.917980194091797,-2.233191728591919
1186,60600.0,-1.3958195447921753,-7.346009254455566,-2.5091233253479004
1187,60700.0,-1.3958195447921753,-7.346009254455566,-2.5091233253479004
1188,60800.0,10.762535095214844,-19.608510971069336,-7.3448123931884775
1189,60900.0,10.762535095214844,-19.608510971069336,-7.3448123931884775
1190,61000.0,-7.243657112121582,-0.6919242739677429,4.422688961029053
1191,61100.0,3.6834793090820312,-10.326191902160645,0.8224082589149475
1192,61200.0,3.6834793090820312,-10.326191902160645,0.8224082589149475
1193,61300.0,-4.165910720825194,-16.91862678527832,-1.2802993059158323
1194,61400.0,-4.165910720825194,-16.91862678527832,-1.2802993059158323
1195,61500.0,9.619902610778807,-19.608510971069336,-6.1082072257995605
1196,61600.0,9.619902610778807,-19.608510971069336,-6.1082072257995605
1197,61700.0,-4.906317710876465,0.4285621047019959,2.551021814346313
1198,61800.0,-4.906317710876465,0.4285621047019959,2.551021814346313
1199,61900.0,7.0371575355529785,-18.11632537841797,7.643488883972168
1200,60000.0,7.787140846252441,-8.401253700256348,-2.38462495803833
1201,60100.0,-0.30945056676864624,-19.599533081054688,-0.7200561761856079
1202,60200.0,-2.8784289360046387,0.484825849533081,-0.13766659796237946
1203,60300.0,-2.8784289360046387,0.484825849533081,-0.13766659796237946
1204,60400.0,6.397905349731445,-9.917980194091797,-2.233191728591919
1205,60500.0,6.397905349731445,-9.917980194091797,-2.233191728591919
1206,60600.0,-1.3958195447921753,-7.346009254455566,-2.5091233253479004
1207,60700.0,-1.3958195447921753,-7.346009254455566,-2.5091233253479004
1208,60800.0,10.762535095214844,-19.608510971069336,-7.3448123931884775
1209,60900.0,10.762535095214844,-19.608510971069336,-7.3448123931884775
1210,61000.0,-7.243657112121582,-0.6919242739677429,4.422688961029053
1211,61100.0,3.6834793090820312,-10.326191902160645,0.8224082589149475
1212,61200.0,3.6834793090820312,-10.326191902160645,0.8224082589149475
1213,61300.0,-4.165910720825194,-16.91862678527832,-1.2802993059158323
1214,61400.0,-4.165910720825194,-16.91862678527832,-1.2802993059158323
1215,61500.0,9.619902610778807,-19.608510971069336,-6.1082072257995605
1216,61600.0,9.619902610778807,-19.608510971069336,-6.1082072257995605
1217,61700.0,-4.906317710876465,0.4285621047019959,2.551021814346313
1218,61800.0,-4.906317710876465,0.4285621047019959,2.551021814346313
1219,61900.0,7.0371575355529785,-18.11632537841797,7.643488883972168
1220,62000.0,-1.7932571172714231,4.039018154144287,10.205883026123047
1221,62100.0,-1.7932571172714231,4.039018154144287,10.205883026123047
1222,62200.0,9.95090103149414,-7.263409614562987,-6.42543888092041
1223,62300.0,9.95090103149414,-7.263409614562987,-6.42543888092041
1224,62400.0,-5.55634355545044,-2.9718029499053955,-0.1280897855758667
1225,62500.0,-5.55634355545044,-2.9718029499053955,-0.1280897855758667
1226,62600.0,19.515737533569336,-19.608510971069336,-11.297040939331055
1227,62700.0,19.515737533569336,-19.608510971069336,-11.297040939331055
1228,62800.0,2.08056116104126,5.455188751220703,-6.160281181335449
1229,62900.0,9.28650951385498,-11.975198745727539,-1.4323312044143677
1230,63000.0,9.28650951385498,-11.975198745727539,-1.4323312044143677
1231,63100.0,-0.14185644686222074,-4.9559974670410165,5.294178485870361
1232,63200.0,-0.14185644686222074,-4.9559974670410165,5.294178485870361
1233,63300.0,5.084087371826172,-19.608510971069336,-1.7004817724227903
1234,63400.0,5.084087371826172,-19.608510971069336,-1.7004817724227903
1235,63500.0,10.682928085327148,1.9093759059906008,-5.43723201751709
1236,63600.0,10.682928085327148,1.9093759059906008,-5.43723201751709
1237,63700.0,2.6420016288757324,-7.439981937408447,-2.785653591156006
1238,63800.0,-0.9056068062782288,-7.886500358581543,8.850166320800781
1239,63900.0,-0.9056068062782288,-7.886500358581543,8.850166320800781
1240,62000.0,-1.7932571172714231,4.039018154144287,10.205883026123047
1241,62100.0,-1.7932571172714231,4.039018154144287,10.205883026123047
1242,62200.0,9.95090103149414,-7.263409614562987,-6.42543888092041
1243,62300.0,9.95090103149414,-7.263409614562987,-6.42543888092041
1244,62400.0,-5.55634355545044,-2.9718029499053955,-0.1280897855758667
1245,62500.0,-5.55634355545044,-2.9718029499053955,-0.1280897855758667
1246,62600.0,19.515737533569336,-19.608510971069336,-11.297040939331055
1247,62700.0,19.515737533569336,-19.608510971069336,-11.297040939331055
1248,62800.0,2.08056116104126,5.455188751220703,-6.160281181335449
1249,62900.0,9.28650951385498,-11.975198745727539,-1.4323312044143677
1250,63000.0,9.28650951385498,-11.975198745727539,-1.4323312044143677
1251,63100.0,-0.14185644686222074,-4.9559974670410165,5.294178485870361
1252,63200.0,-0.14185644686222074,-4.9559974670410165,5.294178485870361
1253,63300.0,5.084087371826172,-19.608510971069336,-1.7004817724227903
1254,63400.0,5.084087371826172,-19.608510971069336,-1.7004817724227903
1255,63500.0,10.682928085327148,1.9093759059906008,-5.43723201751709
1256,63600.0,10.682928085327148,1.9093759059906008,-5.43723201751709
1257,63700.0,2.6420016288757324,-7.439981937408447,-2.785653591156006
1258,63800.0,-0.9056068062782288,-7.886500358581543,8.850166320800781
1259,63900.0,-0.9056068062782288,-7.886500358581543,8.850166320800781
1260,64000.0,-0.4884171485900879,-0.4435258507728577,-0.7457938194274902
1261,64100.0,-0.4884171485900879,-0.4435258507728577,-0.7457938194274902
1262,64200.0,5.634753704071045,1.0624270439147951,-1.911171555519104
1263,64300.0,5.634753704071045,1.0624270439147951,-1.911171555519104
1264,64400.0,10.631452560424805,-13.883377075195312,0.9163807034492492
1265,64500.0,10.631452560424805,-13.883377075195312,0.9163807034492492
1266,64600.0,-3.308786630630493,-15.58745002746582,4.927267074584961
1267,64700.0,-5.138555526733398,0.5099649429321289,0.3884592354297638
1268,64800.0,-5.138555526733398,0.5099649429321289,0.3884592354297638
1269,64900.0,3.995922565460205,-8.009801864624022,-1.9399019479751587
1270,65000.0,3.995922565460205,-8.009801864624022,-1.9399019479751587
1271,65100.0,1.5412673950195312,-2.0464439392089844,0.7954735159873962
1272,65200.0,1.5412673950195312,-2.0464439392089844,0.7954735159873962
1273,65300.0,0.21667525172233584,-18.53590965270996,-3.07415509223938
1274,65400.0,0.21667525172233584,-18.53590965270996,-3.07415509223938
1275,65500.0,-7.580042362213135,2.3032219409942627,5.747281074523926
1276,65600.0,2.3924059867858887,-11.272500038146973,-2.3379380702972408
1277,65700.0,2.3924059867858887,-11.272500038146973,-2.3379380702972408
1278,65800.0,-1.6956933736801147,-3.924096584320069,-1.3581109046936035
1279,65900.0,-1.6956933736801147,-3.924096584320069,-1.3581109046936035
1280,64000.0,-0.4884171485900879,-0.4435258507728577,-0.7457938194274902
1281,64100.0,-0.4884171485900879,-0.4435258507728577,-0.7457938194274902
1282,64200.0,5.634753704071045,1.0624270439147951,-1.911171555519104
1283,64300.0,5.634753704071045,1.0624270439147951,-1.911171555519104
1284,64400.0,10.631452560424805,-13.883377075195312,0.9163807034492492
1285,64500.0,10.631452560424805,-13.883377075195312,0.9163807034492492
1286,64600.0,-3.308786630630493,-15.58745002746582,4.927267074584961
1287,64700.0,-5.138555526733398,0.5099649429321289,0.3884592354297638
1288,64800.0,-5.138555526733398,0.5099649429321289,0.3884592354297638
1289,64900.0,3.995922565460205,-8.009801864624022,-1.9399019479751587
1290,65000.0,3.995922565460205,-8.009801864624022,-1.9399019479751587
1291,65100.0,1.5412673950195312,-2.0464439392089844,0.7954735159873962
1292,65200.0,1.5412673950195312,-2.0464439392089844,0.7954735159873962
1293,65300.0,0.21667525172233584,-18.53590965270996,-3.07415509223938
1294,65400.0,0.21667525172233584,-18.53590965270996,-3.07415509223938
1295,65500.0,-7.580042362213135,2.3032219409942627,5.747281074523926
1296,65600.0,2.3924059867858887,-11.272500038146973,-2.3379380702972408
1297,65700.0,2.3924059867858887,-11.272500038146973,-2.3379380702972408
1298,65800.0,-1.6956933736801147,-3.924096584320069,-1.3581109046936035
1299,65900.0,-1.6956933736801147,-3.924096584320069,-1.3581109046936035
1300,66000.0,4.689043998718262,-16.109386444091793,-5.054758548736572
1301,66100.0,4.689043998718262,-16.109386444091793,-5.054758548736572
1302,66200.0,-5.015254020690918,2.6629507541656494,3.8097734451293945
1303,66300.0,-5.015254020690918,2.6629507541656494,3.8097734451293945
1304,66400.0,5.203797340393066,-10.841544151306152,2.780266761779785
1305,66500.0,-4.00849199295044,-13.654131889343262,-3.9001545906066895
1306,66600.0,-4.00849199295044,-13.654131889343262,-3.9001545906066895
1307,66700.0,10.946290016174316,-19.203292846679688,-17.580024719238278
1308,66800.0,10.946290016174316,-19.203292846679688,-17.580024719238278
1309,66900.0,-5.524620532989502,1.6502034664154053,1.558625340461731
1310,67000.0,-5.524620532989502,1.6502034664154053,1.558625340461731
1311,67100.0,5.3360772132873535,-8.92917537689209,0.4944026470184326
1312,67200.0,5.3360772132873535,-8.92917537689209,0.4944026470184326
1313,67300.0,-3.525461912155152,-4.325724124908446,2.118868589401245
1314,67400.0,12.289437294006348,-17.08262825012207,1.3180080652236938
1315,67500.0,12.289437294006348,-17.08262825012207,1.3180080652236938
1316,67600.0,-4.859631061553955,-4.307767391204834,-1.4131776094436646
1317,67700.0,-4.859631061553955,-4.307767391204834,-1.4131776094436646
1318,67800.0,19.607913970947266,-16.144102096557614,10.74218463897705
1319,67900.0,19.607913970947266,-16.144102096557614,10.74218463897705
1320,66000.0,4.689043998718262,-16.109386444091793,-5.054758548736572
1321,66100.0,4.689043998718262,-16.109386444091793,-5.054758548736572
1322,66200.0,-5.015254020690918,2.6629507541656494,3.8097734451293945
1323,66300.0,-5.015254020690918,2.6629507541656494,3.8097734451293945
1324,66400.0,5.203797340393066,-10.841544151306152,2.780266761779785
1325,66500.0,-4.00849199295044,-13.654131889343262,-3.9001545906066895
1326,66600.0,-4.00849199295044,-13.654131889343262,-3.9001545906066895
1327,66700.0,10.946290016174316,-19.203292846679688,-17.580024719238278
1328,66800.0,10.946290016174316,-19.203292846679688,-17.580024719238278
1329,66900.0,-5.524620532989502,1.6502034664154053,1.558625340461731
1330,67000.0,-5.524620532989502,1.6502034664154053,1.558625340461731
1331,67100.0,5.3360772132873535,-8.92917537689209,0.4944026470184326
1332,67200.0,5.3360772132873535,-8.92917537689209,0.4944026470184326
1333,67300.0,-3.525461912155152,-4.325724124908446,2.118868589401245
1334,67400.0,12.289437294006348,-17.08262825012207,1.3180080652236938
1335,67500.0,12.289437294006348,-17.08262825012207,1.3180080652236938
1336,67600.0,-4.859631061553955,-4.307767391204834,-1.4131776094436646
1337,67700.0,-4.859631061553955,-4.307767391204834,-1.4131776094436646
1338,67800.0,19.607913970947266,-16.144102096557614,10.74218463897705
1339,67900.0,19.607913970947266,-16.144102096557614,10.74218463897705
1340,68000.0,-1.3449428081512451,10.99896240234375,9.314641952514648
1341,68100.0,-1.3449428081512451,10.99896240234375,9.314641952514648
1342,68200.0,11.068992614746094,-5.361216068267822,2.0919337272644043
1343,68300.0,-3.5140895843505864,-7.322665691375732,-0.3166331648826599
1344,68400.0,-3.5140895843505864,-7.322665691375732,-0.3166331648826599
1345,68500.0,19.586963653564453,-19.608510971069336,9.127894401550293
1346,68600.0,19.586963653564453,-19.608510971069336,9.127894401550293
1347,68700.0,-1.2539631128311155,7.459733963012695,-3.138798475265503
1348,68800.0,-1.2539631128311155,7.459733963012695,-3.138798475265503
1349,68900.0,5.568314552307129,-3.6008794307708736,9.865906715393066
1350,69000.0,5.568314552307129,-3.6008794307708736,9.865906715393066
1351,69100.0,-3.8839936256408687,-8.65982723236084,1.294066071510315
1352,69200.0,-1.7705121040344238,-2.492363929748535,-0.761954665184021
1353,69300.0,-1.7705121040344238,-2.492363929748535,-0.761954665184021
1354,69400.0,4.720168590545653,-0.2370259612798691,-2.7269957065582275
1355,69500.0,4.720168590545653,-0.2370259612798691,-2.7269957065582275
1356,69600.0,19.38764762878418,-17.163433074951172,-6.586448669433594
1357,69700.0,19.38764762878418,-17.163433074951172,-6.586448669433594
1358,69800.0,-0.8361749649047852,-13.43985080718994,-3.729567766189575
1359,69900.0,-0.8361749649047852,-13.43985080718994,-3.729567766189575
1360,68000.0,-1.3449428081512451,10.99896240234375,9.314641952514648
1361,68100.0,-1.3449428081512451,10.99896240234375,9.314641952514648
1362,68200.0,11.068992614746094,-5.361216068267822,2.0919337272644043
1363,68300.0,-3.5140895843505864,-7.322665691375732,-0.3166331648826599
1364,68400.0,-3.5140895843505864,-7.322665691375732,-0.3166331648826599
1365,68500.0,19.586963653564453,-19.608510971069336,9.127894401550293
1366,68600.0,19.586963653564453,-19.608510971069336,9.127894401550293
1367,68700.0,-1.2539631128311155,7.459733963012695,-3.138798475265503
1368,68800.0,-1.2539631128311155,7.459733963012695,-3.138798475265503
1369,68900.0,5.568314552307129,-3.6008794307708736,9.865906715393066
1370,69000.0,5.568314552307129,-3.6008794307708736,9.865906715393066
1371,69100.0,-3.8839936256408687,-8.65982723236084,1.294066071510315
1372,69200.0,-1.7705121040344238,-2.492363929748535,-0.761954665184021
1373,69300.0,-1.7705121040344238,-2.492363929748535,-0.761954665184021
1374,69400.0,4.720168590545653,-0.2370259612798691,-2.7269957065582275
1375,69500.0,4.720168590545653,-0.2370259612798691,-2.7269957065582275
1376,69600.0,19.38764762878418,-17.163433074951172,-6.586448669433594
1377,69700.0,19.38764762878418,-17.163433074951172,-6.586448669433594
1378,69800.0,-0.8361749649047852,-13.43985080718994,-3.729567766189575
1379,69900.0,-0.8361749649047852,-13.43985080718994,-3.729567766189575
1380,70000.0,-3.971382141113281,-1.5646108388900757,-1.2868833541870115
1381,70100.0,6.545148849487305,-8.025363922119139,-1.315613865852356
1382,70200.0,6.545148849487305,-8.025363922119139,-1.315613865852356
1383,70300.0,4.126406669616698,-8.103774070739746,-1.204882025718689
1384,70400.0,4.126406669616698,-8.103774070739746,-1.204882025718689
1385,70500.0,-0.18136078119277954,-17.903841018676758,-2.6761188507080083
1386,70600.0,-0.18136078119277954,-17.903841018676758,-2.6761188507080083
1387,70700.0,-8.696937561035156,-1.1222820281982422,3.957615375518799
1388,70800.0,-8.696937561035156,-1.1222820281982422,3.957615375518799
1389,70900.0,5.039196014404297,-11.291653633117676,0.08140286058187485
1390,71000.0,-2.534262418746948,-5.9280433654785165,-3.399766445159912
1391,71100.0,-2.534262418746948,-5.9280433654785165,-3.399766445159912
1392,71200.0,8.333019256591799,-19.094955444335934,-6.356605529785156
1393,71300.0,8.333019256591799,-19.094955444335934,-6.356605529785156
1394,71400.0,-5.918466567993164,2.4588451385498047,1.5454572439193726
1395,71500.0,-5.918466567993164,2.4588451385498047,1.5454572439193726
1396,71600.0,5.524620532989502,-9.205705642700195,0.6925228238105774
1397,71700.0,5.524620532989502,-9.205705642700195,0.6925228238105774
1398,71800.0,-4.313753128051759,-10.084976196289064,-4.6956281661987305
1399,71900.0,12.135011672973633,-19.608510971069336,-2.844910144805908
1400,70000.0,-3.971382141113281,-1.5646108388900757,-1.2868833541870115
1401,70100.0,6.545148849487305,-8.025363922119139,-1.315613865852356
1402,70200.0,6.545148849487305,-8.025363922119139,-1.315613865852356
1403,70300.0,4.126406669616698,-8.103774070739746,-1.204882025718689
1404,70400.0,4.126406669616698,-8.103774070739746,-1.204882025718689
1405,70500.0,-0.18136078119277954,-17.903841018676758,-2.6761188507080083
1406,70600.0,-0.18136078119277954,-17.903841018676758,-2.6761188507080083
1407,70700.0,-8.696937561035156,-1.1222820281982422,3.957615375518799
1408,70800.0,-8.696937561035156,-1.1222820281982422,3.957615375518799
1409,70900.0,5.039196014404297,-11.291653633117676,0.08140286058187485
1410,71000.0,-2.534262418746948,-5.9280433654785165,-3.399766445159912
1411,71100.0,-2.534262418746948,-5.9280433654785165,-3.399766445159912
1412,71200.0,8.333019256591799,-19.094955444335934,-6.356605529785156
1413,71300.0,8.333019256591799,-19.094955444335934,-6.356605529785156
1414,71400.0,-5.918466567993164,2.4588451385498047,1.5454572439193726
1415,71500.0,-5.918466567993164,2.4588451385498047,1.5454572439193726
1416,71600.0,5.524620532989502,-9.205705642700195,0.6925228238105774
1417,71700.0,5.524620532989502,-9.205705642700195,0.6925228238105774
1418,71800.0,-4.313753128051759,-10.084976196289064,-4.6956281661987305
1419,71900.0,12.135011672973633,-19.608510971069336,-2.844910144805908
1420,72000.0,12.135011672973633,-19.608510971069336,-2.844910144805908
1421,72100.0,-4.397550106048584,-0.13706804811954498,-2.6455929279327397
1422,72200.0,-4.397550106048584,-0.13706804811954498,-2.6455929279327397
1423,72300.0,19.597139358520508,-4.725555419921875,5.486313343048097
1424,72400.0,19.597139358520508,-4.725555419921875,5.486313343048097
1425,72500.0,-1.1779472827911377,4.0988731384277335,2.58813214302063
1426,72600.0,-1.1779472827911377,4.0988731384277335,2.58813214302063
1427,72700.0,12.884995460510256,-19.559431076049805,-6.060921669006348
1428,72800.0,-2.936488389968872,-1.1899182796478271,-0.951695203781128
1429,72900.0,-2.936488389968872,-1.1899182796478271,-0.951695203781128
1430,73000.0,19.607913970947266,-19.608510971069336,-11.003152847290039
1431,73100.0,19.607913970947266,-19.608510971069336,-11.003152847290039
1432,73200.0,-1.016338586807251,7.169436931610107,-0.2621650993824005
1433,73300.0,-1.016338586807251,7.169436931610107,-0.2621650993824005
1434,73400.0,6.718728542327881,-3.4410665035247803,0.6745663285255432
1435,73500.0,6.718728542327881,-3.4410665035247803,0.6745663285255432
1436,73600.0,-3.1812953948974614,-5.740098476409912,4.8285064697265625
1437,73700.0,10.746374130249023,-19.608510971069336,6.9485716819763175
1438,73800.0,10.746374130249023,-19.608510971069336,6.9485716819763175
1439,73900.0,4.569334030151367,5.637147903442383,-1.2611457109451294
1440,72000.0,12.135011672973633,-19.608510971069336,-2.844910144805908
1441,72100.0,-4.397550106048584,-0.13706804811954498,-2.6455929279327397
1442,72200.0,-4.397550106048584,-0.13706804811954498,-2.6455929279327397
1443,72300.0,19.597139358520508,-4.725555419921875,5.486313343048097
1444,72400.0,19.597139358520508,-4.725555419921875,5.486313343048097
1445,72500.0,-1.1779472827911377,4.0988731384277335,2.58813214302063
1446,72600.0,-1.1779472827911377,4.0988731384277335,2.58813214302063
1447,72700.0,12.884995460510256,-19.559431076049805,-6.060921669006348
1448,72800.0,-2.936488389968872,-1.1899182796478271,-0.951695203781128
1449,72900.0,-2.936488389968872,-1.1899182796478271,-0.951695203781128
1450,73000.0,19.607913970947266,-19.608510971069336,-11.003152847290039
1451,73100.0,19.607913970947266,-19.608510971069336,-11.003152847290039
1452,73200.0,-1.016338586807251,7.169436931610107,-0.2621650993824005
1453,73300.0,-1.016338586807251,7.169436931610107,-0.2621650993824005
1454,73400.0,6.718728542327881,-3.4410665035247803,0.6745663285255432
1455,73500.0,6.718728542327881,-3.4410665035247803,0.6745663285255432
1456,73600.0,-3.1812953948974614,-5.740098476409912,4.8285064697265625
1457,73700.0,10.746374130249023,-19.608510971069336,6.9485716819763175
1458,73800.0,10.746374130249023,-19.608510971069336,6.9485716819763175
1459,73900.0,4.569334030151367,5.637147903442383,-1.2611457109451294
1460,74000.0,4.569334030151367,5.637147903442383,-1.2611457109451294
1461,74100.0,19.50735664367676,-19.608510971069336,-17.507600784301758
1462,74200.0,19.50735664367676,-19.608510971069336,-17.507600784301758
1463,74300.0,-0.2041056901216507,-11.165958404541016,2.145803213119507
1464,74400.0,-0.2041056901216507,-11.165958404541016,2.145803213119507
1465,74500.0,-2.175132274627685,-1.069011092185974,-1.3353660106658936
1466,74600.0,7.058106422424316,-3.892373323440552,-2.1667525768280034
1467,74700.0,7.058106422424316,-3.892373323440552,-2.1667525768280034
1468,74800.0,1.313219666481018,-3.002927541732788,-0.2669534981250763
1469,74900.0,1.313219666481018,-3.002927541732788,-0.2669534981250763
1470,75000.0,4.006696701049806,-18.349760055541992,-6.2404866218566895
1471,75100.0,4.006696701049806,-18.349760055541992,-6.2404866218566895
1472,75200.0,-10.58416748046875,-0.3250128924846649,5.279214859008789
1473,75300.0,-10.58416748046875,-0.3250128924846649,5.279214859008789
1474,75400.0,4.735132217407227,-12.254122734069824,-1.1761516332626345
1475,75500.0,-1.7651251554489136,-4.988917827606201,-2.054823637008667
1476,75600.0,-1.7651251554489136,-4.988917827606201,-2.054823637008667
1477,75700.0,6.8144965171813965,-17.83560562133789,-6.747458934783936
1478,75800.0,6.8144965171813965,-17.83560562133789,-6.747458934783936
1479,75900.0,-7.065887928009032,1.0977414846420288,4.19344425201416
1480,74000.0,4.569334030151367,5.637147903442383,-1.2611457109451294
1481,74100.0,19.50735664367676,-19.608510971069336,-17.507600784301758
1482,74200.0,19.50735664367676,-19.608510971069336,-17.507600784301758
1483,74300.0,-0.2041056901216507,-11.165958404541016,2.145803213119507
1484,74400.0,-0.2041056901216507,-11.165958404541016,2.145803213119507
1485,74500.0,-2.175132274627685,-1.069011092185974,-1.3353660106658936
1486,74600.0,7.058106422424316,-3.892373323440552,-2.1667525768280034
1487,74700.0,7.058106422424316,-3.892373323440552,-2.1667525768280034
1488,74800.0,1.313219666481018,-3.002927541732788,-0.2669534981250763
1489,74900.0,1.313219666481018,-3.002927541732788,-0.2669534981250763
1490,75000.0,4.006696701049806,-18.349760055541992,-6.2404866218566895
1491,75100.0,4.006696701049806,-18.349760055541992,-6.2404866218566895
1492,75200.0,-10.58416748046875,-0.3250128924846649,5.279214859008789
1493,75300.0,-10.58416748046875,-0.3250128924846649,5.279214859008789
1494,75400.0,4.735132217407227,-12.254122734069824,-1.1761516332626345
1495,75500.0,-1.7651251554489136,-4.988917827606201,-2.054823637008667
1496,75600.0,-1.7651251554489136,-4.988917827606201,-2.054823637008667
1497,75700.0,6.8144965171813965,-17.83560562133789,-6.747458934783936
1498,75800.0,6.8144965171813965,-17.83560562133789,-6.747458934783936
1499,75900.0,-7.065887928009032,1.0977414846420288,4.19344425201416
1500,76000.0,-7.065887928009032,1.0977414846420288,4.19344425201416
1501,76100.0,9.096769332885742,-6.746262073516847,2.0027496814727783
1502,76200.0,9.096769332885742,-6.746262073516847,2.0027496814727783
1503,76300.0,-6.143521785736084,-11.627440452575685,-3.5847184658050537
1504,76400.0,9.078214645385742,-19.608510971069336,-0.7625532150268555
1505,76500.0,9.078214645385742,-19.608510971069336,-0.7625532150268555
1506,76600.0,-5.618592739105225,-0.5776011347770691,-2.9382839202880864
1507,76700.0,-5.618592739105225,-0.5776011347770691,-2.9382839202880864
1508,76800.0,19.607913970947266,-17.180791854858402,11.859079360961914
1509,76900.0,19.607913970947266,-17.180791854858402,11.859079360961914
1510,77000.0,-0.8415619134902954,7.281964302062987,5.530007362365723
1511,77100.0,-0.8415619134902954,7.281964302062987,5.530007362365723
1512,77200.0,17.62551498413086,-18.376096725463867,0.3675099611282349
1513,77300.0,-3.5948939323425293,-2.141014814376831,0.6326677799224854
1514,77400.0,-3.5948939323425293,-2.141014814376831,0.6326677799224854
1515,77500.0,19.607913970947266,-19.608510971069336,-12.55339813232422
1516,77600.0,19.607913970947266,-19.608510971069336,-12.55339813232422
1517,77700.0,-1.1773487329483032,9.97065258026123,0.5787982344627379
1518,77800.0,-1.1773487329483032,9.97065258026123,0.5787982344627379
1519,77900.0,12.00333023071289,-5.986701488494872,7.044340133666992
1520,76000.0,-7.065887928009032,1.0977414846420288,4.19344425201416
1521,76100.0,9.096769332885742,-6.746262073516847,2.0027496814727783
1522,76200.0,9.096769332885742,-6.746262073516847,2.0027496814727783
1523,76300.0,-6.143521785736084,-11.627440452575685,-3.5847184658050537
1524,76400.0,9.078214645385742,-19.608510971069336,-0.7625532150268555
1525,76500.0,9.078214645385742,-19.608510971069336,-0.7625532150268555
1526,76600.0,-5.618592739105225,-0.5776011347770691,-2.9382839202880864
1527,76700.0,-5.618592739105225,-0.5776011347770691,-2.9382839202880864
1528,76800.0,19.607913970947266,-17.180791854858402,11.859079360961914
1529,76900.0,19.607913970947266,-17.180791854858402,11.859079360961914
1530,77000.0,-0.8415619134902954,7.281964302062987,5.530007362365723
1531,77100.0,-0.8415619134902954,7.281964302062987,5.530007362365723
1532,77200.0,17.62551498413086,-18.376096725463867,0.3675099611282349
1533,77300.0,-3.5948939323425293,-2.141014814376831,0.6326677799224854
1534,77400.0,-3.5948939323425293,-2.141014814376831,0.6326677799224854
1535,77500.0,19.607913970947266,-19.608510971069336,-12.55339813232422
1536,77600.0,19.607913970947266,-19.608510971069336,-12.55339813232422
1537,77700.0,-1.1773487329483032,9.97065258026123,0.5787982344627379
1538,77800.0,-1.1773487329483032,9.97065258026123,0.5787982344627379
1539,77900.0,12.00333023071289,-5.986701488494872,7.044340133666992
1540,78000.0,12.00333023071289,-5.986701488494872,7.044340133666992
1541,78100.0,-1.3742717504501345,-1.323395013809204,5.4934959411621085
1542,78200.0,19.607913970947266,-19.608510971069336,-5.344456672668457
1543,78300.0,19.607913970947266,-19.608510971069336,-5.344456672668457
1544,78400.0,-2.7533318996429443,4.251503467559815,-4.228160381317139
1545,78500.0,-2.7533318996429443,4.251503467559815,-4.228160381317139
1546,78600.0,4.569334030151367,-4.586691856384277,9.369110107421877
1547,78700.0,4.569334030151367,-4.586691856384277,9.369110107421877
1548,78800.0,-1.0624270439147951,-5.61799430847168,13.03164005279541
1549,78900.0,-1.0624270439147951,-5.61799430847168,13.03164005279541
1550,79000.0,-0.13287819921970367,-7.0593037605285645,0.7966706156730652
1551,79100.0,2.6443958282470703,4.779425144195557,-2.363077163696289
1552,79200.0,2.6443958282470703,4.779425144195557,-2.363077163696289
1553,79300.0,19.607913970947266,-19.608510971069336,-13.99710178375244
1554,79400.0,19.607913970947266,-19.608510971069336,-13.99710178375244
1555,79500.0,-4.898536682128906,-13.784017562866213,16.774974822998047
1556,79600.0,-4.898536682128906,-13.784017562866213,16.774974822998047
1557,79700.0,-2.894589900970459,0.7996633648872375,-1.0462661981582642
1558,79800.0,-2.894589900970459,0.7996633648872375,-1.0462661981582642
1559,79900.0,5.186439514160156,-4.725555419921875,-4.20421838760376
1560,78000.0,12.00333023071289,-5.986701488494872,7.044340133666992
1561,78100.0,-1.3742717504501345,-1.323395013809204,5.4934959411621085
1562,78200.0,19.607913970947266,-19.608510971069336,-5.344456672668457
1563,78300.0,19.607913970947266,-19.608510971069336,-5.344456672668457
1564,78400.0,-2.7533318996429443,4.251503467559815,-4.228160381317139
1565,78500.0,-2.7533318996429443,4.251503467559815,-4.228160381317139
1566,78600.0,4.569334030151367,-4.586691856384277,9.369110107421877
1567,78700.0,4.569334030151367,-4.586691856384277,9.369110107421877
1568,78800.0,-1.0624270439147951,-5.61799430847168,13.03164005279541
1569,78900.0,-1.0624270439147951,-5.61799430847168,13.03164005279541
1570,79000.0,-0.13287819921970367,-7.0593037605285645,0.7966706156730652
1571,79100.0,2.6443958282470703,4.779425144195557,-2.363077163696289
1572,79200.0,2.6443958282470703,4.779425144195557,-2.363077163696289
1573,79300.0,19.607913970947266,-19.608510971069336,-13.99710178375244
1574,79400.0,19.607913970947266,-19.608510971069336,-13.99710178375244
1575,79500.0,-4.898536682128906,-13.784017562866213,16.774974822998047
1576,79600.0,-4.898536682128906,-13.784017562866213,16.774974822998047
1577,79700.0,-2.894589900970459,0.7996633648872375,-1.0462661981582642
1578,79800.0,-2.894589900970459,0.7996633648872375,-1.0462661981582642
1579,79900.0,5.186439514160156,-4.725555419921875,-4.20421838760376
1580,80000.0,2.6414029598236084,-4.919486045837402,1.4514847993850708
1581,80100.0,2.6414029598236084,-4.919486045837402,1.4514847993850708
1582,80200.0,7.028777599334718,-16.931795120239258,-8.82442855834961
1583,80300.0,7.028777599334718,-16.931795120239258,-8.82442855834961
1584,80400.0,-8.71489429473877,1.7621324062347412,3.2992098331451416
1585,80500.0,-8.71489429473877,1.7621324062347412,3.2992098331451416
1586,80600.0,9.26675796508789,-10.72841739654541,3.117250680923462
1587,80700.0,9.26675796508789,-10.72841739654541,3.117250680923462
1588,80800.0,-5.055356979370117,-8.440159797668457,-4.64594841003418
1589,80900.0,15.143924713134766,-17.420211791992188,-0.27473464608192444
1590,81000.0,15.143924713134766,-17.420211791992188,-0.27473464608192444
1591,81100.0,-4.879981517791748,-0.15682020783424375,0.40462008118629456
1592,81200.0,-4.879981517791748,-0.15682020783424375,0.40462008118629456
1593,81300.0,19.607913970947266,-4.40892219543457,6.848613739013673
1594,81400.0,19.607913970947266,-4.40892219543457,6.848613739013673
1595,81500.0,-2.3822307586669917,12.928689002990724,9.7605619430542
1596,81600.0,-2.3822307586669917,12.928689002990724,9.7605619430542
1597,81700.0,14.350845336914064,-19.331382751464844,-8.478466987609862
1598,81800.0,14.350845336914064,-19.331382751464844,-8.478466987609862
1599,81900.0,-4.426878929138184,-3.260902643203736,-4.133589267730713
1600,80000.0,2.6414029598236084,-4.919486045837402,1.4514847993850708
1601,80100.0,2.6414029598236084,-4.919486045837402,1.4514847993850708
1602,80200.0,7.028777599334718,-16.931795120239258,-8.82442855834961
1603,80300.0,7.028777599334718,-16.931795120239258,-8.82442855834961
1604,80400.0,-8.71489429473877,1.7621324062347412,3.2992098331451416
1605,80500.0,-8.71489429473877,1.7621324062347412,3.2992098331451416
1606,80600.0,9.26675796508789,-10.72841739654541,3.117250680923462
1607,80700.0,9.26675796508789,-10.72841739654541,3.117250680923462
1608,80800.0,-5.055356979370117,-8.440159797668457,-4.64594841003418
1609,80900.0,15.143924713134766,-17.420211791992188,-0.27473464608192444
1610,81000.0,15.143924713134766,-17.420211791992188,-0.27473464608192444
1611,81100.0,-4.879981517791748,-0.15682020783424375,0.40462008118629456
1612,81200.0,-4.879981517791748,-0.15682020783424375,0.40462008118629456
1613,81300.0,19.607913970947266,-4.40892219543457,6.848613739013673
1614,81400.0,19.607913970947266,-4.40892219543457,6.848613739013673
1615,81500.0,-2.3822307586669917,12.928689002990724,9.7605619430542
1616,81600.0,-2.3822307586669917,12.928689002990724,9.7605619430542
1617,81700.0,14.350845336914064,-19.331382751464844,-8.478466987609862
1618,81800.0,14.350845336914064,-19.331382751464844,-8.478466987609862
1619,81900.0,-4.426878929138184,-3.260902643203736,-4.133589267730713
1620,82000.0,19.607913970947266,-19.608510971069336,6.269815921783447
1621,82100.0,19.607913970947266,-19.608510971069336,6.269815921783447
1622,82200.0,-0.4303577542304993,11.681309700012207,11.592724800109865
1623,82300.0,-0.4303577542304993,11.681309700012207,11.592724800109865
1624,82400.0,9.643844604492188,-7.220313549041747,3.2381577491760254
1625,82500.0,9.643844604492188,-7.220313549041747,3.2381577491760254
1626,82600.0,-2.053027868270874,-3.5553896427154537,7.74823522567749
1627,82700.0,-2.053027868270874,-3.5553896427154537,7.74823522567749
1628,82800.0,18.857929229736328,-19.608510971069336,3.642777919769287
1629,82900.0,-0.872686505317688,4.597465991973877,-4.553771495819092
1630,83000.0,-0.872686505317688,4.597465991973877,-4.553771495819092
1631,83100.0,16.090831756591793,-6.593032836914063,-0.11013327538967133
1632,83200.0,16.090831756591793,-6.593032836914063,-0.11013327538967133
1633,83300.0,-1.006163239479065,-2.6886885166168213,3.95641827583313
1634,83400.0,-1.006163239479065,-2.6886885166168213,3.95641827583313
1635,83500.0,9.362525939941406,-19.608510971069336,11.349713325500488
1636,83600.0,9.362525939941406,-19.608510971069336,11.349713325500488
1637,83700.0,-1.4203602075576782,3.5440170764923096,-4.247313976287842
1638,83800.0,13.26866626739502,-18.041507720947266,-19.554044723510746
1639,83900.0,13.26866626739502,-18.041507720947266,-19.554044723510746
1640,82000.0,19.607913970947266,-19.608510971069336,6.269815921783447
1641,82100.0,19.607913970947266,-19.608510971069336,6.269815921783447
1642,82200.0,-0.4303577542304993,11.681309700012207,11.592724800109865
1643,82300.0,-0.4303577542304993,11.681309700012207,11.592724800109865
1644,82400.0,9.643844604492188,-7.220313549041747,3.2381577491760254
1645,82500.0,9.643844604492188,-7.220313549041747,3.2381577491760254
1646,82600.0,-2.053027868270874,-3.5553896427154537,7.74823522567749
1647,82700.0,-2.053027868270874,-3.5553896427154537,7.74823522567749
1648,82800.0,18.857929229736328,-19.608510971069336,3.642777919769287
1649,82900.0,-0.872686505317688,4.597465991973877,-4.553771495819092
1650,83000.0,-0.872686505317688,4.597465991973877,-4.553771495819092
1651,83100.0,16.090831756591793,-6.593032836914063,-0.11013327538967133
1652,83200.0,16.090831756591793,-6.593032836914063,-0.11013327538967133
1653,83300.0,-1.006163239479065,-2.6886885166168213,3.95641827583313
1654,83400.0,-1.006163239479065,-2.6886885166168213,3.95641827583313
1655,83500.0,9.362525939941406,-19.608510971069336,11.349713325500488
1656,83600.0,9.362525939941406,-19.608510971069336,11.349713325500488
1657,83700.0,-1.4203602075576782,3.5440170764923096,-4.247313976287842
1658,83800.0,13.26866626739502,-18.041507720947266,-19.554044723510746
1659,83900.0,13.26866626739502,-18.041507720947266,-19.554044723510746
1660,84000.0,-3.211223125457764,-6.220734596252441,2.030282974243164
1661,84100.0,-3.211223125457764,-6.220734596252441,2.030282974243164
1662,84200.0,0.14245499670505524,-3.250727415084839,1.2324153184890747
1663,84300.0,0.14245499670505524,-3.250727415084839,1.2324153184890747
1664,84400.0,4.001309394836427,4.0354270935058585,-2.867655038833618
1665,84500.0,19.607913970947266,-17.90264320373535,-3.964797973632813
1666,84600.0,19.607913970947266,-17.90264320373535,-3.964797973632813
1667,84700.0,-1.9704279899597168,-9.456498146057127,12.082937240600586
1668,84800.0,-1.9704279899597168,-9.456498146057127,12.082937240600586
1669,84900.0,-0.8307880163192749,-1.326986312866211,-0.30047231912612915
1670,85000.0,-0.8307880163192749,-1.326986312866211,-0.30047231912612915
1671,85100.0,4.572925090789795,0.6212953329086304,-3.2824504375457764
1672,85200.0,4.572925090789795,0.6212953329086304,-3.2824504375457764
1673,85300.0,14.396933555603027,-8.935759544372559,5.157110691070557
1674,85400.0,14.396933555603027,-8.935759544372559,5.157110691070557
1675,85500.0,0.10773907601833344,-18.538902282714844,-1.321599364280701
1676,85600.0,-3.087921619415283,-1.260547161102295,1.6579847335815432
1677,85700.0,-3.087921619415283,-1.260547161102295,1.6579847335815432
1678,85800.0,3.8953661918640137,-10.553641319274902,-2.697068214416504
1679,85900.0,3.8953661918640137,-10.553641319274902,-2.697068214416504
1680,84000.0,-3.211223125457764,-6.220734596252441,2.030282974243164
1681,84100.0,-3.211223125457764,-6.220734596252441,2.030282974243164
1682,84200.0,0.14245499670505524,-3.250727415084839,1.2324153184890747
1683,84300.0,0.14245499670505524,-3.250727415084839,1.2324153184890747
1684,84400.0,4.001309394836427,4.0354270935058585,-2.867655038833618
1685,84500.0,19.607913970947266,-17.90264320373535,-3.964797973632813
1686,84600.0,19.607913970947266,-17.90264320373535,-3.964797973632813
1687,84700.0,-1.9704279899597168,-9.456498146057127,12.082937240600586
1688,84800.0,-1.9704279899597168,-9.456498146057127,12.082937240600586
1689,84900.0,-0.8307880163192749,-1.326986312866211,-0.30047231912612915
1690,85000.0,-0.8307880163192749,-1.326986312866211,-0.30047231912612915
1691,85100.0,4.572925090789795,0.6212953329086304,-3.2824504375457764
1692,85200.0,4.572925090789795,0.6212953329086304,-3.2824504375457764
1693,85300.0,14.396933555603027,-8.935759544372559,5.157110691070557
1694,85400.0,14.396933555603027,-8.935759544372559,5.157110691070557
1695,85500.0,0.10773907601833344,-18.538902282714844,-1.321599364280701
1696,85600.0,-3.087921619415283,-1.260547161102295,1.6579847335815432
1697,85700.0,-3.087921619415283,-1.260547161102295,1.6579847335815432
1698,85800.0,3.8953661918640137,-10.553641319274902,-2.697068214416504
1699,85900.0,3.8953661918640137,-10.553641319274902,-2.697068214416504
1700,86000.0,4.744110584259033,-4.8895583152771,-0.7715315222740173
1701,86100.0,4.744110584259033,-4.8895583152771,-0.7715315222740173
1702,86200.0,3.615244626998901,-16.717514038085938,-5.1804537773132315
1703,86300.0,3.615244626998901,-16.717514038085938,-5.1804537773132315
1704,86400.0,-11.692084312438965,-0.05506663769483566,7.199963092803955
1705,86500.0,5.218760967254639,-14.189834594726564,2.0949265956878658
1706,86600.0,5.218760967254639,-14.189834594726564,2.0949265956878658
1707,86700.0,-1.9698294401168823,-7.715314865112305,-2.258330821990967
1708,86800.0,-1.9698294401168823,-7.715314865112305,-2.258330821990967
1709,86900.0,12.077550888061525,-18.382680892944336,-7.204751491546631
1710,87000.0,12.077550888061525,-18.382680892944336,-7.204751491546631
1711,87100.0,-6.994660377502441,1.2653355598449707,3.3165678977966313
1712,87200.0,-6.994660377502441,1.2653355598449707,3.3165678977966313
1713,87300.0,8.49522590637207,-4.0102877616882315,-0.8415619134902954
1714,87400.0,-5.309142112731934,-10.31242561340332,0.1915361285209656
1715,87500.0,-5.309142112731934,-10.31242561340332,0.1915361285209656
1716,87600.0,8.76457405090332,-19.608510971069336,-9.85393524169922
1717,87700.0,8.76457405090332,-19.608510971069336,-9.85393524169922
1718,87800.0,-5.288193225860597,-2.099714994430542,-3.50930118560791
1719,87900.0,-5.288193225860597,-2.099714994430542,-3.50930118560791
1720,86000.0,4.744110584259033,-4.8895583152771,-0.7715315222740173
1721,86100.0,4.744110584259033,-4.8895583152771,-0.7715315222740173
1722,86200.0,3.615244626998901,-16.717514038085938,-5.1804537773132315
1723,86300.0,3.615244626998901,-16.717514038085938,-5.1804537773132315
1724,86400.0,-11.692084312438965,-0.05506663769483566,7.199963092803955
1725,86500.0,5.218760967254639,-14.189834594726564,2.0949265956878658
