timestamp,ax,ay,az
1475488843740,-6.76002836227417,-6.4200520515441895,2.2619221210479736
1475488843915,-6.384737491607666,-7.894880294799805,1.4281413555145264
1475488844096,-2.5540146827697754,-3.026869535446167,2.404376983642578
1475488844277,-3.3848025798797607,-19.02193260192871,3.796605348587036
1475488844470,4.217386245727539,-8.94773006439209,1.3419500589370728
1475488844640,4.220378875732422,-8.614935874938965,-0.053270988166332245
1475488844821,2.0213048458099365,-9.336189270019531,-3.86543869972229
1475488844998,2.8568811416625977,-11.80521011352539,0.7463923692703247
1475488845181,-2.0632033348083496,-9.98681354522705,-3.6074633598327637
1475488845361,-0.8780734539031982,-9.414599418640137,-0.09217676520347595
1475488845539,0.322618693113327,-9.90361499786377,0.023942016065120697
1475488845718,1.722628116607666,-9.340977668762207,0.10953472554683685
1475488845914,1.9853917360305786,-9.518747329711914,-0.07422025501728058
1475488846082,1.974617838859558,-9.445125579833984,0.17058686912059784
1475488846260,2.2014684677124023,-9.242217063903809,0.3758896589279175
1475488846442,1.7956513166427612,-9.21707820892334,-0.1388636976480484
1475488846621,2.0392613410949707,-9.173383712768555,-0.14185644686222076
1475488846802,1.766920804977417,-9.641449928283691,0.5500678420066833
1475488846979,2.052429437637329,-9.530119895935059,0.3776853084564209
1475488847159,2.0817582607269287,-9.619303703308105,-0.018555063754320145
1475488847339,2.316390037536621,-9.462483406066895,-0.02274491637945175
1475488847519,1.5682021379470825,-9.516951560974121,-0.14065934717655182
1475488847701,2.3487119674682617,-9.436147689819336,0.7727286219596863
1475488847883,1.746570110321045,-9.4822359085083,-0.028131870552897453
1475488848064,2.121262788772583,-9.424775123596191,0.20290859043598175
1475488848243,1.6011223793029785,-9.451709747314453,0.09397241473197937
1475488848424,2.184709072113037,-9.35654067993164,0.17477671802043915
1475488848603,1.9405004978179932,-9.40023422241211,0.08798690885305405
1475488848781,2.10210919380188,-9.421183586120605,0.10833762586116791
1475488848961,1.9321208000183105,-9.441534042358398,0.1173158809542656
1475488849151,1.9847931861877441,-9.46607494354248,0.10175357013940811
1475488849324,1.9249382019042969,-9.411606788635254,0.13587094843387604
1475488849505,2.10210919380188,-9.49001693725586,0.16579847037792206
1475488849682,1.9913772344589233,-9.3828763961792,0.152031809091568
1475488849865,2.0416555404663086,-9.427168846130371,0.16579847037792206
1475488850045,2.0009541511535645,-9.394847869873047,0.08798690885305405
1475488850226,2.0410568714141846,-9.388861656188965,0.13766659796237946
1475488850404,2.0159177780151367,-9.427168846130371,0.11312603205442429
1475488850585,2.1541829109191895,-9.390657424926758,0.2082955539226532
1475488850764,2.097320795059204,-9.391854286193848,0.25737667083740234
1475488850946,1.9907786846160889,-9.437344551086426,0.19931729137897491
1475488851126,2.030881643295288,-9.362525939941406,0.23283611238002777
1475488851306,2.120664119720459,-9.397241592407227,0.1604115068912506
1475488851486,2.0829553604125977,-9.405022621154785,0.19452889263629913
1475488851666,2.0859482288360596,-9.452906608581543,0.23044191300868988
1475488851844,2.034472942352295,-9.440337181091309,0.11013327538967133
1475488852024,1.8794482946395874,-9.373299598693848,-0.011372458189725876
1475488852209,2.5701754093170166,-9.383475303649902,0.0933738648891449
1475488852387,2.076969861984253,-9.499593734741211,0.015562310814857483
1475488852565,1.824381709098816,-9.414599418640137,0.09397241473197937
1475488852747,1.9584569931030273,-9.448118209838867,0.12689268589019775
1475488852928,1.9518729448318481,-9.411606788635254,0.1711854189634323
1475488853105,1.9524714946746826,-9.418190956115723,0.22685061395168304
1475488853286,2.0009541511535645,-9.411606788635254,0.2124854028224945
1475488853468,1.8944120407104492,-9.402628898620605,0.2298433631658554
1475488853648,1.7818846702575684,-9.453505516052246,0.1933317929506302
1475488853829,1.9728221893310547,-9.36013126373291,0.15263035893440247
1475488854006,1.7693150043487549,-9.506776809692383,0.25019407272338867
1475488854190,1.9476830959320068,-9.43135929107666,0.26156654953956604
1475488854370,1.7741034030914307,-9.46607494354248,0.2669534981250763
1475488854550,1.8076223134994507,-9.485228538513184,0.2513911724090576
1475488854750,1.8405425548553467,-9.421183586120605,0.24001872539520264
1475488854911,1.8543092012405396,-9.463082313537598,0.2711433470249176
1475488855091,1.7729063034057617,-9.460687637329102,0.30047231912612915
1475488855270,1.912368655204773,-9.451709747314453,0.2861070930957794
1475488855451,1.8782511949539185,-9.435548782348633,0.24181437492370605
1475488855629,1.8608932495117188,-9.468469619750977,0.19153612852096558
1475488855811,1.868674397468567,-9.437344551086426,0.23403321206569672
1475488855988,1.823184609413147,-9.458892822265625,0.2783259451389313
1475488856171,1.900996208190918,-9.44752025604248,0.18495208024978638
1475488856350,1.7705121040344238,-9.476848602294922,0.272938996553421
1475488856531,1.7884687185287476,-9.57321548461914,0.32860419154167175
1475488856709,1.7501614093780518,-9.446921348571777,0.24420857429504395
1475488856889,1.7244237661361694,-9.46727180480957,0.2669534981250763
1475488857072,1.9081788063049316,-9.428964614868164,0.21607670187950134
1475488857252,1.7968484163284302,-9.45410442352295,0.2579752206802368
1475488857432,1.9147628545761108,-9.433155059814453,0.12090718746185303
1475488857612,1.7615338563919067,-9.512762069702148,0.14006079733371735
1475488857793,1.8806453943252563,-9.44752025604248,0.16519992053508759
1475488857972,1.746570110321045,-9.458293914794922,0.16101007163524628
1475488858153,1.8620903491973877,-9.415796279907227,0.12749123573303223
1475488858331,2.0638017654418945,-9.424176216125488,0.13706804811954498
1475488858513,1.956661343574524,-9.445125579833984,0.1825578808784485
1475488858693,1.8842366933822632,-9.443329811096191,0.15263035893440247
1475488858874,1.8818424940109253,-9.418789863586426,0.16759411990642548
1475488859053,2.0159177780151367,-9.406219482421875,0.19273324310779572
1475488859234,1.9710265398025513,-9.436745643615723,0.1173158809542656
1475488859412,2.057217836380005,-9.449316024780273,0.13048399984836578
1475488859594,1.8812439441680908,-9.351752281188965,0.04010287672281265
1475488859772,1.9662381410598755,-9.430161476135254,0.11552023142576218
1475488859955,1.933916449546814,-9.413402557373047,0.016160860657691956
1475488860131,1.8513164520263672,-9.427168846130371,-0.15562310814857483
1475488860311,1.821987509727478,-9.479841232299805,-0.2687491476535797
1475488860496,2.3074119091033936,-9.30386734008789,0.090979665517807
1475488860674,2.3977930545806885,-9.35773754119873,0.3477577865123749
1475488860855,2.097320795059204,-9.361927032470703,-0.0011971008498221636
1475488861035,2.0446481704711914,-9.511565208435059,-0.04668693244457245
1475488861213,1.9057846069335938,-9.469666481018066,-0.028730420395731926
1475488861396,2.010530948638916,-9.389460563659668,-0.12389993667602539
1475488861576,1.9764134883880615,-9.394847869873047,-0.07661445438861847
1475488861756,1.9764134883880615,-9.451709747314453,0.13108254969120026
1475488861936,2.0410568714141846,-9.435548782348633,0.05686229094862938
1475488862114,2.049436569213867,-9.41100788116455,-0.06643909960985184
1475488862296,2.144007682800293,-9.35654067993164,-0.1149216815829277
1475488862476,2.0398597717285156,-9.457097053527832,-0.03232172131538391
1475488862656,2.070984363555908,-9.385869026184082,-0.11013327538967133
1475488862837,2.0901381969451904,-9.397241592407227,-0.07721300423145294
1475488863020,1.9698294401168823,-9.469666481018066,-0.04429273307323456
1475488863197,2.0470423698425293,-9.430760383605957,-0.033518824726343155
1475488863378,2.050035238265991,-9.394248962402344,-0.08738835901021957
1475488863555,2.1092917919158936,-9.391854286193848,-0.041299980133771896
1475488863735,2.009932279586792,-9.43375301361084,0.03890577703714371
1475488863918,1.9889830350875854,-9.439140319824219,0.08140286058187485
1475488864098,1.9183541536331177,-9.418789863586426,-0.025737667456269264
1475488864278,2.033874273300171,-9.41759204864502,0.06643909960985184
1475488864458,1.9267338514328003,-9.477447509765625,0.08259996026754379
1475488864638,2.0877439975738525,-9.427767753601074,-0.026336219161748886
1475488864817,2.0183119773864746,-9.420584678649902,0.0520738884806633
1475488864998,2.053626537322998,-9.403825759887695,-0.06643909960985184
1475488865181,2.0254945755004883,-9.38048267364502,-0.07422025501728058
1475488865360,2.051830768585205,-9.408614158630371,0.016160860657691956
1475488865541,2.0434510707855225,-9.409811019897461,-0.041299980133771896
1475488865717,1.9548656940460205,-9.430760383605957,0.06165069341659546
1475488865901,2.1308395862579346,-9.35773754119873,-0.0867898091673851
1475488866078,2.01232647895813,-9.450512886047363,0.005386953707784414
1475488866261,2.1057004928588867,-9.370306968688965,0.04369417950510979
1475488866439,1.5568296909332275,-9.591172218322754,-0.08559270948171616
1475488866622,1.9488801956176758,-9.441534042358398,-0.008379706181585789
1475488866799,1.9500772953033447,-9.448118209838867,-0.035913024097681046
1475488866981,1.9405004978179932,-9.455301284790039,0.010773907415568829
1475488867161,1.73519766330719,-9.487024307250977,-0.07481880486011505
1475488867341,1.9434932470321655,-9.466673851013184,-0.047884032130241394
1475488867517,1.9812018871307373,-9.41100788116455,-0.05626374110579491
1475488867697,1.9800047874450684,-9.452906608581543,0.0077811554074287415
1475488867878,1.8974047899246216,-9.479841232299805,0.043095629662275314
1475488868059,1.931522250175476,-9.444527626037598,-0.0347159244120121
1475488868243,1.9446903467178345,-9.456498146057129,-0.017956512048840523
1475488868422,1.63344407081604,-9.522936820983887,0.02214636653661728
1475488868603,1.9075802564620972,-9.441534042358398,0.0586579404771328
1475488868788,1.9291280508041382,-9.442731857299805,-0.10115502029657364
1475488868963,1.7513585090637207,-9.540295600891113,-0.3190273642539978
1475488869143,2.1116859912872314,-9.40023422241211,-0.09636662155389786
1475488869323,1.8596961498260498,-9.485228538513184,0.1364694982767105
1475488869503,1.9853917360305786,-9.391256332397461,-0.025737667456269264
1475488869682,2.0392613410949707,-9.451709747314453,0.013766659423708916
1475488869863,1.933916449546814,-9.454702377319336,0.02513911761343479
1475488870044,1.9195512533187866,-9.352350234985352,-0.12689268589019775
1475488870223,2.3457190990448,-9.293692588806152,-0.12509703636169434
1475488870404,2.2433669567108154,-9.369110107421875,0.05925649031996727
1475488870584,2.337339401245117,-9.346963882446289,-0.05147533491253853
1475488870764,2.0632033348083496,-9.434351921081543,-0.20769700407981873
1475488870944,2.1978771686553955,-9.445724487304688,0.07781155407428741
1475488871125,2.1278467178344727,-9.422380447387695,-0.004788403399288654
1475488871305,2.0380642414093018,-9.415796279907227,0.018555063754320145
1475488871485,1.9764134883880615,-9.537900924682617,0.0933738648891449
1475488871665,2.387617588043213,-9.323619842529297,-0.13048399984836578
1475488871843,2.369062662124634,-9.558850288391113,0.21368250250816345
1475488872053,2.1493945121765137,-9.47265911102295,0.008978256024420261
1475488872206,2.207453966140747,-9.362525939941406,0.020350715145468712
1475488872386,1.9105730056762695,-9.45410442352295,0.07541735470294952
1475488872564,2.4863784313201904,-9.362525939941406,-0.12988543510437012
1475488872746,1.8058266639709473,-9.551069259643555,0.13766659796237946
1475488872927,1.977012038230896,-9.500192642211914,-0.03411737456917763
1475488873104,1.9045875072479248,-9.534309387207031,0.02274491637945175
1475488873287,2.2014684677124023,-9.426570892333984,0.08858546614646912
1475488873465,2.005143880844116,-9.446921348571777,0.15741875767707825
1475488873646,1.9518729448318481,-9.4636812210083,-0.11013327538967133
1475488873827,2.2846670150756836,-9.433155059814453,-0.09277531504631042
1475488874007,2.0835540294647217,-9.419387817382813,0.08978256583213806
1475488874186,2.3020248413085938,-9.37629222869873,0.06584054976701736
1475488874366,2.2589292526245117,-9.30386734008789,-0.11671733111143112
1475488874546,2.297835111618042,-9.346963882446289,-0.10893617570400238
1475488874726,2.3948001861572266,-9.375694274902344,0.017956512048840523
1475488874907,2.097919225692749,-9.37389850616455,-0.061052143573760986
1475488875086,2.185906171798706,-9.349956512451172,0.27234044671058655
1475488875266,2.3307554721832275,-9.359533309936523,0.2603694200515747
1475488875448,2.182314872741699,-9.232640266418457,0.0999579206109047
1475488875630,1.9620482921600342,-9.405022621154785,0.35015198588371277
1475488875809,2.0248961448669434,-9.43135929107666,0.26755204796791077
1475488875990,2.2469582557678223,-9.387065887451172,0.018555063754320145
1475488876170,2.0679917335510254,-9.379883766174316,0.0293289702385664
1475488876350,2.1499931812286377,-9.37629222869873,-0.28131869435310364
1475488876530,2.292448043823242,-9.371503829956055,-0.11971008777618408
1475488876711,2.5037364959716797,-9.3643217086792,-0.27234044671058655
1475488876890,1.713649868965149,-9.443928718566895,-0.10055647045373917
1475488877071,2.3780407905578613,-9.291297912597656,-0.3627215623855591
1475488877250,2.3062148094177246,-9.38048267364502,-0.1628057211637497
1475488877431,2.2649147510528564,-9.385869026184082,0.07900865375995636
1475488877610,2.4127566814422607,-9.41639518737793,0.026336219161748886
1475488877792,2.521692991256714,-9.275735855102539,-0.2472013235092163
1475488877971,2.0608091354370117,-9.445125579833984,-0.0867898091673851
1475488878151,2.1302409172058105,-9.312846183776855,-0.16340427100658417
1475488878332,2.034472942352295,-9.406818389892578,0.04369417950510979
1475488878511,2.3038206100463867,-9.297284126281738,-0.25438392162323
1475488878694,2.126051187515259,-9.355342864990234,-0.07062894850969315
1475488878872,2.209848165512085,-9.39245319366455,0.06224924325942993
1475488879052,2.403179883956909,-9.406818389892578,0.20051439106464386
1475488879233,2.0620062351226807,-9.422979354858398,-0.05386953800916672
1475488879413,2.3912088871002197,-9.29189682006836,-0.14903905987739563
1475488879593,2.163161277770996,-9.460687637329102,0.284311443567276
1475488879773,2.297236442565918,-9.439140319824219,0.08858546614646912
1475488879951,2.318185806274414,-9.35654067993164,-0.0586579404771328
1475488880133,2.3295583724975586,-9.304466247558594,-0.04010287672281265
1475488880313,2.276287317276001,-9.337387084960938,-0.03651157766580582
1475488880494,2.16495680809021,-9.41519832611084,-0.04249707981944084
1475488880673,2.363675594329834,-9.320028305053711,-0.050876785069704056
1475488880854,2.2846670150756836,-9.35773754119873,-0.10594342648983002
1475488881033,2.258330821990967,-9.367912292480469,0.0035913025494664907
1475488881215,2.252345323562622,-9.309853553771973,-0.0867898091673851
1475488881394,2.18770170211792,-9.406818389892578,-0.018555063754320145
1475488881575,2.1924901008605957,-9.365518569946289,0.02513911761343479
1475488881753,2.2200236320495605,-9.352949142456055,0.0293289702385664
1475488881935,2.214038133621216,-9.348758697509766,-0.05027823522686958
1475488882115,2.165555477142334,-9.424775123596191,-0.011372458189725876
1475488882295,2.2451627254486084,-9.331999778747559,-0.09876082092523575
1475488882475,2.1152772903442383,-9.418789863586426,0.07960720360279083
1475488882655,2.1793220043182373,-9.38048267364502,-0.05446808785200119
1475488882836,2.255936622619629,-9.354744911193848,-0.07841010391712189
1475488883015,2.1362264156341553,-9.485228538513184,0.0933738648891449
1475488883196,2.1984755992889404,-9.354744911193848,-0.02513911761343479
1475488883376,2.049436569213867,-9.425373077392578,0.11013327538967133
1475488883556,2.1787235736846924,-9.348160743713379,0.020350715145468712
1475488883735,2.1793220043182373,-9.354146003723145,-0.004788403399288654
1475488883917,2.099116325378418,-9.41519832611084,0.05985504388809204
1475488884096,2.233790159225464,-9.379883766174316,0.038307227194309235
1475488884277,2.1751322746276855,-9.37748908996582,0.010773907415568829
1475488884455,2.139817714691162,-9.394847869873047,-0.03531447425484657
1475488884636,2.1960813999176025,-9.382277488708496,0.004189853090792894
1475488884817,2.1308395862579346,-9.424775123596191,0.055665191262960434
1475488884995,2.273294448852539,-9.384073257446289,-0.035913024097681046
1475488885177,2.2236149311065674,-9.37629222869873,-0.047884032130241394
1475488885356,2.1535844802856445,-9.37389850616455,0.13048399984836578
1475488885536,2.1811177730560303,-9.388861656188965,-0.04908113554120064
1475488885715,1.977012038230896,-9.50498104095459,-0.2801215946674347
1475488885898,2.1098902225494385,-9.256582260131836,-0.07122749835252762
1475488886080,2.056020736694336,-9.636661529541016,-0.11552023142576218
1475488886258,1.9081788063049316,-9.445724487304688,-0.32620999217033386
1475488886440,2.29484224319458,-9.3828763961792,0.09157821536064148
1475488886619,2.182314872741699,-9.39245319366455,-0.09157821536064148
1475488886799,2.1733365058898926,-9.383475303649902,0.046088382601737976
1475488886980,2.1745336055755615,-9.370306968688965,0.058059390634298325
1475488887157,2.052429437637329,-9.458892822265625,0.019153613597154617
1475488887341,2.0614075660705566,-9.437943458557129,0.019153613597154617
1475488887521,2.2212207317352295,-9.348758697509766,-0.07900865375995636
1475488887701,2.182913303375244,-9.366117477416992,-0.14784196019172668
1475488887877,2.0871453285217285,-9.415796279907227,0.07960720360279083
1475488888056,2.123058319091797,-9.382277488708496,-0.05626374110579491
1475488888236,2.1577742099761963,-9.396044731140137,-0.002394201699644327
1475488888417,2.1152772903442383,-9.426570892333984,0.03411737456917763
1475488888602,2.0254945755004883,-9.456498146057129,-0.0011971008498221636
1475488888779,2.2218191623687744,-9.368511199951172,0.04249707981944084
1475488888961,2.1769278049468994,-9.397241592407227,0.06344634294509888
1475488889140,2.1775264739990234,-9.361927032470703,-0.04429273307323456
1475488889322,2.2649147510528564,-9.424775123596191,0.14844051003456116
1475488889501,2.2685060501098633,-9.361329078674316,0.04369417950510979
1475488889682,2.1487960815429688,-9.425971984863281,0.1825578808784485
1475488889862,2.1062989234924316,-9.41400146484375,0.05925649031996727
1475488890043,2.163759708404541,-9.391854286193848,0.11911153793334961
1475488890223,2.1368250846862793,-9.400833129882813,0.06524199992418289
1475488890402,2.1571757793426514,-9.388263702392578,0.09935937076807022
1475488890583,2.094327926635742,-9.437943458557129,0.1693897694349289
1475488890760,2.182314872741699,-9.525331497192383,0.36750996112823486
1475488890943,2.3696610927581787,-9.263166427612305,-0.13407529890537262
1475488891123,2.0691888332366943,-9.399636268615723,0.2968810200691223
1475488891303,2.1350293159484863,-9.354744911193848,-0.02992752194404602
1475488891483,2.1098902225494385,-9.357138633728027,0.0867898091673851
1475488891663,2.363077163696289,-9.326014518737793,-0.12689268589019775
1475488891843,2.293046712875366,-9.397241592407227,-0.002992752008140087
1475488892024,2.3564929962158203,-9.303269386291504,-0.18914192914962769
1475488892204,2.1045033931732178,-9.412803649902344,-0.13706804811954498
1475488892385,2.2685060501098633,-9.348160743713379,-0.05686229094862938
1475488892564,2.2248120307922363,-9.402628898620605,0.02274491637945175
1475488892744,2.1074960231781006,-9.422380447387695,0.10055647045373917
1475488892922,2.275688648223877,-9.39903736114502,0.03890577703714371
1475488893107,2.253542423248291,-9.44871711730957,0.29807811975479126
1475488893285,2.049436569213867,-9.369708061218262,0.0694318488240242
1475488893465,2.160767078399658,-9.441534042358398,0.17238251864910126
1475488893645,2.1978771686553955,-9.416994094848633,0.0077811554074287415
1475488893826,2.2643163204193115,-9.372700691223145,0.015562310814857483
1475488894006,2.206256866455078,-9.347561836242676,-0.0065840547904372215
1475488894186,2.1751322746276855,-9.41759204864502,0.043095629662275314
1475488894366,2.165555477142334,-9.396642684936523,0.11851298063993454
1475488894546,2.057217836380005,-9.459490776062012,0.1843535304069519
1475488894725,2.251148223876953,-9.360730171203613,-0.0347159244120121
1475488894907,2.211643934249878,-9.379883766174316,-0.016160860657691956
1475488895086,2.142810583114624,-9.418789863586426,0.08379705995321274
1475488895265,2.1954829692840576,-9.369708061218262,-0.09038111567497253
1475488895447,2.054823637008667,-9.433155059814453,0.1628057211637497
1475488895627,2.1284453868865967,-9.411606788635254,0.0347159244120121
1475488895807,2.1356279850006104,-9.376891136169434,-0.0011971008498221636
1475488895988,2.1098902225494385,-9.396044731140137,0.08858546614646912
1475488896166,2.232593059539795,-9.345766067504883,0.05626374110579491
1475488896348,2.274491548538208,-9.353547096252441,0.04668693244457245
1475488896528,2.1350293159484863,-9.390657424926758,0.030526071786880493
1475488896708,2.1284453868865967,-9.43255615234375,0.0802057534456253
1475488896888,2.27209734916687,-9.336189270019531,0.04369417950510979
1475488897069,2.161365509033203,-9.3643217086792,0.0071826050989329815
1475488897248,2.2248120307922363,-9.37389850616455,0.028730420395731926
1475488897426,2.1763293743133545,-9.374496459960938,0.06464344263076782
1475488897605,2.20924973487854,-9.345766067504883,0.04967968538403511
1475488897789,2.231395959854126,-9.346364974975586,0.06823474913835526
1475488897970,2.169146776199341,-9.398438453674316,0.046088382601737976
1475488898151,2.182314872741699,-9.4014310836792,0.01735796220600605
1475488898330,2.1996726989746094,-9.34037971496582,-0.0520738884806633
1475488898511,2.1745336055755615,-9.436745643615723,0.17477671802043915
1475488898690,2.181716203689575,-9.384672164916992,0.13766659796237946
1475488898871,2.208052635192871,-9.260173797607422,-0.15023615956306458
1475488899051,2.0416555404663086,-9.440337181091309,0.2621650993824005
1475488899231,2.1966800689697266,-9.34397029876709,0.11851298063993454
1475488899411,2.1314380168914795,-9.394248962402344,0.13587094843387604
1475488899591,2.2224178314208984,-9.330204010009766,0.10295066982507706
1475488899771,2.029085874557495,-9.367912292480469,-0.03531447425484657
1475488899950,2.053027868270874,-9.393052101135254,0.10474632680416107
1475488900130,2.1164743900299072,-9.41759204864502,0.01735796220600605
1475488900312,2.079364061355591,-9.409213066101074,0.24121582508087158
1475488900491,2.3092074394226074,-9.422979354858398,-0.09397241473197937
1475488900672,2.2433669567108154,-9.306262016296387,-0.22685061395168304
1475488900852,2.3582887649536133,-9.35773754119873,-0.12988543510437012
1475488901032,2.316390037536621,-9.369708061218262,0.15083470940589905
1475488901212,2.2577321529388428,-9.420584678649902,-0.004189853090792894
1475488901393,2.27209734916687,-9.338583946228027,-0.023942016065120697
1475488901572,2.342726469039917,-9.294290542602539,-0.07781155407428741
1475488901751,2.232593059539795,-9.376891136169434,0.03770867735147476
1475488901933,2.250549554824829,-9.376891136169434,-0.030526071786880493
1475488902113,2.2188265323638916,-9.424176216125488,-0.01496376097202301
1475488902293,2.2152352333068848,-9.37629222869873,-0.035913024097681046
1475488902473,2.1517887115478516,-9.389460563659668,-0.03890577703714371
1475488902654,2.1703438758850098,-9.362525939941406,-0.008978256024420261
1475488902832,2.2415714263916016,-9.354744911193848,0.10055647045373917
1475488903014,2.3145945072174072,-9.339181900024414,-0.02693476900458336
1475488903193,2.236783027648926,-9.364919662475586,-0.05626374110579491
1475488903375,2.274491548538208,-9.358335494995117,0.05626374110579491
1475488903554,2.2457611560821533,-9.373299598693848,0.014365210197865963
1475488903734,2.318784236907959,-9.331400871276855,-0.020350715145468712
1475488903915,2.2379801273345947,-9.41100788116455,0.0077811554074287415
1475488904096,2.3546974658966064,-9.315838813781738,-0.06823474913835526
1475488904275,2.166752576828003,-9.378686904907227,0.18734627962112427
1475488904456,2.23199462890625,-9.349956512451172,0.1388636976480484
1475488904635,2.2667105197906494,-9.345766067504883,0.06344634294509888
1475488904814,2.229001760482788,-9.413402557373047,0.06344634294509888
1475488904993,2.2858641147613525,-9.321226119995117,-0.012569558806717396
1475488905176,2.278681516647339,-9.349956512451172,0.02214636653661728
1475488905354,2.2918496131896973,-9.348160743713379,0.03232172131538391
1475488905537,2.2176294326782227,-9.349357604980469,-0.07960720360279083
1475488905714,2.234388828277588,-9.349956512451172,-0.03651157766580582
1475488905896,2.2643163204193115,-9.336788177490234,-0.015562310814857483
1475488906075,2.248155355453491,-9.318233489990234,-0.12689268589019775
1475488906255,2.294243812561035,-9.34397029876709,0.08379705995321274
1475488906435,2.160767078399658,-9.381080627441406,0.13108254969120026
1475488906618,2.1781249046325684,-9.425971984863281,0.09277531504631042
1475488906795,2.23199462890625,-9.358335494995117,-0.076015904545784
1475488906978,2.1912930011749268,-9.361927032470703,0.028131870552897453
1475488907158,2.206855535507202,-9.35893440246582,0.06165069341659546
1475488907338,2.2248120307922363,-9.384672164916992,0.0694318488240242
1475488907518,2.1745336055755615,-9.36013126373291,0.013168109580874443
1475488907699,2.1775264739990234,-9.402029991149902,0.041299980133771896
1475488907877,2.2475569248199463,-9.360730171203613,-0.05267243832349777
1475488908060,2.1996726989746094,-9.405022621154785,0.11133038252592087
1475488908239,2.2146365642547607,-9.338583946228027,0.023343466222286224
1475488908415,2.1984755992889404,-9.369110107421875,0.04249707981944084
1475488908595,2.293046712875366,-9.342175483703613,0.019153613597154617
1475488908776,2.236783027648926,-9.363722801208496,0.05446808785200119
1475488908959,2.2212207317352295,-9.358335494995117,0.04728548228740692
1475488909140,2.205059766769409,-9.374496459960938,0.035913024097681046
1475488909320,2.2212207317352295,-9.370306968688965,0.01975216343998909
1475488909501,2.189497470855713,-9.37748908996582,0.06643909960985184
1475488909681,2.1960813999176025,-9.333196640014648,0.03711012750864029
1475488909860,2.1739351749420166,-9.39903736114502,0.09397241473197937
1475488910042,2.2703018188476563,-9.35893440246582,0.061052143573760986
1475488910221,2.190694570541382,-9.376891136169434,0.12629413604736328
1475488910401,2.138620615005493,-9.4014310836792,0.09816227108240128
1475488910581,2.236783027648926,-9.330802917480469,0.07541735470294952
1475488910761,2.0661959648132324,-9.451709747314453,0.01496376097202301
1475488910942,2.2230162620544434,-9.340977668762207,-0.04908113554120064
1475488911121,2.094327926635742,-9.422380447387695,0.1388636976480484
1475488911302,2.189497470855713,-9.395445823669434,0.0293289702385664
1475488911481,2.2625205516815186,-9.3643217086792,0.08439560979604721
1475488911662,2.236783027648926,-9.3828763961792,0.013766659423708916
1475488911842,2.23199462890625,-9.347561836242676,-0.07960720360279083
1475488912023,2.253542423248291,-9.349357604980469,0.06524199992418289
1475488912202,2.2840683460235596,-9.365518569946289,-0.01496376097202301
1475488912383,2.189497470855713,-9.406818389892578,0.09576806426048279
1475488912562,2.1984755992889404,-9.366117477416992,0.10893617570400238
1475488912743,2.2463598251342773,-9.34157657623291,0.023942016065120697
1475488912923,2.138620615005493,-9.407417297363281,0.0802057534456253
1475488913104,2.2846670150756836,-9.337387084960938,-0.01496376097202301
1475488913285,2.2152352333068848,-9.360730171203613,0.055665191262960434
1475488913463,2.203263998031616,-9.369708061218262,0.07661445438861847
1475488913646,2.2589292526245117,-9.337387084960938,0.010773907415568829
1475488913822,2.16495680809021,-9.37509536743164,0.05027823522686958
1475488914004,2.2373814582824707,-9.373299598693848,0.11611878126859665
1475488914184,2.1990742683410645,-9.379883766174316,0.07062894850969315
1475488914365,2.2176294326782227,-9.369708061218262,0.04249707981944084
1475488914545,2.18770170211792,-9.394847869873047,0.0736217051744461
1475488914725,2.2230162620544434,-9.36013126373291,0.03531447425484657
1475488914905,2.205658197402954,-9.39245319366455,0.12509703636169434
1475488915082,2.1978771686553955,-9.409213066101074,0.03950432687997818
1475488915266,2.1966800689697266,-9.3828763961792,0.07302315533161163
1475488915443,2.249951124191284,-9.346963882446289,0.10594342648983002
1475488915626,2.164358377456665,-9.363722801208496,0.07422025501728058
1475488915804,2.1972784996032715,-9.379883766174316,0.11911153793334961
1475488915986,2.249951124191284,-9.353547096252441,0.12210428714752197
1475488916166,2.1793220043182373,-9.381080627441406,-0.008978256024420261
1475488916347,2.1960813999176025,-9.34037971496582,0.05027823522686958
1475488916524,2.255936622619629,-9.384073257446289,0.09696517139673233
1475488916707,2.188300371170044,-9.379284858703613,0.06763619929552078
1475488916887,2.2643163204193115,-9.345766067504883,-0.004788403399288654
1475488917067,2.183511972427368,-9.39903736114502,0.0867898091673851
1475488917244,2.209848165512085,-9.404424667358398,0.10055647045373917
1475488917429,2.340930700302124,-9.367912292480469,0.03770867735147476
1475488917607,2.273294448852539,-9.372700691223145,0.10474632680416107
1475488917788,2.2403743267059326,-9.345168113708496,0.06165069341659546
1475488917968,2.3523032665252686,-9.371503829956055,-0.009576806798577309
1475488918148,1.591545581817627,-9.517550468444824,0.043095629662275314
1475488918328,2.2643163204193115,-9.381080627441406,0.03172317147254944
1475488918507,2.1565771102905273,-9.404424667358398,-0.008379706181585789
1475488918688,2.210446834564209,-9.345168113708496,-0.07661445438861847
1475488918866,2.1505916118621826,-9.394248962402344,-0.0293289702385664
1475488919050,2.186504602432251,-9.384672164916992,-0.08200141042470932
1475488919229,2.1954829692840576,-9.374496459960938,0.05686229094862938
1475488919410,2.1320366859436035,-9.411606788635254,0.02454056777060032
1475488919590,2.233191728591919,-9.367314338684082,0.015562310814857483
1475488919770,2.2840683460235596,-9.324816703796387,0.17836803197860718
1475488919948,2.1966800689697266,-9.314043045043945,-0.03950432687997818
1475488920126,2.0649988651275635,-9.418789863586426,0.06643909960985184
1475488920311,2.2026655673980713,-9.370905876159668,0.014365210197865963
1475488920491,2.1763293743133545,-9.400833129882813,0.03950432687997818
1475488920671,2.2637176513671875,-9.362525939941406,-0.04429273307323456
1475488920850,2.1529858112335205,-9.3828763961792,-0.013168109580874443
1475488921031,2.234388828277588,-9.363123893737793,0.11312603205442429
1475488921211,2.1769278049468994,-9.393052101135254,0.03890577703714371
1475488921391,2.2014684677124023,-9.371503829956055,0.05147533491253853
1475488921571,2.1164743900299072,-9.434351921081543,0.17537526786327362
1475488921752,2.1930887699127197,-9.375694274902344,0.023942016065120697
1475488921931,2.1727380752563477,-9.3828763961792,0.009576806798577309
1475488922111,2.2200236320495605,-9.355342864990234,0.055665191262960434
1475488922290,2.162562608718872,-9.397241592407227,0.11791443079710007
1475488922472,2.1332337856292725,-9.375694274902344,0.07781155407428741
1475488922651,2.1481974124908447,-9.382277488708496,0.050876785069704056
1475488922832,2.166752576828003,-9.39245319366455,0.12210428714752197
1475488923011,2.102707624435425,-9.367912292480469,0.09636662155389786
1475488923193,2.1080946922302246,-9.414599418640137,0.07182604819536209
1475488923371,2.16495680809021,-9.409213066101074,0.04429273307323456
1475488923552,2.1996726989746094,-9.375694274902344,0.1107318252325058
1475488923733,2.1721394062042236,-9.3643217086792,0.08319851011037827
1475488923913,2.18770170211792,-9.39245319366455,0.016759412363171577
1475488924094,2.163161277770996,-9.379284858703613,0.06404489278793335
1475488924273,2.1320366859436035,-9.402628898620605,0.12449848651885986
1475488924453,2.1529858112335205,-9.395445823669434,0.0586579404771328
1475488924634,2.1960813999176025,-9.370905876159668,0.03531447425484657
1475488924815,2.1936872005462646,-9.394847869873047,0.13347674906253815
1475488924995,2.1493945121765137,-9.373299598693848,-0.04010287672281265
1475488925172,2.094926595687866,-9.304466247558594,-0.12928688526153564
1475488925352,2.1577742099761963,-9.416994094848633,0.12749123573303223
1475488925534,2.161365509033203,-9.354744911193848,-0.07122749835252762
1475488925715,2.2038626670837402,-9.398438453674316,0.09576806426048279
1475488925896,2.120664119720459,-9.408015251159668,0.05626374110579491
1475488926075,2.2691047191619873,-9.34037971496582,0.040701430290937424
1475488926256,2.0901381969451904,-9.382277488708496,0.0065840547904372215
1475488926435,2.3564929962158203,-9.346963882446289,0.12988543510437012
1475488926616,2.2164323329925537,-9.413402557373047,0.013168109580874443
1475488926795,2.234987258911133,-9.37748908996582,0.008978256024420261
1475488926976,2.0931308269500732,-9.429563522338867,-0.020350715145468712
1475488927156,2.184110403060913,-9.349956512451172,-0.0077811554074287415
1475488927336,2.210446834564209,-9.337387084960938,0.016759412363171577
1475488927514,2.2613234519958496,-9.35773754119873,0.03411737456917763
1475488927694,2.227804660797119,-9.372102737426758,0.07422025501728058
1475488927877,2.251148223876953,-9.345168113708496,0.0071826050989329815
1475488928055,2.258330821990967,-9.416994094848633,0.15023615956306458
1475488928237,2.212841033935547,-9.407417297363281,0.17537526786327362
1475488928417,2.187103271484375,-9.216479301452637,-0.026336219161748886
1475488928598,2.250549554824829,-9.27334213256836,0.02753331884741783
1475488928777,2.2164323329925537,-9.314641952514648,0.11671733111143112
1475488928958,1.977012038230896,-9.23323917388916,0.07003039866685867
1475488929138,2.25473952293396,-9.165003776550293,0.09696517139673233
1475488929318,1.9069817066192627,-9.295488357543945,-0.08140286058187485
1475488929498,2.09672212600708,-9.332598686218262,0.25079262256622314
1475488929679,2.784456491470337,-9.1446533203125,0.2346317619085312
1475488929857,1.9608511924743652,-9.45111083984375,0.5171475410461426
1475488930041,2.340332269668579,-9.348758697509766,-0.2974795699119568
1475488930218,2.236783027648926,-9.366715431213379,-0.15442600846290588
1475488930400,2.278681516647339,-9.318233489990234,-0.12629413604736328
1475488930580,2.1505916118621826,-9.382277488708496,-0.19033902883529663
1475488930761,2.1709423065185547,-9.409811019897461,0.17896658182144165
1475488930941,2.0679917335510254,-9.43494987487793,0.09516951441764832
1475488931121,2.2260091304779053,-9.278728485107422,-0.04908113554120064
1475488931301,2.0446481704711914,-9.446921348571777,0.041299980133771896
1475488931481,2.1739351749420166,-9.37629222869873,0.07122749835252762
1475488931660,2.1559786796569824,-9.423578262329102,0.05746084079146385
1475488931840,2.1493945121765137,-9.367912292480469,0.11372458189725876
1475488932021,2.233191728591919,-9.384073257446289,0.05746084079146385
1475488932201,2.2248120307922363,-9.330802917480469,0.11611878126859665
1475488932381,2.228403329849243,-9.4014310836792,0.15502455830574036
1475488932561,2.2248120307922363,-9.375694274902344,0.08858546614646912
1475488932741,2.229600429534912,-9.37509536743164,0.03411737456917763
1475488932922,2.18770170211792,-9.346963882446289,0.16639702022075653
1475488933102,2.1529858112335205,-9.412205696105957,0.11911153793334961
1475488933282,2.1715409755706787,-9.37509536743164,0.06404489278793335
1475488933462,2.2415714263916016,-9.337985038757324,0.06763619929552078
1475488933642,2.0644004344940186,-9.476250648498535,0.2041056901216507
1475488933823,2.4600422382354736,-9.288904190063477,0.17477671802043915
1475488934002,2.233790159225464,-9.333196640014648,0.07661445438861847
1475488934183,2.3325510025024414,-9.403226852416992,0.243011474609375
1475488934363,2.2469582557678223,-9.308655738830566,0.1562216579914093
1475488934543,2.3277626037597656,-9.357138633728027,0.19213469326496124
1475488934723,2.585737943649292,-9.365518569946289,0.16639702022075653
1475488934904,2.033275842666626,-9.305065155029297,-0.36990416049957275
1475488935083,2.117671489715576,-9.397241592407227,0.5668272376060486
1475488935264,2.22660756111145,-9.378686904907227,0.16519992053508759
1475488935444,2.301426410675049,-9.334393501281738,0.17477671802043915
1475488935625,2.3469161987304688,-9.344569206237793,0.15502455830574036
1475488935804,2.3247697353363037,-9.330802917480469,0.15562310814857483
1475488935985,2.31758713722229,-9.316437721252441,0.09516951441764832
1475488936164,2.2379801273345947,-9.345766067504883,0.1711854189634323
1475488936345,2.0165164470672607,-9.419986724853516,0.16160862147808075
1475488936524,2.271498918533325,-9.34397029876709,0.152031809091568
1475488936705,2.1721394062042236,-9.416994094848633,0.06165069341659546
1475488936885,2.270900249481201,-9.354744911193848,0.12210428714752197
1475488937066,2.231395959854126,-9.353547096252441,0.05746084079146385
1475488937245,2.2906525135040283,-9.388263702392578,0.314238965511322
1475488937428,2.2475569248199463,-9.336189270019531,-0.06524199992418289
1475488937606,2.3924059867858887,-9.312846183776855,0.1215057373046875
1475488937786,2.2679076194763184,-9.366715431213379,0.2124854028224945
1475488937966,2.3540987968444824,-9.35654067993164,0.0586579404771328
1475488938147,2.320580005645752,-9.379883766174316,0.18136078119277954
1475488938326,2.2415714263916016,-9.36013126373291,0.17058686912059784
1475488938507,2.255337953567505,-9.385271072387695,0.09576806426048279
1475488938687,2.2816741466522217,-9.321824073791504,0.05386953800916672
1475488938864,2.1775264739990234,-9.389460563659668,0.15921440720558167
1475488939044,2.191891670227051,-9.435548782348633,0.15322890877723694
1475488939228,2.318185806274414,-9.30805778503418,0.06404489278793335
1475488939405,2.2176294326782227,-9.344569206237793,0.07481880486011505
1475488939588,2.2661118507385254,-9.398438453674316,0.20350714027881622
1475488939768,2.3325510025024414,-9.288305282592773,0.10115502029657364
1475488939948,2.184110403060913,-9.391256332397461,0.12270283699035645
1475488940125,2.2637176513671875,-9.361329078674316,0.11791443079710007
1475488940309,2.2846670150756836,-9.315838813781738,0.013766659423708916
1475488940486,2.138620615005493,-9.352350234985352,-0.08259996026754379
1475488940670,2.3337481021881104,-9.29069995880127,0.1735796183347702
1475488940847,2.2206220626831055,-9.387664794921875,-0.0347159244120121
1475488941030,2.255337953567505,-9.372700691223145,0.16340427100658417
1475488941207,2.29484224319458,-9.339181900024414,0.060453593730926514
1475488941391,2.274491548538208,-9.367314338684082,0.07062894850969315
1475488941567,2.2631192207336426,-9.363722801208496,0.0736217051744461
1475488941753,2.162562608718872,-9.326014518737793,-0.05686229094862938
1475488941930,2.315192937850952,-9.27334213256836,0.18614917993545532
1475488942111,2.471414804458618,-9.281123161315918,0.04489128291606903
1475488942290,2.382230758666992,-9.439739227294922,0.010773907415568829
1475488942471,2.3708581924438477,-9.303269386291504,-0.1562216579914093
1475488942651,2.5073277950286865,-9.337985038757324,-0.23163901269435883
1475488942831,2.301426410675049,-9.321226119995117,-0.06464344263076782
1475488943011,2.380434989929199,-9.280524253845215,-0.1693897694349289
1475488943191,2.0272903442382813,-9.435548782348633,0.02513911761343479
1475488943370,2.0823569297790527,-9.396044731140137,0.08858546614646912
1475488943551,2.6587610244750977,-9.312247276306152,0.34177228808403015
1475488943731,2.0841526985168457,-9.375694274902344,0.1412578970193863
1475488943912,2.694075345993042,-9.292495727539063,0.1256955862045288
1475488944090,2.434903144836426,-9.259574890136719,0.05686229094862938
1475488944272,2.3080103397369385,-9.367314338684082,0.008379706181585789
1475488944451,2.823961019515991,-9.446921348571777,0.05925649031996727
1475488944633,2.3971943855285645,-9.323619842529297,-0.45489832758903503
1475488944816,2.2852654457092285,-9.370306968688965,0.26396074891090393
1475488944993,2.205059766769409,-9.270947456359863,-0.3705027103424072
1475488945170,2.2200236320495605,-9.359533309936523,-0.010773907415568829
1475488945354,2.324171304702759,-9.333196640014648,-0.016759412363171577
1475488945534,2.2385785579681396,-9.414599418640137,0.02753331884741783
1475488945713,2.2385785579681396,-9.39365005493164,0.04668693244457245
1475488945893,2.2194249629974365,-9.391256332397461,0.25677812099456787
1475488946074,2.1703438758850098,-9.35654067993164,-0.038307227194309235
1475488946254,2.079364061355591,-9.29069995880127,-0.595557689666748
1475488946434,2.2864625453948975,-9.295488357543945,0.2256535142660141
1475488946614,2.3576900959014893,-9.307458877563477,-0.008379706181585789
1475488946795,2.2703018188476563,-9.350554466247559,-0.02513911761343479
1475488946974,2.1972784996032715,-9.398438453674316,0.10893617570400238
1475488947155,2.2804770469665527,-9.349357604980469,0.18974047899246216
1475488947335,2.2487540245056152,-9.346963882446289,-0.013766659423708916
1475488947515,2.1380221843719482,-9.363722801208496,-0.12749123573303223
1475488947695,2.3493103981018066,-9.366715431213379,0.07781155407428741
1475488947872,2.3546974658966064,-9.360730171203613,-0.03890577703714371
1475488948056,2.3762452602386475,-9.313444137573242,0.053270988166332245
1475488948236,2.2643163204193115,-9.331999778747559,0.005386953707784414
1475488948416,2.3319525718688965,-9.333196640014648,0.05446808785200119
1475488948596,2.316390037536621,-9.355342864990234,0.011372458189725876
1475488948776,2.279279947280884,-9.355941772460938,-0.055665191262960434
1475488948956,2.279279947280884,-9.339780807495117,0.04249707981944084
1475488949135,2.367865562438965,-9.32541561126709,-0.06404489278793335
1475488949317,2.2661118507385254,-9.358335494995117,0.012569558806717396
1475488949494,2.340332269668579,-9.34397029876709,0.010175357572734356
1475488949677,2.297835111618042,-9.366715431213379,0.1496376097202301
1475488949857,2.385223388671875,-9.30925464630127,0.15682020783424377
1475488950038,2.252345323562622,-9.35893440246582,0.0802057534456253
1475488950215,2.1924901008605957,-9.382277488708496,0.06524199992418289
1475488950398,2.3145945072174072,-9.372102737426758,0.0628477931022644
1475488950578,2.2475569248199463,-9.299677848815918,0.004189853090792894
1475488950758,2.3523032665252686,-9.369708061218262,0.18794482946395874
1475488950936,2.3708581924438477,-9.370306968688965,0.15801730751991272
1475488951118,2.342726469039917,-9.336788177490234,0.03651157766580582
1475488951299,2.3289597034454346,-9.31045150756836,0.10115502029657364
1475488951479,2.2685060501098633,-9.383475303649902,0.1867477297782898
1475488951659,2.2218191623687744,-9.373299598693848,0.2717418968677521
1475488951839,2.358887195587158,-9.34157657623291,0.10175357013940811
1475488952020,2.2188265323638916,-9.337985038757324,0.08918401598930359
1475488952200,2.2421698570251465,-9.362525939941406,0.3944447338581085
1475488952380,2.389413356781006,-9.329605102539063,0.10654197633266449
1475488952560,2.3062148094177246,-9.351153373718262,0.1454477459192276
1475488952737,2.2260091304779053,-9.344569206237793,0.05746084079146385
1475488952916,2.1535844802856445,-9.430161476135254,0.15023615956306458
1475488953096,2.229600429534912,-9.365518569946289,0.09397241473197937
1475488953281,2.204461097717285,-9.35773754119873,0.12868833541870117
1475488953461,2.253542423248291,-9.366117477416992,0.023343466222286224
1475488953641,2.313995838165283,-9.31045150756836,0.11432313174009323
1475488953821,2.1763293743133545,-9.372700691223145,0.15143325924873352
1475488954001,2.1978771686553955,-9.360730171203613,0.20350714027881622
1475488954181,2.3032219409942627,-9.306262016296387,0.16101007163524628
1475488954361,2.2846670150756836,-9.331999778747559,0.1364694982767105
1475488954541,2.3546974658966064,-9.322422981262207,0.1909375786781311
1475488954722,2.24935245513916,-9.381080627441406,0.22266076505184174
1475488954900,2.2912509441375732,-9.348160743713379,0.1322796493768692
1475488955081,2.2176294326782227,-9.393052101135254,0.18555063009262085
1475488955262,2.233790159225464,-9.390059471130371,0.2322375625371933
1475488955442,2.2888567447662354,-9.317035675048828,-0.06703764945268631
1475488955622,2.343923568725586,-9.339780807495117,0.1107318252325058
1475488955802,2.361281394958496,-9.299677848815918,0.06224924325942993
1475488955982,2.2888567447662354,-9.426570892333984,0.038307227194309235
1475488956161,2.3032219409942627,-9.330802917480469,0.05446808785200119
1475488956343,2.337938070297241,-9.36013126373291,0.0867898091673851
1475488956526,2.3481132984161377,-9.352949142456055,0.08619125932455063
1475488956702,2.251746654510498,-9.372700691223145,0.12868833541870117
1475488956881,2.2876596450805664,-9.349357604980469,0.08499415963888168
1475488957063,2.276885747909546,-9.400833129882813,0.45908817648887634
1475488957243,2.412158250808716,-9.279327392578125,-0.07242459803819656
1475488957424,2.032078742980957,-9.43255615234375,0.07781155407428741
1475488957607,2.1984755992889404,-9.390657424926758,0.053270988166332245
1475488957782,2.3594858646392822,-9.367912292480469,0.30286651849746704
1475488957964,2.1811177730560303,-9.453505516052246,0.05746084079146385
1475488958145,2.7928361892700195,-9.154230117797852,0.02274491637945175
1475488958325,2.0644004344940186,-9.273940086364746,0.02753331884741783
1475488958505,2.0823569297790527,-9.39784049987793,0.05446808785200119
1475488958683,1.9476830959320068,-9.556455612182617,-0.2561795711517334
1475488958866,2.3552958965301514,-9.393052101135254,0.45669397711753845
1475488959045,2.433107376098633,-9.275735855102539,0.011971008032560349
1475488959226,2.3564929962158203,-9.375694274902344,0.031124621629714966
1475488959406,2.3523032665252686,-9.31045150756836,-0.04429273307323456
1475488959586,2.385822057723999,-9.316437721252441,0.15442600846290588
1475488959766,2.2637176513671875,-9.30686092376709,0.10893617570400238
1475488959947,2.3493103981018066,-9.335591316223145,0.13287819921970367
1475488960126,2.3505074977874756,-9.32541561126709,0.1496376097202301
1475488960306,2.3307554721832275,-9.349956512451172,0.06165069341659546
1475488960487,2.363675594329834,-9.30805778503418,0.1107318252325058
1475488960667,2.2427685260772705,-9.34157657623291,0.34177228808403015
1475488960846,2.479794502258301,-9.265560150146484,0.03950432687997818
1475488961028,2.343324899673462,-9.330204010009766,0.09816227108240128
1475488961205,2.3253684043884277,-9.30386734008789,0.1173158809542656
1475488961389,2.3289597034454346,-9.297284126281738,0.12449848651885986
1475488961566,2.4396915435791016,-9.239823341369629,0.17717093229293823
1475488961748,2.448669672012329,-9.315239906311035,-0.12210428714752197
1475488961927,2.2224178314208984,-9.410409927368164,-0.04369417950510979
1475488962132,2.3127987384796143,-9.36013126373291,0.12928688526153564
1475488962287,2.32297420501709,-9.358335494995117,0.07900865375995636
1475488962470,2.31758713722229,-9.319430351257324,0.19273324310779572
1475488962646,2.3714568614959717,-9.326014518737793,0.0736217051744461
1475488962830,2.3307554721832275,-9.32661247253418,0.18734627962112427
1475488963010,2.3110032081604004,-9.339181900024414,0.18914192914962769
1475488963193,2.4013843536376953,-9.30686092376709,0.15263035893440247
1475488963369,2.2858641147613525,-9.363123893737793,0.24001872539520264
1475488963551,2.366668462753296,-9.317035675048828,0.15442600846290588
1475488963731,2.298433542251587,-9.3643217086792,0.1693897694349289
1475488963910,2.3936030864715576,-9.355342864990234,0.2693476974964142
1475488964091,2.339733600616455,-9.339181900024414,0.17238251864910126
1475488964271,2.2451627254486084,-9.374496459960938,0.17477671802043915
1475488964450,2.448071241378784,-9.30386734008789,0.2082955539226532
1475488964631,2.1799206733703613,-9.405621528625488,0.05626374110579491
1475488964811,2.42472767829895,-9.27334213256836,0.20949265360832214
1475488964991,2.387019157409668,-9.321824073791504,0.28730419278144836
1475488965171,2.2176294326782227,-9.34037971496582,0.27712884545326233
1475488965353,2.3540987968444824,-9.336788177490234,0.19572599232196808
1475488965531,2.1990742683410645,-9.354744911193848,0.16220717132091522
1475488965712,2.340930700302124,-9.344569206237793,0.09457096457481384
1475488965892,2.3253684043884277,-9.327211380004883,0.13946224749088287
1475488966072,2.360682964324951,-9.424775123596191,0.23283611238002777
1475488966252,2.30022931098938,-9.334992408752441,0.17537526786327362
1475488966433,2.2176294326782227,-9.276932716369629,0.22505496442317963
1475488966612,2.455852508544922,-9.405022621154785,0.20111294090747833
1475488966793,2.1912930011749268,-9.391854286193848,0.3010708689689636
1475488966973,2.1960813999176025,-9.39903736114502,0.2579752206802368
1475488967153,2.251148223876953,-9.357138633728027,0.152031809091568
1475488967333,2.2643163204193115,-9.34397029876709,0.19273324310779572
1475488967514,2.3337481021881104,-9.3026704788208,0.1604115068912506
1475488967693,2.234388828277588,-9.364919662475586,0.33279404044151306
1475488967873,2.3786394596099854,-9.28650951385498,0.26755204796791077
1475488968053,2.2164323329925537,-9.436147689819336,0.24600422382354736
1475488968234,2.1715409755706787,-9.511565208435059,0.507570743560791
1475488968411,2.141613483428955,-9.429563522338867,0.0293289702385664
1475488968593,2.3277626037597656,-9.315838813781738,0.2148796021938324
1475488968775,2.366069793701172,-9.337387084960938,0.36990416049957275
1475488968955,2.4660277366638184,-9.319430351257324,0.3190273642539978
1475488969133,2.404376983642578,-9.342175483703613,0.1215057373046875
1475488969315,2.4229321479797363,-9.296685218811035,0.07062894850969315
1475488969495,2.234987258911133,-9.362525939941406,0.24899697303771973
1475488969675,2.3971943855285645,-9.35654067993164,0.4644751250743866
1475488969855,2.3977930545806885,-9.262567520141602,-0.1454477459192276
1475488970036,2.279878616333008,-9.298480987548828,0.10953472554683685
1475488970222,2.3086090087890625,-9.320627212524414,0.09816227108240128
1475488970396,2.432508945465088,-9.285911560058594,0.10115502029657364
1475488970576,2.233191728591919,-9.399636268615723,0.284311443567276
1475488970755,2.275090217590332,-9.37629222869873,0.07242459803819656
1475488970935,2.3768436908721924,-9.281721115112305,0.1388636976480484
1475488971116,2.255337953567505,-9.39784049987793,0.21368250250816345
1475488971297,2.3564929962158203,-9.333196640014648,0.08619125932455063
1475488971476,2.3271639347076416,-9.314641952514648,0.24600422382354736
1475488971657,2.699462413787842,-9.30925464630127,0.4058171808719635
1475488971837,2.4384944438934326,-9.296685218811035,-0.10833762586116791
1475488972018,2.3959972858428955,-9.312247276306152,-0.02693476900458336
1475488972196,2.404376983642578,-9.358335494995117,0.08798690885305405
1475488972377,2.3546974658966064,-9.327810287475586,0.07781155407428741
1475488972558,2.5270798206329346,-9.339780807495117,-0.07481880486011505
1475488972736,2.1703438758850098,-9.3643217086792,0.07003039866685867
1475488972918,2.279878616333008,-9.348758697509766,0.11671733111143112
1475488973099,2.2870612144470215,-9.346364974975586,0.05386953800916672
1475488973277,2.4408886432647705,-9.311050415039063,0.1909375786781311
1475488973460,2.30022931098938,-9.35773754119873,0.08559270948171616
1475488973637,2.428917646408081,-9.301473617553711,0.13946224749088287
1475488973820,2.1960813999176025,-9.354146003723145,0.22445641458034515
1475488973998,2.3977930545806885,-9.328408241271973,0.0933738648891449
1475488974180,2.343324899673462,-9.349956512451172,0.050876785069704056
1475488974358,2.2858641147613525,-9.291297912597656,0.11791443079710007
1475488974541,2.492363929748535,-9.273940086364746,0.14065934717655182
1475488974720,2.360084295272827,-9.366117477416992,0.2124854028224945
1475488974900,2.299032211303711,-9.349956512451172,0.10175357013940811
1475488975080,2.321777105331421,-9.37389850616455,0.08798690885305405
1475488975262,2.2870612144470215,-9.361927032470703,0.1388636976480484
1475488975441,2.2858641147613525,-9.348758697509766,0.16819266974925995
1475488975621,2.3493103981018066,-9.331999778747559,0.10474632680416107
1475488975801,2.30022931098938,-9.334992408752441,0.09516951441764832
1475488975981,2.366668462753296,-9.321824073791504,0.14365209639072418
1475488976162,2.315192937850952,-9.355342864990234,0.04249707981944084
1475488976341,2.338536500930786,-9.303269386291504,0.1173158809542656
1475488976522,2.3259668350219727,-9.329605102539063,0.10654197633266449
1475488976702,2.3523032665252686,-9.324816703796387,0.1867477297782898
1475488976882,2.366668462753296,-9.300874710083008,0.08140286058187485
1475488977062,2.3535003662109375,-9.339780807495117,0.13048399984836578
1475488977243,2.3936030864715576,-9.27334213256836,0.07960720360279083
1475488977422,2.2002713680267334,-9.385271072387695,0.15682020783424377
1475488977603,2.3092074394226074,-9.352350234985352,0.18555063009262085
1475488977783,2.2870612144470215,-9.330204010009766,0.19033902883529663
1475488977963,2.211045265197754,-9.388861656188965,0.16340427100658417
1475488978143,2.273294448852539,-9.336788177490234,0.14425064623355865
1475488978322,2.229001760482788,-9.404424667358398,0.11791443079710007
1475488978503,2.319981336593628,-9.319430351257324,0.08798690885305405
1475488978684,2.297835111618042,-9.318233489990234,0.19393034279346466
1475488978864,2.385223388671875,-9.32541561126709,0.06344634294509888
1475488979045,2.540247917175293,-9.263166427612305,-0.020350715145468712
1475488979224,2.293645143508911,-9.27334213256836,0.03651157766580582
1475488979405,2.3720552921295166,-9.332598686218262,0.05506663769483566
1475488979585,2.229600429534912,-9.363722801208496,0.1711854189634323
1475488979765,2.3594858646392822,-9.336189270019531,0.17477671802043915
1475488979945,2.3708581924438477,-9.284713745117188,0.2041056901216507
1475488980121,2.279279947280884,-9.327211380004883,0.13826514780521393
1475488980303,2.3714568614959717,-9.344569206237793,0.23403321206569672
1475488980485,2.2487540245056152,-9.354744911193848,0.2346317619085312
1475488980665,2.182314872741699,-9.397241592407227,0.2932897210121155
1475488980845,2.3942017555236816,-9.31045150756836,0.14484919607639313
1475488981026,2.320580005645752,-9.330802917480469,0.09636662155389786
1475488981206,2.278082847595215,-9.370905876159668,0.19153612852096558
1475488981386,2.367865562438965,-9.344569206237793,0.15801730751991272
1475488981566,2.320580005645752,-9.336788177490234,0.1215057373046875
1475488981746,2.3062148094177246,-9.337387084960938,0.19393034279346466
1475488981926,2.3475148677825928,-9.299677848815918,0.13168109953403473
1475488982105,2.3702597618103027,-9.308655738830566,0.12749123573303223
1475488982287,2.3265655040740967,-9.34397029876709,0.11192893236875534
1475488982467,2.4366986751556396,-9.236231803894043,0.0736217051744461
1475488982646,2.361281394958496,-9.306262016296387,0.12270283699035645
1475488982827,2.410362482070923,-9.339181900024414,0.12988543510437012
1475488983008,2.3768436908721924,-9.344569206237793,-0.06165069341659546
1475488983188,2.3792378902435303,-9.323619842529297,0.12389993667602539
1475488983368,2.3918075561523438,-9.244012832641602,0.11851298063993454
1475488983548,2.4438812732696533,-9.315239906311035,0.1215057373046875
1475488983728,2.476801633834839,-9.296086311340332,-0.04010287672281265
1475488983907,2.3582887649536133,-9.345766067504883,0.12988543510437012
1475488984088,2.3355438709259033,-9.326014518737793,0.0454898327589035
1475488984269,2.3086090087890625,-9.351752281188965,0.166995570063591
1475488984448,2.42472767829895,-9.251194953918457,0.041299980133771896
1475488984628,2.300827741622925,-9.337985038757324,-0.040701430290937424
1475488984810,2.5917234420776367,-9.224859237670898,0.08918401598930359
1475488984988,2.5719711780548096,-9.35654067993164,0.08259996026754379
1475488985172,2.6647465229034424,-9.306262016296387,0.14006079733371735
1475488985349,2.427720546722412,-9.404424667358398,0.2064998894929886
1475488985531,2.3271639347076416,-9.329605102539063,0.09217676520347595
1475488985710,2.4881742000579834,-9.264962196350098,0.1867477297782898
1475488985891,2.5037364959716797,-9.243413925170898,-0.023942016065120697
1475488986071,2.2014684677124023,-9.391854286193848,-0.1693897694349289
1475488986251,2.4857800006866455,-9.30386734008789,0.06584054976701736
1475488986431,2.4630351066589355,-9.317634582519531,-0.13826514780521393
1475488986611,2.5073277950286865,-9.285911560058594,0.07003039866685867
1475488986791,2.567182779312134,-9.302072525024414,0.04728548228740692
1475488986971,2.5282769203186035,-9.300874710083008,0.0867898091673851
1475488987152,2.4833858013153076,-9.288305282592773,0.01496376097202301
1475488987331,2.500145196914673,-9.326014518737793,0.07422025501728058
1475488987512,2.4642322063446045,-9.346364974975586,-0.002394201699644327
1475488987691,2.7269957065582275,-9.196128845214844,-0.18076223134994507
1475488987874,2.448071241378784,-9.327810287475586,-0.06883329898118973
1475488988052,2.5677812099456787,-9.313444137573242,0.050876785069704056
1475488988233,2.5067291259765625,-9.343372344970703,0.05386953800916672
1475488988413,2.4869771003723145,-9.278130531311035,-0.0011971008498221636
1475488988593,2.4372973442077637,-9.330204010009766,0.06823474913835526
1475488988773,2.475006103515625,-9.362525939941406,0.06823474913835526
1475488988951,2.4839842319488525,-9.305663108825684,0.03232172131538391
1475488989134,2.3792378902435303,-9.372700691223145,0.05027823522686958
1475488989312,2.448669672012329,-9.290101051330566,0.09217676520347595
1475488989495,2.4630351066589355,-9.320627212524414,0.15322890877723694
1475488989671,2.472013235092163,-9.312846183776855,0.08798690885305405
1475488989854,2.3918075561523438,-9.393052101135254,0.14365209639072418
1475488990032,2.433107376098633,-9.301473617553711,0.1041477769613266
1475488990215,2.4827871322631836,-9.281123161315918,0.16998831927776337
1475488990392,2.430713176727295,-9.291297912597656,0.1693897694349289
1475488990575,2.3912088871002197,-9.337985038757324,0.23403321206569672
1475488990755,2.4019827842712402,-9.332598686218262,0.12330138683319092
1475488990935,2.4145524501800537,-9.288904190063477,0.0999579206109047
1475488991115,2.403778553009033,-9.318831443786621,0.18315643072128296
1475488991296,2.340332269668579,-9.368511199951172,0.17477671802043915
1475488991476,2.4223334789276123,-9.312247276306152,0.09397241473197937
1475488991656,2.3253684043884277,-9.353547096252441,0.15442600846290588
1475488991835,2.3702597618103027,-9.352350234985352,0.10833762586116791
1475488992016,2.364274263381958,-9.354146003723145,0.15322890877723694
1475488992196,2.4157495498657227,-9.338583946228027,0.1562216579914093
1475488992376,2.4013843536376953,-9.331999778747559,0.033518824726343155
1475488992556,2.403179883956909,-9.32541561126709,0.0975637212395668
1475488992735,2.382829189300537,-9.367912292480469,0.15322890877723694
1475488992916,2.428917646408081,-9.300276756286621,0.016759412363171577
1475488993097,2.3971943855285645,-9.309853553771973,0.09277531504631042
1475488993277,2.366668462753296,-9.334393501281738,0.08619125932455063
1475488993457,2.3535003662109375,-9.363722801208496,0.15083470940589905
1475488993637,2.411559581756592,-9.322422981262207,0.15801730751991272
1475488993815,2.363675594329834,-9.321824073791504,0.06224924325942993
1475488993998,2.3726539611816406,-9.333795547485352,0.16998831927776337
1475488994178,2.3529016971588135,-9.440337181091309,0.23762452602386475
1475488994358,2.3953988552093506,-9.318831443786621,0.06584054976701736
1475488994538,2.3481132984161377,-9.32541561126709,0.10833762586116791
1475488994721,2.382230758666992,-9.333795547485352,0.13168109953403473
1475488994898,2.3570916652679443,-9.328408241271973,0.12030863761901855
1475488995080,2.4007856845855713,-9.30686092376709,0.19213469326496124
1475488995259,2.361281394958496,-9.333795547485352,0.13347674906253815
1475488995437,2.344521999359131,-9.337387084960938,0.10953472554683685
1475488995620,2.3355438709259033,-9.342175483703613,0.152031809091568
1475488995800,2.390011787414551,-9.328408241271973,0.16879121959209442
1475488995979,2.3552958965301514,-9.32302188873291,0.1364694982767105
1475488996160,2.4145524501800537,-9.306262016296387,0.12689268589019775
1475488996339,2.3110032081604004,-9.383475303649902,0.1975216418504715
1475488996523,2.4133553504943848,-9.311649322509766,0.13048399984836578
1475488996698,2.275090217590332,-9.350554466247559,0.17896658182144165
1475488996881,2.3786394596099854,-9.311649322509766,0.0933738648891449
1475488997058,2.3942017555236816,-9.315239906311035,0.13766659796237946
1475488997241,2.3774423599243164,-9.351153373718262,0.10893617570400238
1475488997423,2.3475148677825928,-9.344569206237793,0.15682020783424377
1475488997601,2.4205379486083984,-9.315838813781738,0.10773907601833344
1475488997781,2.3983914852142334,-9.314641952514648,0.10474632680416107
1475488997960,2.4199392795562744,-9.321226119995117,0.17477671802043915
1475488998141,2.472611904144287,-9.319430351257324,0.050876785069704056
1475488998322,2.3277626037597656,-9.352949142456055,0.04429273307323456
1475488998502,2.3564929962158203,-9.32302188873291,0.09935937076807022
1475488998682,2.4139537811279297,-9.328408241271973,0.11671733111143112
1475488998862,2.455253839492798,-9.307458877563477,0.03950432687997818
1475488999043,2.3726539611816406,-9.329605102539063,-0.0293289702385664
1475488999222,2.5683798789978027,-9.257181167602539,-0.1885433793067932
1475488999402,2.2146365642547607,-9.345766067504883,-0.0065840547904372215
1475488999580,2.3122003078460693,-9.459490776062012,-0.038307227194309235
1475488999763,2.425326347351074,-9.344569206237793,0.08978256583213806
1475488999943,2.1978771686553955,-9.398438453674316,0.12928688526153564
1475489000124,2.407968282699585,-9.340977668762207,0.030526071786880493
1475489000303,2.2625205516815186,-9.35893440246582,0.15801730751991272
1475489000484,2.453458309173584,-9.276334762573242,0.14065934717655182
1475489000664,2.316390037536621,-9.372700691223145,-0.03890577703714371
1475489000844,2.8580782413482666,-9.167996406555176,0.2472013235092163
1475489001024,2.3750481605529785,-9.317035675048828,0.008379706181585789
1475489001205,2.4390928745269775,-9.367314338684082,-0.181959331035614
1475489001384,2.4690206050872803,-9.299677848815918,-0.1364694982767105
1475489001565,2.3965959548950195,-9.260173797607422,0.05626374110579491
1475489001745,2.294243812561035,-9.422979354858398,0.45908817648887634
1475489001925,2.3361423015594482,-9.305065155029297,-0.043095629662275314
1475489002105,2.409165382385254,-9.292495727539063,0.13347674906253815
1475489002286,2.2152352333068848,-9.287108421325684,0.1215057373046875
1475489002465,2.139219284057617,-9.306262016296387,0.3058592677116394
1475489002646,2.249951124191284,-9.41759204864502,0.10354922711849213
1475489002825,2.2475569248199463,-9.484031677246094,-0.43275195360183716
1475489003006,2.1290438175201416,-9.414599418640137,0.1867477297782898
1475489003186,2.27209734916687,-9.342175483703613,0.0454898327589035
1475489003367,2.227206230163574,-9.35654067993164,0.08499415963888168
1475489003546,2.272696018218994,-9.372700691223145,0.09576806426048279
1475489003727,2.2236149311065674,-9.362525939941406,0.2106897532939911
1475489003907,2.274491548538208,-9.314641952514648,0.07960720360279083
1475489004087,2.182314872741699,-9.370306968688965,0.14604631066322327
1475489004267,2.2679076194763184,-9.348758697509766,0.1215057373046875
1475489004446,2.254140853881836,-9.333795547485352,0.15682020783424377
1475489004627,2.249951124191284,-9.359533309936523,0.12689268589019775
1475489004807,2.228403329849243,-9.363123893737793,0.08798690885305405
1475489004986,2.251746654510498,-9.348160743713379,0.17717093229293823
1475489005168,2.2020668983459473,-9.350554466247559,0.12988543510437012
1475489005348,2.234987258911133,-9.351153373718262,0.15801730751991272
1475489005526,2.1739351749420166,-9.374496459960938,0.18555063009262085
1475489005708,2.2146365642547607,-9.35773754119873,0.15801730751991272
1475489005888,2.208651065826416,-9.36013126373291,0.08319851011037827
1475489006070,2.2206220626831055,-9.328408241271973,0.09277531504631042
1475489006249,2.1805191040039063,-9.385869026184082,0.08439560979604721
1475489006430,2.2170307636260986,-9.38048267364502,0.11432313174009323
1475489006609,2.24935245513916,-9.3427734375,0.05746084079146385
1475489006789,2.207453966140747,-9.402628898620605,0.10833762586116791
1475489006969,2.22660756111145,-9.376891136169434,0.10893617570400238
1475489007151,2.2254104614257813,-9.368511199951172,0.12210428714752197
1475489007331,2.211045265197754,-9.35893440246582,0.07122749835252762
1475489007511,2.2427685260772705,-9.412205696105957,0.15023615956306458
1475489007691,2.31758713722229,-9.326014518737793,0.1322796493768692
1475489007872,2.206855535507202,-9.399636268615723,0.12928688526153564
1475489008051,2.255337953567505,-9.372700691223145,0.09696517139673233
1475489008231,2.2816741466522217,-9.354146003723145,0.06464344263076782
1475489008411,2.2403743267059326,-9.378686904907227,0.08499415963888168
1475489008591,2.181716203689575,-9.381080627441406,0.04429273307323456
1475489008771,2.2218191623687744,-9.383475303649902,0.12210428714752197
1475489008952,2.299032211303711,-9.324816703796387,0.11552023142576218
1475489009132,2.2469582557678223,-9.35773754119873,0.06763619929552078
1475489009312,2.2631192207336426,-9.35773754119873,0.12030863761901855
1475489009492,2.2194249629974365,-9.372700691223145,0.041299980133771896
1475489009672,2.298433542251587,-9.354744911193848,0.08798690885305405
1475489009853,2.27748441696167,-9.363722801208496,0.12629413604736328
1475489010032,2.231395959854126,-9.39365005493164,0.1215057373046875
1475489010213,2.214038133621216,-9.379883766174316,0.10474632680416107
1475489010393,2.27209734916687,-9.35654067993164,0.13347674906253815
1475489010573,2.188300371170044,-9.408015251159668,0.13287819921970367
1475489010753,2.2858641147613525,-9.346963882446289,0.1412578970193863
1475489010933,2.207453966140747,-9.366117477416992,0.17657238245010376
1475489011115,2.1272482872009277,-9.390059471130371,0.17717093229293823
1475489011295,2.3235726356506348,-9.301473617553711,0.09636662155389786
1475489011476,2.1781249046325684,-9.32541561126709,0.1801636815071106
1475489011654,2.2170307636260986,-9.371503829956055,0.15741875767707825
1475489011833,2.367865562438965,-9.289502143859863,0.12988543510437012
1475489012015,2.2403743267059326,-9.35654067993164,0.1604115068912506
1475489012195,2.249951124191284,-9.330204010009766,0.12090718746185303
1475489012375,2.296039342880249,-9.344569206237793,0.1472434103488922
1475489012555,2.214038133621216,-9.379284858703613,0.20350714027881622
1475489012735,2.3481132984161377,-9.333795547485352,0.0802057534456253
1475489012915,2.1984755992889404,-9.38167953491211,0.1586158573627472
1475489013095,2.3965959548950195,-9.289502143859863,0.04249707981944084
1475489013275,2.208651065826416,-9.371503829956055,0.046088382601737976
1475489013456,2.1559786796569824,-9.400833129882813,0.008978256024420261
1475489013635,2.033874273300171,-9.458293914794922,0.08499415963888168
1475489013814,2.337938070297241,-9.379284858703613,-0.09397241473197937
1475489013996,2.404975652694702,-9.273940086364746,-0.3148375153541565
1475489014177,1.677138328552246,-9.607333183288574,-0.5662286877632141
1475489014356,2.100313425064087,-9.316437721252441,-0.5638344883918762
1475489014536,2.381632089614868,-9.337387084960938,-0.4908113479614258
1475489014717,1.9710265398025513,-9.442132949829102,-0.4770447015762329
1475489014897,2.228403329849243,-9.365518569946289,-0.38546648621559143
1475489015074,2.8137855529785156,-9.221866607666016,-0.0293289702385664
1475489015257,2.3989901542663574,-9.372102737426758,0.12330138683319092
1475489015437,2.2218191623687744,-9.312846183776855,0.07242459803819656
1475489015617,2.628833532333374,-9.258976936340332,-0.06763619929552078
1475489015798,2.477400302886963,-9.122507095336914,-0.040701430290937424
1475489015978,2.5695769786834717,-9.24940013885498,0.18974047899246216
1475489016158,2.4887726306915283,-9.317035675048828,0.10714052617549896
1475489016338,1.9015947580337524,-9.332598686218262,-0.15263035893440247
1475489016517,2.5288755893707275,-9.335591316223145,-0.002992752008140087
1475489016700,2.2242133617401123,-9.339780807495117,-0.03411737456917763
1475489016879,2.403179883956909,-9.197924613952637,-0.14604631066322327
1475489017057,2.5019407272338867,-9.165003776550293,0.16101007163524628
1475489017236,2.668936252593994,-8.925583839416504,-0.12689268589019775
1475489017420,2.783858060836792,-9.55825138092041,0.4692635238170624
1475489017600,1.946485996246338,-9.637859344482422,0.46507367491722107
1475489017777,2.756923198699951,-9.137471199035645,0.3693056106567383
1475489017959,2.4402899742126465,-9.240421295166016,0.272938996553421
1475489018140,2.4690206050872803,-9.316437721252441,0.15322890877723694
1475489018321,2.5737667083740234,-9.223063468933105,0.15562310814857483
1475489018501,2.5731682777404785,-9.161413192749023,0.046088382601737976
1475489018681,2.4588451385498047,-9.287108421325684,0.2256535142660141
1475489018862,2.4594438076019287,-9.358335494995117,0.18076223134994507
1475489019041,2.604292869567871,-9.331400871276855,-0.03770867735147476
1475489019218,2.6150667667388916,-9.245808601379395,-0.061052143573760986
1475489019401,2.5324668884277344,-9.354146003723145,0.1472434103488922
1475489019581,2.471414804458618,-9.312846183776855,0.09516951441764832
1475489019762,2.518101692199707,-9.305065155029297,0.076015904545784
1475489019942,2.519897222518921,-9.279327392578125,-0.09038111567497253
1475489020122,2.456450939178467,-9.331400871276855,0.016759412363171577
1475489020302,2.515108823776245,-9.330802917480469,-0.0347159244120121
1475489020482,2.5755624771118164,-9.21947193145752,0.46507367491722107
1475489020663,2.3074119091033936,-9.295488357543945,-0.15143325924873352
1475489020845,2.3367409706115723,-9.34397029876709,-0.08858546614646912
1475489021022,3.1286230087280273,-9.2033109664917,0.23702596127986908
1475489021203,1.8195933103561401,-9.482834815979004,-0.08140286058187485
1475489021383,2.2248120307922363,-9.280524253845215,-0.07062894850969315
1475489021564,2.3127987384796143,-9.282320022583008,0.06524199992418289
1475489021743,2.233790159225464,-9.348160743713379,0.11791443079710007
1475489021924,2.6114754676818848,-9.299078941345215,0.15083470940589905
1475489022103,2.5282769203186035,-9.421183586120605,0.29628247022628784
1475489022283,2.4642322063446045,-9.249998092651367,0.10893617570400238
1475489022464,2.7102363109588623,-9.332598686218262,0.0293289702385664
1475489022645,2.60548996925354,-9.276334762573242,-0.08559270948171616
1475489022823,2.5923218727111816,-9.277531623840332,0.12449848651885986
1475489023005,2.6420016288757324,-9.322422981262207,-0.21966800093650818
1475489023184,2.765901565551758,-9.245808601379395,1.103128433227539
1475489023365,2.721010208129883,-9.167996406555176,0.03411737456917763
1475489023545,2.425326347351074,-9.346364974975586,0.3908534348011017
1475489023726,2.0865468978881836,-9.443329811096191,0.033518824726343155
1475489023907,2.4576480388641357,-9.256582260131836,-0.2346317619085312
1475489024085,2.434903144836426,-9.252392768859863,-0.14903905987739563
1475489024266,2.2816741466522217,-9.304466247558594,-0.02693476900458336
1475489024445,2.2385785579681396,-9.30925464630127,-0.33039984107017517
1475489024626,2.404376983642578,-9.340977668762207,-0.0586579404771328
1475489024806,2.3798365592956543,-9.360730171203613,-0.02214636653661728
1475489024986,2.475006103515625,-9.346364974975586,0.002992752008140087
1475489025166,2.471414804458618,-9.304466247558594,-0.20051439106464386
1475489025347,2.4845829010009766,-9.340977668762207,-0.24001872539520264
1475489025526,2.497152328491211,-9.29189682006836,-0.2669534981250763
1475489025707,2.3469161987304688,-9.348160743713379,-0.39624038338661194
1475489025884,2.536058187484741,-9.295488357543945,-0.12030863761901855
1475489026066,2.5450363159179688,-9.281123161315918,-0.025737667456269264
1475489026247,2.496553897857666,-9.297882080078125,0.06464344263076782
1475489026428,2.5342624187469482,-9.3026704788208,-0.038307227194309235
1475489026606,2.540846586227417,-9.257181167602539,-0.11432313174009323
1475489026786,2.4594438076019287,-9.294290542602539,0.004788403399288654
1475489026966,2.409764051437378,-9.363123893737793,0.08259996026754379
1475489027148,2.3684639930725098,-9.367314338684082,0.03411737456917763
1475489027326,2.455852508544922,-9.294889450073242,0.09636662155389786
1475489027507,2.339733600616455,-9.334992408752441,0.010773907415568829
1475489027687,2.4666264057159424,-9.294889450073242,-0.02454056777060032
1475489027870,2.4432828426361084,-9.303269386291504,0.060453593730926514
1475489028047,2.5288755893707275,-9.275735855102539,-0.033518824726343155
1475489028229,2.4205379486083984,-9.31045150756836,0.07721300423145294
1475489028409,2.4630351066589355,-9.313444137573242,0.07721300423145294
1475489028589,2.449866771697998,-9.327810287475586,-0.021547814831137657
1475489028770,2.4187421798706055,-9.320028305053711,0.0867898091673851
1475489028947,2.4432828426361084,-9.296685218811035,0.10953472554683685
1475489029131,2.4875755310058594,-9.328408241271973,0.090979665517807
1475489029311,2.456450939178467,-9.314043045043945,0.04189852997660637
1475489029491,2.3481132984161377,-9.346364974975586,0.22864626348018646
1475489029672,2.519897222518921,-9.260173797607422,-0.09636662155389786
1475489029851,2.5145103931427,-9.330802917480469,-0.002992752008140087
1475489030031,2.49834942817688,-9.324816703796387,0.0293289702385664
1475489030211,2.7084407806396484,-9.251194953918457,0.07242459803819656
1475489030391,2.2631192207336426,-9.512762069702148,0.5901707410812378
1475489030568,2.6587610244750977,-9.296086311340332,-0.23403321206569672
1475489030752,3.290231704711914,-9.056666374206543,0.243011474609375
1475489030932,2.2697031497955322,-9.446921348571777,0.375291109085083
1475489031112,2.5737667083740234,-9.279327392578125,0.17657238245010376
1475489031293,2.427121877670288,-9.459490776062012,0.1646013706922531
1475489031471,2.3762452602386475,-9.21588134765625,0.03531447425484657
1475489031652,2.3050177097320557,-9.318233489990234,0.07122749835252762
1475489031832,2.477998733520508,-9.320028305053711,0.22445641458034515
1475489032009,2.6653449535369873,-9.277531623840332,-0.06763619929552078
1475489032195,2.227804660797119,-9.370905876159668,0.20051439106464386
1475489032373,2.6449942588806152,-9.272743225097656,0.13826514780521393
1475489032553,2.3912088871002197,-9.315838813781738,-0.026336219161748886
1475489032733,2.56000018119812,-9.275735855102539,-0.10534487664699554
1475489032914,2.2637176513671875,-9.351153373718262,-0.015562310814857483
1475489033093,2.5127146244049072,-9.362525939941406,0.08619125932455063
1475489033274,2.4133553504943848,-9.348160743713379,0.11911153793334961
1475489033454,2.1057004928588867,-9.418789863586426,0.06404489278793335
1475489033634,2.431311845779419,-9.333196640014648,-0.0017956512747332454
1475489033815,2.271498918533325,-9.299677848815918,-0.055665191262960434
1475489033994,2.3995885848999023,-9.335591316223145,0.009576806798577309
1475489034176,2.626439332962036,-9.32302188873291,0.01496376097202301
1475489034355,2.543240785598755,-9.299078941345215,-0.1388636976480484
1475489034535,2.515108823776245,-9.303269386291504,-0.10714052617549896
1475489034715,2.539050817489624,-9.27453899383545,-0.05925649031996727
1475489034896,2.513911724090576,-9.299677848815918,-0.053270988166332245
1475489035075,2.4343044757843018,-9.2841157913208,0.10714052617549896
1475489035256,2.4157495498657227,-9.334393501281738,0.09277531504631042
1475489035436,2.390610456466675,-9.322422981262207,-0.01975216343998909
1475489035614,2.36188006401062,-9.342175483703613,0.011372458189725876
1475489035795,2.501342296600342,-9.348758697509766,0.2819172441959381
1475489035976,2.3313539028167725,-9.299078941345215,-0.0065840547904372215
1475489036156,2.3265655040740967,-9.412803649902344,0.08798690885305405
1475489036336,2.4660277366638184,-9.311050415039063,0.0520738884806633
1475489036517,2.324171304702759,-9.354744911193848,-0.06584054976701736
1475489036696,2.4582467079162598,-9.348758697509766,-0.07182604819536209
1475489036875,2.2224178314208984,-9.370306968688965,-0.17717093229293823
1475489037055,2.500145196914673,-9.297882080078125,-0.026336219161748886
1475489037237,2.3696610927581787,-9.30686092376709,0.018555063754320145
1475489037418,2.535459518432617,-9.241618156433105,-0.012569558806717396
1475489037598,2.3959972858428955,-9.360730171203613,0.17657238245010376
1475489037775,2.4444799423217773,-9.317634582519531,0.03411737456917763
1475489037957,2.404975652694702,-9.311050415039063,0.10354922711849213
1475489038139,2.4588451385498047,-9.312846183776855,0.04967968538403511
1475489038318,2.3762452602386475,-9.361927032470703,0.1759738177061081
1475489038500,2.4833858013153076,-9.314641952514648,-0.0293289702385664
1475489038679,2.518700122833252,-9.281123161315918,0.04728548228740692
1475489038857,2.384026288986206,-9.333795547485352,0.1472434103488922
1475489039040,2.5043349266052246,-9.37509536743164,-0.041299980133771896
1475489039220,2.4361002445220947,-9.297284126281738,0.03411737456917763
1475489039400,2.446275472640991,-9.308655738830566,-0.0628477931022644
1475489039581,2.4223334789276123,-9.2841157913208,-0.05267243832349777
1475489039760,2.455852508544922,-9.272743225097656,0.04908113554120064
1475489039941,2.365471363067627,-9.312247276306152,0.08738835901021957
1475489040117,2.412158250808716,-9.30925464630127,-0.0065840547904372215
1475489040300,2.450465440750122,-9.350554466247559,0.08499415963888168
1475489040481,2.3774423599243164,-9.32661247253418,0.016759412363171577
1475489040662,2.3301568031311035,-9.354744911193848,0.038307227194309235
1475489040841,2.44747257232666,-9.27334213256836,-0.09696517139673233
1475489041021,2.4235305786132813,-9.320028305053711,0.07960720360279083
1475489041202,2.4684219360351563,-9.295488357543945,-0.046088382601737976
1475489041381,2.4875755310058594,-9.248801231384277,-0.10055647045373917
1475489041562,2.3540987968444824,-9.3427734375,0.07900865375995636
1475489041742,2.38462495803833,-9.354146003723145,0.16879121959209442
1475489041922,2.519897222518921,-9.26675796508789,-0.10893617570400238
1475489042100,2.3983914852142334,-9.321226119995117,-0.031124621629714966
1475489042282,2.4366986751556396,-9.322422981262207,0.06464344263076782
1475489042460,2.342726469039917,-9.291297912597656,-0.04429273307323456
1475489042643,2.4025814533233643,-9.327211380004883,0.06404489278793335
1475489042821,2.3319525718688965,-9.365518569946289,0.06703764945268631
1475489043003,2.4432828426361084,-9.335591316223145,-0.060453593730926514
1475489043182,2.390610456466675,-9.337985038757324,0.026336219161748886
1475489043363,2.3247697353363037,-9.35654067993164,0.040701430290937424
1475489043542,2.4001872539520264,-9.3643217086792,-0.08379705995321274
1475489043724,2.4163479804992676,-9.355941772460938,0.09636662155389786
1475489043903,2.412158250808716,-9.230844497680664,0.04189852997660637
1475489044084,2.367865562438965,-9.348160743713379,0.016160860657691956
1475489044263,2.3989901542663574,-9.333795547485352,0.07900865375995636
1475489044445,2.3971943855285645,-9.309853553771973,-0.004788403399288654
1475489044623,2.2852654457092285,-9.339780807495117,0.09876082092523575
1475489044805,2.476801633834839,-9.308655738830566,0.030526071786880493
1475489044983,2.3469161987304688,-9.39903736114502,0.09696517139673233
1475489045166,2.455852508544922,-9.315239906311035,0.043095629662275314
1475489045345,2.4163479804992676,-9.294290542602539,-0.05267243832349777
1475489045522,2.3810336589813232,-9.324816703796387,0.02513911761343479
1475489045703,2.646191358566284,-9.27453899383545,0.16819266974925995
1475489045883,2.5019407272338867,-9.26915168762207,0.13108254969120026
1475489046063,2.719214677810669,-9.29069995880127,-0.11671733111143112
1475489046243,2.451063871383667,-9.313444137573242,-0.058059390634298325
1475489046424,2.6599581241607666,-9.204508781433105,0.17537526786327362
1475489046604,2.713827610015869,-9.20211410522461,0.05386953800916672
1475489046785,2.518700122833252,-9.395445823669434,0.20530278980731964
1475489046964,2.5121161937713623,-9.241020202636719,0.06883329898118973
1475489047144,2.67372465133667,-9.095572471618652,0.09876082092523575
1475489047323,2.964620351791382,-9.139864921569824,-0.10235211998224258
1475489047505,2.5258827209472656,-9.332598686218262,0.31603461503982544
1475489047685,2.5438392162323,-9.275136947631836,0.2148796021938324
1475489047867,2.7126305103302,-9.229048728942871,0.17717093229293823
1475489048047,2.718017578125,-9.212289810180664,0.14425064623355865
1475489048226,2.714426279067993,-9.242815971374512,0.30226796865463257
1475489048407,2.516305923461914,-9.27034854888916,0.436343252658844
1475489048588,2.5713725090026855,-9.32661247253418,0.35913026332855225
1475489048768,2.4378957748413086,-9.296086311340332,0.017956512048840523
1475489048949,2.919130325317383,-9.177573204040527,0.0933738648891449
1475489049128,2.7521347999572754,-9.181164741516113,0.02992752194404602
1475489049310,2.5055320262908936,-9.305065155029297,0.12210428714752197
1475489049489,2.4420857429504395,-9.3026704788208,0.053270988166332245
1475489049667,2.627037763595581,-9.231443405151367,0.033518824726343155
1475489049850,2.694075345993042,-9.268553733825684,0.08738835901021957
1475489050030,2.759916067123413,-9.259574890136719,0.12928688526153564
1475489050209,2.8179752826690674,-9.165003776550293,0.0017956512747332454
1475489050387,2.5540146827697754,-9.275735855102539,-0.048482585698366165
1475489050571,2.69646954536438,-9.248801231384277,0.07242459803819656
1475489050751,2.5540146827697754,-9.29069995880127,0.19153612852096558
1475489050931,2.518101692199707,-9.242217063903809,-0.02274491637945175
1475489051111,2.5127146244049072,-9.299078941345215,0.0736217051744461
1475489051290,2.5450363159179688,-9.278130531311035,0.03411737456917763
1475489051471,2.5504233837127686,-9.232640266418457,0.10654197633266449
1475489051651,2.5133132934570313,-9.305663108825684,0.04369417950510979
1475489051831,2.5300726890563965,-9.287707328796387,-0.07721300423145294
1475489052015,2.5743653774261475,-9.257779121398926,0.12749123573303223
1475489052221,2.6880898475646973,-9.242815971374512,0.13048399984836578
1475489052372,2.44747257232666,-9.40023422241211,0.39803603291511536
1475489052552,3.0585925579071045,-9.105149269104004,-0.28072014451026917
1475489052732,2.5079262256622314,-9.407417297363281,-0.36990416049957275
1475489052912,2.627636432647705,-9.267355918884277,-0.36990416049957275
1475489053093,2.188898801803589,-9.17577838897705,-0.3082534670829773
1475489053272,2.8185739517211914,-9.165602684020996,-0.2849099934101105
1475489053453,3.334524393081665,-9.244611740112305,0.3621230125427246
1475489053632,2.8580782413482666,-9.445125579833984,0.5560533404350281
1475489053813,2.6426000595092773,-9.227851867675781,-0.39384618401527405
1475489053993,2.646790027618408,-9.446322441101074,1.1073182821273804
1475489054173,2.6180596351623535,-9.031527519226074,-0.8487445116043091
1475489054353,2.5971102714538574,-9.1847562789917,-0.04967968538403511
1475489054533,2.9652187824249268,-9.217676162719727,0.021547814831137657
1475489054712,2.588730573654175,-9.272144317626953,0.002394201699644327
1475489054894,2.8107926845550537,-9.225458145141602,-0.06763619929552078
1475489055074,2.451662540435791,-9.358335494995117,0.14903905987739563
1475489055254,2.764704465866089,-9.059659004211426,0.3196259140968323
1475489055434,2.4803929328918457,-9.197924613952637,0.11372458189725876
1475489055614,2.698863983154297,-9.130288124084473,0.018555063754320145
1475489055796,3.1280245780944824,-9.125499725341797,0.07182604819536209
1475489055976,2.7491421699523926,-9.216479301452637,0.15023615956306458
1475489056155,2.7317841053009033,-9.251194953918457,0.09277531504631042
1475489056335,2.674323320388794,-9.227252960205078,0.0347159244120121
1475489056515,2.6144683361053467,-9.269750595092773,0.18315643072128296
1475489056696,2.7030537128448486,-9.208698272705078,-0.055665191262960434
1475489056875,2.6390087604522705,-9.255983352661133,0.09457096457481384
1475489057055,2.714426279067993,-9.230246543884277,0.16519992053508759
1475489057236,2.5546131134033203,-9.297284126281738,0.19931729137897491
1475489057416,2.6809072494506836,-9.254786491394043,0.12270283699035645
1475489057596,2.6162638664245605,-9.266159057617188,0.04668693244457245
1475489057777,2.516305923461914,-9.297882080078125,0.10833762586116791
1475489057956,2.603095769882202,-9.229647636413574,0.0867898091673851
1475489058137,2.5761611461639404,-9.272743225097656,-0.09038111567497253
1475489058316,2.5797524452209473,-9.288305282592773,0.002992752008140087
1475489058497,2.609679937362671,-9.318233489990234,0.11252748221158981
1475489058676,2.691082715988159,-9.230246543884277,0.01735796220600605
1475489058858,2.6222493648529053,-9.318233489990234,0.2059013396501541
1475489059037,2.6204538345336914,-9.248801231384277,0.02513911761343479
1475489059218,2.630629062652588,-9.164405822753906,0.08619125932455063
1475489059395,2.646790027618408,-9.260173797607422,0.12270283699035645
1475489059577,2.7120320796966553,-9.214683532714844,0.18555063009262085
1475489059757,2.603095769882202,-9.256582260131836,0.1215057373046875
1475489059939,2.6593594551086426,-9.255385398864746,0.07960720360279083
1475489060115,2.6629507541656494,-9.290101051330566,0.090979665517807
1475489060300,2.6007015705108643,-9.244611740112305,0.06703764945268631
1475489060478,2.626439332962036,-9.268553733825684,0.1041477769613266
1475489060660,2.6180596351623535,-9.381080627441406,0.090979665517807
1475489060840,2.516305923461914,-9.300276756286621,0.03292027488350868
1475489061021,2.6557681560516357,-9.251194953918457,-0.008379706181585789
1475489061197,2.8838160037994385,-9.141061782836914,0.076015904545784
1475489061381,2.5145103931427,-9.28650951385498,0.06763619929552078
1475489061560,2.6653449535369873,-9.257181167602539,-0.009576806798577309
1475489061741,2.7551276683807373,-9.224260330200195,0.06344634294509888
1475489061921,2.5743653774261475,-9.307458877563477,0.3381809890270233
1475489062100,2.6629507541656494,-9.232640266418457,0.09636662155389786
1475489062280,2.4468741416931152,-9.305663108825684,0.035913024097681046
1475489062461,2.939481019973755,-9.224260330200195,0.3166331648826599
1475489062641,2.4666264057159424,-9.294290542602539,0.14006079733371735
1475489062821,2.737171173095703,-9.222464561462402,0.24600422382354736
1475489063001,2.543240785598755,-9.311649322509766,0.12090718746185303
1475489063179,2.4193408489227295,-9.405621528625488,0.27653029561042786
1475489063363,2.6168625354766846,-9.245808601379395,0.058059390634298325
1475489063542,2.5486276149749756,-9.294290542602539,0.20051439106464386
1475489063722,2.5576059818267822,-9.287707328796387,0.04489128291606903
1475489063902,2.63362193107605,-9.296086311340332,0.1496376097202301
1475489064081,2.5258827209472656,-9.276334762573242,0.13168109953403473
1475489064262,2.405574083328247,-9.30386734008789,0.04967968538403511
1475489064443,2.937685489654541,-9.130288124084473,0.2041056901216507
1475489064622,2.40736985206604,-9.333196640014648,0.24779987335205078
1475489064799,2.4827871322631836,-9.25179386138916,0.06224924325942993
1475489064983,2.519298791885376,-9.292495727539063,0.28730419278144836
1475489065160,2.455253839492798,-9.369110107421875,0.21368250250816345
1475489065343,2.501342296600342,-9.32661247253418,0.28969839215278625
1475489065524,2.3708581924438477,-9.257181167602539,0.1430535465478897
1475489065704,2.4366986751556396,-9.330802917480469,0.2059013396501541
1475489065881,2.5498247146606445,-9.299078941345215,0.2561795711517334
1475489066064,2.4372973442077637,-9.289502143859863,0.25498247146606445
1475489066245,2.5049335956573486,-9.24940013885498,0.15023615956306458
1475489066422,2.403179883956909,-9.276334762573242,0.30047231912612915
1475489066604,2.3959972858428955,-9.221866607666016,0.228047713637352
1475489066786,2.4169466495513916,-9.340977668762207,0.13587094843387604
1475489066965,2.4594438076019287,-9.339780807495117,0.2663549482822418
1475489067142,2.3523032665252686,-9.288305282592773,0.08439560979604721
1475489067323,2.4582467079162598,-9.303269386291504,0.10295066982507706
1475489067506,2.651578426361084,-9.29189682006836,0.2041056901216507
1475489067683,2.4576480388641357,-9.315239906311035,0.10773907601833344
1475489067866,2.6815059185028076,-9.233837127685547,0.14484919607639313
1475489068045,2.589329242706299,-9.307458877563477,0.10055647045373917
1475489068226,2.693476915359497,-9.232041358947754,0.04908113554120064
1475489068406,2.5995044708251953,-9.311050415039063,0.1711854189634323
1475489068586,2.633023262023926,-9.258976936340332,0.06643909960985184
1475489068765,2.4881742000579834,-9.296086311340332,0.11432313174009323
1475489068946,2.6455929279327393,-9.259574890136719,0.16160862147808075
1475489069126,2.33913516998291,-9.353547096252441,0.18555063009262085
1475489069307,2.8125884532928467,-9.240421295166016,0.19153612852096558
1475489069486,2.3989901542663574,-9.276932716369629,0.047884032130241394
1475489069667,2.297835111618042,-9.394847869873047,0.27054479718208313
1475489069845,2.472611904144287,-9.34157657623291,0.10773907601833344
1475489070028,2.558204412460327,-9.241020202636719,0.1933317929506302
1475489070206,2.601898670196533,-9.255983352661133,0.20769700407981873
1475489070388,2.5767595767974854,-9.292495727539063,0.19632454216480255
1475489070566,2.449268341064453,-9.327810287475586,0.11611878126859665
1475489070749,2.647388458251953,-9.298480987548828,0.26156654953956604
1475489070926,2.3942017555236816,-9.25179386138916,-0.031124621629714966
1475489071107,2.4163479804992676,-9.31045150756836,0.14664486050605774
1475489071288,2.5474305152893066,-9.3828763961792,0.2579752206802368
1475489071471,2.5977089405059814,-9.278728485107422,0.13287819921970367
1475489071648,2.5953147411346436,-9.251194953918457,-0.0011971008498221636
1475489071831,2.5797524452209473,-9.293692588806152,0.2454056739807129
1475489072008,2.4390928745269775,-9.331400871276855,0.19812019169330597
1475489072191,2.539050817489624,-9.273940086364746,0.2041056901216507
1475489072367,2.4815900325775146,-9.296685218811035,0.24660277366638184
1475489072551,2.5528175830841064,-9.30925464630127,0.1909375786781311
1475489072728,2.5510218143463135,-9.253589630126953,0.021547814831137657
1475489072911,2.562394380569458,-9.30805778503418,0.22505496442317963
1475489073090,2.5989060401916504,-9.280524253845215,0.25498247146606445
1475489073271,2.493561029434204,-9.30686092376709,0.14245499670505524
1475489073450,2.583942174911499,-9.271546363830566,0.19632454216480255
1475489073631,2.562992811203003,-9.352949142456055,0.31184476613998413
1475489073810,2.5085248947143555,-9.321824073791504,0.15322890877723694
1475489073992,2.407968282699585,-9.283516883850098,0.20231004059314728
1475489074172,2.6240451335906982,-9.244012832641602,0.1107318252325058
1475489074351,2.6144683361053467,-9.242815971374512,0.13826514780521393
1475489074532,2.4229321479797363,-9.326014518737793,0.2513911724090576
1475489074712,2.4390928745269775,-9.314043045043945,0.21009120345115662
1475489074892,2.5941176414489746,-9.261370658874512,0.16879121959209442
1475489075072,2.583942174911499,-9.249998092651367,0.06584054976701736
1475489075253,2.5468320846557617,-9.31045150756836,0.19393034279346466
1475489075432,2.607884168624878,-9.279925346374512,0.10893617570400238
1475489075613,2.5312697887420654,-9.317035675048828,0.16340427100658417
1475489075792,2.60548996925354,-9.283516883850098,0.1933317929506302
1475489075973,2.561197280883789,-9.279925346374512,0.12449848651885986
1475489076153,2.5240871906280518,-9.263166427612305,0.1909375786781311
1475489076334,2.779668092727661,-9.2033109664917,0.1173158809542656
1475489076513,2.3930046558380127,-9.32302188873291,0.25677812099456787
1475489076694,2.668337821960449,-9.255983352661133,0.10594342648983002
1475489076874,2.5043349266052246,-9.321824073791504,0.27413609623908997
1475489077055,2.561197280883789,-9.232640266418457,0.0975637212395668
1475489077234,2.4600422382354736,-9.296685218811035,0.22445641458034515
1475489077416,2.5474305152893066,-9.315838813781738,0.2795230448246002
1475489077596,2.540247917175293,-9.324816703796387,0.2519897222518921
1475489077774,2.567182779312134,-9.256582260131836,0.06703764945268631
1475489077952,2.495356798171997,-9.312247276306152,0.22086510062217712
1475489078131,2.5276784896850586,-9.311050415039063,0.22266076505184174
1475489078316,2.5701754093170166,-9.227851867675781,0.11252748221158981
1475489078495,2.5079262256622314,-9.291297912597656,0.24001872539520264
1475489078676,2.4384944438934326,-9.323619842529297,0.24779987335205078
1475489078862,2.5899276733398438,-9.304466247558594,0.13706804811954498
1475489079034,2.513911724090576,-9.331999778747559,0.2519897222518921
1475489079212,2.6898856163024902,-9.207501411437988,0.14784196019172668
1475489079396,2.473809003829956,-9.253589630126953,0.23343466222286224
1475489079576,2.6001031398773193,-9.2841157913208,0.20231004059314728
1475489079756,2.560598611831665,-9.303269386291504,0.13048399984836578
1475489079935,2.4444799423217773,-9.327211380004883,0.17836803197860718
1475489080113,2.5456349849700928,-9.346364974975586,0.3705027103424072
1475489080298,2.4666264057159424,-9.327211380004883,0.25977087020874023
1475489080477,2.4678235054016113,-9.312247276306152,0.1867477297782898
1475489080655,2.5348610877990723,-9.299078941345215,0.20889410376548767
1475489080837,2.6228480339050293,-9.25179386138916,0.2585737705230713
1475489081018,2.4361002445220947,-9.263166427612305,0.16101007163524628
1475489081198,2.5719711780548096,-9.2841157913208,0.2232593148946762
1475489081378,2.65097975730896,-9.2841157913208,0.2950853705406189
1475489081558,2.431910276412964,-9.30925464630127,0.1693897694349289
1475489081736,2.4875755310058594,-9.288904190063477,0.25019407272338867
1475489081918,2.5689783096313477,-9.27453899383545,0.22685061395168304
1475489082100,2.4133553504943848,-9.284713745117188,0.16160862147808075
1475489082280,2.580949544906616,-9.278130531311035,0.24001872539520264
1475489082458,2.471414804458618,-9.278728485107422,0.16220717132091522
1475489082640,2.5342624187469482,-9.23682975769043,0.21128830313682556
1475489082819,2.5905263423919678,-9.347561836242676,0.2890998423099518
1475489083001,2.5324668884277344,-9.354146003723145,0.17417816817760468
1475489083180,2.671330451965332,-9.229647636413574,0.3411737382411957
1475489083362,2.4372973442077637,-9.334393501281738,0.19393034279346466
1475489083541,2.6180596351623535,-9.242217063903809,0.12090718746185303
1475489083721,2.6342203617095947,-9.243413925170898,0.2950853705406189
1475489083901,2.6671407222747803,-9.186552047729492,0.2406172752380371
1475489084081,2.517503023147583,-9.34397029876709,0.3034650683403015
1475489084262,2.583343744277954,-9.252392768859863,0.11911153793334961
1475489084441,2.4139537811279297,-9.340977668762207,0.43275195360183716
1475489084621,2.4917654991149902,-9.29069995880127,0.17417816817760468
1475489084801,2.518700122833252,-9.281721115112305,0.06883329898118973
1475489084981,2.4827871322631836,-9.32302188873291,0.17717093229293823
1475489085162,2.624643564224243,-9.231443405151367,0.058059390634298325
1475489085342,2.4654293060302734,-9.373299598693848,0.30047231912612915
1475489085524,2.606088638305664,-9.26675796508789,0.19452889263629913
1475489085702,2.479794502258301,-9.308655738830566,0.17238251864910126
1475489085884,2.4151508808135986,-9.308655738830566,0.13587094843387604
1475489086062,2.6144683361053467,-9.279925346374512,0.1951274424791336
1475489086243,2.455852508544922,-9.30925464630127,0.2753331959247589
1475489086423,2.563591480255127,-9.317035675048828,0.19033902883529663
1475489086603,2.537853717803955,-9.288904190063477,0.1777694821357727
1475489086783,2.5121161937713623,-9.296685218811035,0.18614917993545532
1475489086964,2.4905683994293213,-9.319430351257324,0.22445641458034515
1475489087143,2.5276784896850586,-9.236231803894043,0.16400282084941864
1475489087324,2.455253839492798,-9.327211380004883,0.32381579279899597
1475489087503,2.5031378269195557,-9.288305282592773,0.21009120345115662
1475489087682,2.4905683994293213,-9.27034854888916,0.18734627962112427
1475489087864,2.4803929328918457,-9.313444137573242,0.3274070918560028
1475489088045,2.5995044708251953,-9.263166427612305,0.18076223134994507
1475489088224,2.500145196914673,-9.334992408752441,0.2711433470249176
1475489088405,2.5061306953430176,-9.295488357543945,0.21188685297966003
1475489088583,2.612074136734009,-9.271546363830566,0.11312603205442429
1475489088765,2.655169725418091,-9.280524253845215,0.18914192914962769
1475489088943,2.58274507522583,-9.300874710083008,0.20231004059314728
1475489089125,2.5492262840270996,-9.30686092376709,0.20111294090747833
1475489089303,2.563591480255127,-9.258378028869629,0.20470423996448517
1475489089482,2.541445016860962,-9.254786491394043,0.16519992053508759
1475489089662,2.5127146244049072,-9.278130531311035,0.2759317457675934
1475489089842,2.3582887649536133,-9.366117477416992,0.12629413604736328
1475489090026,2.515108823776245,-9.278130531311035,0.13706804811954498
1475489090205,2.561197280883789,-9.24940013885498,0.28072014451026917
1475489090387,2.4905683994293213,-9.328408241271973,0.3274070918560028
1475489090566,2.448071241378784,-9.283516883850098,0.011971008032560349
1475489090745,2.3535003662109375,-9.368511199951172,0.13287819921970367
1475489090925,2.5306711196899414,-9.348160743713379,0.031124621629714966
1475489091107,2.4803929328918457,-9.264363288879395,0.07900865375995636
1475489091287,2.630629062652588,-9.252392768859863,0.26815059781074524
1475489091468,2.6180596351623535,-9.311050415039063,0.10474632680416107
1475489091646,2.607285737991333,-9.272743225097656,0.22385786473751068
1475489091825,2.474407434463501,-9.276932716369629,0.12210428714752197
1475489092005,2.470217704772949,-9.276334762573242,0.0628477931022644
1475489092186,2.6001031398773193,-9.289502143859863,0.14664486050605774
1475489092367,2.4019827842712402,-9.359533309936523,0.2555810213088989
1475489092547,2.495955228805542,-9.363123893737793,0.05386953800916672
1475489092728,2.4630351066589355,-9.275735855102539,-0.0628477931022644
1475489092910,2.5252842903137207,-9.296685218811035,0.20530278980731964
1475489093088,2.4390928745269775,-9.314641952514648,0.11791443079710007
1475489093269,2.5929205417633057,-9.294889450073242,0.14245499670505524
1475489093450,2.695272445678711,-9.208099365234375,0.07841010391712189
1475489093630,2.4438812732696533,-9.276334762573242,0.02753331884741783
1475489093807,2.5701754093170166,-9.269750595092773,0.03711012750864029
1475489093990,2.4839842319488525,-9.366117477416992,0.2908954918384552
1475489094168,2.4456770420074463,-9.354146003723145,0.21547815203666687
1475489094351,2.624643564224243,-9.228450775146484,0.18974047899246216
1475489094534,2.406172752380371,-9.338583946228027,0.15921440720558167
1475489094711,2.535459518432617,-9.269750595092773,0.17238251864910126
1475489094889,2.4803929328918457,-9.276334762573242,0.06464344263076782
1475489095071,2.427720546722412,-9.328408241271973,0.13347674906253815
1475489095251,2.5767595767974854,-9.260771751403809,0.11671733111143112
1475489095431,2.382230758666992,-9.360730171203613,0.2885012924671173
1475489095613,2.580949544906616,-9.276334762573242,0.1041477769613266
1475489095791,2.562992811203003,-9.3026704788208,0.46148237586021423
1475489095971,2.434903144836426,-9.318233489990234,0.22864626348018646
1475489096151,2.5749640464782715,-9.241618156433105,0.10654197633266449
1475489096332,2.4857800006866455,-9.329007148742676,0.32022446393966675
1475489096512,2.496553897857666,-9.298480987548828,0.2232593148946762
1475489096692,2.5953147411346436,-9.232640266418457,0.018555063754320145
1475489096872,2.4157495498657227,-9.306262016296387,0.14484919607639313
1475489097053,2.52109432220459,-9.30686092376709,0.19273324310779572
1475489097232,2.3953988552093506,-9.316437721252441,0.22864626348018646
1475489097413,2.5061306953430176,-9.30686092376709,0.07062894850969315
1475489097592,2.455852508544922,-9.335591316223145,0.3148375153541565
1475489097773,2.471414804458618,-9.298480987548828,0.15083470940589905
1475489097957,2.5773582458496094,-9.267355918884277,0.21009120345115662
1475489098134,2.5109190940856934,-9.300276756286621,0.2867056429386139
1475489098313,2.4001872539520264,-9.29069995880127,0.10534487664699554
1475489098494,2.583343744277954,-9.241618156433105,0.13587094843387604
1475489098674,2.469619035720825,-9.3026704788208,0.19273324310779572
1475489098857,2.5546131134033203,-9.264962196350098,0.09696517139673233
1475489099035,2.5312697887420654,-9.272743225097656,0.1801636815071106
1475489099215,2.477998733520508,-9.255983352661133,0.14784196019172668
1475489099394,2.476801633834839,-9.272743225097656,0.262763649225235
1475489099573,2.6360161304473877,-9.23563289642334,0.20889410376548767
1475489099755,2.5336639881134033,-9.307458877563477,0.33279404044151306
1475489099931,2.384026288986206,-9.365518569946289,0.27653029561042786
1475489100112,2.608482837677002,-9.221267700195313,0.10833762586116791
1475489100296,2.3995885848999023,-9.26795482635498,0.2214636504650116
1475489100475,2.58274507522583,-9.261969566345215,0.12749123573303223
1475489100656,2.404975652694702,-9.384073257446289,0.2106897532939911
1475489100836,2.4606409072875977,-9.320028305053711,0.322618693113327
1475489101016,2.580949544906616,-9.32661247253418,0.24001872539520264
1475489101195,2.516305923461914,-9.314641952514648,0.17896658182144165
1475489101377,2.535459518432617,-9.302072525024414,0.23403321206569672
1475489101554,2.63362193107605,-9.25059700012207,0.1149216815829277
1475489101736,2.496553897857666,-9.333795547485352,0.17178396880626678
1475489101917,2.74076247215271,-9.232041358947754,0.10833762586116791
1475489102095,2.8149826526641846,-9.190741539001465,0.30945056676864624
1475489102275,2.9233202934265137,-9.123703956604004,0.14185644686222076
1475489102456,2.604292869567871,-9.251194953918457,0.08738835901021957
1475489102636,2.721010208129883,-9.185953140258789,0.08499415963888168
1475489102818,2.431311845779419,-9.30925464630127,0.09576806426048279
1475489102996,2.4887726306915283,-9.255983352661133,0.013766659423708916
1475489103178,2.4642322063446045,-9.262567520141602,0.07302315533161163
1475489103358,2.6114754676818848,-9.314641952514648,0.17717093229293823
1475489103539,2.6192567348480225,-9.214085578918457,0.05626374110579491
1475489103718,2.4199392795562744,-9.329605102539063,0.31842881441116333
1475489103900,2.5456349849700928,-9.297284126281738,0.15801730751991272
1475489104080,2.5468320846557617,-9.290101051330566,0.24480712413787842
1475489104257,2.5947160720825195,-9.248801231384277,0.22445641458034515
1475489104440,2.450465440750122,-9.261969566345215,0.1280897855758667
1475489104621,2.5450363159179688,-9.305065155029297,0.353743314743042
1475489104800,2.7024552822113037,-9.210494041442871,0.23523031175136566
1475489104978,2.477998733520508,-9.303269386291504,0.20231004059314728
1475489105162,2.676717519760132,-9.248801231384277,0.19871874153614044
1475489105341,2.5564088821411133,-9.302072525024414,0.2555810213088989
1475489105521,2.5031378269195557,-9.28650951385498,0.20350714027881622
1475489105702,2.366069793701172,-9.360730171203613,0.39205053448677063
1475489105880,2.4690206050872803,-9.316437721252441,0.11192893236875534
1475489106062,2.472013235092163,-9.26675796508789,0.076015904545784
1475489106239,2.4163479804992676,-9.365518569946289,0.21607670187950134
1475489106421,2.519298791885376,-9.25179386138916,0.07661445438861847
1475489106601,2.471414804458618,-9.312247276306152,0.3124433159828186
1475489106782,2.5234885215759277,-9.251194953918457,0.17298106849193573
1475489106961,2.589329242706299,-9.264962196350098,0.2645592987537384
1475489107143,2.5755624771118164,-9.272144317626953,0.25019407272338867
1475489107322,2.518101692199707,-9.246406555175781,0.1693897694349289
1475489107503,2.5959131717681885,-9.25059700012207,0.1562216579914093
1475489107682,2.5133132934570313,-9.333795547485352,0.363918662071228
1475489107870,2.5043349266052246,-9.281721115112305,0.1711854189634323
1475489108043,2.478597402572632,-9.299677848815918,0.14425064623355865
1475489108223,2.4384944438934326,-9.281721115112305,0.0694318488240242
1475489108403,2.4839842319488525,-9.281123161315918,0.25019407272338867
1475489108583,2.580949544906616,-9.216479301452637,0.20350714027881622
1475489108763,2.476801633834839,-9.328408241271973,0.1430535465478897
1475489108943,2.4594438076019287,-9.327211380004883,0.22206220030784607
1475489109123,2.6174609661102295,-9.27034854888916,0.18794482946395874
1475489109304,2.5121161937713623,-9.261370658874512,0.2795230448246002
1475489109484,2.477400302886963,-9.299078941345215,0.27892449498176575
1475489109666,2.477400302886963,-9.295488357543945,0.19393034279346466
1475489109845,2.4666264057159424,-9.314043045043945,0.2214636504650116
1475489110025,2.4624364376068115,-9.333196640014648,0.3292027413845062
1475489110204,2.4905683994293213,-9.299677848815918,0.08080431073904037
1475489110385,2.4402899742126465,-9.279327392578125,0.1646013706922531
1475489110565,2.5791537761688232,-9.276932716369629,0.2298433631658554
1475489110745,2.542642116546631,-9.300874710083008,0.18914192914962769
1475489110925,2.5552117824554443,-9.267355918884277,0.3148375153541565
1475489111106,2.4450783729553223,-9.284713745117188,0.2364274114370346
1475489111285,2.446275472640991,-9.296685218811035,0.1843535304069519
1475489111466,2.5312697887420654,-9.306262016296387,0.23163901269435883
1475489111646,2.494758129119873,-9.336788177490234,0.166995570063591
1475489111825,2.6431987285614014,-9.25179386138916,0.14604631066322327
1475489112006,2.4869771003723145,-9.300276756286621,0.23762452602386475
1475489112186,2.4390928745269775,-9.27334213256836,0.14784196019172668
1475489112366,2.4408886432647705,-9.311649322509766,0.28311434388160706
1475489112547,2.5665841102600098,-9.239224433898926,0.09457096457481384
1475489112727,2.5097219944000244,-9.285911560058594,0.20709845423698425
1475489112907,2.536656618118286,-9.305663108825684,0.13587094843387604
1475489113087,2.56000018119812,-9.187150001525879,0.15083470940589905
1475489113268,2.403179883956909,-9.32541561126709,0.3058592677116394
1475489113447,2.5486276149749756,-9.262567520141602,0.12868833541870117
1475489113626,2.500145196914673,-9.284713745117188,0.19871874153614044
1475489113806,2.4917654991149902,-9.287108421325684,0.31184476613998413
1475489113986,2.6791117191314697,-9.230246543884277,0.2064998894929886
1475489114168,2.425924777984619,-9.317634582519531,0.2041056901216507
1475489114348,2.454056739807129,-9.32661247253418,0.25438392162323
1475489114530,2.498948097229004,-9.315838813781738,0.1711854189634323
1475489114708,2.560598611831665,-9.279925346374512,0.1472434103488922
1475489114890,2.3918075561523438,-9.32661247253418,0.2795230448246002
1475489115067,2.495955228805542,-9.30805778503418,0.18555063009262085
1475489115250,2.456450939178467,-9.301473617553711,0.18974047899246216
1475489115430,2.449866771697998,-9.305065155029297,0.25438392162323
1475489115607,2.522890090942383,-9.298480987548828,0.2041056901216507
1475489115790,2.4624364376068115,-9.288904190063477,0.2537853717803955
1475489115970,2.521692991256714,-9.287707328796387,0.12449848651885986
1475489116148,2.449268341064453,-9.306262016296387,0.1843535304069519
1475489116330,2.5486276149749756,-9.293692588806152,0.09876082092523575
1475489116509,2.4821887016296387,-9.312846183776855,0.15143325924873352
1475489116690,2.5462334156036377,-9.297284126281738,0.06883329898118973
1475489116869,2.49834942817688,-9.29069995880127,0.08259996026754379
1475489117049,2.5755624771118164,-9.263765335083008,0.11013327538967133
1475489117228,2.5258827209472656,-9.24940013885498,0.13347674906253815
1475489117412,2.4803929328918457,-9.32541561126709,0.21547815203666687
1475489117591,2.498948097229004,-9.327810287475586,0.18555063009262085
1475489117772,2.5294740200042725,-9.281721115112305,0.07302315533161163
1475489117951,2.449268341064453,-9.349956512451172,0.2585737705230713
1475489118132,2.4821887016296387,-9.28531265258789,0.15562310814857483
1475489118312,2.4881742000579834,-9.318233489990234,0.22924481332302094
1475489118493,2.5097219944000244,-9.317035675048828,0.25498247146606445
1475489118672,2.449866771697998,-9.30925464630127,0.2663549482822418
1475489118852,2.4648306369781494,-9.314043045043945,0.19812019169330597
1475489119033,2.496553897857666,-9.275136947631836,0.22924481332302094
1475489119213,2.4582467079162598,-9.321226119995117,0.2322375625371933
1475489119393,2.4654293060302734,-9.288305282592773,0.2561795711517334
1475489119573,2.44747257232666,-9.29309368133545,0.23702596127986908
1475489119753,2.4648306369781494,-9.278728485107422,0.28131869435310364
1475489119934,2.4444799423217773,-9.331400871276855,0.21966800093650818
1475489120113,2.491166830062866,-9.280524253845215,0.28371289372444153
1475489120294,2.470816135406494,-9.311649322509766,0.3250128924846649
1475489120474,2.4444799423217773,-9.272743225097656,0.152031809091568
1475489120654,2.5546131134033203,-9.279327392578125,0.26755204796791077
1475489120834,2.4588451385498047,-9.34037971496582,0.24839842319488525
1475489121016,2.4863784313201904,-9.336788177490234,0.2495955228805542
1475489121193,2.4845829010009766,-9.294290542602539,0.21847090125083923
1475489121374,2.4678235054016113,-9.308655738830566,0.1777694821357727
1475489121556,2.4684219360351563,-9.227252960205078,0.15023615956306458
1475489121735,2.580350875854492,-9.254188537597656,0.22924481332302094
1475489121916,2.4833858013153076,-9.324816703796387,0.23702596127986908
1475489122093,2.5025393962860107,-9.345168113708496,0.16519992053508759
1475489122277,2.522291421890259,-9.257779121398926,0.09816227108240128
1475489122456,2.4193408489227295,-9.307458877563477,0.23523031175136566
1475489122636,2.4618380069732666,-9.30805778503418,0.2172738015651703
1475489122816,2.469619035720825,-9.291297912597656,0.20350714027881622
1475489122996,2.5019407272338867,-9.293692588806152,0.3058592677116394
1475489123177,2.542642116546631,-9.281123161315918,0.23762452602386475
1475489123355,2.515108823776245,-9.320627212524414,0.17178396880626678
1475489123538,2.446275472640991,-9.306262016296387,0.19812019169330597
1475489123715,2.5552117824554443,-9.276932716369629,0.20350714027881622
1475489123897,2.449866771697998,-9.337985038757324,0.2064998894929886
1475489124077,2.5504233837127686,-9.291297912597656,0.1801636815071106
1475489124257,2.5055320262908936,-9.299078941345215,0.13766659796237946
1475489124437,2.5294740200042725,-9.299078941345215,0.16101007163524628
1475489124619,2.5348610877990723,-9.27334213256836,0.1646013706922531
1475489124798,2.5133132934570313,-9.30686092376709,0.21188685297966003
1475489124980,2.476203203201294,-9.296685218811035,0.18076223134994507
1475489125158,2.5522189140319824,-9.270947456359863,0.13168109953403473
1475489125340,2.56000018119812,-9.196128845214844,0.1777694821357727
1475489125519,2.5312697887420654,-9.296086311340332,0.19632454216480255
1475489125700,2.4630351066589355,-9.296685218811035,0.17238251864910126
1475489125880,2.56000018119812,-9.296086311340332,0.18136078119277954
1475489126060,2.491166830062866,-9.27334213256836,0.22206220030784607
1475489126239,2.5067291259765625,-9.30805778503418,0.2041056901216507
1475489126421,2.6443958282470703,-9.291297912597656,0.18495208024978638
1475489126600,2.5486276149749756,-9.268553733825684,0.11013327538967133
1475489126781,2.627636432647705,-9.218873977661133,0.18734627962112427
1475489126961,2.58813214302063,-9.276932716369629,0.16759411990642548
1475489127141,2.4666264057159424,-9.306262016296387,0.17896658182144165
1475489127321,2.5246856212615967,-9.285911560058594,0.28790274262428284
1475489127501,2.5564088821411133,-9.26915168762207,0.24181437492370605
1475489127681,2.49834942817688,-9.32541561126709,0.1735796183347702
1475489127861,2.472013235092163,-9.30925464630127,0.2579752206802368
1475489128041,2.4833858013153076,-9.267355918884277,0.228047713637352
1475489128222,2.4684219360351563,-9.283516883850098,0.1777694821357727
1475489128401,2.543240785598755,-9.294290542602539,0.13347674906253815
1475489128582,2.49834942817688,-9.299078941345215,0.33099839091300964
1475489128762,2.588730573654175,-9.369708061218262,0.31783026456832886
1475489128942,2.495955228805542,-9.315239906311035,0.14844051003456116
1475489129122,2.5522189140319824,-9.242815971374512,0.24899697303771973
1475489129302,2.7234044075012207,-9.26795482635498,0.19871874153614044
1475489129483,2.361281394958496,-9.442731857299805,0.3663128614425659
1475489129663,2.67372465133667,-9.275136947631836,0.15263035893440247
1475489129843,2.5474305152893066,-9.245808601379395,0.19452889263629913
1475489130023,2.4229321479797363,-9.300276756286621,0.18914192914962769
1475489130201,2.4803929328918457,-9.303269386291504,0.011372458189725876
1475489130383,2.4127566814422607,-9.288904190063477,0.12389993667602539
1475489130562,2.5677812099456787,-9.268553733825684,-0.005386953707784414
1475489130744,2.6192567348480225,-9.332598686218262,0.16819266974925995
1475489130921,2.3110032081604004,-9.374496459960938,0.17537526786327362
1475489131104,2.4594438076019287,-9.287707328796387,0.050876785069704056
1475489131282,2.472611904144287,-9.290101051330566,0.17238251864910126
1475489131465,2.623446464538574,-9.262567520141602,0.16220717132091522
1475489131643,2.6222493648529053,-9.23563289642334,0.1149216815829277
1475489131825,2.388216257095337,-9.374496459960938,0.24839842319488525
1475489132005,2.558204412460327,-9.292495727539063,0.16160862147808075
1475489132185,2.630030632019043,-9.241020202636719,0.06584054976701736
1475489132365,2.558204412460327,-9.263765335083008,0.1843535304069519
1475489132546,2.5324668884277344,-9.322422981262207,0.1735796183347702
1475489132725,2.5492262840270996,-9.275735855102539,0.1562216579914093
1475489132906,2.522291421890259,-9.288305282592773,0.12210428714752197
1475489133085,2.557007312774658,-9.307458877563477,0.21188685297966003
1475489133266,2.5486276149749756,-9.25179386138916,0.05925649031996727
1475489133446,2.4821887016296387,-9.355941772460938,0.0802057534456253
1475489133626,2.5282769203186035,-9.306262016296387,0.10534487664699554
1475489133806,2.5534160137176514,-9.246406555175781,0.13706804811954498
1475489133986,2.5546131134033203,-9.230844497680664,0.20470423996448517
1475489134164,2.609081268310547,-9.284713745117188,0.1951274424791336
1475489134347,2.5115175247192383,-9.320028305053711,0.25438392162323
1475489134525,2.558803081512451,-9.260771751403809,0.09516951441764832
1475489134707,2.5049335956573486,-9.314641952514648,0.181959331035614
1475489134887,2.539649486541748,-9.322422981262207,0.15502455830574036
1475489135066,2.5546131134033203,-9.333795547485352,0.10534487664699554
1475489135245,2.520495891571045,-9.319430351257324,0.152031809091568
1475489135427,2.4791958332061768,-9.32661247253418,0.1843535304069519
1475489135608,2.558803081512451,-9.290101051330566,0.028131870552897453
1475489135788,2.5061306953430176,-9.318831443786621,0.10773907601833344
1475489135968,2.4863784313201904,-9.309853553771973,0.07003039866685867
1475489136146,2.5707740783691406,-9.30386734008789,0.1041477769613266
1475489136328,2.513911724090576,-9.297882080078125,0.1041477769613266
1475489136510,2.5480291843414307,-9.272144317626953,0.05746084079146385
1475489136690,2.5133132934570313,-9.281721115112305,0.1107318252325058
1475489136870,2.496553897857666,-9.262567520141602,0.13407529890537262
1475489137048,2.455852508544922,-9.317035675048828,0.07242459803819656
1475489137229,2.585737943649292,-9.270947456359863,0.1388636976480484
1475489137408,2.558204412460327,-9.305663108825684,0.16579847037792206
1475489137591,2.4127566814422607,-9.29309368133545,0.11013327538967133
1475489137770,2.5121161937713623,-9.296086311340332,0.16639702022075653
1475489137951,2.5049335956573486,-9.281721115112305,0.1364694982767105
1475489138131,2.589329242706299,-9.240421295166016,0.14185644686222076
1475489138311,2.5312697887420654,-9.279925346374512,0.10654197633266449
1475489138490,2.5043349266052246,-9.290101051330566,0.11911153793334961
1475489138671,2.5037364959716797,-9.30925464630127,0.12509703636169434
1475489138850,2.5480291843414307,-9.23563289642334,0.07541735470294952
1475489139031,2.565387010574341,-9.263765335083008,0.10354922711849213
1475489139211,2.5133132934570313,-9.294290542602539,0.1999158412218094
1475489139392,2.472611904144287,-9.331999778747559,0.17417816817760468
1475489139572,2.494758129119873,-9.236231803894043,0.1412578970193863
1475489139752,2.4606409072875977,-9.308655738830566,0.07481880486011505
1475489139932,2.540247917175293,-9.282918930053711,0.1538274586200714
1475489140110,2.5486276149749756,-9.297882080078125,0.12509703636169434
1475489140293,2.4839842319488525,-9.298480987548828,0.14784196019172668
1475489140472,2.5695769786834717,-9.254188537597656,0.05626374110579491
1475489140653,2.500145196914673,-9.279925346374512,0.14484919607639313
1475489140833,2.6408045291900635,-9.26795482635498,0.18136078119277954
1475489141013,2.5342624187469482,-9.244012832641602,0.1454477459192276
1475489141193,2.491166830062866,-9.320627212524414,0.1646013706922531
1475489141374,2.5474305152893066,-9.30925464630127,0.23582886159420013
1475489141553,2.5145103931427,-9.291297912597656,0.16220717132091522
1475489141733,2.5067291259765625,-9.275735855102539,0.1867477297782898
1475489141914,2.521692991256714,-9.261969566345215,0.19213469326496124
1475489142094,2.4893712997436523,-9.330204010009766,0.2669534981250763
1475489142301,2.5959131717681885,-9.255983352661133,0.1215057373046875
1475489142459,2.4211363792419434,-9.3427734375,0.21368250250816345
1475489142634,2.5959131717681885,-9.238027572631836,0.09935937076807022
1475489142815,2.4456770420074463,-9.297882080078125,0.25258827209472656
1475489142995,2.5540146827697754,-9.322422981262207,0.25438392162323
1475489143175,2.5031378269195557,-9.26675796508789,0.15801730751991272
1475489143355,2.521692991256714,-9.332598686218262,0.19213469326496124
1475489143536,2.519298791885376,-9.268553733825684,0.19452889263629913
1475489143715,2.5085248947143555,-9.304466247558594,0.23283611238002777
1475489143896,2.539649486541748,-9.28531265258789,0.1801636815071106
1475489144076,2.4827871322631836,-9.320627212524414,0.24779987335205078
1475489144256,2.519897222518921,-9.292495727539063,0.16759411990642548
1475489144435,2.535459518432617,-9.272743225097656,0.13287819921970367
1475489144613,2.58274507522583,-9.267355918884277,0.14844051003456116
1475489144797,2.558803081512451,-9.2841157913208,0.1801636815071106
1475489144976,2.456450939178467,-9.307458877563477,0.22505496442317963
1475489145160,2.544437885284424,-9.275136947631836,0.0999579206109047
1475489145336,2.5276784896850586,-9.301473617553711,0.2579752206802368
1475489145517,2.5258827209472656,-9.284713745117188,0.1933317929506302
1475489145696,2.4899697303771973,-9.269750595092773,0.2388216257095337
1475489145878,2.5474305152893066,-9.265560150146484,0.2579752206802368
1475489146060,2.52109432220459,-9.297882080078125,0.2148796021938324
1475489146234,2.5947160720825195,-9.278728485107422,0.2346317619085312
