,timestamp,ax,ay,az
0,7000.0,0.5599204897880554,4.208974838256837,-9.42054271697998
1,7100.0,0.5599204897880554,4.208974838256837,-9.42054271697998
2,7200.0,0.5599204897880554,4.208974838256837,-9.42054271697998
3,7300.0,-0.30149564146995544,5.525027275085449,-7.496713638305664
4,7400.0,-0.30149564146995544,5.525027275085449,-7.496713638305664
5,7500.0,-0.2488535493612289,5.599205493927002,-8.499305725097656
6,7600.0,-0.2488535493612289,5.599205493927002,-8.499305725097656
7,7700.0,-0.2488535493612289,5.599205493927002,-8.499305725097656
8,7800.0,-0.9475577473640442,4.500899314880371,-7.637890338897705
9,7900.0,-0.9475577473640442,4.500899314880371,-7.637890338897705
10,8000.0,-1.057627558708191,4.610969543457031,-8.673982620239258
11,8100.0,-1.057627558708191,4.610969543457031,-8.673982620239258
12,8200.0,-0.5838487148284912,5.572883605957031,-8.446663856506348
13,8300.0,-0.5838487148284912,5.572883605957031,-8.446663856506348
14,8400.0,-1.043270707130432,4.563112735748291,-8.035098075866701
15,8500.0,-1.043270707130432,4.563112735748291,-8.035098075866701
16,8600.0,-1.043270707130432,4.563112735748291,-8.035098075866701
17,8700.0,0.033499516546726234,4.9387855529785165,-8.382057189941406
18,8800.0,0.033499516546726234,4.9387855529785165,-8.382057189941406
19,8900.0,-1.2873386144638062,5.991628170013428,-7.934599876403809
20,8000.0,-1.057627558708191,4.610969543457031,-8.673982620239258
21,8100.0,-1.057627558708191,4.610969543457031,-8.673982620239258
22,8200.0,-0.5838487148284912,5.572883605957031,-8.446663856506348
23,8300.0,-0.5838487148284912,5.572883605957031,-8.446663856506348
24,8400.0,-1.043270707130432,4.563112735748291,-8.035098075866701
25,8500.0,-1.043270707130432,4.563112735748291,-8.035098075866701
26,8600.0,-1.043270707130432,4.563112735748291,-8.035098075866701
27,8700.0,0.033499516546726234,4.9387855529785165,-8.382057189941406
28,8800.0,0.033499516546726234,4.9387855529785165,-8.382057189941406
29,8900.0,-1.2873386144638062,5.991628170013428,-7.934599876403809
30,9000.0,-1.2873386144638062,5.991628170013428,-7.934599876403809
31,9100.0,-1.2873386144638062,5.991628170013428,-7.934599876403809
32,9200.0,0.11006984114646913,5.182853698730469,-8.111669540405272
33,9300.0,0.11006984114646913,5.182853698730469,-8.111669540405272
34,9400.0,-1.057627558708191,6.5324058532714835,-7.2502522468566895
35,9500.0,-1.057627558708191,6.5324058532714835,-7.2502522468566895
36,9600.0,0.28235307335853577,5.9342002868652335,-7.219145774841309
37,9700.0,0.28235307335853577,5.9342002868652335,-7.219145774841309
38,9800.0,-0.22013968229293826,6.742973804473878,-6.546762466430664
39,9900.0,-0.22013968229293826,6.742973804473878,-6.546762466430664
40,9000.0,-1.2873386144638062,5.991628170013428,-7.934599876403809
41,9100.0,-1.2873386144638062,5.991628170013428,-7.934599876403809
42,9200.0,0.11006984114646913,5.182853698730469,-8.111669540405272
43,9300.0,0.11006984114646913,5.182853698730469,-8.111669540405272
44,9400.0,-1.057627558708191,6.5324058532714835,-7.2502522468566895
45,9500.0,-1.057627558708191,6.5324058532714835,-7.2502522468566895
46,9600.0,0.28235307335853577,5.9342002868652335,-7.219145774841309
47,9700.0,0.28235307335853577,5.9342002868652335,-7.219145774841309
48,9800.0,-0.22013968229293826,6.742973804473878,-6.546762466430664
49,9900.0,-0.22013968229293826,6.742973804473878,-6.546762466430664
50,10000.0,-0.22013968229293826,6.742973804473878,-6.546762466430664
51,10100.0,-0.02392822504043579,7.427321434020996,-7.788637638092041
52,10200.0,-0.02392822504043579,7.427321434020996,-7.788637638092041
53,10300.0,-4.273581027984618,5.113461971282959,-6.740581512451173
54,10400.0,-4.273581027984618,5.113461971282959,-6.740581512451173
55,10500.0,-4.273581027984618,5.113461971282959,-6.740581512451173
56,10600.0,1.3351951837539673,5.950949668884277,-6.431907176971436
57,10700.0,1.3351951837539673,5.950949668884277,-6.431907176971436
58,10800.0,-0.9954141974449158,6.838686943054199,-6.642475128173827
59,10900.0,-0.9954141974449158,6.838686943054199,-6.642475128173827
60,10000.0,-0.22013968229293826,6.742973804473878,-6.546762466430664
61,10100.0,-0.02392822504043579,7.427321434020996,-7.788637638092041
62,10200.0,-0.02392822504043579,7.427321434020996,-7.788637638092041
63,10300.0,-4.273581027984618,5.113461971282959,-6.740581512451173
64,10400.0,-4.273581027984618,5.113461971282959,-6.740581512451173
65,10500.0,-4.273581027984618,5.113461971282959,-6.740581512451173
66,10600.0,1.3351951837539673,5.950949668884277,-6.431907176971436
67,10700.0,1.3351951837539673,5.950949668884277,-6.431907176971436
68,10800.0,-0.9954141974449158,6.838686943054199,-6.642475128173827
69,10900.0,-0.9954141974449158,6.838686943054199,-6.642475128173827
70,11000.0,-0.861416220664978,5.491527557373047,-6.999006271362305
71,11100.0,-0.861416220664978,5.491527557373047,-6.999006271362305
72,11200.0,-0.12442677468061447,5.864808082580566,-7.180860996246338
73,11300.0,-0.12442677468061447,5.864808082580566,-7.180860996246338
74,11400.0,-0.4163511395454407,7.070791244506836,-6.920042991638184
75,11500.0,-0.4163511395454407,7.070791244506836,-6.920042991638184
76,11600.0,-0.4163511395454407,7.070791244506836,-6.920042991638184
77,11700.0,-2.6608188152313232,4.41475772857666,-7.068397998809815
78,11800.0,-2.6608188152313232,4.41475772857666,-7.068397998809815
79,11900.0,0.3158525824546814,6.7142601013183585,-6.556333541870117
80,11000.0,-0.861416220664978,5.491527557373047,-6.999006271362305
81,11100.0,-0.861416220664978,5.491527557373047,-6.999006271362305
82,11200.0,-0.12442677468061447,5.864808082580566,-7.180860996246338
83,11300.0,-0.12442677468061447,5.864808082580566,-7.180860996246338
84,11400.0,-0.4163511395454407,7.070791244506836,-6.920042991638184
85,11500.0,-0.4163511395454407,7.070791244506836,-6.920042991638184
86,11600.0,-0.4163511395454407,7.070791244506836,-6.920042991638184
87,11700.0,-2.6608188152313232,4.41475772857666,-7.068397998809815
88,11800.0,-2.6608188152313232,4.41475772857666,-7.068397998809815
89,11900.0,0.3158525824546814,6.7142601013183585,-6.556333541870117
90,12000.0,0.3158525824546814,6.7142601013183585,-6.556333541870117
91,12100.0,0.12921242415905002,6.613761901855469,-8.054241180419924
92,12200.0,0.12921242415905002,6.613761901855469,-8.054241180419924
93,12300.0,0.12921242415905002,6.613761901855469,-8.054241180419924
94,12400.0,0.19621144235134125,6.424728870391847,-6.795616626739503
95,12500.0,0.19621144235134125,6.424728870391847,-6.795616626739503
96,12600.0,0.30149564146995544,6.171089172363281,-8.413164138793945
97,12700.0,0.30149564146995544,6.171089172363281,-8.413164138793945
98,12800.0,0.1339980661869049,6.104090690612793,-8.980262756347656
99,12900.0,0.1339980661869049,6.104090690612793,-8.980262756347656
100,12000.0,0.3158525824546814,6.7142601013183585,-6.556333541870117
101,12100.0,0.12921242415905002,6.613761901855469,-8.054241180419924
102,12200.0,0.12921242415905002,6.613761901855469,-8.054241180419924
103,12300.0,0.12921242415905002,6.613761901855469,-8.054241180419924
104,12400.0,0.19621144235134125,6.424728870391847,-6.795616626739503
105,12500.0,0.19621144235134125,6.424728870391847,-6.795616626739503
106,12600.0,0.30149564146995544,6.171089172363281,-8.413164138793945
107,12700.0,0.30149564146995544,6.171089172363281,-8.413164138793945
108,12800.0,0.1339980661869049,6.104090690612793,-8.980262756347656
109,12900.0,0.1339980661869049,6.104090690612793,-8.980262756347656
110,13000.0,-2.665604591369629,5.362315654754639,-6.824329853057861
111,13100.0,-2.665604591369629,5.362315654754639,-6.824329853057861
112,13200.0,0.4259224236011505,4.453042984008789,-9.008977890014648
113,13300.0,0.4259224236011505,4.453042984008789,-9.008977890014648
114,13400.0,0.4259224236011505,4.453042984008789,-9.008977890014648
115,13500.0,0.17228324711322784,8.520841598510742,-6.673582077026367
116,13600.0,0.17228324711322784,8.520841598510742,-6.673582077026367
117,13700.0,0.17228324711322784,6.943971633911133,-5.711667537689209
118,13800.0,0.17228324711322784,6.943971633911133,-5.711667537689209
119,13900.0,0.4259224236011505,6.874579429626465,-5.764309883117676
120,13000.0,-2.665604591369629,5.362315654754639,-6.824329853057861
121,13100.0,-2.665604591369629,5.362315654754639,-6.824329853057861
122,13200.0,0.4259224236011505,4.453042984008789,-9.008977890014648
123,13300.0,0.4259224236011505,4.453042984008789,-9.008977890014648
124,13400.0,0.4259224236011505,4.453042984008789,-9.008977890014648
125,13500.0,0.17228324711322784,8.520841598510742,-6.673582077026367
126,13600.0,0.17228324711322784,8.520841598510742,-6.673582077026367
127,13700.0,0.17228324711322784,6.943971633911133,-5.711667537689209
128,13800.0,0.17228324711322784,6.943971633911133,-5.711667537689209
129,13900.0,0.4259224236011505,6.874579429626465,-5.764309883117676
130,14000.0,0.4259224236011505,6.874579429626465,-5.764309883117676
131,14100.0,0.4259224236011505,6.874579429626465,-5.764309883117676
132,14200.0,-0.4737788736820221,6.86261510848999,-5.508277893066406
133,14300.0,-0.4737788736820221,6.86261510848999,-5.508277893066406
134,14400.0,-0.0047856452874839315,7.98963451385498,-5.678168296813965
135,14500.0,-0.0047856452874839315,7.98963451385498,-5.678168296813965
136,14600.0,0.7657032012939453,6.953542709350586,-6.826723098754883
137,14700.0,0.7657032012939453,6.953542709350586,-6.826723098754883
138,14800.0,0.6412764191627502,8.193024635314941,-6.070591449737549
139,14900.0,0.6412764191627502,8.193024635314941,-6.070591449737549
140,14000.0,0.4259224236011505,6.874579429626465,-5.764309883117676
141,14100.0,0.4259224236011505,6.874579429626465,-5.764309883117676
142,14200.0,-0.4737788736820221,6.86261510848999,-5.508277893066406
143,14300.0,-0.4737788736820221,6.86261510848999,-5.508277893066406
144,14400.0,-0.0047856452874839315,7.98963451385498,-5.678168296813965
145,14500.0,-0.0047856452874839315,7.98963451385498,-5.678168296813965
146,14600.0,0.7657032012939453,6.953542709350586,-6.826723098754883
147,14700.0,0.7657032012939453,6.953542709350586,-6.826723098754883
148,14800.0,0.6412764191627502,8.193024635314941,-6.070591449737549
149,14900.0,0.6412764191627502,8.193024635314941,-6.070591449737549
150,15000.0,-0.5838487148284912,7.097111701965332,-5.979663372039795
151,15100.0,-0.5838487148284912,7.097111701965332,-5.979663372039795
152,15200.0,-0.5838487148284912,7.097111701965332,-5.979663372039795
153,15300.0,0.25842484831810003,7.965706348419189,-5.883951187133789
154,15400.0,0.25842484831810003,7.965706348419189,-5.883951187133789
155,15500.0,0.27756744623184204,7.5876407623291025,-6.005984783172607
156,15600.0,0.27756744623184204,7.5876407623291025,-6.005984783172607
157,15700.0,0.27756744623184204,7.5876407623291025,-6.005984783172607
158,15800.0,0.7704889178276062,6.73818826675415,-6.704688549041747
159,15900.0,0.7704889178276062,6.73818826675415,-6.704688549041747
160,15000.0,-0.5838487148284912,7.097111701965332,-5.979663372039795
161,15100.0,-0.5838487148284912,7.097111701965332,-5.979663372039795
162,15200.0,-0.5838487148284912,7.097111701965332,-5.979663372039795
163,15300.0,0.25842484831810003,7.965706348419189,-5.883951187133789
164,15400.0,0.25842484831810003,7.965706348419189,-5.883951187133789
165,15500.0,0.27756744623184204,7.5876407623291025,-6.005984783172607
166,15600.0,0.27756744623184204,7.5876407623291025,-6.005984783172607
167,15700.0,0.27756744623184204,7.5876407623291025,-6.005984783172607
168,15800.0,0.7704889178276062,6.73818826675415,-6.704688549041747
169,15900.0,0.7704889178276062,6.73818826675415,-6.704688549041747
170,16000.0,-0.2632104754447937,7.5661048889160165,-5.61116886138916
171,16100.0,-0.2632104754447937,7.5661048889160165,-5.61116886138916
172,16200.0,1.832902193069458,6.900900363922119,-6.309873104095459
173,16300.0,1.832902193069458,6.900900363922119,-6.309873104095459
174,16400.0,1.0528419017791748,9.324830055236816,-6.38165807723999
175,16500.0,1.0528419017791748,9.324830055236816,-6.38165807723999
176,16600.0,0.06699903309345245,6.460620880126952,-7.479963302612305
177,16700.0,0.06699903309345245,6.460620880126952,-7.479963302612305
178,16800.0,0.06699903309345245,6.460620880126952,-7.479963302612305
179,16900.0,0.1052841916680336,7.58524751663208,-6.013163089752197
180,16000.0,-0.2632104754447937,7.5661048889160165,-5.61116886138916
181,16100.0,-0.2632104754447937,7.5661048889160165,-5.61116886138916
182,16200.0,1.832902193069458,6.900900363922119,-6.309873104095459
183,16300.0,1.832902193069458,6.900900363922119,-6.309873104095459
184,16400.0,1.0528419017791748,9.324830055236816,-6.38165807723999
185,16500.0,1.0528419017791748,9.324830055236816,-6.38165807723999
186,16600.0,0.06699903309345245,6.460620880126952,-7.479963302612305
187,16700.0,0.06699903309345245,6.460620880126952,-7.479963302612305
188,16800.0,0.06699903309345245,6.460620880126952,-7.479963302612305
189,16900.0,0.1052841916680336,7.58524751663208,-6.013163089752197
190,17000.0,0.1052841916680336,7.58524751663208,-6.013163089752197
191,17100.0,-0.033499516546726234,7.484748840332031,-6.357729434967041
192,17200.0,-0.033499516546726234,7.484748840332031,-6.357729434967041
193,17300.0,0.5790630578994751,8.9371919631958,-4.536791324615479
194,17400.0,0.5790630578994751,8.9371919631958,-4.536791324615479
195,17500.0,0.5599204897880554,7.668996810913086,-6.427121639251709
196,17600.0,0.5599204897880554,7.668996810913086,-6.427121639251709
197,17700.0,0.5599204897880554,7.668996810913086,-6.427121639251709
198,17800.0,-0.00957129057496786,7.946564197540282,-5.340780735015869
199,17900.0,-0.00957129057496786,7.946564197540282,-5.340780735015869
200,17000.0,0.1052841916680336,7.58524751663208,-6.013163089752197
201,17100.0,-0.033499516546726234,7.484748840332031,-6.357729434967041
202,17200.0,-0.033499516546726234,7.484748840332031,-6.357729434967041
203,17300.0,0.5790630578994751,8.9371919631958,-4.536791324615479
204,17400.0,0.5790630578994751,8.9371919631958,-4.536791324615479
205,17500.0,0.5599204897880554,7.668996810913086,-6.427121639251709
206,17600.0,0.5599204897880554,7.668996810913086,-6.427121639251709
207,17700.0,0.5599204897880554,7.668996810913086,-6.427121639251709
208,17800.0,-0.00957129057496786,7.946564197540282,-5.340780735015869
209,17900.0,-0.00957129057496786,7.946564197540282,-5.340780735015869
210,18000.0,0.0047856452874839315,7.494320392608643,-6.183053970336914
211,18100.0,0.0047856452874839315,7.494320392608643,-6.183053970336914
212,18200.0,-0.00957129057496786,7.39142894744873,-6.161518096923827
213,18300.0,-0.00957129057496786,7.39142894744873,-6.161518096923827
214,18400.0,-0.00957129057496786,7.39142894744873,-6.161518096923827
215,18500.0,-0.1052841916680336,7.7694945335388175,-6.31944465637207
216,18600.0,-0.1052841916680336,7.7694945335388175,-6.31944465637207
217,18700.0,-0.2440679222345352,7.010970115661621,-6.4151573181152335
218,18800.0,-0.2440679222345352,7.010970115661621,-6.4151573181152335
219,18900.0,-0.06699903309345245,7.731209754943848,-6.1256256103515625
220,18000.0,0.0047856452874839315,7.494320392608643,-6.183053970336914
221,18100.0,0.0047856452874839315,7.494320392608643,-6.183053970336914
222,18200.0,-0.00957129057496786,7.39142894744873,-6.161518096923827
223,18300.0,-0.00957129057496786,7.39142894744873,-6.161518096923827
224,18400.0,-0.00957129057496786,7.39142894744873,-6.161518096923827
225,18500.0,-0.1052841916680336,7.7694945335388175,-6.31944465637207
226,18600.0,-0.1052841916680336,7.7694945335388175,-6.31944465637207
227,18700.0,-0.2440679222345352,7.010970115661621,-6.4151573181152335
228,18800.0,-0.2440679222345352,7.010970115661621,-6.4151573181152335
229,18900.0,-0.06699903309345245,7.731209754943848,-6.1256256103515625
230,19000.0,-0.06699903309345245,7.731209754943848,-6.1256256103515625
231,19100.0,-0.06699903309345245,7.731209754943848,-6.1256256103515625
232,19200.0,0.4163511395454407,6.585048198699951,-6.881758213043213
233,19300.0,0.4163511395454407,6.585048198699951,-6.881758213043213
234,19400.0,0.5359922647476196,6.98704195022583,-6.618547439575195
235,19500.0,0.5359922647476196,6.98704195022583,-6.618547439575195
236,19600.0,0.16749757528305054,7.41535758972168,-5.967699527740479
237,19700.0,0.16749757528305054,7.41535758972168,-5.967699527740479
238,19800.0,0.16749757528305054,7.41535758972168,-5.967699527740479
239,19900.0,0.6795615553855896,6.7621169090271,-7.116254806518555
240,19000.0,-0.06699903309345245,7.731209754943848,-6.1256256103515625
241,19100.0,-0.06699903309345245,7.731209754943848,-6.1256256103515625
242,19200.0,0.4163511395454407,6.585048198699951,-6.881758213043213
243,19300.0,0.4163511395454407,6.585048198699951,-6.881758213043213
244,19400.0,0.5359922647476196,6.98704195022583,-6.618547439575195
245,19500.0,0.5359922647476196,6.98704195022583,-6.618547439575195
246,19600.0,0.16749757528305054,7.41535758972168,-5.967699527740479
247,19700.0,0.16749757528305054,7.41535758972168,-5.967699527740479
248,19800.0,0.16749757528305054,7.41535758972168,-5.967699527740479
249,19900.0,0.6795615553855896,6.7621169090271,-7.116254806518555
250,20000.0,0.6795615553855896,6.7621169090271,-7.116254806518555
251,20100.0,-0.13878372311592102,6.920042991638184,-7.81974458694458
252,20200.0,-0.13878372311592102,6.920042991638184,-7.81974458694458
253,20300.0,0.3158525824546814,7.348358631134032,-5.9988059997558585
254,20400.0,0.3158525824546814,7.348358631134032,-5.9988059997558585
255,20500.0,0.3158525824546814,7.348358631134032,-5.9988059997558585
256,20600.0,-0.2440679222345352,8.702695846557617,-5.149354457855225
257,20700.0,-0.2440679222345352,8.702695846557617,-5.149354457855225
258,20800.0,0.28235307335853577,8.145168304443361,-5.553741931915283
259,20900.0,0.28235307335853577,8.145168304443361,-5.553741931915283
260,20000.0,0.6795615553855896,6.7621169090271,-7.116254806518555
261,20100.0,-0.13878372311592102,6.920042991638184,-7.81974458694458
262,20200.0,-0.13878372311592102,6.920042991638184,-7.81974458694458
263,20300.0,0.3158525824546814,7.348358631134032,-5.9988059997558585
264,20400.0,0.3158525824546814,7.348358631134032,-5.9988059997558585
265,20500.0,0.3158525824546814,7.348358631134032,-5.9988059997558585
266,20600.0,-0.2440679222345352,8.702695846557617,-5.149354457855225
267,20700.0,-0.2440679222345352,8.702695846557617,-5.149354457855225
268,20800.0,0.28235307335853577,8.145168304443361,-5.553741931915283
269,20900.0,0.28235307335853577,8.145168304443361,-5.553741931915283
270,21000.0,0.23449662327766416,7.331608772277832,-6.860222339630128
271,21100.0,0.23449662327766416,7.331608772277832,-6.860222339630128
272,21200.0,0.23449662327766416,7.331608772277832,-6.860222339630128
273,21300.0,0.062213387340307236,6.008377552032472,-7.496713638305664
274,21400.0,0.062213387340307236,6.008377552032472,-7.496713638305664
275,21500.0,0.10049854964017868,8.214560508728027,-5.469992637634277
276,21600.0,0.10049854964017868,8.214560508728027,-5.469992637634277
277,21700.0,0.36370906233787537,6.350551128387451,-7.3052873611450195
278,21800.0,0.36370906233787537,6.350551128387451,-7.3052873611450195
279,21900.0,0.36370906233787537,6.350551128387451,-7.3052873611450195
280,21000.0,0.23449662327766416,7.331608772277832,-6.860222339630128
281,21100.0,0.23449662327766416,7.331608772277832,-6.860222339630128
282,21200.0,0.23449662327766416,7.331608772277832,-6.860222339630128
283,21300.0,0.062213387340307236,6.008377552032472,-7.496713638305664
284,21400.0,0.062213387340307236,6.008377552032472,-7.496713638305664
285,21500.0,0.10049854964017868,8.214560508728027,-5.469992637634277
286,21600.0,0.10049854964017868,8.214560508728027,-5.469992637634277
287,21700.0,0.36370906233787537,6.350551128387451,-7.3052873611450195
288,21800.0,0.36370906233787537,6.350551128387451,-7.3052873611450195
289,21900.0,0.36370906233787537,6.350551128387451,-7.3052873611450195
290,22000.0,0.07657032459974289,7.511070251464844,-6.805188179016112
291,22100.0,0.07657032459974289,7.511070251464844,-6.805188179016112
292,22200.0,0.2297109663486481,8.126025199890138,-6.374479293823242
293,22300.0,0.2297109663486481,8.126025199890138,-6.374479293823242
294,22400.0,0.028713870793581012,7.200003147125244,-6.283552646636963
295,22500.0,0.028713870793581012,7.200003147125244,-6.283552646636963
296,22600.0,0.028713870793581012,7.200003147125244,-6.283552646636963
297,22700.0,0.2632104754447937,7.082754611968994,-6.10887622833252
298,22800.0,0.2632104754447937,7.082754611968994,-6.10887622833252
299,22900.0,-0.1052841916680336,7.4608211517333975,-6.525227069854736
300,22000.0,0.07657032459974289,7.511070251464844,-6.805188179016112
301,22100.0,0.07657032459974289,7.511070251464844,-6.805188179016112
302,22200.0,0.2297109663486481,8.126025199890138,-6.374479293823242
303,22300.0,0.2297109663486481,8.126025199890138,-6.374479293823242
304,22400.0,0.028713870793581012,7.200003147125244,-6.283552646636963
305,22500.0,0.028713870793581012,7.200003147125244,-6.283552646636963
306,22600.0,0.028713870793581012,7.200003147125244,-6.283552646636963
307,22700.0,0.2632104754447937,7.082754611968994,-6.10887622833252
308,22800.0,0.2632104754447937,7.082754611968994,-6.10887622833252
309,22900.0,-0.1052841916680336,7.4608211517333975,-6.525227069854736
310,23000.0,-0.1052841916680336,7.4608211517333975,-6.525227069854736
311,23100.0,-0.2297109663486481,7.88913631439209,-6.314659118652344
312,23200.0,-0.2297109663486481,7.88913631439209,-6.314659118652344
313,23300.0,3.115455150604248,8.092526435852049,-8.221738815307617
314,23400.0,3.115455150604248,8.092526435852049,-8.221738815307617
315,23500.0,3.115455150604248,8.092526435852049,-8.221738815307617
316,23600.0,0.6125625967979431,5.821736812591553,-7.4608211517333975
317,23700.0,0.6125625967979431,5.821736812591553,-7.4608211517333975
318,23800.0,-0.3302095234394073,6.5084776878356925,-6.970292568206787
319,23900.0,-0.3302095234394073,6.5084776878356925,-6.970292568206787
320,23000.0,-0.1052841916680336,7.4608211517333975,-6.525227069854736
321,23100.0,-0.2297109663486481,7.88913631439209,-6.314659118652344
322,23200.0,-0.2297109663486481,7.88913631439209,-6.314659118652344
323,23300.0,3.115455150604248,8.092526435852049,-8.221738815307617
324,23400.0,3.115455150604248,8.092526435852049,-8.221738815307617
325,23500.0,3.115455150604248,8.092526435852049,-8.221738815307617
326,23600.0,0.6125625967979431,5.821736812591553,-7.4608211517333975
327,23700.0,0.6125625967979431,5.821736812591553,-7.4608211517333975
328,23800.0,-0.3302095234394073,6.5084776878356925,-6.970292568206787
329,23900.0,-0.3302095234394073,6.5084776878356925,-6.970292568206787
330,24000.0,-0.3302095234394073,6.5084776878356925,-6.970292568206787
331,24100.0,0.6125625967979431,7.412964344024657,-6.400800704956055
332,24200.0,0.6125625967979431,7.412964344024657,-6.400800704956055
333,24300.0,-1.239482045173645,7.039684295654298,-6.422336101531982
334,24400.0,-1.239482045173645,7.039684295654298,-6.422336101531982
335,24500.0,-0.5455635190010071,4.713860511779785,-7.317252159118652
336,24600.0,-0.5455635190010071,4.713860511779785,-7.317252159118652
337,24700.0,-0.5455635190010071,4.713860511779785,-7.317252159118652
338,24800.0,-1.9860427379608157,4.5032920837402335,-7.372286796569824
339,24900.0,-1.9860427379608157,4.5032920837402335,-7.372286796569824
340,24000.0,-0.3302095234394073,6.5084776878356925,-6.970292568206787
341,24100.0,0.6125625967979431,7.412964344024657,-6.400800704956055
342,24200.0,0.6125625967979431,7.412964344024657,-6.400800704956055
343,24300.0,-1.239482045173645,7.039684295654298,-6.422336101531982
344,24400.0,-1.239482045173645,7.039684295654298,-6.422336101531982
345,24500.0,-0.5455635190010071,4.713860511779785,-7.317252159118652
346,24600.0,-0.5455635190010071,4.713860511779785,-7.317252159118652
347,24700.0,-0.5455635190010071,4.713860511779785,-7.317252159118652
348,24800.0,-1.9860427379608157,4.5032920837402335,-7.372286796569824
349,24900.0,-1.9860427379608157,4.5032920837402335,-7.372286796569824
350,25000.0,-0.028713870793581012,7.15932559967041,-6.563512325286865
351,25100.0,-0.028713870793581012,7.15932559967041,-6.563512325286865
352,25200.0,0.014356935396790503,6.740581512451173,-6.836294651031494
353,25300.0,0.014356935396790503,6.740581512451173,-6.836294651031494
354,25400.0,0.014356935396790503,6.740581512451173,-6.836294651031494
355,25500.0,-1.062413215637207,7.104290962219237,-5.398207664489746
356,25600.0,-1.062413215637207,7.104290962219237,-5.398207664489746
357,25700.0,-0.5264209508895874,6.530013084411621,-6.3290162086486825
358,25800.0,-0.5264209508895874,6.530013084411621,-6.3290162086486825
359,25900.0,-0.8805587291717529,7.2885379791259775,-5.831308364868164
360,25000.0,-0.028713870793581012,7.15932559967041,-6.563512325286865
361,25100.0,-0.028713870793581012,7.15932559967041,-6.563512325286865
362,25200.0,0.014356935396790503,6.740581512451173,-6.836294651031494
363,25300.0,0.014356935396790503,6.740581512451173,-6.836294651031494
364,25400.0,0.014356935396790503,6.740581512451173,-6.836294651031494
365,25500.0,-1.062413215637207,7.104290962219237,-5.398207664489746
366,25600.0,-1.062413215637207,7.104290962219237,-5.398207664489746
367,25700.0,-0.5264209508895874,6.530013084411621,-6.3290162086486825
368,25800.0,-0.5264209508895874,6.530013084411621,-6.3290162086486825
369,25900.0,-0.8805587291717529,7.2885379791259775,-5.831308364868164
370,26000.0,-0.8805587291717529,7.2885379791259775,-5.831308364868164
371,26100.0,-0.25363919138908386,6.802794933319093,-6.860222339630128
372,26200.0,-0.25363919138908386,6.802794933319093,-6.860222339630128
373,26300.0,-0.014356935396790503,6.1471614837646475,-6.530013084411621
374,26400.0,-0.014356935396790503,6.1471614837646475,-6.530013084411621
375,26500.0,0.4259224236011505,7.432106971740723,-6.314659118652344
376,26600.0,0.4259224236011505,7.432106971740723,-6.314659118652344
377,26700.0,0.4259224236011505,7.432106971740723,-6.314659118652344
378,26800.0,0.3924228847026825,7.412964344024657,-5.515456199645996
379,26900.0,0.3924228847026825,7.412964344024657,-5.515456199645996
380,26000.0,-0.8805587291717529,7.2885379791259775,-5.831308364868164
381,26100.0,-0.25363919138908386,6.802794933319093,-6.860222339630128
382,26200.0,-0.25363919138908386,6.802794933319093,-6.860222339630128
383,26300.0,-0.014356935396790503,6.1471614837646475,-6.530013084411621
384,26400.0,-0.014356935396790503,6.1471614837646475,-6.530013084411621
385,26500.0,0.4259224236011505,7.432106971740723,-6.314659118652344
386,26600.0,0.4259224236011505,7.432106971740723,-6.314659118652344
387,26700.0,0.4259224236011505,7.432106971740723,-6.314659118652344
388,26800.0,0.3924228847026825,7.412964344024657,-5.515456199645996
389,26900.0,0.3924228847026825,7.412964344024657,-5.515456199645996
390,27000.0,-0.19142580032348636,7.2263240814208975,-6.52044153213501
391,27100.0,-0.19142580032348636,7.2263240814208975,-6.52044153213501
392,27200.0,-0.19142580032348636,7.2263240814208975,-6.52044153213501
393,27300.0,0.27756744623184204,7.791030406951903,-5.642275810241699
394,27400.0,0.27756744623184204,7.791030406951903,-5.642275810241699
395,27500.0,0.1052841916680336,7.812565803527832,-6.10887622833252
396,27600.0,0.1052841916680336,7.812565803527832,-6.10887622833252
397,27700.0,-0.2392822504043579,7.613961696624756,-5.424529075622559
398,27800.0,-0.2392822504043579,7.613961696624756,-5.424529075622559
399,27900.0,0.28235307335853577,6.912864685058594,-7.302894115447997
400,27000.0,-0.19142580032348636,7.2263240814208975,-6.52044153213501
401,27100.0,-0.19142580032348636,7.2263240814208975,-6.52044153213501
402,27200.0,-0.19142580032348636,7.2263240814208975,-6.52044153213501
403,27300.0,0.27756744623184204,7.791030406951903,-5.642275810241699
404,27400.0,0.27756744623184204,7.791030406951903,-5.642275810241699
405,27500.0,0.1052841916680336,7.812565803527832,-6.10887622833252
406,27600.0,0.1052841916680336,7.812565803527832,-6.10887622833252
407,27700.0,-0.2392822504043579,7.613961696624756,-5.424529075622559
408,27800.0,-0.2392822504043579,7.613961696624756,-5.424529075622559
409,27900.0,0.28235307335853577,6.912864685058594,-7.302894115447997
410,28000.0,0.28235307335853577,6.912864685058594,-7.302894115447997
411,28100.0,0.28235307335853577,6.912864685058594,-7.302894115447997
412,28200.0,0.033499516546726234,6.8075804710388175,-6.240481376647949
413,28300.0,0.033499516546726234,6.8075804710388175,-6.240481376647949
414,28400.0,-0.6460621356964111,5.874379634857178,-7.534998416900635
415,28500.0,-0.6460621356964111,5.874379634857178,-7.534998416900635
416,28600.0,-0.4450649619102478,6.269195556640625,-7.401000499725343
417,28700.0,-0.4450649619102478,6.269195556640625,-7.401000499725343
418,28800.0,-0.2440679222345352,6.8721866607666025,-6.716653347015381
419,28900.0,-0.2440679222345352,6.8721866607666025,-6.716653347015381
420,28000.0,0.28235307335853577,6.912864685058594,-7.302894115447997
421,28100.0,0.28235307335853577,6.912864685058594,-7.302894115447997
422,28200.0,0.033499516546726234,6.8075804710388175,-6.240481376647949
423,28300.0,0.033499516546726234,6.8075804710388175,-6.240481376647949
424,28400.0,-0.6460621356964111,5.874379634857178,-7.534998416900635
425,28500.0,-0.6460621356964111,5.874379634857178,-7.534998416900635
426,28600.0,-0.4450649619102478,6.269195556640625,-7.401000499725343
427,28700.0,-0.4450649619102478,6.269195556640625,-7.401000499725343
428,28800.0,-0.2440679222345352,6.8721866607666025,-6.716653347015381
429,28900.0,-0.2440679222345352,6.8721866607666025,-6.716653347015381
430,29000.0,-0.12442677468061447,7.515855312347412,-6.422336101531982
431,29100.0,-0.12442677468061447,7.515855312347412,-6.422336101531982
432,29200.0,-0.12442677468061447,7.515855312347412,-6.422336101531982
433,29300.0,0.11485548317432405,7.271787643432617,-6.611368656158447
434,29400.0,0.11485548317432405,7.271787643432617,-6.611368656158447
435,29500.0,-0.014356935396790503,7.123432636260986,-6.604190349578857
436,29600.0,-0.014356935396790503,7.123432636260986,-6.604190349578857
437,29700.0,0.0047856452874839315,6.965506553649902,-6.539584159851074
438,29800.0,0.0047856452874839315,6.965506553649902,-6.539584159851074
439,29900.0,0.0047856452874839315,6.965506553649902,-6.539584159851074
440,29000.0,-0.12442677468061447,7.515855312347412,-6.422336101531982
441,29100.0,-0.12442677468061447,7.515855312347412,-6.422336101531982
442,29200.0,-0.12442677468061447,7.515855312347412,-6.422336101531982
443,29300.0,0.11485548317432405,7.271787643432617,-6.611368656158447
444,29400.0,0.11485548317432405,7.271787643432617,-6.611368656158447
445,29500.0,-0.014356935396790503,7.123432636260986,-6.604190349578857
446,29600.0,-0.014356935396790503,7.123432636260986,-6.604190349578857
447,29700.0,0.0047856452874839315,6.965506553649902,-6.539584159851074
448,29800.0,0.0047856452874839315,6.965506553649902,-6.539584159851074
449,29900.0,0.0047856452874839315,6.965506553649902,-6.539584159851074
450,30000.0,0.14835500717163086,6.946363925933838,-6.541977405548097
451,30100.0,0.14835500717163086,6.946363925933838,-6.541977405548097
452,30200.0,-0.06699903309345245,7.345965385437013,-6.51326322555542
453,30300.0,-0.06699903309345245,7.345965385437013,-6.51326322555542
454,30400.0,-0.11485548317432405,7.307680606842041,-6.580262184143066
455,30500.0,-0.11485548317432405,7.307680606842041,-6.580262184143066
456,30600.0,-0.11485548317432405,7.307680606842041,-6.580262184143066
457,30700.0,0.01914258114993572,7.7072815895080575,-6.57547664642334
458,30800.0,0.01914258114993572,7.7072815895080575,-6.57547664642334
459,30900.0,-0.02392822504043579,7.860422611236572,-4.8813581466674805
460,30000.0,0.14835500717163086,6.946363925933838,-6.541977405548097
461,30100.0,0.14835500717163086,6.946363925933838,-6.541977405548097
462,30200.0,-0.06699903309345245,7.345965385437013,-6.51326322555542
463,30300.0,-0.06699903309345245,7.345965385437013,-6.51326322555542
464,30400.0,-0.11485548317432405,7.307680606842041,-6.580262184143066
465,30500.0,-0.11485548317432405,7.307680606842041,-6.580262184143066
466,30600.0,-0.11485548317432405,7.307680606842041,-6.580262184143066
467,30700.0,0.01914258114993572,7.7072815895080575,-6.57547664642334
468,30800.0,0.01914258114993572,7.7072815895080575,-6.57547664642334
469,30900.0,-0.02392822504043579,7.860422611236572,-4.8813581466674805
470,31000.0,-0.02392822504043579,7.860422611236572,-4.8813581466674805
471,31100.0,0.4354937374591827,8.724230766296388,-5.958127975463867
472,31200.0,0.4354937374591827,8.724230766296388,-5.958127975463867
473,31300.0,0.4354937374591827,8.724230766296388,-5.958127975463867
474,31400.0,0.22492533922195435,6.096912384033202,-8.819944381713867
475,31500.0,0.22492533922195435,6.096912384033202,-8.819944381713867
476,31600.0,0.25363919138908386,7.066005229949951,-6.695117950439452
477,31700.0,0.25363919138908386,7.066005229949951,-6.695117950439452
478,31800.0,0.04785645008087158,6.850651264190674,-6.398407459259032
479,31900.0,0.04785645008087158,6.850651264190674,-6.398407459259032
480,31000.0,-0.02392822504043579,7.860422611236572,-4.8813581466674805
481,31100.0,0.4354937374591827,8.724230766296388,-5.958127975463867
482,31200.0,0.4354937374591827,8.724230766296388,-5.958127975463867
483,31300.0,0.4354937374591827,8.724230766296388,-5.958127975463867
484,31400.0,0.22492533922195435,6.096912384033202,-8.819944381713867
485,31500.0,0.22492533922195435,6.096912384033202,-8.819944381713867
486,31600.0,0.25363919138908386,7.066005229949951,-6.695117950439452
487,31700.0,0.25363919138908386,7.066005229949951,-6.695117950439452
488,31800.0,0.04785645008087158,6.850651264190674,-6.398407459259032
489,31900.0,0.04785645008087158,6.850651264190674,-6.398407459259032
490,32000.0,-0.16749757528305054,8.015955924987793,-6.999006271362305
491,32100.0,-0.16749757528305054,8.015955924987793,-6.999006271362305
492,32200.0,-0.16749757528305054,8.015955924987793,-6.999006271362305
493,32300.0,0.09092726558446884,5.565705299377441,-7.479963302612305
494,32400.0,0.09092726558446884,5.565705299377441,-7.479963302612305
495,32500.0,0.41156551241874695,7.037291049957275,-6.774080753326416
496,32600.0,0.41156551241874695,7.037291049957275,-6.774080753326416
497,32700.0,0.11964112520217896,6.73818826675415,-7.2335028648376465
498,32800.0,0.11964112520217896,6.73818826675415,-7.2335028648376465
499,32900.0,0.27278175950050354,7.22871732711792,-6.384050369262695
500,32000.0,-0.16749757528305054,8.015955924987793,-6.999006271362305
501,32100.0,-0.16749757528305054,8.015955924987793,-6.999006271362305
502,32200.0,-0.16749757528305054,8.015955924987793,-6.999006271362305
503,32300.0,0.09092726558446884,5.565705299377441,-7.479963302612305
504,32400.0,0.09092726558446884,5.565705299377441,-7.479963302612305
505,32500.0,0.41156551241874695,7.037291049957275,-6.774080753326416
506,32600.0,0.41156551241874695,7.037291049957275,-6.774080753326416
507,32700.0,0.11964112520217896,6.73818826675415,-7.2335028648376465
508,32800.0,0.11964112520217896,6.73818826675415,-7.2335028648376465
509,32900.0,0.27278175950050354,7.22871732711792,-6.384050369262695
510,33000.0,0.27278175950050354,7.22871732711792,-6.384050369262695
511,33100.0,0.27278175950050354,7.22871732711792,-6.384050369262695
512,33200.0,0.17706887423992154,7.355536937713622,-6.515655517578125
513,33300.0,0.17706887423992154,7.355536937713622,-6.515655517578125
514,33400.0,0.23449662327766416,6.431907176971436,-6.463014125823975
515,33500.0,0.23449662327766416,6.431907176971436,-6.463014125823975
516,33600.0,0.033499516546726234,6.903293132781982,-6.917649745941162
517,33700.0,0.033499516546726234,6.903293132781982,-6.917649745941162
518,33800.0,0.033499516546726234,6.903293132781982,-6.917649745941162
519,33900.0,-0.41156551241874695,5.508277893066406,-8.262415885925293
520,33000.0,0.27278175950050354,7.22871732711792,-6.384050369262695
521,33100.0,0.27278175950050354,7.22871732711792,-6.384050369262695
522,33200.0,0.17706887423992154,7.355536937713622,-6.515655517578125
523,33300.0,0.17706887423992154,7.355536937713622,-6.515655517578125
524,33400.0,0.23449662327766416,6.431907176971436,-6.463014125823975
525,33500.0,0.23449662327766416,6.431907176971436,-6.463014125823975
526,33600.0,0.033499516546726234,6.903293132781982,-6.917649745941162
527,33700.0,0.033499516546726234,6.903293132781982,-6.917649745941162
528,33800.0,0.033499516546726234,6.903293132781982,-6.917649745941162
529,33900.0,-0.41156551241874695,5.508277893066406,-8.262415885925293
530,34000.0,-0.41156551241874695,5.508277893066406,-8.262415885925293
531,34100.0,0.18185453116893768,6.86979341506958,-6.632904052734375
532,34200.0,0.18185453116893768,6.86979341506958,-6.632904052734375
533,34300.0,0.6173481941223145,7.77188777923584,-6.561119556427003
534,34400.0,0.6173481941223145,7.77188777923584,-6.561119556427003
535,34500.0,0.3349951505661011,7.161717891693115,-6.427121639251709
536,34600.0,0.3349951505661011,7.161717891693115,-6.427121639251709
537,34700.0,0.3349951505661011,7.161717891693115,-6.427121639251709
538,34800.0,0.6173481941223145,6.400800704956055,-8.580661773681639
539,34900.0,0.6173481941223145,6.400800704956055,-8.580661773681639
540,34000.0,-0.41156551241874695,5.508277893066406,-8.262415885925293
541,34100.0,0.18185453116893768,6.86979341506958,-6.632904052734375
542,34200.0,0.18185453116893768,6.86979341506958,-6.632904052734375
543,34300.0,0.6173481941223145,7.77188777923584,-6.561119556427003
544,34400.0,0.6173481941223145,7.77188777923584,-6.561119556427003
545,34500.0,0.3349951505661011,7.161717891693115,-6.427121639251709
546,34600.0,0.3349951505661011,7.161717891693115,-6.427121639251709
547,34700.0,0.3349951505661011,7.161717891693115,-6.427121639251709
548,34800.0,0.6173481941223145,6.400800704956055,-8.580661773681639
549,34900.0,0.6173481941223145,6.400800704956055,-8.580661773681639
550,35000.0,-0.01914258114993572,7.465606689453125,-6.096912384033202
551,35100.0,-0.01914258114993572,7.465606689453125,-6.096912384033202
552,35200.0,-0.2967100143432617,5.804987907409668,-7.331608772277832
553,35300.0,-0.2967100143432617,5.804987907409668,-7.331608772277832
554,35400.0,-0.2967100143432617,5.804987907409668,-7.331608772277832
555,35500.0,-0.1052841916680336,7.893921852111816,-5.816952228546143
556,35600.0,-0.1052841916680336,7.893921852111816,-5.816952228546143
557,35700.0,0.1627119481563568,7.439285278320312,-5.532205581665039
558,35800.0,0.1627119481563568,7.439285278320312,-5.532205581665039
559,35900.0,0.25363919138908386,8.099704742431639,-6.216552734375
560,35000.0,-0.01914258114993572,7.465606689453125,-6.096912384033202
561,35100.0,-0.01914258114993572,7.465606689453125,-6.096912384033202
562,35200.0,-0.2967100143432617,5.804987907409668,-7.331608772277832
563,35300.0,-0.2967100143432617,5.804987907409668,-7.331608772277832
564,35400.0,-0.2967100143432617,5.804987907409668,-7.331608772277832
565,35500.0,-0.1052841916680336,7.893921852111816,-5.816952228546143
566,35600.0,-0.1052841916680336,7.893921852111816,-5.816952228546143
567,35700.0,0.1627119481563568,7.439285278320312,-5.532205581665039
568,35800.0,0.1627119481563568,7.439285278320312,-5.532205581665039
569,35900.0,0.25363919138908386,8.099704742431639,-6.216552734375
570,36000.0,0.25363919138908386,8.099704742431639,-6.216552734375
571,36100.0,0.25363919138908386,8.099704742431639,-6.216552734375
572,36200.0,-0.0813559740781784,7.563712120056152,-5.484349250793457
573,36300.0,-0.0813559740781784,7.563712120056152,-5.484349250793457
574,36400.0,-0.02392822504043579,5.876771926879883,-7.448856830596924
575,36500.0,-0.02392822504043579,5.876771926879883,-7.448856830596924
576,36600.0,-0.02392822504043579,5.876771926879883,-7.448856830596924
577,36700.0,-0.14356936514377594,7.630711555480957,-6.570690631866455
578,36800.0,-0.14356936514377594,7.630711555480957,-6.570690631866455
579,36900.0,-0.5838487148284912,7.867600917816162,-6.312265872955322
580,36000.0,0.25363919138908386,8.099704742431639,-6.216552734375
581,36100.0,0.25363919138908386,8.099704742431639,-6.216552734375
582,36200.0,-0.0813559740781784,7.563712120056152,-5.484349250793457
583,36300.0,-0.0813559740781784,7.563712120056152,-5.484349250793457
584,36400.0,-0.02392822504043579,5.876771926879883,-7.448856830596924
585,36500.0,-0.02392822504043579,5.876771926879883,-7.448856830596924
586,36600.0,-0.02392822504043579,5.876771926879883,-7.448856830596924
587,36700.0,-0.14356936514377594,7.630711555480957,-6.570690631866455
588,36800.0,-0.14356936514377594,7.630711555480957,-6.570690631866455
589,36900.0,-0.5838487148284912,7.867600917816162,-6.312265872955322
590,37000.0,-0.5838487148284912,7.867600917816162,-6.312265872955322
591,37100.0,-0.4163511395454407,6.697510242462157,-6.427121639251709
592,37200.0,-0.4163511395454407,6.697510242462157,-6.427121639251709
593,37300.0,-0.27278175950050354,7.357929229736327,-6.02512788772583
594,37400.0,-0.27278175950050354,7.357929229736327,-6.02512788772583
595,37500.0,0.6221339106559753,6.80040168762207,-6.357729434967041
596,37600.0,0.6221339106559753,6.80040168762207,-6.357729434967041
597,37700.0,0.6221339106559753,6.80040168762207,-6.357729434967041
598,37800.0,-0.19621144235134125,6.999006271362305,-6.908078193664551
599,37900.0,-0.19621144235134125,6.999006271362305,-6.908078193664551
600,37000.0,-0.5838487148284912,7.867600917816162,-6.312265872955322
601,37100.0,-0.4163511395454407,6.697510242462157,-6.427121639251709
602,37200.0,-0.4163511395454407,6.697510242462157,-6.427121639251709
603,37300.0,-0.27278175950050354,7.357929229736327,-6.02512788772583
604,37400.0,-0.27278175950050354,7.357929229736327,-6.02512788772583
605,37500.0,0.6221339106559753,6.80040168762207,-6.357729434967041
606,37600.0,0.6221339106559753,6.80040168762207,-6.357729434967041
607,37700.0,0.6221339106559753,6.80040168762207,-6.357729434967041
608,37800.0,-0.19621144235134125,6.999006271362305,-6.908078193664551
609,37900.0,-0.19621144235134125,6.999006271362305,-6.908078193664551
610,38000.0,-0.06699903309345245,7.429713726043701,-6.833901405334473
611,38100.0,-0.06699903309345245,7.429713726043701,-6.833901405334473
612,38200.0,-0.06699903309345245,7.429713726043701,-6.833901405334473
613,38300.0,-0.2297109663486481,6.7621169090271,-7.211967468261719
614,38400.0,-0.2297109663486481,6.7621169090271,-7.211967468261719
615,38500.0,0.16749757528305054,6.32662296295166,-7.39142894744873
616,38600.0,0.16749757528305054,6.32662296295166,-7.39142894744873
617,38700.0,0.27756744623184204,8.195417404174805,-6.795616626739503
618,38800.0,0.27756744623184204,8.195417404174805,-6.795616626739503
619,38900.0,1.938186287879944,7.2813591957092285,-5.063212871551514
620,38000.0,-0.06699903309345245,7.429713726043701,-6.833901405334473
621,38100.0,-0.06699903309345245,7.429713726043701,-6.833901405334473
622,38200.0,-0.06699903309345245,7.429713726043701,-6.833901405334473
623,38300.0,-0.2297109663486481,6.7621169090271,-7.211967468261719
624,38400.0,-0.2297109663486481,6.7621169090271,-7.211967468261719
625,38500.0,0.16749757528305054,6.32662296295166,-7.39142894744873
626,38600.0,0.16749757528305054,6.32662296295166,-7.39142894744873
627,38700.0,0.27756744623184204,8.195417404174805,-6.795616626739503
628,38800.0,0.27756744623184204,8.195417404174805,-6.795616626739503
629,38900.0,1.938186287879944,7.2813591957092285,-5.063212871551514
630,39000.0,1.938186287879944,7.2813591957092285,-5.063212871551514
631,39100.0,1.938186287879944,7.2813591957092285,-5.063212871551514
632,39200.0,1.5218352079391482,7.2502522468566895,-5.149354457855225
633,39300.0,1.5218352079391482,7.2502522468566895,-5.149354457855225
634,39400.0,-1.7563319206237793,8.84626579284668,-5.5274200439453125
635,39500.0,-1.7563319206237793,8.84626579284668,-5.5274200439453125
636,39600.0,-1.7563319206237793,8.84626579284668,-5.5274200439453125
637,39700.0,-0.3254238963127136,7.98963451385498,-5.603990077972412
638,39800.0,-0.3254238963127136,7.98963451385498,-5.603990077972412
639,39900.0,-0.430708110332489,8.054241180419924,-5.938986301422119
640,39000.0,1.938186287879944,7.2813591957092285,-5.063212871551514
641,39100.0,1.938186287879944,7.2813591957092285,-5.063212871551514
642,39200.0,1.5218352079391482,7.2502522468566895,-5.149354457855225
643,39300.0,1.5218352079391482,7.2502522468566895,-5.149354457855225
644,39400.0,-1.7563319206237793,8.84626579284668,-5.5274200439453125
645,39500.0,-1.7563319206237793,8.84626579284668,-5.5274200439453125
646,39600.0,-1.7563319206237793,8.84626579284668,-5.5274200439453125
647,39700.0,-0.3254238963127136,7.98963451385498,-5.603990077972412
648,39800.0,-0.3254238963127136,7.98963451385498,-5.603990077972412
649,39900.0,-0.430708110332489,8.054241180419924,-5.938986301422119
650,40000.0,-0.430708110332489,8.054241180419924,-5.938986301422119
651,40100.0,-0.12921242415905002,8.00638484954834,-5.960521221160889
652,40200.0,-0.12921242415905002,8.00638484954834,-5.960521221160889
653,40300.0,-0.4929214715957642,7.925028324127197,-5.508277893066406
654,40400.0,-0.4929214715957642,7.925028324127197,-5.508277893066406
655,40500.0,-0.3828516006469727,8.516055107116701,-5.2115678787231445
656,40600.0,-0.3828516006469727,8.516055107116701,-5.2115678787231445
657,40700.0,-0.30149564146995544,7.3675007820129395,-6.300302028656006
658,40800.0,-0.30149564146995544,7.3675007820129395,-6.300302028656006
659,40900.0,-0.30149564146995544,7.3675007820129395,-6.300302028656006
660,40000.0,-0.430708110332489,8.054241180419924,-5.938986301422119
661,40100.0,-0.12921242415905002,8.00638484954834,-5.960521221160889
662,40200.0,-0.12921242415905002,8.00638484954834,-5.960521221160889
663,40300.0,-0.4929214715957642,7.925028324127197,-5.508277893066406
664,40400.0,-0.4929214715957642,7.925028324127197,-5.508277893066406
665,40500.0,-0.3828516006469727,8.516055107116701,-5.2115678787231445
666,40600.0,-0.3828516006469727,8.516055107116701,-5.2115678787231445
667,40700.0,-0.30149564146995544,7.3675007820129395,-6.300302028656006
668,40800.0,-0.30149564146995544,7.3675007820129395,-6.300302028656006
669,40900.0,-0.30149564146995544,7.3675007820129395,-6.300302028656006
670,41000.0,-0.6747759580612183,7.606783390045166,-6.20219612121582
671,41100.0,-0.6747759580612183,7.606783390045166,-6.20219612121582
672,41200.0,-0.14356936514377594,5.204389572143555,-8.48734188079834
673,41300.0,-0.14356936514377594,5.204389572143555,-8.48734188079834
674,41400.0,-0.14356936514377594,5.204389572143555,-8.48734188079834
675,41500.0,-0.5264209508895874,7.496713638305664,-6.020341873168945
676,41600.0,-0.5264209508895874,7.496713638305664,-6.020341873168945
677,41700.0,1.2299107313156128,7.436892509460449,-5.264209270477295
678,41800.0,1.2299107313156128,7.436892509460449,-5.264209270477295
679,41900.0,1.1102697849273682,8.757731437683105,-5.096712112426758
680,41000.0,-0.6747759580612183,7.606783390045166,-6.20219612121582
681,41100.0,-0.6747759580612183,7.606783390045166,-6.20219612121582
682,41200.0,-0.14356936514377594,5.204389572143555,-8.48734188079834
683,41300.0,-0.14356936514377594,5.204389572143555,-8.48734188079834
684,41400.0,-0.14356936514377594,5.204389572143555,-8.48734188079834
685,41500.0,-0.5264209508895874,7.496713638305664,-6.020341873168945
686,41600.0,-0.5264209508895874,7.496713638305664,-6.020341873168945
687,41700.0,1.2299107313156128,7.436892509460449,-5.264209270477295
688,41800.0,1.2299107313156128,7.436892509460449,-5.264209270477295
689,41900.0,1.1102697849273682,8.757731437683105,-5.096712112426758
690,42000.0,1.1102697849273682,8.757731437683105,-5.096712112426758
691,42100.0,-0.14356936514377594,6.482156753540039,-6.953542709350586
692,42200.0,-0.14356936514377594,6.482156753540039,-6.953542709350586
693,42300.0,-0.19142580032348636,7.386643409729004,-6.173482418060303
694,42400.0,-0.19142580032348636,7.386643409729004,-6.173482418060303
695,42500.0,-0.19142580032348636,7.386643409729004,-6.173482418060303
696,42600.0,-0.25363919138908386,7.484748840332031,-6.106483459472656
697,42700.0,-0.25363919138908386,7.484748840332031,-6.106483459472656
698,42800.0,0.01914258114993572,6.963113307952881,-5.338387489318848
699,42900.0,0.01914258114993572,6.963113307952881,-5.338387489318848
700,42000.0,1.1102697849273682,8.757731437683105,-5.096712112426758
701,42100.0,-0.14356936514377594,6.482156753540039,-6.953542709350586
702,42200.0,-0.14356936514377594,6.482156753540039,-6.953542709350586
703,42300.0,-0.19142580032348636,7.386643409729004,-6.173482418060303
704,42400.0,-0.19142580032348636,7.386643409729004,-6.173482418060303
705,42500.0,-0.19142580032348636,7.386643409729004,-6.173482418060303
706,42600.0,-0.25363919138908386,7.484748840332031,-6.106483459472656
707,42700.0,-0.25363919138908386,7.484748840332031,-6.106483459472656
708,42800.0,0.01914258114993572,6.963113307952881,-5.338387489318848
709,42900.0,0.01914258114993572,6.963113307952881,-5.338387489318848
710,43000.0,0.01914258114993572,6.963113307952881,-5.338387489318848
711,43100.0,-0.3397807776927948,9.001798629760742,-4.902893543243408
712,43200.0,-0.3397807776927948,9.001798629760742,-4.902893543243408
713,43300.0,-0.4019941985607147,7.061219692230225,-6.525227069854736
714,43400.0,-0.4019941985607147,7.061219692230225,-6.525227069854736
715,43500.0,0.0526420958340168,8.274380683898926,-5.209175109863281
716,43600.0,0.0526420958340168,8.274380683898926,-5.209175109863281
717,43700.0,0.0526420958340168,8.274380683898926,-5.209175109863281
718,43800.0,-0.4498506784439087,6.850651264190674,-6.4462642669677725
719,43900.0,-0.4498506784439087,6.850651264190674,-6.4462642669677725
720,43000.0,0.01914258114993572,6.963113307952881,-5.338387489318848
721,43100.0,-0.3397807776927948,9.001798629760742,-4.902893543243408
722,43200.0,-0.3397807776927948,9.001798629760742,-4.902893543243408
723,43300.0,-0.4019941985607147,7.061219692230225,-6.525227069854736
724,43400.0,-0.4019941985607147,7.061219692230225,-6.525227069854736
725,43500.0,0.0526420958340168,8.274380683898926,-5.209175109863281
726,43600.0,0.0526420958340168,8.274380683898926,-5.209175109863281
727,43700.0,0.0526420958340168,8.274380683898926,-5.209175109863281
728,43800.0,-0.4498506784439087,6.850651264190674,-6.4462642669677725
729,43900.0,-0.4498506784439087,6.850651264190674,-6.4462642669677725
730,44000.0,-0.430708110332489,7.893921852111816,-6.022734642028809
731,44100.0,-0.430708110332489,7.893921852111816,-6.022734642028809
732,44200.0,-0.430708110332489,7.893921852111816,-6.022734642028809
733,44300.0,-0.20578275620937347,7.63310432434082,-5.986842632293701
734,44400.0,-0.20578275620937347,7.63310432434082,-5.986842632293701
735,44500.0,-0.2153540551662445,7.869993209838867,-5.879165172576903
736,44600.0,-0.2153540551662445,7.869993209838867,-5.879165172576903
737,44700.0,0.08614162355661392,6.857830047607423,-7.3363938331604
738,44800.0,0.08614162355661392,6.857830047607423,-7.3363938331604
739,44900.0,-0.4211367666721344,7.726424217224121,-6.262016773223878
740,44000.0,-0.430708110332489,7.893921852111816,-6.022734642028809
741,44100.0,-0.430708110332489,7.893921852111816,-6.022734642028809
742,44200.0,-0.430708110332489,7.893921852111816,-6.022734642028809
743,44300.0,-0.20578275620937347,7.63310432434082,-5.986842632293701
744,44400.0,-0.20578275620937347,7.63310432434082,-5.986842632293701
745,44500.0,-0.2153540551662445,7.869993209838867,-5.879165172576903
746,44600.0,-0.2153540551662445,7.869993209838867,-5.879165172576903
747,44700.0,0.08614162355661392,6.857830047607423,-7.3363938331604
748,44800.0,0.08614162355661392,6.857830047607423,-7.3363938331604
749,44900.0,-0.4211367666721344,7.726424217224121,-6.262016773223878
750,45000.0,-0.4211367666721344,7.726424217224121,-6.262016773223878
751,45100.0,-0.5551348924636841,7.063612461090088,-6.2979087829589835
752,45200.0,-0.5551348924636841,7.063612461090088,-6.2979087829589835
753,45300.0,-0.014356935396790503,6.7142601013183585,-7.295715808868407
754,45400.0,-0.014356935396790503,6.7142601013183585,-7.295715808868407
755,45500.0,-0.014356935396790503,6.7142601013183585,-7.295715808868407
756,45600.0,-0.20578275620937347,7.666603565216064,-5.910271644592285
757,45700.0,-0.20578275620937347,7.666603565216064,-5.910271644592285
758,45800.0,-0.41156551241874695,7.9106712341308585,-6.087340831756593
759,45900.0,-0.41156551241874695,7.9106712341308585,-6.087340831756593
760,45000.0,-0.4211367666721344,7.726424217224121,-6.262016773223878
761,45100.0,-0.5551348924636841,7.063612461090088,-6.2979087829589835
762,45200.0,-0.5551348924636841,7.063612461090088,-6.2979087829589835
763,45300.0,-0.014356935396790503,6.7142601013183585,-7.295715808868407
764,45400.0,-0.014356935396790503,6.7142601013183585,-7.295715808868407
765,45500.0,-0.014356935396790503,6.7142601013183585,-7.295715808868407
766,45600.0,-0.20578275620937347,7.666603565216064,-5.910271644592285
767,45700.0,-0.20578275620937347,7.666603565216064,-5.910271644592285
768,45800.0,-0.41156551241874695,7.9106712341308585,-6.087340831756593
769,45900.0,-0.41156551241874695,7.9106712341308585,-6.087340831756593
770,46000.0,-0.41156551241874695,7.9106712341308585,-6.087340831756593
771,46100.0,-1.8233308792114256,7.487142086029053,-5.450850009918213
772,46200.0,-1.8233308792114256,7.487142086029053,-5.450850009918213
773,46300.0,-0.12921242415905002,7.597211837768555,-6.309873104095459
774,46400.0,-0.12921242415905002,7.597211837768555,-6.309873104095459
775,46500.0,-0.1579262912273407,9.128618240356444,-5.187639236450195
776,46600.0,-0.1579262912273407,9.128618240356444,-5.187639236450195
777,46700.0,-1.0001999139785769,8.090132713317871,-5.615954875946045
778,46800.0,-1.0001999139785769,8.090132713317871,-5.615954875946045
779,46900.0,-1.0001999139785769,8.090132713317871,-5.615954875946045
780,46000.0,-0.41156551241874695,7.9106712341308585,-6.087340831756593
781,46100.0,-1.8233308792114256,7.487142086029053,-5.450850009918213
782,46200.0,-1.8233308792114256,7.487142086029053,-5.450850009918213
783,46300.0,-0.12921242415905002,7.597211837768555,-6.309873104095459
784,46400.0,-0.12921242415905002,7.597211837768555,-6.309873104095459
785,46500.0,-0.1579262912273407,9.128618240356444,-5.187639236450195
786,46600.0,-0.1579262912273407,9.128618240356444,-5.187639236450195
787,46700.0,-1.0001999139785769,8.090132713317871,-5.615954875946045
788,46800.0,-1.0001999139785769,8.090132713317871,-5.615954875946045
789,46900.0,-1.0001999139785769,8.090132713317871,-5.615954875946045
790,47000.0,0.6795615553855896,7.17368221282959,-6.477370738983153
791,47100.0,0.6795615553855896,7.17368221282959,-6.477370738983153
792,47200.0,-1.4739787578582764,7.030113220214844,-6.31944465637207
793,47300.0,-1.4739787578582764,7.030113220214844,-6.31944465637207
794,47400.0,-1.4739787578582764,7.030113220214844,-6.31944465637207
795,47500.0,-0.15314064919948578,7.601996898651122,-6.017949104309082
796,47600.0,-0.15314064919948578,7.601996898651122,-6.017949104309082
797,47700.0,0.028713870793581012,8.219346046447754,-5.608776092529297
798,47800.0,0.028713870793581012,8.219346046447754,-5.608776092529297
799,47900.0,0.3732803165912628,7.121039390563965,-6.771688461303711
800,47000.0,0.6795615553855896,7.17368221282959,-6.477370738983153
801,47100.0,0.6795615553855896,7.17368221282959,-6.477370738983153
802,47200.0,-1.4739787578582764,7.030113220214844,-6.31944465637207
803,47300.0,-1.4739787578582764,7.030113220214844,-6.31944465637207
804,47400.0,-1.4739787578582764,7.030113220214844,-6.31944465637207
805,47500.0,-0.15314064919948578,7.601996898651122,-6.017949104309082
806,47600.0,-0.15314064919948578,7.601996898651122,-6.017949104309082
807,47700.0,0.028713870793581012,8.219346046447754,-5.608776092529297
808,47800.0,0.028713870793581012,8.219346046447754,-5.608776092529297
809,47900.0,0.3732803165912628,7.121039390563965,-6.771688461303711
810,48000.0,0.3732803165912628,7.121039390563965,-6.771688461303711
811,48100.0,0.3732803165912628,7.121039390563965,-6.771688461303711
812,48200.0,-0.12921242415905002,7.83410120010376,-6.439085483551025
813,48300.0,-0.12921242415905002,7.83410120010376,-6.439085483551025
814,48400.0,0.784845769405365,8.970691680908203,-5.395814895629883
815,48500.0,0.784845769405365,8.970691680908203,-5.395814895629883
816,48600.0,0.784845769405365,8.970691680908203,-5.395814895629883
817,48700.0,0.2440679222345352,7.786244869232178,-6.132804393768311
818,48800.0,0.2440679222345352,7.786244869232178,-6.132804393768311
819,48900.0,-0.06699903309345245,7.848458290100098,-5.891129493713379
820,48000.0,0.3732803165912628,7.121039390563965,-6.771688461303711
821,48100.0,0.3732803165912628,7.121039390563965,-6.771688461303711
822,48200.0,-0.12921242415905002,7.83410120010376,-6.439085483551025
823,48300.0,-0.12921242415905002,7.83410120010376,-6.439085483551025
824,48400.0,0.784845769405365,8.970691680908203,-5.395814895629883
825,48500.0,0.784845769405365,8.970691680908203,-5.395814895629883
826,48600.0,0.784845769405365,8.970691680908203,-5.395814895629883
827,48700.0,0.2440679222345352,7.786244869232178,-6.132804393768311
828,48800.0,0.2440679222345352,7.786244869232178,-6.132804393768311
829,48900.0,-0.06699903309345245,7.848458290100098,-5.891129493713379
830,49000.0,-0.06699903309345245,7.848458290100098,-5.891129493713379
831,49100.0,-0.06699903309345245,6.819544315338135,-6.941578388214111
832,49200.0,-0.06699903309345245,6.819544315338135,-6.941578388214111
833,49300.0,1.4931212663650513,7.207180976867676,-7.422535419464111
834,49400.0,1.4931212663650513,7.207180976867676,-7.422535419464111
835,49500.0,1.4931212663650513,7.207180976867676,-7.422535419464111
836,49600.0,0.3493521213531494,7.006184577941895,-6.845865249633789
837,49700.0,0.3493521213531494,7.006184577941895,-6.845865249633789
838,49800.0,0.3254238963127136,7.599604606628418,-5.857630252838135
839,49900.0,0.3254238963127136,7.599604606628418,-5.857630252838135
840,49000.0,-0.06699903309345245,7.848458290100098,-5.891129493713379
841,49100.0,-0.06699903309345245,6.819544315338135,-6.941578388214111
842,49200.0,-0.06699903309345245,6.819544315338135,-6.941578388214111
843,49300.0,1.4931212663650513,7.207180976867676,-7.422535419464111
844,49400.0,1.4931212663650513,7.207180976867676,-7.422535419464111
845,49500.0,1.4931212663650513,7.207180976867676,-7.422535419464111
846,49600.0,0.3493521213531494,7.006184577941895,-6.845865249633789
847,49700.0,0.3493521213531494,7.006184577941895,-6.845865249633789
848,49800.0,0.3254238963127136,7.599604606628418,-5.857630252838135
849,49900.0,0.3254238963127136,7.599604606628418,-5.857630252838135
850,50000.0,0.14835500717163086,7.39860725402832,-6.922436237335205
851,50100.0,0.14835500717163086,7.39860725402832,-6.922436237335205
852,50200.0,0.04785645008087158,7.728816509246826,-5.941378593444824
853,50300.0,0.04785645008087158,7.728816509246826,-5.941378593444824
854,50400.0,0.04785645008087158,7.728816509246826,-5.941378593444824
855,50500.0,-2.0961124897003174,6.790830135345459,-6.154339790344237
856,50600.0,-2.0961124897003174,6.790830135345459,-6.154339790344237
857,50700.0,-1.2011969089508057,9.183652877807617,-4.783252716064453
858,50800.0,-1.2011969089508057,9.183652877807617,-4.783252716064453
859,50900.0,0.07657032459974289,8.109275817871094,-5.565705299377441
860,50000.0,0.14835500717163086,7.39860725402832,-6.922436237335205
861,50100.0,0.14835500717163086,7.39860725402832,-6.922436237335205
862,50200.0,0.04785645008087158,7.728816509246826,-5.941378593444824
863,50300.0,0.04785645008087158,7.728816509246826,-5.941378593444824
864,50400.0,0.04785645008087158,7.728816509246826,-5.941378593444824
865,50500.0,-2.0961124897003174,6.790830135345459,-6.154339790344237
866,50600.0,-2.0961124897003174,6.790830135345459,-6.154339790344237
867,50700.0,-1.2011969089508057,9.183652877807617,-4.783252716064453
868,50800.0,-1.2011969089508057,9.183652877807617,-4.783252716064453
869,50900.0,0.07657032459974289,8.109275817871094,-5.565705299377441
870,51000.0,0.07657032459974289,8.109275817871094,-5.565705299377441
871,51100.0,0.3062812983989716,7.0133628845214835,-6.20219612121582
872,51200.0,0.3062812983989716,7.0133628845214835,-6.20219612121582
873,51300.0,0.17228324711322784,7.836494445800781,-6.087340831756593
874,51400.0,0.17228324711322784,7.836494445800781,-6.087340831756593
875,51500.0,0.17228324711322784,7.836494445800781,-6.087340831756593
876,51600.0,0.3780659735202789,7.113861560821532,-7.152146816253662
877,51700.0,0.3780659735202789,7.113861560821532,-7.152146816253662
878,51800.0,0.4737788736820221,7.2813591957092285,-6.08494758605957
879,51900.0,0.4737788736820221,7.2813591957092285,-6.08494758605957
880,51000.0,0.07657032459974289,8.109275817871094,-5.565705299377441
881,51100.0,0.3062812983989716,7.0133628845214835,-6.20219612121582
882,51200.0,0.3062812983989716,7.0133628845214835,-6.20219612121582
883,51300.0,0.17228324711322784,7.836494445800781,-6.087340831756593
884,51400.0,0.17228324711322784,7.836494445800781,-6.087340831756593
885,51500.0,0.17228324711322784,7.836494445800781,-6.087340831756593
886,51600.0,0.3780659735202789,7.113861560821532,-7.152146816253662
887,51700.0,0.3780659735202789,7.113861560821532,-7.152146816253662
888,51800.0,0.4737788736820221,7.2813591957092285,-6.08494758605957
889,51900.0,0.4737788736820221,7.2813591957092285,-6.08494758605957
890,52000.0,0.4737788736820221,7.934599876403809,-5.4795637130737305
891,52100.0,0.4737788736820221,7.934599876403809,-5.4795637130737305
892,52200.0,0.4737788736820221,7.934599876403809,-5.4795637130737305
893,52300.0,0.3062812983989716,7.750352382659912,-6.506085395812987
894,52400.0,0.3062812983989716,7.750352382659912,-6.506085395812987
895,52500.0,0.16749757528305054,7.331608772277832,-6.27158784866333
896,52600.0,0.16749757528305054,7.331608772277832,-6.27158784866333
897,52700.0,-0.2488535493612289,6.16391134262085,-7.0133628845214835
898,52800.0,-0.2488535493612289,6.16391134262085,-7.0133628845214835
899,52900.0,-0.4211367666721344,7.257431030273437,-6.223731517791747
900,52000.0,0.4737788736820221,7.934599876403809,-5.4795637130737305
901,52100.0,0.4737788736820221,7.934599876403809,-5.4795637130737305
902,52200.0,0.4737788736820221,7.934599876403809,-5.4795637130737305
903,52300.0,0.3062812983989716,7.750352382659912,-6.506085395812987
904,52400.0,0.3062812983989716,7.750352382659912,-6.506085395812987
905,52500.0,0.16749757528305054,7.331608772277832,-6.27158784866333
906,52600.0,0.16749757528305054,7.331608772277832,-6.27158784866333
907,52700.0,-0.2488535493612289,6.16391134262085,-7.0133628845214835
908,52800.0,-0.2488535493612289,6.16391134262085,-7.0133628845214835
909,52900.0,-0.4211367666721344,7.257431030273437,-6.223731517791747
910,53000.0,-0.4211367666721344,7.257431030273437,-6.223731517791747
911,53100.0,0.028713870793581012,7.4608211517333975,-6.388835906982423
912,53200.0,0.028713870793581012,7.4608211517333975,-6.388835906982423
913,53300.0,0.028713870793581012,7.4608211517333975,-6.388835906982423
914,53400.0,0.17228324711322784,7.877171993255615,-7.099504470825195
915,53500.0,0.17228324711322784,7.877171993255615,-7.099504470825195
916,53600.0,-1.244267821311951,9.473184585571287,-5.120640754699707
917,53700.0,-1.244267821311951,9.473184585571287,-5.120640754699707
918,53800.0,0.25842484831810003,8.293522834777832,-7.245467185974121
919,53900.0,0.25842484831810003,8.293522834777832,-7.245467185974121
920,53000.0,-0.4211367666721344,7.257431030273437,-6.223731517791747
921,53100.0,0.028713870793581012,7.4608211517333975,-6.388835906982423
922,53200.0,0.028713870793581012,7.4608211517333975,-6.388835906982423
923,53300.0,0.028713870793581012,7.4608211517333975,-6.388835906982423
924,53400.0,0.17228324711322784,7.877171993255615,-7.099504470825195
925,53500.0,0.17228324711322784,7.877171993255615,-7.099504470825195
926,53600.0,-1.244267821311951,9.473184585571287,-5.120640754699707
927,53700.0,-1.244267821311951,9.473184585571287,-5.120640754699707
928,53800.0,0.25842484831810003,8.293522834777832,-7.245467185974121
929,53900.0,0.25842484831810003,8.293522834777832,-7.245467185974121
930,54000.0,0.25842484831810003,8.293522834777832,-7.245467185974121
931,54100.0,-0.22492533922195435,7.659425258636475,-6.058626651763916
932,54200.0,-0.22492533922195435,7.659425258636475,-6.058626651763916
933,54300.0,-0.033499516546726234,7.2263240814208975,-6.223731517791747
934,54400.0,-0.033499516546726234,7.2263240814208975,-6.223731517791747
935,54500.0,-0.033499516546726234,7.2263240814208975,-6.223731517791747
936,54600.0,-0.057427741587162025,7.058826446533202,-6.963113307952881
937,54700.0,-0.057427741587162025,7.058826446533202,-6.963113307952881
938,54800.0,0.062213387340307236,6.759723663330077,-7.7599239349365225
939,54900.0,0.062213387340307236,6.759723663330077,-7.7599239349365225
940,54000.0,0.25842484831810003,8.293522834777832,-7.245467185974121
941,54100.0,-0.22492533922195435,7.659425258636475,-6.058626651763916
942,54200.0,-0.22492533922195435,7.659425258636475,-6.058626651763916
943,54300.0,-0.033499516546726234,7.2263240814208975,-6.223731517791747
944,54400.0,-0.033499516546726234,7.2263240814208975,-6.223731517791747
945,54500.0,-0.033499516546726234,7.2263240814208975,-6.223731517791747
946,54600.0,-0.057427741587162025,7.058826446533202,-6.963113307952881
947,54700.0,-0.057427741587162025,7.058826446533202,-6.963113307952881
948,54800.0,0.062213387340307236,6.759723663330077,-7.7599239349365225
949,54900.0,0.062213387340307236,6.759723663330077,-7.7599239349365225
950,55000.0,-0.22492533922195435,8.042276382446289,-6.719045639038086
951,55100.0,-0.22492533922195435,8.042276382446289,-6.719045639038086
952,55200.0,-0.22492533922195435,8.042276382446289,-6.719045639038086
953,55300.0,0.033499516546726234,7.259823799133301,-6.697510242462157
954,55400.0,0.033499516546726234,7.259823799133301,-6.697510242462157
955,55500.0,0.3062812983989716,7.300501823425293,-6.357729434967041
956,55600.0,0.3062812983989716,7.300501823425293,-6.357729434967041
957,55700.0,0.3062812983989716,7.300501823425293,-6.357729434967041
958,55800.0,-0.6652047038078308,6.764510154724121,-6.041877269744872
959,55900.0,-0.6652047038078308,6.764510154724121,-6.041877269744872
960,55000.0,-0.22492533922195435,8.042276382446289,-6.719045639038086
961,55100.0,-0.22492533922195435,8.042276382446289,-6.719045639038086
962,55200.0,-0.22492533922195435,8.042276382446289,-6.719045639038086
963,55300.0,0.033499516546726234,7.259823799133301,-6.697510242462157
964,55400.0,0.033499516546726234,7.259823799133301,-6.697510242462157
965,55500.0,0.3062812983989716,7.300501823425293,-6.357729434967041
966,55600.0,0.3062812983989716,7.300501823425293,-6.357729434967041
967,55700.0,0.3062812983989716,7.300501823425293,-6.357729434967041
968,55800.0,-0.6652047038078308,6.764510154724121,-6.041877269744872
969,55900.0,-0.6652047038078308,6.764510154724121,-6.041877269744872
970,56000.0,0.6604190468788147,7.992027282714844,-6.5659050941467285
971,56100.0,0.6604190468788147,7.992027282714844,-6.5659050941467285
972,56200.0,-0.033499516546726234,7.8077802658081055,-5.642275810241699
973,56300.0,-0.033499516546726234,7.8077802658081055,-5.642275810241699
974,56400.0,-0.033499516546726234,7.8077802658081055,-5.642275810241699
975,56500.0,0.20099709928035736,7.223931312561035,-6.049055576324463
976,56600.0,0.20099709928035736,7.223931312561035,-6.049055576324463
977,56700.0,-0.5647061467170715,7.601996898651122,-4.7497525215148935
978,56800.0,-0.5647061467170715,7.601996898651122,-4.7497525215148935
979,56900.0,0.6556334495544434,8.338986396789549,-6.089733123779298
980,56000.0,0.6604190468788147,7.992027282714844,-6.5659050941467285
981,56100.0,0.6604190468788147,7.992027282714844,-6.5659050941467285
982,56200.0,-0.033499516546726234,7.8077802658081055,-5.642275810241699
983,56300.0,-0.033499516546726234,7.8077802658081055,-5.642275810241699
984,56400.0,-0.033499516546726234,7.8077802658081055,-5.642275810241699
985,56500.0,0.20099709928035736,7.223931312561035,-6.049055576324463
986,56600.0,0.20099709928035736,7.223931312561035,-6.049055576324463
987,56700.0,-0.5647061467170715,7.601996898651122,-4.7497525215148935
988,56800.0,-0.5647061467170715,7.601996898651122,-4.7497525215148935
989,56900.0,0.6556334495544434,8.338986396789549,-6.089733123779298
990,57000.0,0.6556334495544434,8.338986396789549,-6.089733123779298
991,57100.0,0.4450649619102478,8.212166786193848,-5.647061824798584
992,57200.0,0.4450649619102478,8.212166786193848,-5.647061824798584
993,57300.0,0.4450649619102478,8.212166786193848,-5.647061824798584
994,57400.0,0.5647061467170715,7.982456684112549,-6.396015167236327
995,57500.0,0.5647061467170715,7.982456684112549,-6.396015167236327
996,57600.0,0.028713870793581012,6.441478729248048,-7.003791332244872
997,57700.0,0.028713870793581012,6.441478729248048,-7.003791332244872
998,57800.0,0.27278175950050354,7.7048888206481925,-5.776273727416992
999,57900.0,0.27278175950050354,7.7048888206481925,-5.776273727416992
1000,57000.0,0.6556334495544434,8.338986396789549,-6.089733123779298
1001,57100.0,0.4450649619102478,8.212166786193848,-5.647061824798584
1002,57200.0,0.4450649619102478,8.212166786193848,-5.647061824798584
1003,57300.0,0.4450649619102478,8.212166786193848,-5.647061824798584
1004,57400.0,0.5647061467170715,7.982456684112549,-6.396015167236327
1005,57500.0,0.5647061467170715,7.982456684112549,-6.396015167236327
1006,57600.0,0.028713870793581012,6.441478729248048,-7.003791332244872
1007,57700.0,0.028713870793581012,6.441478729248048,-7.003791332244872
1008,57800.0,0.27278175950050354,7.7048888206481925,-5.776273727416992
1009,57900.0,0.27278175950050354,7.7048888206481925,-5.776273727416992
1010,58000.0,0.27278175950050354,7.7048888206481925,-5.776273727416992
1011,58100.0,-0.0526420958340168,7.3363938331604,-6.642475128173827
1012,58200.0,-0.0526420958340168,7.3363938331604,-6.642475128173827
1013,58300.0,-0.08614162355661392,7.200003147125244,-6.405585765838622
1014,58400.0,-0.08614162355661392,7.200003147125244,-6.405585765838622
1015,58500.0,2.569891452789306,7.489534854888916,-7.965706348419189
1016,58600.0,2.569891452789306,7.489534854888916,-7.965706348419189
1017,58700.0,2.569891452789306,7.489534854888916,-7.965706348419189
1018,58800.0,0.00957129057496786,7.678568363189697,-5.821736812591553
1019,58900.0,0.00957129057496786,7.678568363189697,-5.821736812591553
1020,58000.0,0.27278175950050354,7.7048888206481925,-5.776273727416992
1021,58100.0,-0.0526420958340168,7.3363938331604,-6.642475128173827
1022,58200.0,-0.0526420958340168,7.3363938331604,-6.642475128173827
1023,58300.0,-0.08614162355661392,7.200003147125244,-6.405585765838622
1024,58400.0,-0.08614162355661392,7.200003147125244,-6.405585765838622
1025,58500.0,2.569891452789306,7.489534854888916,-7.965706348419189
1026,58600.0,2.569891452789306,7.489534854888916,-7.965706348419189
1027,58700.0,2.569891452789306,7.489534854888916,-7.965706348419189
1028,58800.0,0.00957129057496786,7.678568363189697,-5.821736812591553
1029,58900.0,0.00957129057496786,7.678568363189697,-5.821736812591553
1030,59000.0,0.4881358444690704,8.963513374328613,-5.517848491668701
1031,59100.0,0.4881358444690704,8.963513374328613,-5.517848491668701
1032,59200.0,-0.07178468257188797,6.73818826675415,-6.317051887512207
1033,59300.0,-0.07178468257188797,6.73818826675415,-6.317051887512207
1034,59400.0,-0.07178468257188797,6.73818826675415,-6.317051887512207
1035,59500.0,0.4067798554897308,7.905886173248291,-5.54177713394165
1036,59600.0,0.4067798554897308,7.905886173248291,-5.54177713394165
1037,59700.0,0.1627119481563568,7.168896198272705,-6.338587284088135
1038,59800.0,0.1627119481563568,7.168896198272705,-6.338587284088135
1039,59900.0,-0.6556334495544434,9.336793899536133,-5.166104316711426
1040,59000.0,0.4881358444690704,8.963513374328613,-5.517848491668701
1041,59100.0,0.4881358444690704,8.963513374328613,-5.517848491668701
1042,59200.0,-0.07178468257188797,6.73818826675415,-6.317051887512207
1043,59300.0,-0.07178468257188797,6.73818826675415,-6.317051887512207
1044,59400.0,-0.07178468257188797,6.73818826675415,-6.317051887512207
1045,59500.0,0.4067798554897308,7.905886173248291,-5.54177713394165
1046,59600.0,0.4067798554897308,7.905886173248291,-5.54177713394165
1047,59700.0,0.1627119481563568,7.168896198272705,-6.338587284088135
1048,59800.0,0.1627119481563568,7.168896198272705,-6.338587284088135
1049,59900.0,-0.6556334495544434,9.336793899536133,-5.166104316711426
1050,60000.0,-0.6556334495544434,9.336793899536133,-5.166104316711426
1051,60100.0,0.3302095234394073,8.00638484954834,-5.6542396545410165
1052,60200.0,0.3302095234394073,8.00638484954834,-5.6542396545410165
1053,60300.0,0.3206382095813751,7.6737823486328125,-5.556134223937988
1054,60400.0,0.3206382095813751,7.6737823486328125,-5.556134223937988
1055,60500.0,0.3206382095813751,7.6737823486328125,-5.556134223937988
1056,60600.0,0.2871387302875519,7.494320392608643,-6.463014125823975
1057,60700.0,0.2871387302875519,7.494320392608643,-6.463014125823975
1058,60800.0,0.3780659735202789,7.216752529144287,-6.31944465637207
1059,60900.0,0.3780659735202789,7.216752529144287,-6.31944465637207
1060,60000.0,-0.6556334495544434,9.336793899536133,-5.166104316711426
1061,60100.0,0.3302095234394073,8.00638484954834,-5.6542396545410165
1062,60200.0,0.3302095234394073,8.00638484954834,-5.6542396545410165
1063,60300.0,0.3206382095813751,7.6737823486328125,-5.556134223937988
1064,60400.0,0.3206382095813751,7.6737823486328125,-5.556134223937988
1065,60500.0,0.3206382095813751,7.6737823486328125,-5.556134223937988
1066,60600.0,0.2871387302875519,7.494320392608643,-6.463014125823975
1067,60700.0,0.2871387302875519,7.494320392608643,-6.463014125823975
1068,60800.0,0.3780659735202789,7.216752529144287,-6.31944465637207
1069,60900.0,0.3780659735202789,7.216752529144287,-6.31944465637207
1070,61000.0,0.3780659735202789,7.216752529144287,-6.31944465637207
1071,61100.0,0.1866401582956314,7.381857395172119,-5.989234924316406
1072,61200.0,0.1866401582956314,7.381857395172119,-5.989234924316406
1073,61300.0,0.5790630578994751,7.472784996032715,-6.6281185150146475
1074,61400.0,0.5790630578994751,7.472784996032715,-6.6281185150146475
1075,61500.0,-0.014356935396790503,7.379465103149414,-6.245267391204834
1076,61600.0,-0.014356935396790503,7.379465103149414,-6.245267391204834
1077,61700.0,-1.1820544004440308,8.951549530029297,-5.321637630462647
1078,61800.0,-1.1820544004440308,8.951549530029297,-5.321637630462647
1079,61900.0,-1.1820544004440308,8.951549530029297,-5.321637630462647
1080,61000.0,0.3780659735202789,7.216752529144287,-6.31944465637207
1081,61100.0,0.1866401582956314,7.381857395172119,-5.989234924316406
1082,61200.0,0.1866401582956314,7.381857395172119,-5.989234924316406
1083,61300.0,0.5790630578994751,7.472784996032715,-6.6281185150146475
1084,61400.0,0.5790630578994751,7.472784996032715,-6.6281185150146475
1085,61500.0,-0.014356935396790503,7.379465103149414,-6.245267391204834
1086,61600.0,-0.014356935396790503,7.379465103149414,-6.245267391204834
1087,61700.0,-1.1820544004440308,8.951549530029297,-5.321637630462647
1088,61800.0,-1.1820544004440308,8.951549530029297,-5.321637630462647
1089,61900.0,-1.1820544004440308,8.951549530029297,-5.321637630462647
1090,62000.0,0.2488535493612289,7.472784996032715,-5.651846885681152
1091,62100.0,0.2488535493612289,7.472784996032715,-5.651846885681152
1092,62200.0,0.2297109663486481,7.812565803527832,-5.9533424377441415
1093,62300.0,0.2297109663486481,7.812565803527832,-5.9533424377441415
1094,62400.0,0.2297109663486481,7.812565803527832,-5.9533424377441415
1095,62500.0,-0.7082754969596863,7.539783954620361,-5.625525951385498
1096,62600.0,-0.7082754969596863,7.539783954620361,-5.625525951385498
1097,62700.0,0.5647061467170715,7.3842506408691415,-6.27876615524292
1098,62800.0,0.5647061467170715,7.3842506408691415,-6.27876615524292
1099,62900.0,1.3399806022644043,9.1716890335083,-4.747360229492188
1100,62000.0,0.2488535493612289,7.472784996032715,-5.651846885681152
1101,62100.0,0.2488535493612289,7.472784996032715,-5.651846885681152
1102,62200.0,0.2297109663486481,7.812565803527832,-5.9533424377441415
1103,62300.0,0.2297109663486481,7.812565803527832,-5.9533424377441415
1104,62400.0,0.2297109663486481,7.812565803527832,-5.9533424377441415
1105,62500.0,-0.7082754969596863,7.539783954620361,-5.625525951385498
1106,62600.0,-0.7082754969596863,7.539783954620361,-5.625525951385498
1107,62700.0,0.5647061467170715,7.3842506408691415,-6.27876615524292
1108,62800.0,0.5647061467170715,7.3842506408691415,-6.27876615524292
1109,62900.0,1.3399806022644043,9.1716890335083,-4.747360229492188
1110,63000.0,1.3399806022644043,9.1716890335083,-4.747360229492188
1111,63100.0,-0.9140582084655762,6.577868938446045,-6.661618232727051
1112,63200.0,-0.9140582084655762,6.577868938446045,-6.661618232727051
1113,63300.0,-0.9140582084655762,6.577868938446045,-6.661618232727051
1114,63400.0,0.014356935396790503,7.57806921005249,-6.0394840240478525
1115,63500.0,0.014356935396790503,7.57806921005249,-6.0394840240478525
1116,63600.0,-0.16749757528305054,7.484748840332031,-6.527620315551758
1117,63700.0,-0.16749757528305054,7.484748840332031,-6.527620315551758
1118,63800.0,-0.16749757528305054,7.484748840332031,-6.527620315551758
1119,63900.0,-0.6987042427062988,7.39860725402832,-6.31944465637207
1120,63000.0,1.3399806022644043,9.1716890335083,-4.747360229492188
1121,63100.0,-0.9140582084655762,6.577868938446045,-6.661618232727051
1122,63200.0,-0.9140582084655762,6.577868938446045,-6.661618232727051
1123,63300.0,-0.9140582084655762,6.577868938446045,-6.661618232727051
1124,63400.0,0.014356935396790503,7.57806921005249,-6.0394840240478525
1125,63500.0,0.014356935396790503,7.57806921005249,-6.0394840240478525
1126,63600.0,-0.16749757528305054,7.484748840332031,-6.527620315551758
1127,63700.0,-0.16749757528305054,7.484748840332031,-6.527620315551758
1128,63800.0,-0.16749757528305054,7.484748840332031,-6.527620315551758
1129,63900.0,-0.6987042427062988,7.39860725402832,-6.31944465637207
1130,64000.0,-0.6987042427062988,7.39860725402832,-6.31944465637207
1131,64100.0,-0.35413774847984314,6.656832218170166,-6.843472957611084
1132,64200.0,-0.35413774847984314,6.656832218170166,-6.843472957611084
1133,64300.0,-0.2488535493612289,6.908078193664551,-6.8721866607666025
1134,64400.0,-0.2488535493612289,6.908078193664551,-6.8721866607666025
1135,64500.0,-0.25363919138908386,6.853044033050537,-6.824329853057861
1136,64600.0,-0.25363919138908386,6.853044033050537,-6.824329853057861
1137,64700.0,-0.3445664942264557,6.742973804473878,-6.905685901641847
1138,64800.0,-0.3445664942264557,6.742973804473878,-6.905685901641847
1139,64900.0,0.30149564146995544,7.372286796569824,-5.6542396545410165
1140,64000.0,-0.6987042427062988,7.39860725402832,-6.31944465637207
1141,64100.0,-0.35413774847984314,6.656832218170166,-6.843472957611084
1142,64200.0,-0.35413774847984314,6.656832218170166,-6.843472957611084
1143,64300.0,-0.2488535493612289,6.908078193664551,-6.8721866607666025
1144,64400.0,-0.2488535493612289,6.908078193664551,-6.8721866607666025
1145,64500.0,-0.25363919138908386,6.853044033050537,-6.824329853057861
1146,64600.0,-0.25363919138908386,6.853044033050537,-6.824329853057861
1147,64700.0,-0.3445664942264557,6.742973804473878,-6.905685901641847
1148,64800.0,-0.3445664942264557,6.742973804473878,-6.905685901641847
1149,64900.0,0.30149564146995544,7.372286796569824,-5.6542396545410165
1150,65000.0,0.30149564146995544,7.372286796569824,-5.6542396545410165
1151,65100.0,0.30149564146995544,7.372286796569824,-5.6542396545410165
1152,65200.0,0.1052841916680336,6.398407459259032,-7.963313579559326
1153,65300.0,0.1052841916680336,6.398407459259032,-7.963313579559326
1154,65400.0,-0.20578275620937347,6.530013084411621,-6.4869422912597665
1155,65500.0,-0.20578275620937347,6.530013084411621,-6.4869422912597665
1156,65600.0,-0.20578275620937347,6.530013084411621,-6.4869422912597665
1157,65700.0,0.5599204897880554,7.970492362976074,-5.941378593444824
1158,65800.0,0.5599204897880554,7.970492362976074,-5.941378593444824
1159,65900.0,-0.3206382095813751,6.814758777618407,-7.142575740814209
1160,65000.0,0.30149564146995544,7.372286796569824,-5.6542396545410165
1161,65100.0,0.30149564146995544,7.372286796569824,-5.6542396545410165
1162,65200.0,0.1052841916680336,6.398407459259032,-7.963313579559326
1163,65300.0,0.1052841916680336,6.398407459259032,-7.963313579559326
1164,65400.0,-0.20578275620937347,6.530013084411621,-6.4869422912597665
1165,65500.0,-0.20578275620937347,6.530013084411621,-6.4869422912597665
1166,65600.0,-0.20578275620937347,6.530013084411621,-6.4869422912597665
1167,65700.0,0.5599204897880554,7.970492362976074,-5.941378593444824
1168,65800.0,0.5599204897880554,7.970492362976074,-5.941378593444824
1169,65900.0,-0.3206382095813751,6.814758777618407,-7.142575740814209
1170,66000.0,-0.3206382095813751,6.814758777618407,-7.142575740814209
1171,66100.0,0.19142580032348636,7.3124656677246085,-6.740581512451173
1172,66200.0,0.19142580032348636,7.3124656677246085,-6.740581512451173
1173,66300.0,0.19142580032348636,7.3124656677246085,-6.740581512451173
1174,66400.0,-0.08614162355661392,7.022934436798097,-6.778866291046143
1175,66500.0,-0.08614162355661392,7.022934436798097,-6.778866291046143
1176,66600.0,-0.3158525824546814,7.111469268798827,-5.979663372039795
1177,66700.0,-0.3158525824546814,7.111469268798827,-5.979663372039795
1178,66800.0,-0.3158525824546814,7.111469268798827,-5.979663372039795
1179,66900.0,-0.3924228847026825,7.877171993255615,-5.132604122161865
1180,66000.0,-0.3206382095813751,6.814758777618407,-7.142575740814209
1181,66100.0,0.19142580032348636,7.3124656677246085,-6.740581512451173
1182,66200.0,0.19142580032348636,7.3124656677246085,-6.740581512451173
1183,66300.0,0.19142580032348636,7.3124656677246085,-6.740581512451173
1184,66400.0,-0.08614162355661392,7.022934436798097,-6.778866291046143
1185,66500.0,-0.08614162355661392,7.022934436798097,-6.778866291046143
1186,66600.0,-0.3158525824546814,7.111469268798827,-5.979663372039795
1187,66700.0,-0.3158525824546814,7.111469268798827,-5.979663372039795
1188,66800.0,-0.3158525824546814,7.111469268798827,-5.979663372039795
1189,66900.0,-0.3924228847026825,7.877171993255615,-5.132604122161865
1190,67000.0,-0.3924228847026825,7.877171993255615,-5.132604122161865
1191,67100.0,0.11485548317432405,7.554140567779541,-6.384050369262695
1192,67200.0,0.11485548317432405,7.554140567779541,-6.384050369262695
1193,67300.0,0.06699903309345245,6.5324058532714835,-6.675975322723389
1194,67400.0,0.06699903309345245,6.5324058532714835,-6.675975322723389
1195,67500.0,-0.2871387302875519,7.008577823638916,-6.656832218170166
1196,67600.0,-0.2871387302875519,7.008577823638916,-6.656832218170166
1197,67700.0,-0.2871387302875519,7.008577823638916,-6.656832218170166
1198,67800.0,-0.3158525824546814,6.2093749046325675,-7.0133628845214835
1199,67900.0,-0.3158525824546814,6.2093749046325675,-7.0133628845214835
1200,67000.0,-0.3924228847026825,7.877171993255615,-5.132604122161865
1201,67100.0,0.11485548317432405,7.554140567779541,-6.384050369262695
1202,67200.0,0.11485548317432405,7.554140567779541,-6.384050369262695
1203,67300.0,0.06699903309345245,6.5324058532714835,-6.675975322723389
1204,67400.0,0.06699903309345245,6.5324058532714835,-6.675975322723389
1205,67500.0,-0.2871387302875519,7.008577823638916,-6.656832218170166
1206,67600.0,-0.2871387302875519,7.008577823638916,-6.656832218170166
1207,67700.0,-0.2871387302875519,7.008577823638916,-6.656832218170166
1208,67800.0,-0.3158525824546814,6.2093749046325675,-7.0133628845214835
1209,67900.0,-0.3158525824546814,6.2093749046325675,-7.0133628845214835
1210,68000.0,0.014356935396790503,7.379465103149414,-6.647261142730713
1211,68100.0,0.014356935396790503,7.379465103149414,-6.647261142730713
1212,68200.0,0.057427741587162025,6.0921263694763175,-6.618547439575195
1213,68300.0,0.057427741587162025,6.0921263694763175,-6.618547439575195
1214,68400.0,-0.00957129057496786,7.147361278533936,-5.687739372253418
1215,68500.0,-0.00957129057496786,7.147361278533936,-5.687739372253418
1216,68600.0,-0.00957129057496786,7.147361278533936,-5.687739372253418
1217,68700.0,-0.3158525824546814,7.728816509246826,-5.941378593444824
1218,68800.0,-0.3158525824546814,7.728816509246826,-5.941378593444824
1219,68900.0,-0.3254238963127136,6.666403770446777,-6.747759819030763
1220,68000.0,0.014356935396790503,7.379465103149414,-6.647261142730713
1221,68100.0,0.014356935396790503,7.379465103149414,-6.647261142730713
1222,68200.0,0.057427741587162025,6.0921263694763175,-6.618547439575195
1223,68300.0,0.057427741587162025,6.0921263694763175,-6.618547439575195
1224,68400.0,-0.00957129057496786,7.147361278533936,-5.687739372253418
1225,68500.0,-0.00957129057496786,7.147361278533936,-5.687739372253418
1226,68600.0,-0.00957129057496786,7.147361278533936,-5.687739372253418
1227,68700.0,-0.3158525824546814,7.728816509246826,-5.941378593444824
1228,68800.0,-0.3158525824546814,7.728816509246826,-5.941378593444824
1229,68900.0,-0.3254238963127136,6.666403770446777,-6.747759819030763
1230,69000.0,-0.3254238963127136,6.666403770446777,-6.747759819030763
1231,69100.0,0.6604190468788147,8.700303077697754,-5.850451469421388
1232,69200.0,0.6604190468788147,8.700303077697754,-5.850451469421388
1233,69300.0,-0.5407779216766357,6.266802310943604,-7.099504470825195
1234,69400.0,-0.5407779216766357,6.266802310943604,-7.099504470825195
1235,69500.0,-0.5407779216766357,6.266802310943604,-7.099504470825195
1236,69600.0,0.23449662327766416,7.735995292663574,-5.917449951171875
1237,69700.0,0.23449662327766416,7.735995292663574,-5.917449951171875
1238,69800.0,-0.7800601720809937,7.080362319946289,-7.1712894439697275
1239,69900.0,-0.7800601720809937,7.080362319946289,-7.1712894439697275
1240,69000.0,-0.3254238963127136,6.666403770446777,-6.747759819030763
1241,69100.0,0.6604190468788147,8.700303077697754,-5.850451469421388
1242,69200.0,0.6604190468788147,8.700303077697754,-5.850451469421388
1243,69300.0,-0.5407779216766357,6.266802310943604,-7.099504470825195
1244,69400.0,-0.5407779216766357,6.266802310943604,-7.099504470825195
1245,69500.0,-0.5407779216766357,6.266802310943604,-7.099504470825195
1246,69600.0,0.23449662327766416,7.735995292663574,-5.917449951171875
1247,69700.0,0.23449662327766416,7.735995292663574,-5.917449951171875
1248,69800.0,-0.7800601720809937,7.080362319946289,-7.1712894439697275
1249,69900.0,-0.7800601720809937,7.080362319946289,-7.1712894439697275
1250,70000.0,-0.7800601720809937,7.080362319946289,-7.1712894439697275
1251,70100.0,0.033499516546726234,8.133204460144043,-6.044269561767577
1252,70200.0,0.033499516546726234,8.133204460144043,-6.044269561767577
1253,70300.0,-0.17228324711322784,6.975078105926514,-7.46799898147583
1254,70400.0,-0.17228324711322784,6.975078105926514,-7.46799898147583
1255,70500.0,-0.6029912829399109,6.343372344970702,-6.824329853057861
1256,70600.0,-0.6029912829399109,6.343372344970702,-6.824329853057861
1257,70700.0,-0.5742774605751038,5.86720085144043,-7.939385414123535
1258,70800.0,-0.5742774605751038,5.86720085144043,-7.939385414123535
1259,70900.0,-0.4689932465553284,6.750153064727782,-7.255037784576416
1260,70000.0,-0.7800601720809937,7.080362319946289,-7.1712894439697275
1261,70100.0,0.033499516546726234,8.133204460144043,-6.044269561767577
1262,70200.0,0.033499516546726234,8.133204460144043,-6.044269561767577
1263,70300.0,-0.17228324711322784,6.975078105926514,-7.46799898147583
1264,70400.0,-0.17228324711322784,6.975078105926514,-7.46799898147583
1265,70500.0,-0.6029912829399109,6.343372344970702,-6.824329853057861
1266,70600.0,-0.6029912829399109,6.343372344970702,-6.824329853057861
1267,70700.0,-0.5742774605751038,5.86720085144043,-7.939385414123535
1268,70800.0,-0.5742774605751038,5.86720085144043,-7.939385414123535
1269,70900.0,-0.4689932465553284,6.750153064727782,-7.255037784576416
1270,71000.0,-0.4689932465553284,6.750153064727782,-7.255037784576416
1271,71100.0,-0.4689932465553284,6.750153064727782,-7.255037784576416
1272,71200.0,-0.3302095234394073,6.56829833984375,-7.001399040222168
1273,71300.0,-0.3302095234394073,6.56829833984375,-7.001399040222168
1274,71400.0,-0.4929214715957642,6.687938690185548,-7.032505512237549
1275,71500.0,-0.4929214715957642,6.687938690185548,-7.032505512237549
1276,71600.0,-0.5024927258491516,6.860222339630128,-6.867401123046875
1277,71700.0,-0.5024927258491516,6.860222339630128,-6.867401123046875
1278,71800.0,-0.5024927258491516,6.860222339630128,-6.867401123046875
1279,71900.0,-0.5647061467170715,6.984649658203125,-6.484549045562744
1280,71000.0,-0.4689932465553284,6.750153064727782,-7.255037784576416
1281,71100.0,-0.4689932465553284,6.750153064727782,-7.255037784576416
1282,71200.0,-0.3302095234394073,6.56829833984375,-7.001399040222168
1283,71300.0,-0.3302095234394073,6.56829833984375,-7.001399040222168
1284,71400.0,-0.4929214715957642,6.687938690185548,-7.032505512237549
1285,71500.0,-0.4929214715957642,6.687938690185548,-7.032505512237549
1286,71600.0,-0.5024927258491516,6.860222339630128,-6.867401123046875
1287,71700.0,-0.5024927258491516,6.860222339630128,-6.867401123046875
1288,71800.0,-0.5024927258491516,6.860222339630128,-6.867401123046875
1289,71900.0,-0.5647061467170715,6.984649658203125,-6.484549045562744
1290,72000.0,-0.5647061467170715,6.984649658203125,-6.484549045562744
1291,72100.0,-0.25842484831810003,6.922436237335205,-6.479763507843018
1292,72200.0,-0.25842484831810003,6.922436237335205,-6.479763507843018
1293,72300.0,-0.5982056856155396,6.666403770446777,-6.608975887298584
1294,72400.0,-0.5982056856155396,6.666403770446777,-6.608975887298584
1295,72500.0,-0.5982056856155396,6.6352972984313965,-7.211967468261719
1296,72600.0,-0.5982056856155396,6.6352972984313965,-7.211967468261719
1297,72700.0,-0.5982056856155396,6.6352972984313965,-7.211967468261719
1298,72800.0,-0.6029912829399109,7.57806921005249,-6.285945415496826
1299,72900.0,-0.6029912829399109,7.57806921005249,-6.285945415496826
1300,72000.0,-0.5647061467170715,6.984649658203125,-6.484549045562744
1301,72100.0,-0.25842484831810003,6.922436237335205,-6.479763507843018
1302,72200.0,-0.25842484831810003,6.922436237335205,-6.479763507843018
1303,72300.0,-0.5982056856155396,6.666403770446777,-6.608975887298584
1304,72400.0,-0.5982056856155396,6.666403770446777,-6.608975887298584
1305,72500.0,-0.5982056856155396,6.6352972984313965,-7.211967468261719
1306,72600.0,-0.5982056856155396,6.6352972984313965,-7.211967468261719
1307,72700.0,-0.5982056856155396,6.6352972984313965,-7.211967468261719
1308,72800.0,-0.6029912829399109,7.57806921005249,-6.285945415496826
1309,72900.0,-0.6029912829399109,7.57806921005249,-6.285945415496826
1310,73000.0,-0.6939185857772827,6.632904052734375,-7.0923261642456055
1311,73100.0,-0.6939185857772827,6.632904052734375,-7.0923261642456055
1312,73200.0,-0.6939185857772827,6.632904052734375,-7.0923261642456055
1313,73300.0,-0.7274181246757507,6.999006271362305,-6.594619274139403
1314,73400.0,-0.7274181246757507,6.999006271362305,-6.594619274139403
1315,73500.0,-0.8949156999588013,7.479963302612305,-6.2117671966552725
1316,73600.0,-0.8949156999588013,7.479963302612305,-6.2117671966552725
1317,73700.0,-0.9284151792526244,6.8721866607666025,-6.63769006729126
1318,73800.0,-0.9284151792526244,6.8721866607666025,-6.63769006729126
1319,73900.0,-0.9284151792526244,6.8721866607666025,-6.63769006729126
1320,73000.0,-0.6939185857772827,6.632904052734375,-7.0923261642456055
1321,73100.0,-0.6939185857772827,6.632904052734375,-7.0923261642456055
1322,73200.0,-0.6939185857772827,6.632904052734375,-7.0923261642456055
1323,73300.0,-0.7274181246757507,6.999006271362305,-6.594619274139403
1324,73400.0,-0.7274181246757507,6.999006271362305,-6.594619274139403
1325,73500.0,-0.8949156999588013,7.479963302612305,-6.2117671966552725
1326,73600.0,-0.8949156999588013,7.479963302612305,-6.2117671966552725
1327,73700.0,-0.9284151792526244,6.8721866607666025,-6.63769006729126
1328,73800.0,-0.9284151792526244,6.8721866607666025,-6.63769006729126
1329,73900.0,-0.9284151792526244,6.8721866607666025,-6.63769006729126
1330,74000.0,-0.6508477926254272,7.3124656677246085,-6.845865249633789
1331,74100.0,-0.6508477926254272,7.3124656677246085,-6.845865249633789
1332,74200.0,-0.6460621356964111,6.431907176971436,-7.111469268798827
1333,74300.0,-0.6460621356964111,6.431907176971436,-7.111469268798827
1334,74400.0,-0.4498506784439087,7.671389579772949,-6.340980052947997
1335,74500.0,-0.4498506784439087,7.671389579772949,-6.340980052947997
1336,74600.0,-0.6556334495544434,6.664010524749756,-6.850651264190674
1337,74700.0,-0.6556334495544434,6.664010524749756,-6.850651264190674
1338,74800.0,-0.6556334495544434,6.664010524749756,-6.850651264190674
1339,74900.0,-0.8853443264961243,6.530013084411621,-6.86979341506958
1340,74000.0,-0.6508477926254272,7.3124656677246085,-6.845865249633789
1341,74100.0,-0.6508477926254272,7.3124656677246085,-6.845865249633789
1342,74200.0,-0.6460621356964111,6.431907176971436,-7.111469268798827
1343,74300.0,-0.6460621356964111,6.431907176971436,-7.111469268798827
1344,74400.0,-0.4498506784439087,7.671389579772949,-6.340980052947997
1345,74500.0,-0.4498506784439087,7.671389579772949,-6.340980052947997
1346,74600.0,-0.6556334495544434,6.664010524749756,-6.850651264190674
1347,74700.0,-0.6556334495544434,6.664010524749756,-6.850651264190674
1348,74800.0,-0.6556334495544434,6.664010524749756,-6.850651264190674
1349,74900.0,-0.8853443264961243,6.530013084411621,-6.86979341506958
1350,75000.0,-0.8853443264961243,6.530013084411621,-6.86979341506958
1351,75100.0,-0.7178468108177185,6.20219612121582,-7.439285278320312
1352,75200.0,-0.7178468108177185,6.20219612121582,-7.439285278320312
1353,75300.0,-0.5216353535652161,6.570690631866455,-6.206982612609862
1354,75400.0,-0.5216353535652161,6.570690631866455,-6.206982612609862
1355,75500.0,-0.5216353535652161,6.570690631866455,-6.206982612609862
1356,75600.0,-0.5455635190010071,7.197610855102539,-7.57806921005249
1357,75700.0,-0.5455635190010071,7.197610855102539,-7.57806921005249
1358,75800.0,-0.17706887423992154,7.154539585113525,-6.671189785003662
1359,75900.0,-0.17706887423992154,7.154539585113525,-6.671189785003662
1360,75000.0,-0.8853443264961243,6.530013084411621,-6.86979341506958
1361,75100.0,-0.7178468108177185,6.20219612121582,-7.439285278320312
1362,75200.0,-0.7178468108177185,6.20219612121582,-7.439285278320312
1363,75300.0,-0.5216353535652161,6.570690631866455,-6.206982612609862
1364,75400.0,-0.5216353535652161,6.570690631866455,-6.206982612609862
1365,75500.0,-0.5216353535652161,6.570690631866455,-6.206982612609862
1366,75600.0,-0.5455635190010071,7.197610855102539,-7.57806921005249
1367,75700.0,-0.5455635190010071,7.197610855102539,-7.57806921005249
1368,75800.0,-0.17706887423992154,7.154539585113525,-6.671189785003662
1369,75900.0,-0.17706887423992154,7.154539585113525,-6.671189785003662
1370,76000.0,-0.07657032459974289,8.343771934509277,-6.041877269744872
1371,76100.0,-0.07657032459974289,8.343771934509277,-6.041877269744872
1372,76200.0,-0.11485548317432405,7.594818592071532,-6.400800704956055
1373,76300.0,-0.11485548317432405,7.594818592071532,-6.400800704956055
1374,76400.0,-0.11485548317432405,7.594818592071532,-6.400800704956055
1375,76500.0,0.4019941985607147,8.341379165649414,-5.816952228546143
1376,76600.0,0.4019941985607147,8.341379165649414,-5.816952228546143
1377,76700.0,-6.321837425231934,5.441278457641602,-4.926821708679199
1378,76800.0,-6.321837425231934,5.441278457641602,-4.926821708679199
1379,76900.0,-6.321837425231934,5.441278457641602,-4.926821708679199
1380,76000.0,-0.07657032459974289,8.343771934509277,-6.041877269744872
1381,76100.0,-0.07657032459974289,8.343771934509277,-6.041877269744872
1382,76200.0,-0.11485548317432405,7.594818592071532,-6.400800704956055
1383,76300.0,-0.11485548317432405,7.594818592071532,-6.400800704956055
1384,76400.0,-0.11485548317432405,7.594818592071532,-6.400800704956055
1385,76500.0,0.4019941985607147,8.341379165649414,-5.816952228546143
1386,76600.0,0.4019941985607147,8.341379165649414,-5.816952228546143
1387,76700.0,-6.321837425231934,5.441278457641602,-4.926821708679199
1388,76800.0,-6.321837425231934,5.441278457641602,-4.926821708679199
1389,76900.0,-6.321837425231934,5.441278457641602,-4.926821708679199
1390,77000.0,0.06699903309345245,8.827122688293457,-5.960521221160889
1391,77100.0,0.06699903309345245,8.827122688293457,-5.960521221160889
1392,77200.0,-0.2919243574142456,8.042276382446289,-5.376672744750977
1393,77300.0,-0.2919243574142456,8.042276382446289,-5.376672744750977
1394,77400.0,0.7992027401924133,8.365307807922362,-5.472385883331299
1395,77500.0,0.7992027401924133,8.365307807922362,-5.472385883331299
1396,77600.0,0.28235307335853577,6.893722057342528,-6.453442573547362
1397,77700.0,0.28235307335853577,6.893722057342528,-6.453442573547362
1398,77800.0,0.28235307335853577,6.893722057342528,-6.453442573547362
1399,77900.0,0.5024927258491516,7.372286796569824,-6.474977493286133
1400,77000.0,0.06699903309345245,8.827122688293457,-5.960521221160889
1401,77100.0,0.06699903309345245,8.827122688293457,-5.960521221160889
1402,77200.0,-0.2919243574142456,8.042276382446289,-5.376672744750977
1403,77300.0,-0.2919243574142456,8.042276382446289,-5.376672744750977
1404,77400.0,0.7992027401924133,8.365307807922362,-5.472385883331299
1405,77500.0,0.7992027401924133,8.365307807922362,-5.472385883331299
1406,77600.0,0.28235307335853577,6.893722057342528,-6.453442573547362
1407,77700.0,0.28235307335853577,6.893722057342528,-6.453442573547362
1408,77800.0,0.28235307335853577,6.893722057342528,-6.453442573547362
1409,77900.0,0.5024927258491516,7.372286796569824,-6.474977493286133
1410,78000.0,0.5024927258491516,7.372286796569824,-6.474977493286133
1411,78100.0,1.0911270380020142,6.764510154724121,-7.542177200317383
1412,78200.0,1.0911270380020142,6.764510154724121,-7.542177200317383
1413,78300.0,1.0911270380020142,6.764510154724121,-7.542177200317383
1414,78400.0,0.5359922647476196,7.439285278320312,-7.176074504852295
1415,78500.0,0.5359922647476196,7.439285278320312,-7.176074504852295
1416,78600.0,0.3206382095813751,7.802994728088379,-6.912864685058594
1417,78700.0,0.3206382095813751,7.802994728088379,-6.912864685058594
1418,78800.0,3.627518892288208,6.128018856048584,-8.061419486999513
1419,78900.0,3.627518892288208,6.128018856048584,-8.061419486999513
1420,78000.0,0.5024927258491516,7.372286796569824,-6.474977493286133
1421,78100.0,1.0911270380020142,6.764510154724121,-7.542177200317383
1422,78200.0,1.0911270380020142,6.764510154724121,-7.542177200317383
1423,78300.0,1.0911270380020142,6.764510154724121,-7.542177200317383
1424,78400.0,0.5359922647476196,7.439285278320312,-7.176074504852295
1425,78500.0,0.5359922647476196,7.439285278320312,-7.176074504852295
1426,78600.0,0.3206382095813751,7.802994728088379,-6.912864685058594
1427,78700.0,0.3206382095813751,7.802994728088379,-6.912864685058594
1428,78800.0,3.627518892288208,6.128018856048584,-8.061419486999513
1429,78900.0,3.627518892288208,6.128018856048584,-8.061419486999513
1430,79000.0,-0.25842484831810003,4.654040336608887,-8.037490844726562
1431,79100.0,-0.25842484831810003,4.654040336608887,-8.037490844726562
1432,79200.0,0.06699903309345245,6.340980052947997,-6.798008918762207
1433,79300.0,0.06699903309345245,6.340980052947997,-6.798008918762207
1434,79400.0,0.06699903309345245,6.340980052947997,-6.798008918762207
1435,79500.0,0.8470591902732849,7.2813591957092285,-6.398407459259032
1436,79600.0,0.8470591902732849,7.2813591957092285,-6.398407459259032
1437,79700.0,0.4881358444690704,7.156932830810548,-6.2117671966552725
1438,79800.0,0.4881358444690704,7.156932830810548,-6.2117671966552725
1439,79900.0,0.5982056856155396,6.431907176971436,-6.491727352142334
1440,79000.0,-0.25842484831810003,4.654040336608887,-8.037490844726562
1441,79100.0,-0.25842484831810003,4.654040336608887,-8.037490844726562
1442,79200.0,0.06699903309345245,6.340980052947997,-6.798008918762207
1443,79300.0,0.06699903309345245,6.340980052947997,-6.798008918762207
1444,79400.0,0.06699903309345245,6.340980052947997,-6.798008918762207
1445,79500.0,0.8470591902732849,7.2813591957092285,-6.398407459259032
1446,79600.0,0.8470591902732849,7.2813591957092285,-6.398407459259032
1447,79700.0,0.4881358444690704,7.156932830810548,-6.2117671966552725
1448,79800.0,0.4881358444690704,7.156932830810548,-6.2117671966552725
1449,79900.0,0.5982056856155396,6.431907176971436,-6.491727352142334
1450,80000.0,0.5982056856155396,6.431907176971436,-6.491727352142334
1451,80100.0,0.5982056856155396,6.431907176971436,-6.491727352142334
1452,80200.0,0.5599204897880554,7.144968032836914,-5.72841739654541
1453,80300.0,0.5599204897880554,7.144968032836914,-5.72841739654541
1454,80400.0,0.1052841916680336,7.590033531188965,-5.453242778778076
1455,80500.0,0.1052841916680336,7.590033531188965,-5.453242778778076
1456,80600.0,0.607776939868927,8.93240737915039,-5.453242778778076
1457,80700.0,0.607776939868927,8.93240737915039,-5.453242778778076
1458,80800.0,0.607776939868927,8.93240737915039,-5.453242778778076
1459,80900.0,0.5982056856155396,7.970492362976074,-5.7308106422424325
1460,80000.0,0.5982056856155396,6.431907176971436,-6.491727352142334
1461,80100.0,0.5982056856155396,6.431907176971436,-6.491727352142334
1462,80200.0,0.5599204897880554,7.144968032836914,-5.72841739654541
1463,80300.0,0.5599204897880554,7.144968032836914,-5.72841739654541
1464,80400.0,0.1052841916680336,7.590033531188965,-5.453242778778076
1465,80500.0,0.1052841916680336,7.590033531188965,-5.453242778778076
1466,80600.0,0.607776939868927,8.93240737915039,-5.453242778778076
1467,80700.0,0.607776939868927,8.93240737915039,-5.453242778778076
1468,80800.0,0.607776939868927,8.93240737915039,-5.453242778778076
1469,80900.0,0.5982056856155396,7.970492362976074,-5.7308106422424325
1470,81000.0,0.5982056856155396,7.970492362976074,-5.7308106422424325
1471,81100.0,0.4546363055706024,7.733603000640869,-5.606383323669434
1472,81200.0,0.4546363055706024,7.733603000640869,-5.606383323669434
1473,81300.0,0.3062812983989716,8.11406135559082,-4.417150497436523
1474,81400.0,0.3062812983989716,8.11406135559082,-4.417150497436523
1475,81500.0,0.7609176039695741,8.228917121887207,-5.857630252838135
1476,81600.0,0.7609176039695741,8.228917121887207,-5.857630252838135
1477,81700.0,0.7609176039695741,8.228917121887207,-5.857630252838135
1478,81800.0,-0.04307081177830696,7.144968032836914,-6.27158784866333
1479,81900.0,-0.04307081177830696,7.144968032836914,-6.27158784866333
1480,81000.0,0.5982056856155396,7.970492362976074,-5.7308106422424325
1481,81100.0,0.4546363055706024,7.733603000640869,-5.606383323669434
1482,81200.0,0.4546363055706024,7.733603000640869,-5.606383323669434
1483,81300.0,0.3062812983989716,8.11406135559082,-4.417150497436523
1484,81400.0,0.3062812983989716,8.11406135559082,-4.417150497436523
1485,81500.0,0.7609176039695741,8.228917121887207,-5.857630252838135
1486,81600.0,0.7609176039695741,8.228917121887207,-5.857630252838135
1487,81700.0,0.7609176039695741,8.228917121887207,-5.857630252838135
1488,81800.0,-0.04307081177830696,7.144968032836914,-6.27158784866333
1489,81900.0,-0.04307081177830696,7.144968032836914,-6.27158784866333
1490,82000.0,0.8135597109794617,7.075576305389403,-6.908078193664551
1491,82100.0,0.8135597109794617,7.075576305389403,-6.908078193664551
1492,82200.0,0.8135597109794617,7.075576305389403,-6.908078193664551
1493,82300.0,0.2967100143432617,8.054241180419924,-5.134997367858887
1494,82400.0,0.2967100143432617,8.054241180419924,-5.134997367858887
1495,82500.0,0.6412764191627502,7.898707389831543,-5.5824551582336435
1496,82600.0,0.6412764191627502,7.898707389831543,-5.5824551582336435
1497,82700.0,0.5024927258491516,7.642674922943115,-5.86720085144043
1498,82800.0,0.5024927258491516,7.642674922943115,-5.86720085144043
1499,82900.0,0.5024927258491516,7.642674922943115,-5.86720085144043
1500,82000.0,0.8135597109794617,7.075576305389403,-6.908078193664551
1501,82100.0,0.8135597109794617,7.075576305389403,-6.908078193664551
1502,82200.0,0.8135597109794617,7.075576305389403,-6.908078193664551
1503,82300.0,0.2967100143432617,8.054241180419924,-5.134997367858887
1504,82400.0,0.2967100143432617,8.054241180419924,-5.134997367858887
1505,82500.0,0.6412764191627502,7.898707389831543,-5.5824551582336435
1506,82600.0,0.6412764191627502,7.898707389831543,-5.5824551582336435
1507,82700.0,0.5024927258491516,7.642674922943115,-5.86720085144043
1508,82800.0,0.5024927258491516,7.642674922943115,-5.86720085144043
1509,82900.0,0.5024927258491516,7.642674922943115,-5.86720085144043
1510,83000.0,-0.3158525824546814,8.008777618408201,-4.053441524505615
1511,83100.0,-0.3158525824546814,8.008777618408201,-4.053441524505615
1512,83200.0,0.6317051649093628,8.293522834777832,-5.309673309326172
1513,83300.0,0.6317051649093628,8.293522834777832,-5.309673309326172
1514,83400.0,0.6317051649093628,8.293522834777832,-5.309673309326172
1515,83500.0,0.7369893789291382,7.721638679504394,-6.305087566375732
1516,83600.0,0.7369893789291382,7.721638679504394,-6.305087566375732
1517,83700.0,0.4785645008087158,6.448657035827638,-6.436692714691162
1518,83800.0,0.4785645008087158,6.448657035827638,-6.436692714691162
1519,83900.0,0.6460621356964111,6.63769006729126,-6.8482584953308105
1520,83000.0,-0.3158525824546814,8.008777618408201,-4.053441524505615
1521,83100.0,-0.3158525824546814,8.008777618408201,-4.053441524505615
1522,83200.0,0.6317051649093628,8.293522834777832,-5.309673309326172
1523,83300.0,0.6317051649093628,8.293522834777832,-5.309673309326172
1524,83400.0,0.6317051649093628,8.293522834777832,-5.309673309326172
1525,83500.0,0.7369893789291382,7.721638679504394,-6.305087566375732
1526,83600.0,0.7369893789291382,7.721638679504394,-6.305087566375732
1527,83700.0,0.4785645008087158,6.448657035827638,-6.436692714691162
1528,83800.0,0.4785645008087158,6.448657035827638,-6.436692714691162
1529,83900.0,0.6460621356964111,6.63769006729126,-6.8482584953308105
1530,84000.0,0.6460621356964111,6.63769006729126,-6.8482584953308105
1531,84100.0,0.6460621356964111,6.63769006729126,-6.8482584953308105
1532,84200.0,0.5168496966362001,8.25284481048584,-5.44845724105835
1533,84300.0,0.5168496966362001,8.25284481048584,-5.44845724105835
1534,84400.0,0.607776939868927,7.774280071258545,-6.142375946044923
1535,84500.0,0.607776939868927,7.774280071258545,-6.142375946044923
1536,84600.0,0.4354937374591827,6.10169792175293,-7.7072815895080575
1537,84700.0,0.4354937374591827,6.10169792175293,-7.7072815895080575
1538,84800.0,-0.27756744623184204,7.259823799133301,-5.7547383308410645
1539,84900.0,-0.27756744623184204,7.259823799133301,-5.7547383308410645
1540,84000.0,0.6460621356964111,6.63769006729126,-6.8482584953308105
1541,84100.0,0.6460621356964111,6.63769006729126,-6.8482584953308105
1542,84200.0,0.5168496966362001,8.25284481048584,-5.44845724105835
1543,84300.0,0.5168496966362001,8.25284481048584,-5.44845724105835
1544,84400.0,0.607776939868927,7.774280071258545,-6.142375946044923
1545,84500.0,0.607776939868927,7.774280071258545,-6.142375946044923
1546,84600.0,0.4354937374591827,6.10169792175293,-7.7072815895080575
1547,84700.0,0.4354937374591827,6.10169792175293,-7.7072815895080575
1548,84800.0,-0.27756744623184204,7.259823799133301,-5.7547383308410645
1549,84900.0,-0.27756744623184204,7.259823799133301,-5.7547383308410645
1550,85000.0,-0.27756744623184204,7.259823799133301,-5.7547383308410645
1551,85100.0,0.6987042427062988,8.760124206542969,-5.388636112213135
1552,85200.0,0.6987042427062988,8.760124206542969,-5.388636112213135
1553,85300.0,0.6747759580612183,7.685746192932129,-6.774080753326416
1554,85400.0,0.6747759580612183,7.685746192932129,-6.774080753326416
1555,85500.0,0.2440679222345352,6.503692150115968,-6.836294651031494
1556,85600.0,0.2440679222345352,6.503692150115968,-6.836294651031494
1557,85700.0,0.2440679222345352,6.503692150115968,-6.836294651031494
1558,85800.0,0.5790630578994751,7.862814903259277,-5.92223596572876
1559,85900.0,0.5790630578994751,7.862814903259277,-5.92223596572876
1560,85000.0,-0.27756744623184204,7.259823799133301,-5.7547383308410645
1561,85100.0,0.6987042427062988,8.760124206542969,-5.388636112213135
1562,85200.0,0.6987042427062988,8.760124206542969,-5.388636112213135
1563,85300.0,0.6747759580612183,7.685746192932129,-6.774080753326416
1564,85400.0,0.6747759580612183,7.685746192932129,-6.774080753326416
1565,85500.0,0.2440679222345352,6.503692150115968,-6.836294651031494
1566,85600.0,0.2440679222345352,6.503692150115968,-6.836294651031494
1567,85700.0,0.2440679222345352,6.503692150115968,-6.836294651031494
1568,85800.0,0.5790630578994751,7.862814903259277,-5.92223596572876
1569,85900.0,0.5790630578994751,7.862814903259277,-5.92223596572876
1570,86000.0,0.19142580032348636,7.262216091156006,-5.759523868560791
1571,86100.0,0.19142580032348636,7.262216091156006,-5.759523868560791
1572,86200.0,1.0815558433532717,8.001599311828612,-7.915457248687744
1573,86300.0,1.0815558433532717,8.001599311828612,-7.915457248687744
1574,86400.0,0.7226324081420898,7.341179370880128,-5.649453639984131
1575,86500.0,0.7226324081420898,7.341179370880128,-5.649453639984131
1576,86600.0,0.7226324081420898,7.341179370880128,-5.649453639984131
1577,86700.0,0.7800601720809937,8.276773452758789,-5.8480587005615225
1578,86800.0,0.7800601720809937,8.276773452758789,-5.8480587005615225
1579,86900.0,0.7226324081420898,7.482356548309326,-6.221338748931885
1580,86000.0,0.19142580032348636,7.262216091156006,-5.759523868560791
1581,86100.0,0.19142580032348636,7.262216091156006,-5.759523868560791
1582,86200.0,1.0815558433532717,8.001599311828612,-7.915457248687744
1583,86300.0,1.0815558433532717,8.001599311828612,-7.915457248687744
1584,86400.0,0.7226324081420898,7.341179370880128,-5.649453639984131
1585,86500.0,0.7226324081420898,7.341179370880128,-5.649453639984131
1586,86600.0,0.7226324081420898,7.341179370880128,-5.649453639984131
1587,86700.0,0.7800601720809937,8.276773452758789,-5.8480587005615225
1588,86800.0,0.7800601720809937,8.276773452758789,-5.8480587005615225
1589,86900.0,0.7226324081420898,7.482356548309326,-6.221338748931885
1590,87000.0,0.7226324081420898,7.482356548309326,-6.221338748931885
1591,87100.0,0.7513462901115417,7.5661048889160165,-6.340980052947997
1592,87200.0,0.7513462901115417,7.5661048889160165,-6.340980052947997
1593,87300.0,0.7513462901115417,7.5661048889160165,-6.340980052947997
1594,87400.0,0.7369893789291382,6.5730838775634775,-7.8245296478271475
1595,87500.0,0.7369893789291382,6.5730838775634775,-7.8245296478271475
1596,87600.0,0.5216353535652161,6.070591449737549,-8.104490280151367
1597,87700.0,0.5216353535652161,6.070591449737549,-8.104490280151367
1598,87800.0,0.2297109663486481,6.003591537475586,-8.654839515686035
1599,87900.0,0.2297109663486481,6.003591537475586,-8.654839515686035
1600,87000.0,0.7226324081420898,7.482356548309326,-6.221338748931885
1601,87100.0,0.7513462901115417,7.5661048889160165,-6.340980052947997
1602,87200.0,0.7513462901115417,7.5661048889160165,-6.340980052947997
1603,87300.0,0.7513462901115417,7.5661048889160165,-6.340980052947997
1604,87400.0,0.7369893789291382,6.5730838775634775,-7.8245296478271475
1605,87500.0,0.7369893789291382,6.5730838775634775,-7.8245296478271475
1606,87600.0,0.5216353535652161,6.070591449737549,-8.104490280151367
1607,87700.0,0.5216353535652161,6.070591449737549,-8.104490280151367
1608,87800.0,0.2297109663486481,6.003591537475586,-8.654839515686035
1609,87900.0,0.2297109663486481,6.003591537475586,-8.654839515686035
1610,88000.0,0.17706887423992154,5.345565319061278,-8.733802795410156
1611,88100.0,0.17706887423992154,5.345565319061278,-8.733802795410156
1612,88200.0,0.17706887423992154,5.345565319061278,-8.733802795410156
1613,88300.0,-0.04307081177830696,5.816952228546143,-7.8795647621154785
1614,88400.0,-0.04307081177830696,5.816952228546143,-7.8795647621154785
1615,88500.0,-0.2297109663486481,5.577669143676758,-7.968099594116211
1616,88600.0,-0.2297109663486481,5.577669143676758,-7.968099594116211
1617,88700.0,-0.2297109663486481,5.577669143676758,-7.968099594116211
1618,88800.0,-0.00957129057496786,5.785844802856445,-7.93699312210083
1619,88900.0,-0.00957129057496786,5.785844802856445,-7.93699312210083
1620,88000.0,0.17706887423992154,5.345565319061278,-8.733802795410156
1621,88100.0,0.17706887423992154,5.345565319061278,-8.733802795410156
1622,88200.0,0.17706887423992154,5.345565319061278,-8.733802795410156
1623,88300.0,-0.04307081177830696,5.816952228546143,-7.8795647621154785
1624,88400.0,-0.04307081177830696,5.816952228546143,-7.8795647621154785
1625,88500.0,-0.2297109663486481,5.577669143676758,-7.968099594116211
1626,88600.0,-0.2297109663486481,5.577669143676758,-7.968099594116211
1627,88700.0,-0.2297109663486481,5.577669143676758,-7.968099594116211
1628,88800.0,-0.00957129057496786,5.785844802856445,-7.93699312210083
1629,88900.0,-0.00957129057496786,5.785844802856445,-7.93699312210083
1630,89000.0,0.11485548317432405,6.132804393768311,-7.642674922943115
1631,89100.0,0.11485548317432405,6.132804393768311,-7.642674922943115
1632,89200.0,-0.2919243574142456,6.293124198913574,-7.362715244293213
1633,89300.0,-0.2919243574142456,6.293124198913574,-7.362715244293213
1634,89400.0,-0.2632104754447937,5.565705299377441,-7.197610855102539
1635,89500.0,-0.2632104754447937,5.565705299377441,-7.197610855102539
1636,89600.0,-0.2632104754447937,5.565705299377441,-7.197610855102539
1637,89700.0,-0.4546363055706024,5.893522262573242,-7.668996810913086
1638,89800.0,-0.4546363055706024,5.893522262573242,-7.668996810913086
1639,89900.0,-0.062213387340307236,5.42692232131958,-8.475377082824707
1640,89000.0,0.11485548317432405,6.132804393768311,-7.642674922943115
1641,89100.0,0.11485548317432405,6.132804393768311,-7.642674922943115
1642,89200.0,-0.2919243574142456,6.293124198913574,-7.362715244293213
1643,89300.0,-0.2919243574142456,6.293124198913574,-7.362715244293213
1644,89400.0,-0.2632104754447937,5.565705299377441,-7.197610855102539
1645,89500.0,-0.2632104754447937,5.565705299377441,-7.197610855102539
1646,89600.0,-0.2632104754447937,5.565705299377441,-7.197610855102539
1647,89700.0,-0.4546363055706024,5.893522262573242,-7.668996810913086
1648,89800.0,-0.4546363055706024,5.893522262573242,-7.668996810913086
1649,89900.0,-0.062213387340307236,5.42692232131958,-8.475377082824707
1650,90000.0,-0.062213387340307236,5.42692232131958,-8.475377082824707
1651,90100.0,-0.062213387340307236,5.42692232131958,-8.475377082824707
1652,90200.0,-0.3493521213531494,5.520241737365723,-7.8819580078125
1653,90300.0,-0.3493521213531494,5.520241737365723,-7.8819580078125
1654,90400.0,0.028713870793581012,6.491727352142334,-7.1066832542419425
1655,90500.0,0.028713870793581012,6.491727352142334,-7.1066832542419425
1656,90600.0,0.07178468257188797,7.735995292663574,-6.245267391204834
1657,90700.0,0.07178468257188797,7.735995292663574,-6.245267391204834
1658,90800.0,-0.4881358444690704,7.207180976867676,-6.0394840240478525
1659,90900.0,-0.4881358444690704,7.207180976867676,-6.0394840240478525
1660,90000.0,-0.062213387340307236,5.42692232131958,-8.475377082824707
1661,90100.0,-0.062213387340307236,5.42692232131958,-8.475377082824707
1662,90200.0,-0.3493521213531494,5.520241737365723,-7.8819580078125
1663,90300.0,-0.3493521213531494,5.520241737365723,-7.8819580078125
1664,90400.0,0.028713870793581012,6.491727352142334,-7.1066832542419425
1665,90500.0,0.028713870793581012,6.491727352142334,-7.1066832542419425
1666,90600.0,0.07178468257188797,7.735995292663574,-6.245267391204834
1667,90700.0,0.07178468257188797,7.735995292663574,-6.245267391204834
1668,90800.0,-0.4881358444690704,7.207180976867676,-6.0394840240478525
1669,90900.0,-0.4881358444690704,7.207180976867676,-6.0394840240478525
1670,91000.0,-0.4881358444690704,7.207180976867676,-6.0394840240478525
1671,91100.0,0.20099709928035736,7.042076587677003,-6.67836856842041
1672,91200.0,0.20099709928035736,7.042076587677003,-6.67836856842041
1673,91300.0,-0.17706887423992154,5.678168296813965,-7.271787643432617
1674,91400.0,-0.17706887423992154,5.678168296813965,-7.271787643432617
1675,91500.0,-0.17706887423992154,5.678168296813965,-7.271787643432617
1676,91600.0,0.3684946894645691,4.287938117980957,-8.841480255126953
1677,91700.0,0.3684946894645691,4.287938117980957,-8.841480255126953
1678,91800.0,0.4546363055706024,5.9030938148498535,-8.329416275024414
1679,91900.0,0.4546363055706024,5.9030938148498535,-8.329416275024414
1680,91000.0,-0.4881358444690704,7.207180976867676,-6.0394840240478525
1681,91100.0,0.20099709928035736,7.042076587677003,-6.67836856842041
1682,91200.0,0.20099709928035736,7.042076587677003,-6.67836856842041
1683,91300.0,-0.17706887423992154,5.678168296813965,-7.271787643432617
1684,91400.0,-0.17706887423992154,5.678168296813965,-7.271787643432617
1685,91500.0,-0.17706887423992154,5.678168296813965,-7.271787643432617
1686,91600.0,0.3684946894645691,4.287938117980957,-8.841480255126953
1687,91700.0,0.3684946894645691,4.287938117980957,-8.841480255126953
1688,91800.0,0.4546363055706024,5.9030938148498535,-8.329416275024414
1689,91900.0,0.4546363055706024,5.9030938148498535,-8.329416275024414
1690,92000.0,0.11006984114646913,6.20219612121582,-7.23589563369751
1691,92100.0,0.11006984114646913,6.20219612121582,-7.23589563369751
1692,92200.0,0.11006984114646913,6.20219612121582,-7.23589563369751
1693,92300.0,0.1579262912273407,6.1878395080566415,-7.0851478576660165
1694,92400.0,0.1579262912273407,6.1878395080566415,-7.0851478576660165
1695,92500.0,0.1579262912273407,7.369894027709961,-8.492127418518066
1696,92600.0,0.1579262912273407,7.369894027709961,-8.492127418518066
1697,92700.0,0.1579262912273407,7.369894027709961,-8.492127418518066
1698,92800.0,0.25363919138908386,6.829115867614746,-7.5876407623291025
1699,92900.0,0.25363919138908386,6.829115867614746,-7.5876407623291025
1700,92000.0,0.11006984114646913,6.20219612121582,-7.23589563369751
1701,92100.0,0.11006984114646913,6.20219612121582,-7.23589563369751
1702,92200.0,0.11006984114646913,6.20219612121582,-7.23589563369751
1703,92300.0,0.1579262912273407,6.1878395080566415,-7.0851478576660165
1704,92400.0,0.1579262912273407,6.1878395080566415,-7.0851478576660165
1705,92500.0,0.1579262912273407,7.369894027709961,-8.492127418518066
1706,92600.0,0.1579262912273407,7.369894027709961,-8.492127418518066
1707,92700.0,0.1579262912273407,7.369894027709961,-8.492127418518066
1708,92800.0,0.25363919138908386,6.829115867614746,-7.5876407623291025
1709,92900.0,0.25363919138908386,6.829115867614746,-7.5876407623291025
1710,93000.0,0.5742774605751038,6.625725746154785,-6.886543273925781
1711,93100.0,0.5742774605751038,6.625725746154785,-6.886543273925781
1712,93200.0,0.3828516006469727,6.379265785217285,-7.099504470825195
1713,93300.0,0.3828516006469727,6.379265785217285,-7.099504470825195
1714,93400.0,0.3780659735202789,7.080362319946289,-6.503692150115968
1715,93500.0,0.3780659735202789,7.080362319946289,-6.503692150115968
1716,93600.0,0.8757730722427368,6.128018856048584,-5.8959150314331055
1717,93700.0,0.8757730722427368,6.128018856048584,-5.8959150314331055
1718,93800.0,0.430708110332489,6.482156753540039,-7.623533248901367
1719,93900.0,0.430708110332489,6.482156753540039,-7.623533248901367
1720,93000.0,0.5742774605751038,6.625725746154785,-6.886543273925781
1721,93100.0,0.5742774605751038,6.625725746154785,-6.886543273925781
1722,93200.0,0.3828516006469727,6.379265785217285,-7.099504470825195
1723,93300.0,0.3828516006469727,6.379265785217285,-7.099504470825195
1724,93400.0,0.3780659735202789,7.080362319946289,-6.503692150115968
1725,93500.0,0.3780659735202789,7.080362319946289,-6.503692150115968
1726,93600.0,0.8757730722427368,6.128018856048584,-5.8959150314331055
1727,93700.0,0.8757730722427368,6.128018856048584,-5.8959150314331055
1728,93800.0,0.430708110332489,6.482156753540039,-7.623533248901367
1729,93900.0,0.430708110332489,6.482156753540039,-7.623533248901367
1730,94000.0,0.430708110332489,6.482156753540039,-7.623533248901367
1731,94100.0,-0.04307081177830696,7.056434154510497,-6.2093749046325675
1732,94200.0,-0.04307081177830696,7.056434154510497,-6.2093749046325675
