timestamp,ax,ay,az
1484219085010,-2.761711597442627,-8.744223594665527,3.0639796257019043
1484219085186,-2.5695769786834717,-8.638279914855957,2.8179752826690674
1484219085367,-0.33039984107017517,-19.578584671020508,2.185906171798706
1484219085547,-0.4495113790035248,-9.321226119995117,1.8974047899246216
1484219085795,-0.1430535465478897,-9.502586364746094,1.544858694076538
1484219085910,-0.013168109580874443,-9.427767753601074,1.136048674583435
1484219086089,0.07182604819536209,-9.660005569458008,0.8577227592468262
1484219086271,0.4429273009300232,-9.928754806518555,0.40222588181495667
1484219086450,-0.7918822169303894,-9.749189376831055,0.5039794445037842
1484219086632,-0.4279635548591614,-9.773131370544434,0.49559974670410156
1484219086816,0.14484919607639313,-9.560047149658203,0.365115761756897
1484219086999,-0.047884032130241394,-9.643245697021484,0.8882488012313843
1484219087170,0.6721721291542053,-9.858723640441895,0.13287819921970367
1484219087350,1.0031704902648926,-9.870695114135742,0.5135562419891357
1484219087528,0.01496376097202301,-9.565434455871582,0.44352585077285767
1484219087708,-0.6212953329086304,-9.519944190979004,0.18914192914962769
1484219087889,0.3082534670829773,-9.670180320739746,0.4213795065879822
1484219088072,0.15023615956306458,-9.804854393005371,0.43993455171585083
1484219088249,0.9295487999916077,-9.730035781860352,0.6254851818084717
1484219088439,2.231395959854126,-9.714473724365234,2.0207061767578125
1484219088614,1.79146146774292,-9.813234329223633,0.9828197956085205
1484219088793,2.342127799987793,-9.817423820495605,1.1127052307128906
1484219088970,1.3694833517074585,-9.728240013122559,1.0564415454864502
1484219089153,0.6859387755393982,-9.824606895446777,0.6057330369949341
1484219089334,0.14664486050605774,-9.584588050842285,0.40043023228645325
1484219089515,0.48722004890441895,-9.635464668273926,0.4554968774318695
1484219089695,1.1240776777267456,-9.664793968200684,0.7098808288574219
1484219089872,1.6196774244308472,-9.709685325622559,0.6775590777397156
1484219090054,2.073378562927246,-9.762357711791992,0.8355764150619507
1484219090233,2.3552958965301514,-9.763554573059082,0.9852139949798584
1484219090414,2.3552958965301514,-9.806650161743164,1.0402805805206299
1484219090595,2.7347769737243652,-9.977835655212402,1.3198037147521973
1484219090775,3.0825347900390625,-10.179547309875488,0.7553706169128418
1484219090954,1.878849744796753,-9.824007987976074,0.8421604633331299
1484219091133,0.8786720037460327,-10.016741752624512,0.21966800093650818
1484219091314,0.45250412821769714,-9.87967300415039,0.5195417404174805
1484219091501,0.7428010702133179,-9.671976089477539,0.44352585077285767
1484219091701,0.8804676532745361,-9.726444244384766,0.47225627303123474
1484219091855,0.74040687084198,-9.635464668273926,0.4159925580024719
1484219092037,0.15921440720558167,-9.660603523254395,0.16519992053508759
1484219092215,0.1885433793067932,-9.66299819946289,0.2693476974964142
1484219092394,0.1604115068912506,-9.560646057128906,0.5111620426177979
1484219092576,0.30945056676864624,-9.55585765838623,0.2974795699119568
1484219092756,0.5231330990791321,-9.628880500793457,0.5267243981361389
1484219092938,0.22924481332302094,-9.534309387207031,0.4465186297893524
1484219093119,-0.13287819921970367,-9.537900924682617,0.18794482946395874
1484219093297,-0.06763619929552078,-9.561842918395996,0.3208230137825012
1484219093475,0.5913678407669067,-9.536704063415527,0.3148375153541565
1484219093657,-0.22864626348018646,-9.571419715881348,0.1388636976480484
1484219093839,0.14365209639072418,-9.606135368347168,0.20051439106464386
1484219094018,1.522712230682373,-9.526528358459473,0.6787561774253845
1484219094199,2.1080946922302246,-9.813833236694336,1.6083049774169922
1484219094378,2.097919225692749,-9.714473724365234,0.9792284965515137
1484219094556,1.4532804489135742,-9.833584785461426,0.8493430614471436
1484219094738,1.701080322265625,-9.893440246582031,0.4141969084739685
1484219094919,2.123656988143921,-10.037690162658691,0.568622887134552
1484219095100,1.7166426181793213,-9.95748519897461,1.0779893398284912
1484219095279,0.8433575630187988,-9.847352027893066,0.1646013706922531
1484219095458,-0.02753331884741783,-9.823410034179688,0.24899697303771973
1484219095638,-1.5029600858688354,-9.536105155944824,0.08439560979604721
1484219095818,-2.1045033931732178,-9.403226852416992,0.1322796493768692
1484219095997,-2.412158250808716,-9.529520988464355,-0.6715735793113708
1484219096180,-2.3110032081604004,-8.794501304626465,-0.7080851793289185
1484219096360,-1.1019313335418701,-9.378686904907227,0.023942016065120697
1484219096538,-0.2603694200515747,-9.620500564575195,-0.17298106849193573
1484219096719,0.17058686912059784,-9.726444244384766,0.22445641458034515
1484219096901,0.07062894850969315,-9.682151794433594,0.31124621629714966
1484219097081,1.1623848676681519,-9.750985145568848,0.3208230137825012
1484219097261,0.7829039692878723,-9.651026725769043,0.5446808934211731
1484219097442,1.469441294670105,-9.882665634155273,0.9091981053352356
1484219097621,0.8601169586181641,-9.803657531738281,0.5207388401031494
1484219097798,0.31543606519699097,-9.65222454071045,0.17537526786327362
1484219097981,0.13706804811954498,-9.62828254699707,0.1867477297782898
1484219098162,0.17836803197860718,-9.618705749511719,0.17836803197860718
1484219098339,0.424970805644989,-9.654019355773926,0.22685061395168304
1484219098520,0.5231330990791321,-9.748590469360352,0.16340427100658417
1484219098703,-0.013766659423708916,-9.52353572845459,0.3884592354297638
1484219098882,-0.2932897210121155,-9.536704063415527,0.6530185341835022
1484219099061,0.23942017555236816,-9.690531730651855,-0.02992752194404602
1484219099243,0.7817068696022034,-9.564237594604492,0.9810241460800171
1484219099424,1.6178817749023438,-9.980828285217285,1.1827356815338135
1484219099605,3.5919010639190674,-10.416572570800781,1.0157400369644165
1484219099784,2.852691411972046,-10.485405921936035,0.24660277366638184
1484219099961,-1.944091796875,-9.294889450073242,0.2172738015651703
1484219100140,-5.4875102043151855,-8.76457405090332,-0.36332011222839355
1484219100323,-3.931279182434082,-8.893261909484863,-2.471414804458618
1484219100506,-0.4213795065879822,-9.425373077392578,-0.14245499670505524
1484219100685,3.287837505340576,-9.925761222839355,1.985990285873413
1484219100862,4.135983467102051,-10.594342231750488,0.24660277366638184
1484219101044,1.0923545360565186,-9.72165584564209,-0.18614917993545532
1484219101222,-3.9390604496002197,-9.191938400268555,0.07003039866685867
1484219101403,-2.3337481021881104,-9.053074836730957,-1.2096704244613647
1484219101584,0.005386953707784414,-9.541492462158203,-0.04489128291606903
1484219101765,2.3570916652679443,-10.037690162658691,0.6625953316688538
1484219101945,1.5442601442337036,-10.160393714904785,0.5171475410461426
1484219102125,0.524330198764801,-9.780912399291992,0.15263035893440247
1484219102304,0.18495208024978638,-9.786299705505371,0.08200141042470932
1484219102483,-0.008379706181585789,-9.665990829467773,0.12210428714752197
1484219102665,-0.4159925580024719,-9.46487808227539,-0.058059390634298325
1484219102846,0.6344634294509888,-9.64923095703125,0.45429977774620056
1484219103026,2.6216509342193604,-10.357914924621582,0.7906851172447205
1484219103207,1.2551602125167847,-10.305242538452148,0.18794482946395874
1484219103385,0.5327098965644836,-9.999382972717285,0.18555063009262085
1484219103565,-0.7984662652015686,-9.579200744628906,0.228047713637352
1484219103747,-2.9867665767669678,-9.054272651672363,0.025737667456269264
1484219103927,-3.1274259090423584,-9.05606746673584,-0.5512649416923523
1484219104108,-2.6240451335906982,-9.113529205322266,-0.7972691655158997
1484219104288,-1.977012038230896,-9.314641952514648,-1.0642226934432983
1484219104467,-1.6573861837387085,-9.337985038757324,-0.7769184708595276
1484219104646,-0.076015904545784,-9.598953247070313,-0.29867666959762573
1484219104827,2.612074136734009,-9.740211486816406,0.6494272351264954
1484219105009,3.0148985385894775,-9.81143856048584,0.9367313981056213
1484219105189,3.1950621604919434,-9.882665634155273,0.8409633636474609
1484219105369,3.5296518802642822,-10.029909133911133,0.839766263961792
1484219105549,2.6605565547943115,-10.137648582458496,0.5949591398239136
1484219105727,2.4025814533233643,-10.520122528076172,0.5662286877632141
1484219105908,1.5322890281677246,-10.417770385742188,-0.15322890877723694
1484219106089,1.0324994325637817,-10.283096313476563,-0.1215057373046875
1484219106270,-0.20350714027881622,-9.90361499786377,0.041299980133771896
1484219106450,-2.1098902225494385,-9.510966300964355,0.14065934717655182
1484219106630,-4.765658378601074,-8.85794734954834,-0.7643488645553589
1484219106808,-4.1647138595581055,-8.85675048828125,-2.0655975341796875
1484219106988,-2.633023262023926,-9.102156639099121,-1.4790180921554565
1484219107170,-0.8786720037460327,-9.278728485107422,-0.7541735172271729
1484219107350,0.5566518902778625,-9.394847869873047,-0.09217676520347595
1484219107531,1.9776105880737305,-9.560646057128906,0.6602011322975159
1484219107710,3.423109769821167,-10.11430549621582,1.125873327255249
1484219107889,2.765901565551758,-10.259154319763184,0.7541735172271729
1484219108070,1.3605051040649414,-9.72285270690918,0.5632359385490417
1484219108250,1.899200439453125,-9.686341285705566,0.3866635859012604
1484219108432,2.388216257095337,-9.94970417022705,0.6721721291542053
1484219108612,2.1080946922302246,-10.2962646484375,0.6775590777397156
1484219108793,1.4359225034713745,-10.201693534851074,0.6655880808830261
1484219108973,0.8708908557891846,-10.17416000366211,0.49320554733276367
1484219109150,0.586579442024231,-10.058639526367188,0.4255693554878235
1484219109332,-0.06643909960985184,-9.916184425354004,0.3495534360408783
1484219109512,-1.1049240827560425,-9.529520988464355,0.004189853090792894
1484219109694,-1.1228805780410767,-9.354744911193848,-0.3992331326007843
1484219109873,-1.578976035118103,-9.288904190063477,-0.5626373887062073
1484219110053,-1.4413094520568848,-9.348758697509766,-0.48303020000457764
1484219110231,-1.3048399686813354,-9.440337181091309,-0.3315969407558441
1484219110413,-1.4179660081863403,-9.418789863586426,-0.34177228808403015
1484219110593,-1.004966139793396,-9.41639518737793,-0.2519897222518921
1484219110774,-0.15981295704841614,-9.50617790222168,0.009576806798577309
1484219110952,0.3447650372982025,-9.427767753601074,0.0867898091673851
1484219111134,0.5285200476646423,-9.461885452270508,-0.29628247022628784
1484219111313,0.5883750915527344,-9.603741645812988,0.04967968538403511
1484219111493,1.282094955444336,-9.683348655700684,0.21428105235099792
1484219111673,1.6214730739593506,-9.702502250671387,0.13108254969120026
1484219111854,1.3479355573654175,-9.776124000549316,-0.20889410376548767
1484219112035,1.711255669593811,-10.032303810119629,-0.01975216343998909
1484219112214,1.0235211849212646,-10.139444351196289,0.5811924338340759
1484219112394,-0.18914192914962769,-9.922170639038086,0.545877993106842
1484219112573,-1.0259153842926025,-9.607333183288574,0.37169981002807617
1484219112754,-2.188898801803589,-9.230246543884277,0.04967968538403511
1484219112933,-2.606687068939209,-9.063250541687012,-0.5153518915176392
1484219113115,-2.2002713680267334,-9.322422981262207,-0.8050503134727478
1484219113297,-1.30543851852417,-9.339181900024414,-0.4315548539161682
1484219113474,0.8038532137870789,-9.458892822265625,-0.1041477769613266
1484219113654,1.5837644338607788,-9.66539192199707,0.2968810200691223
1484219113834,2.137423515319824,-9.786299705505371,0.2172738015651703
1484219114019,2.627037763595581,-10.075998306274414,0.6278793811798096
1484219114196,2.6785130500793457,-10.24658489227295,0.4129997789859772
1484219114378,1.1516109704971313,-10.17176628112793,0.42676645517349243
1484219114557,-0.23044191300868988,-9.858723640441895,0.5644330382347107
1484219114736,-1.734000563621521,-9.529520988464355,0.0071826050989329815
1484219114915,-2.889801502227783,-9.180566787719727,-0.71766197681427
1484219115096,-1.7711106538772583,-9.276334762573242,-0.36332011222839355
1484219115279,0.6667851805686951,-9.479841232299805,0.04189852997660637
1484219115458,0.8846575021743774,-9.757569313049316,0.12928688526153564
1484219115638,-0.5746083855628967,-9.66419506072998,0.3471592366695404
1484219115819,-0.5985504388809204,-9.621698379516602,0.02274491637945175
1484219116010,0.32860419154167175,-9.703699111938477,0.03890577703714371
1484219116178,-0.41718965768814087,-9.725846290588379,0.304063618183136
1484219116359,0.3555389642715454,-9.702502250671387,-0.07242459803819656
1484219116539,-0.026336219161748886,-9.53849983215332,-0.12629413604736328
1484219116719,-0.1472434103488922,-9.515754699707031,0.035913024097681046
1484219116899,0.19033902883529663,-9.584588050842285,-0.016759412363171577
1484219117078,-0.30286651849746704,-9.564237594604492,0.3884592354297638
1484219117259,0.5111620426177979,-9.588179588317871,0.5273229479789734
1484219117440,-0.1215057373046875,-9.672574996948242,0.6290764808654785
1484219117621,-0.07302315533161163,-9.762357711791992,0.9654618501663208
1484219117800,0.25977087020874023,-9.831191062927246,0.5129576921463013
1484219117980,0.14484919607639313,-9.757569313049316,0.05626374110579491
1484219118159,-0.14245499670505524,-9.716867446899414,0.13766659796237946
1484219118340,-0.13048399984836578,-9.832986831665039,0.2064998894929886
1484219118521,-0.3447650372982025,-9.655815124511719,0.17178396880626678
1484219118700,-0.1646013706922531,-9.71926212310791,0.19812019169330597
1484219118879,-0.09876082092523575,-9.697713851928711,0.33279404044151306
1484219119061,-0.09876082092523575,-9.718663215637207,-0.005386953707784414
1484219119240,-0.1711854189634323,-9.698312759399414,0.10833762586116791
1484219119422,-0.15801730751991272,-9.531316757202148,-0.3818751573562622
1484219119602,-0.38067805767059326,-9.494805335998535,0.03531447425484657
1484219119783,-0.547075092792511,-9.637859344482422,-0.0293289702385664
1484219119963,0.36810851097106934,-9.736021041870117,0.39863458275794983
1484219120143,0.15023615956306458,-9.707290649414063,0.16220717132091522
1484219120320,0.29568392038345337,-9.591172218322754,0.2753331959247589
1484219120502,0.1586158573627472,-9.610325813293457,0.13826514780521393
1484219120683,0.020350715145468712,-9.673172950744629,0.17178396880626678
1484219120898,0.2693476974964142,-9.786299705505371,0.3932476341724396
1484219121043,0.2406172752380371,-9.644442558288574,0.25019407272338867
1484219121224,0.395043283700943,-9.525331497192383,-0.03950432687997818
1484219121401,0.033518824726343155,-9.493608474731445,-0.16998831927776337
1484219121583,-0.5656301379203796,-9.561244010925293,-0.04429273307323456
1484219121764,-0.3256114423274994,-9.72285270690918,0.4489128291606903
1484219121944,-0.1885433793067932,-9.770736694335938,0.5710170865058899
1484219122124,0.01735796220600605,-9.731232643127441,0.47465047240257263
1484219122304,0.15023615956306458,-9.804255485534668,0.48063600063323975
1484219122483,0.06524199992418289,-9.691728591918945,0.39205053448677063
1484219122663,0.023942016065120697,-9.645041465759277,0.3776853084564209
1484219122844,0.0628477931022644,-9.704896926879883,0.27892449498176575
1484219123024,0.1735796183347702,-9.682151794433594,0.46148237586021423
1484219123202,0.3770867586135864,-9.701305389404297,0.40043023228645325
1484219123384,0.5051765441894531,-9.764751434326172,0.5039794445037842
1484219123565,0.05147533491253853,-9.634865760803223,0.24121582508087158
1484219123743,-0.033518824726343155,-9.606734275817871,0.4818331003189087
1484219123924,0.24241292476654053,-9.607931137084961,0.20111294090747833
1484219124104,0.2687491476535797,-9.570821762084961,0.31184476613998413
1484219124285,0.4728548228740692,-9.583989143371582,0.18495208024978638
1484219124467,0.5500678420066833,-9.768941879272461,0.2346317619085312
1484219124647,0.6745663285255432,-9.691728591918945,0.44352585077285767
1484219124825,0.45190557837486267,-9.782708168029785,0.383670836687088
1484219125005,0.4554968774318695,-9.813234329223633,0.6739677786827087
1484219125187,-0.026336219161748886,-9.462483406066895,-0.06823474913835526
1484219125364,-0.15322890877723694,-9.536704063415527,0.07721300423145294
1484219125549,0.020949264988303185,-9.600749015808105,0.36571431159973145
1484219125727,-0.21547815203666687,-9.554061889648438,0.07481880486011505
1484219125906,-0.2513911724090576,-9.501988410949707,-0.038307227194309235
1484219126086,-0.3292027413845062,-9.470863342285156,0.3208230137825012
1484219126267,0.19273324310779572,-9.59177017211914,0.24600422382354736
1484219126449,0.07242459803819656,-9.606135368347168,0.3280056416988373
1484219126628,0.09935937076807022,-9.513360023498535,0.24779987335205078
1484219126808,-0.3172317147254944,-9.534908294677734,0.31543606519699097
1484219126987,0.11432313174009323,-9.617507934570313,0.37888240814208984
1484219127166,-0.3728969097137451,-9.522936820983887,0.22445641458034515
1484219127348,-0.436343252658844,-9.600150108337402,0.5195417404174805
1484219127529,0.34656068682670593,-9.787496566772461,0.811634361743927
1484219127709,-0.41958385705947876,-9.67077922821045,0.24779987335205078
1484219127889,0.6057330369949341,-9.782109260559082,0.5392939448356628
1484219128069,0.20350714027881622,-9.877279281616211,0.882861852645874
1484219128249,0.015562310814857483,-9.667187690734863,0.38905778527259827
1484219128429,-0.3555389642715454,-9.506776809692383,0.08259996026754379
1484219128610,-0.1388636976480484,-9.479841232299805,0.27653029561042786
1484219128790,-0.0586579404771328,-9.513958930969238,0.2513911724090576
1484219128970,0.08140286058187485,-9.486425399780273,-0.033518824726343155
1484219129150,-0.2106897532939911,-9.512163162231445,0.2537853717803955
1484219129329,0.08439560979604721,-9.588777542114258,0.21607670187950134
1484219129509,0.6003460884094238,-9.802460670471191,0.19871874153614044
1484219129691,1.0157400369644165,-9.999382972717285,0.9570821523666382
1484219129872,0.7398083209991455,-9.95329475402832,0.6967126727104187
1484219130052,0.6931213736534119,-9.865906715393066,0.7068880796432495
1484219130230,1.9363106489181519,-9.961674690246582,0.6332663297653198
1484219130409,0.9624691009521484,-9.864110946655273,0.5997475385665894
1484219130592,0.21607670187950134,-9.592967987060547,0.33937808871269226
1484219130771,-0.48303020000457764,-9.494206428527832,0.19213469326496124
1484219130960,-0.0867898091673851,-9.50857162475586,0.3058592677116394
1484219131133,1.7076643705368042,-9.791088104248047,0.5039794445037842
1484219131313,1.4425065517425537,-9.809642791748047,0.3944447338581085
1484219131491,1.5616180896759033,-9.838972091674805,0.2783259451389313
1484219131672,1.1288660764694214,-9.86650562286377,0.3555389642715454
1484219131852,0.43035775423049927,-9.847352027893066,0.5183446407318115
1484219132033,0.14604631066322327,-9.653421401977539,0.3663128614425659
1484219132214,-0.07721300423145294,-9.584588050842285,0.32620999217033386
1484219132394,0.13168109953403473,-9.675567626953125,0.32381579279899597
1484219132572,0.17178396880626678,-9.50857162475586,0.02753331884741783
1484219132753,0.02753331884741783,-9.600150108337402,-0.03711012750864029
1484219132934,0.0017956512747332454,-9.702502250671387,0.3705027103424072
1484219133114,-0.047884032130241394,-9.66539192199707,0.17178396880626678
1484219133295,0.08798690885305405,-9.758766174316406,0.43035775423049927
1484219133475,-0.053270988166332245,-9.696516990661621,0.1951274424791336
1484219133654,-0.008379706181585789,-9.68274974822998,0.3016694188117981
1484219133833,0.1364694982767105,-9.817423820495605,0.3519476354122162
1484219134014,-0.45010992884635925,-9.642048835754395,0.09636662155389786
1484219134194,0.22924481332302094,-9.769539833068848,0.31184476613998413
1484219134375,0.26156654953956604,-9.692327499389648,0.23582886159420013
1484219134555,0.5674257874488831,-9.657012939453125,0.053270988166332245
1484219134736,0.07242459803819656,-9.644442558288574,0.2190694510936737
1484219134913,0.17836803197860718,-9.566631317138672,0.06165069341659546
1484219135094,0.0520738884806633,-9.59476375579834,0.07242459803819656
1484219135274,-0.09038111567497253,-9.649829864501953,0.2861070930957794
1484219135455,0.1215057373046875,-9.642647743225098,0.25977087020874023
1484219135637,-0.016160860657691956,-9.654019355773926,0.17956513166427612
1484219135818,0.05267243832349777,-9.709086418151855,0.2974795699119568
1484219136030,0.15801730751991272,-9.729436874389648,0.32202014327049255
1484219136175,0.21009120345115662,-9.725846290588379,0.2388216257095337
1484219136355,0.15143325924873352,-9.666589736938477,0.1149216815829277
1484219136537,0.31124621629714966,-9.576208114624023,0.23523031175136566
1484219136719,0.03950432687997818,-9.668983459472656,0.2693476974964142
1484219136898,-0.046088382601737976,-9.580398559570313,0.3561375141143799
1484219137081,0.13347674906253815,-9.682151794433594,0.18136078119277954
1484219137256,-0.050876785069704056,-9.713275909423828,0.33279404044151306
1484219137437,0.15083470940589905,-9.694721221923828,0.34656068682670593
1484219137618,-0.02214636653661728,-9.72285270690918,0.17896658182144165
1484219137799,0.37409400939941406,-9.683348655700684,0.24660277366638184
1484219137979,0.2711433470249176,-9.720458984375,-0.058059390634298325
1484219138156,0.31842881441116333,-9.654019355773926,0.07062894850969315
1484219138336,0.5991489887237549,-9.608530044555664,0.21308395266532898
1484219138518,0.2968810200691223,-9.463082313537598,0.08200141042470932
1484219138700,1.0857704877853394,-9.55585765838623,0.1628057211637497
1484219138880,2.2236149311065674,-10.073603630065918,0.6596025824546814
1484219139060,2.779069662094116,-10.518326759338379,0.6177040338516235
1484219139239,2.2415714263916016,-10.671555519104004,0.669179379940033
1484219139419,1.4269442558288574,-10.409390449523926,0.7326257228851318
1484219139600,1.1851298809051514,-10.292673110961914,0.5590460896492004
1484219139780,-0.8667010068893433,-9.864709854125977,0.641047477722168
1484219139961,-2.4217350482940674,-9.173982620239258,0.3705027103424072
1484219140138,-2.295440912246704,-9.224859237670898,0.5925649404525757
1484219140320,-3.42490553855896,-9.082404136657715,-0.008978256024420261
1484219140499,-2.897582530975342,-8.242637634277344,-0.6314706802368164
1484219140680,-1.4993687868118286,-9.345766067504883,-0.15502455830574036
1484219140861,-0.7499836683273315,-9.61331844329834,-0.07661445438861847
1484219141042,1.2713210582733154,-9.57979965209961,-0.2082955539226532
1484219141223,3.448249101638794,-10.1382474899292,1.0007762908935547
1484219141401,1.371279001235962,-9.722254753112793,0.3034650683403015
1484219141579,0.6607996821403503,-10.07779312133789,0.7972691655158997
1484219141762,-1.0516531467437744,-9.687539100646973,0.4189853072166443
1484219141942,-1.63344407081604,-9.385271072387695,-0.06404489278793335
1484219142123,-2.6222493648529053,-9.306262016296387,-0.45190557837486267
1484219142303,-1.9279309511184692,-9.446322441101074,0.08439560979604721
1484219142480,-0.3274070918560028,-9.50617790222168,0.041299980133771896
1484219142662,1.987187385559082,-9.691129684448242,0.569819986820221
1484219142843,2.6563668251037598,-9.8970308303833,0.8547300100326538
1484219143024,1.657984733581543,-9.97065258026123,0.4471171796321869
1484219143204,1.2437877655029297,-10.260351181030273,0.8643068075180054
1484219143383,0.5273229479789734,-10.168174743652344,0.5147533416748047
1484219143562,-1.2156559228897095,-9.941324234008789,0.6362590789794922
1484219143743,-2.49834942817688,-9.221267700195313,0.05267243832349777
1484219143924,-2.627636432647705,-9.352350234985352,-0.005386953707784414
1484219144104,-1.6442179679870605,-9.41400146484375,-0.2687491476535797
1484219144284,-1.1534066200256348,-9.657610893249512,-0.16220717132091522
1484219144463,-1.1510124206542969,-9.493608474731445,0.40462008118629456
1484219144643,0.5111620426177979,-9.517550468444824,0.4704606235027313
1484219144824,2.0398597717285156,-9.856928825378418,0.6560112833976746
1484219145005,2.12485408782959,-10.102932929992676,0.6584054827690125
1484219145188,-0.15682020783424377,-9.519346237182617,0.5674257874488831
1484219145365,-0.7481880187988281,-9.48462963104248,-0.20530278980731964
1484219145543,1.6932991743087769,-9.767744064331055,0.5051765441894531
1484219145724,2.122459888458252,-10.156203269958496,0.4291606545448303
1484219145904,0.37409400939941406,-10.005967140197754,0.6476315855979919
1484219146085,-0.5937620401382446,-9.763554573059082,0.7374141216278076
1484219146266,-1.68970787525177,-9.390059471130371,0.2825157940387726
1484219146445,-2.734178304672241,-9.114726066589355,-0.33099839091300964
1484219146625,-1.270722508430481,-9.541492462158203,0.3669114112854004
1484219146806,1.2228385210037231,-9.550470352172852,0.2861070930957794
1484219146988,2.912546396255493,-10.013748168945313,0.3579331636428833
1484219147168,2.8173768520355225,-10.18912410736084,0.8361749649047852
1484219147346,0.6488286852836609,-10.094552993774414,0.6440402865409851
1484219147525,-1.0959458351135254,-9.667187690734863,0.28371289372444153
1484219147707,-2.0667946338653564,-9.37389850616455,0.1472434103488922
1484219147888,-3.0166940689086914,-9.271546363830566,-0.2561795711517334
1484219148068,-2.1122844219207764,-9.497797966003418,-0.04967968538403511
1484219148249,-1.9698294401168823,-9.367314338684082,-0.17298106849193573
1484219148424,-1.5203180313110352,-9.338583946228027,-0.18914192914962769
1484219148604,-1.2868833541870117,-9.467870712280273,-0.2867056429386139
1484219148789,-1.1192892789840698,-9.370306968688965,0.005985504016280174
1484219148973,-0.7463923692703247,-9.402029991149902,0.19572599232196808
1484219149147,-0.009576806798577309,-9.44871711730957,0.03651157766580582
1484219149325,1.4844050407409668,-9.594164848327637,0.4902127981185913
1484219149508,1.9363106489181519,-9.654019355773926,0.48243165016174316
1484219149688,1.965639591217041,-9.66299819946289,0.6913257241249084
1484219149870,1.2749123573303223,-9.935338973999023,0.43095630407333374
1484219150050,0.48303020000457764,-9.744999885559082,0.40043023228645325
1484219150230,0.2364274114370346,-9.670180320739746,0.6278793811798096
1484219150408,0.10474632680416107,-9.706093788146973,0.44592007994651794
1484219150589,-0.055665191262960434,-9.70549488067627,0.3908534348011017
1484219150770,0.028730420395731926,-9.742006301879883,0.4776432514190674
1484219150950,0.028730420395731926,-9.71926212310791,0.5973533391952515
1484219151134,0.11312603205442429,-9.560646057128906,0.24779987335205078
1484219151308,-0.05985504388809204,-9.618106842041016,0.49619829654693604
1484219151491,-0.11851298063993454,-9.728838920593262,0.5219359993934631
1484219151670,0.10893617570400238,-9.657610893249512,0.414795458316803
1484219151851,0.12270283699035645,-9.619303703308105,0.20111294090747833
1484219152032,0.3866635859012604,-9.736021041870117,0.406415730714798
1484219152213,0.19692309200763702,-9.488221168518066,-0.2041056901216507
1484219152392,0.2825157940387726,-9.573814392089844,-0.13407529890537262
1484219152570,0.07781155407428741,-9.617507934570313,0.12509703636169434
1484219152752,-0.2106897532939911,-9.800065994262695,0.6392518281936646
1484219152933,0.008379706181585789,-9.519944190979004,0.24361002445220947
1484219153114,0.7547720670700073,-9.589975357055664,0.11013327538967133
1484219153292,-0.2777273952960968,-9.533112525939941,-0.047884032130241394
1484219153469,0.053270988166332245,-9.610325813293457,-0.060453593730926514
1484219153653,-0.0867898091673851,-9.668384552001953,0.03411737456917763
1484219153832,-0.0011971008498221636,-9.718064308166504,0.29568392038345337
1484219154012,-0.050876785069704056,-9.657012939453125,0.27892449498176575
1484219154195,0.19572599232196808,-9.64683723449707,0.30286651849746704
1484219154371,0.07422025501728058,-9.666589736938477,0.43335050344467163
1484219154551,0.05147533491253853,-9.615114212036133,0.15263035893440247
1484219154734,0.4129997789859772,-9.674370765686035,0.2968810200691223
1484219154915,0.2585737705230713,-9.556455612182617,0.058059390634298325
1484219155095,0.49140989780426025,-9.739612579345703,0.1693897694349289
1484219155273,0.37828385829925537,-9.596558570861816,0.016160860657691956
1484219155452,0.07781155407428741,-9.529520988464355,-0.20530278980731964
1484219155635,-0.1711854189634323,-9.477447509765625,-0.22505496442317963
1484219155814,-0.22625206410884857,-9.700706481933594,0.6775590777397156
1484219155993,-0.06703764945268631,-9.655217170715332,0.524330198764801
1484219156173,0.10594342648983002,-9.698312759399414,0.46627077460289
1484219156355,0.3693056106567383,-9.606135368347168,0.45190557837486267
1484219156535,0.4034229815006256,-9.624691009521484,0.37169981002807617
1484219156713,0.33698388934135437,-9.603142738342285,0.12210428714752197
1484219156894,0.3357867896556854,-9.59057331085205,0.0628477931022644
1484219157074,0.0867898091673851,-9.612719535827637,0.020350715145468712
1484219157256,0.11851298063993454,-9.713874816894531,0.3908534348011017
1484219157435,0.07781155407428741,-9.721057891845703,0.37648820877075195
1484219157615,0.008379706181585789,-9.743802070617676,0.4207809567451477
1484219157795,-0.12449848651885986,-9.77013874053955,0.4423287510871887
1484219157973,-0.03531447425484657,-9.679159164428711,0.16879121959209442
1484219158154,-0.7398083209991455,-9.582193374633789,0.2059013396501541
1484219158336,-0.8565256595611572,-9.312846183776855,-0.5835866928100586
1484219158515,-1.5658079385757446,-9.360730171203613,-0.1777694821357727
1484219158698,-0.5099649429321289,-9.34397029876709,-0.284311443567276
1484219158877,-0.34656068682670593,-9.556455612182617,0.14006079733371735
1484219159056,0.40880993008613586,-9.5223388671875,0.048482585698366165
1484219159235,1.6825252771377563,-9.465476036071777,0.04668693244457245
1484219159414,3.422511339187622,-10.437521934509277,0.36152446269989014
1484219159599,0.6949170231819153,-10.178350448608398,0.7547720670700073
1484219159776,-1.292868971824646,-9.571419715881348,0.6045359373092651
1484219159958,-2.9867665767669678,-9.184157371520996,0.08319851011037827
1484219160135,-2.2697031497955322,-9.222464561462402,-0.05386953800916672
1484219160319,-2.5797524452209473,-9.266159057617188,-0.1951274424791336
1484219160496,0.0694318488240242,-9.640253067016602,0.3705027103424072
1484219160680,1.7986440658569336,-9.618705749511719,0.37828385829925537
1484219160860,2.3965959548950195,-9.783905029296875,-0.14784196019172668
1484219161038,1.9279309511184692,-10.083779335021973,0.26815059781074524
1484219161221,0.4854243993759155,-10.17176628112793,0.4273650050163269
1484219161402,-1.6831238269805908,-9.484031677246094,0.2519897222518921
1484219161580,-2.6007015705108643,-9.27334213256836,-0.30705636739730835
1484219161758,-1.590348482131958,-9.384672164916992,-0.08978256583213806
1484219161941,0.862511157989502,-9.5408935546875,-0.07661445438861847
1484219162121,0.7655459642410278,-9.698312759399414,-0.005386953707784414
1484219162300,-0.22744916379451752,-9.70429801940918,0.2825157940387726
1484219162478,-0.4291606545448303,-9.596558570861816,0.6260837316513062
1484219162661,-0.03531447425484657,-9.70429801940918,0.333991140127182
1484219162839,0.02214636653661728,-9.648633003234863,0.11013327538967133
1484219163020,-0.09935937076807022,-9.6618013381958,0.07182604819536209
1484219163201,0.008978256024420261,-9.75397777557373,0.4554968774318695
1484219163383,0.284311443567276,-9.751583099365234,0.4058171808719635
1484219163558,0.3621230125427246,-9.636063575744629,0.23163901269435883
1484219163740,0.1586158573627472,-9.504382133483887,0.07781155407428741
1484219163923,-0.5961562395095825,-9.633070945739746,0.4991910457611084
1484219164103,0.0586579404771328,-9.646238327026367,0.4381389021873474
1484219164280,-0.07122749835252762,-9.780313491821289,0.46746787428855896
1484219164460,0.0933738648891449,-9.586981773376465,0.3711012601852417
1484219164643,0.31842881441116333,-9.70429801940918,0.2944868206977844
1484219164822,-0.322618693113327,-9.583989143371582,0.12389993667602539
1484219165002,0.16759411990642548,-9.70310115814209,0.0586579404771328
1484219165184,-0.6117185354232788,-9.695320129394531,0.2687491476535797
1484219165364,-0.06703764945268631,-9.781511306762695,0.14006079733371735
1484219165541,0.13527239859104156,-9.716867446899414,0.1173158809542656
1484219165724,-0.21368250250816345,-9.821015357971191,0.1628057211637497
1484219165905,0.08200141042470932,-9.601945877075195,0.06584054976701736
1484219166083,-0.19213469326496124,-9.695320129394531,0.2537853717803955
1484219166264,-0.9056068062782288,-9.44991397857666,5.985504249110818E-4
1484219166444,-1.4036006927490234,-9.193136215209961,0.015562310814857483
1484219166625,-1.3551181554794312,-9.41519832611084,-0.5374982953071594
1484219166805,-2.2631192207336426,-9.181763648986816,-0.5542576909065247
1484219166985,0.090979665517807,-9.701305389404297,0.20350714027881622
1484219167163,1.368884801864624,-9.854534149169922,0.5291185975074768
1484219167344,1.447893500328064,-9.77253246307373,0.46088382601737976
1484219167524,1.8848352432250977,-10.132261276245117,0.4926069974899292
1484219167704,1.9806033372879028,-10.291476249694824,0.3148375153541565
1484219167886,-0.15801730751991272,-9.877279281616211,0.30945056676864624
1484219168086,-2.4420857429504395,-9.211690902709961,0.060453593730926514
1484219168244,-3.8379054069519043,-9.196128845214844,-0.2753331959247589
1484219168425,-2.8131868839263916,-9.361927032470703,-0.811634361743927
1484219168607,-0.17178396880626678,-9.481039047241211,-0.17956513166427612
1484219168787,2.7305870056152344,-10.026318550109863,0.10953472554683685
1484219168968,1.6837223768234253,-10.108918190002441,0.5261258482933044
1484219169146,0.38127660751342773,-9.751583099365234,0.5811924338340759
1484219169325,-2.3337481021881104,-9.242217063903809,-0.30286651849746704
1484219169507,-0.7709329724311829,-9.503783226013184,0.16220717132091522
1484219169688,1.3958195447921753,-9.767146110534668,0.09876082092523575
1484219169868,0.9672574996948242,-10.116100311279297,0.3878606855869293
1484219170060,-1.0911574363708496,-9.534309387207031,0.08858546614646912
1484219170227,-1.346139907836914,-9.438541412353516,0.1496376097202301
1484219170407,0.7948749661445618,-9.585784912109375,0.3926490843296051
1484219170589,2.539050817489624,-10.007762908935547,0.35015198588371277
1484219170769,0.5829881429672241,-10.029909133911133,0.6799532771110535
1484219170950,-0.9175778031349182,-9.571419715881348,0.3363853394985199
1484219171129,-1.5843629837036133,-9.220070838928223,-0.043095629662275314
1484219171307,-1.7687164545059204,-9.443928718566895,-0.002992752008140087
1484219171488,0.21308395266532898,-9.53849983215332,0.5895721912384033
1484219171670,1.0085574388504028,-9.677363395690918,0.32441434264183044
1484219171850,0.767341673374176,-9.805453300476074,0.3321954905986786
1484219172030,-0.52552729845047,-9.558850288391113,0.4507084786891937
1484219172209,-0.3100491166114807,-9.64803409576416,0.19213469326496124
1484219172389,0.33518823981285095,-9.667786598205566,0.26575639843940735
1484219172570,0.11611878126859665,-9.625887870788574,0.04010287672281265
1484219172750,0.005386953707784414,-9.78869342803955,0.45848962664604187
1484219172931,0.08978256583213806,-9.860519409179688,0.5117605924606323
1484219173110,0.13587094843387604,-9.805453300476074,0.5225345492362976
1484219173289,-1.2970588207244873,-9.409811019897461,0.04728548228740692
1484219173471,0.48063600063323975,-9.585186958312988,-0.11372458189725876
1484219173652,-0.13587094843387604,-9.537302017211914,0.004189853090792894
1484219173832,-0.0454898327589035,-9.701904296875,0.4626794755458832
1484219174012,-0.16879121959209442,-9.634267807006836,0.34416648745536804
1484219174189,-0.06165069341659546,-9.70429801940918,0.1454477459192276
1484219174371,0.22864626348018646,-9.7605619430542,0.2992752194404602
1484219174551,0.11013327538967133,-9.683348655700684,0.3818751573562622
1484219174733,0.10235211998224258,-9.429563522338867,-0.21966800093650818
1484219174912,-0.5823895931243896,-9.57201862335205,0.058059390634298325
1484219175093,0.035913024097681046,-9.803058624267578,0.5392939448356628
1484219175270,-0.2190694510936737,-9.66299819946289,-0.061052143573760986
1484219175453,-0.2932897210121155,-9.592369079589844,0.08858546614646912
1484219175634,-0.3932476341724396,-9.59177017211914,0.03770867735147476
1484219175814,-0.25977087020874023,-9.627683639526367,0.30705636739730835
1484219175994,0.046088382601737976,-9.613917350769043,0.32620999217033386
1484219176171,0.7200561761856079,-9.491812705993652,-0.5165489912033081
1484219176351,-0.4531026780605316,-9.637260437011719,0.4495113790035248
1484219176534,0.20949265360832214,-9.723451614379883,0.6649895310401917
1484219176717,-0.05027823522686958,-9.707290649414063,0.01735796220600605
1484219176895,-0.04908113554120064,-9.602544784545898,-0.06584054976701736
1484219177074,0.008379706181585789,-9.692327499389648,-0.016160860657691956
1484219177253,0.10833762586116791,-9.636063575744629,-0.05386953800916672
1484219177433,0.2106897532939911,-9.608530044555664,0.0293289702385664
1484219177613,0.14784196019172668,-9.655815124511719,0.20949265360832214
1484219177794,-0.1215057373046875,-9.623494148254395,0.1735796183347702
1484219177975,-0.35494041442871094,-9.549273490905762,0.5823895931243896
1484219178155,-0.10714052617549896,-9.67077922821045,0.2124854028224945
1484219178335,0.16879121959209442,-9.585784912109375,0.43933600187301636
1484219178514,0.6236895322799683,-9.66958236694336,0.4537012279033661
1484219178694,0.002992752008140087,-9.552865028381348,0.076015904545784
1484219178877,-0.27054479718208313,-9.561244010925293,0.42197805643081665
1484219179056,0.3130418658256531,-9.591172218322754,0.24420857429504395
1484219179237,-0.3645172119140625,-9.632472038269043,0.5632359385490417
1484219179415,-0.5015852451324463,-9.689932823181152,0.8289923667907715
1484219179593,-0.18136078119277954,-9.603741645812988,0.19153612852096558
1484219179773,-0.025737667456269264,-9.649829864501953,0.32680854201316833
1484219179953,-0.24480712413787842,-9.628880500793457,0.31603461503982544
1484219180133,-0.42437225580215454,-9.563039779663086,0.2645592987537384
1484219180313,-0.24660277366638184,-9.712677955627441,0.4429273009300232
1484219180495,-0.31184476613998413,-9.621698379516602,0.5195417404174805
1484219180675,0.1364694982767105,-9.651026725769043,0.48901569843292236
1484219180858,-0.03531447425484657,-9.717466354370117,0.27892449498176575
1484219181038,0.1041477769613266,-9.674370765686035,0.166995570063591
1484219181240,0.2472013235092163,-9.66958236694336,0.41778820753097534
1484219181397,0.284311443567276,-9.699509620666504,0.3884592354297638
1484219181581,0.09457096457481384,-9.700706481933594,0.3669114112854004
1484219181756,-0.15502455830574036,-9.541492462158203,0.3106476664543152
1484219181937,0.5386953949928284,-9.757569313049316,0.34596213698387146
1484219182119,-0.5614402890205383,-9.461885452270508,0.3734954595565796
1484219182300,-1.3539210557937622,-9.299677848815918,-0.060453593730926514
1484219182480,-1.224035620689392,-9.287108421325684,-0.12210428714752197
1484219182658,-0.20470423996448517,-9.514557838439941,0.12509703636169434
1484219182839,0.21009120345115662,-9.66958236694336,0.3208230137825012
1484219183020,0.16579847037792206,-9.598953247070313,0.3561375141143799
1484219183200,0.1825578808784485,-9.742006301879883,0.4818331003189087
1484219183380,0.19273324310779572,-9.695918083190918,0.18734627962112427
1484219183559,0.30885201692581177,-9.55825138092041,0.1454477459192276
1484219183741,-0.15442600846290588,-9.482834815979004,0.37888240814208984
1484219183921,-0.10534487664699554,-9.612719535827637,0.19213469326496124
1484219184100,-0.08439560979604721,-9.6803560256958,0.26156654953956604
1484219184280,-0.014365210197865963,-9.70549488067627,0.33997663855552673
1484219184461,0.015562310814857483,-9.813833236694336,0.4812345504760742
1484219184642,0.07541735470294952,-9.666589736938477,0.4141969084739685
1484219184823,0.06823474913835526,-9.701904296875,0.36810851097106934
1484219185001,0.2735375463962555,-9.7791166305542,0.33997663855552673
1484219185182,0.14425064623355865,-9.664793968200684,0.0933738648891449
1484219185362,0.1538274586200714,-9.654618263244629,0.29568392038345337
1484219185543,0.17896658182144165,-9.55705451965332,0.12389993667602539
1484219185722,-0.1454477459192276,-9.532513618469238,0.17058686912059784
1484219185901,-0.17058686912059784,-9.57860279083252,0.2801215946674347
1484219186083,0.4602852761745453,-9.734225273132324,0.3944447338581085
1484219186264,0.9690531492233276,-9.537900924682617,0.22505496442317963
1484219186444,1.7280150651931763,-9.780912399291992,0.26575639843940735
1484219186621,0.3992331326007843,-9.977835655212402,0.3100491166114807
1484219186803,-0.7050924301147461,-9.71926212310791,0.8493430614471436
1484219186984,-1.389235496520996,-9.39903736114502,0.3381809890270233
1484219187161,-1.9375077486038208,-9.359533309936523,0.32441434264183044
1484219187344,-1.9710265398025513,-9.214085578918457,-0.7158663272857666
1484219187522,-1.0336965322494507,-9.5223388671875,-0.12389993667602539
1484219187703,0.8702923059463501,-9.730634689331055,0.2735375463962555
1484219187884,2.6216509342193604,-9.919178009033203,0.7003039717674255
1484219188065,1.4053963422775269,-9.576208114624023,0.2406172752380371
1484219188245,3.709815502166748,-10.125079154968262,0.13946224749088287
1484219188424,1.6932991743087769,-10.396222114562988,0.5141547918319702
1484219188603,-0.8589198589324951,-9.792284965515137,0.5309142470359802
1484219188783,-3.136404275894165,-9.025542259216309,0.03890577703714371
1484219188964,-3.7684733867645264,-9.047688484191895,-0.36092591285705566
1484219189145,-2.2834699153900146,-9.552266120910645,-0.4878185987472534
1484219189325,0.12210428714752197,-9.68694019317627,0.5746083855628967
1484219189505,2.9747955799102783,-9.9185791015625,0.12629413604736328
1484219189685,2.450465440750122,-10.432733535766602,0.7128735780715942
1484219189864,1.1115081310272217,-10.183736801147461,0.7128735780715942
1484219190045,-0.0802057534456253,-9.891644477844238,0.4010287821292877
1484219190224,-1.3832499980926514,-9.384672164916992,0.1628057211637497
1484219190406,-2.4839842319488525,-9.190741539001465,-0.24600422382354736
1484219190588,-1.7998411655426025,-9.486425399780273,-0.43514615297317505
1484219190766,1.0749965906143188,-9.61212158203125,0.18136078119277954
1484219190945,2.6773159503936768,-10.257957458496094,-0.09157821536064148
1484219191126,1.479616641998291,-10.17176628112793,0.8086416125297546
1484219191306,-0.8571242094039917,-9.49001693725586,0.11911153793334961
1484219191488,-2.5540146827697754,-9.230844497680664,-0.40701428055763245
1484219191668,-0.7775170207023621,-9.547477722167969,0.2561795711517334
1484219191850,1.5418659448623657,-9.607333183288574,0.14903905987739563
1484219192025,1.0821791887283325,-9.985616683959961,0.2388216257095337
1484219192207,0.1604115068912506,-9.717466354370117,0.6117185354232788
1484219192389,-1.7507599592208862,-9.272144317626953,-0.16400282084941864
1484219192569,-1.659181833267212,-9.455899238586426,-0.023942016065120697
1484219192750,1.2234370708465576,-9.505578994750977,-0.05626374110579491
1484219192929,2.7700912952423096,-10.162189483642578,0.8134300112724304
1484219193108,2.095525026321411,-10.451887130737305,0.8026561141014099
1484219193289,-1.0648212432861328,-9.63187313079834,0.32381579279899597
1484219193469,-2.4618380069732666,-9.05487060546875,-0.2783259451389313
1484219193649,-1.6950948238372803,-9.418789863586426,0.1322796493768692
1484219193830,0.3232172429561615,-9.50498104095459,0.16519992053508759
1484219194010,1.3210008144378662,-9.707290649414063,0.0999579206109047
1484219194188,2.583942174911499,-10.038887977600098,0.6356605291366577
1484219194369,2.0488381385803223,-10.268132209777832,0.3172317147254944
1484219194550,-0.11372458189725876,-9.738415718078613,0.6206967830657959
1484219194731,-1.601720929145813,-9.210494041442871,-0.048482585698366165
1484219194911,-2.7778725624084473,-9.209297180175781,-0.3932476341724396
1484219195090,1.437718152999878,-9.57979965209961,0.26336219906806946
1484219195269,2.43011474609375,-10.407594680786133,0.12689268589019775
1484219195450,0.40462008118629456,-9.901819229125977,0.6386532783508301
1484219195631,-1.7375918626785278,-9.30686092376709,-0.43335050344467163
1484219195812,-2.278082847595215,-9.379883766174316,-0.038307227194309235
1484219195993,1.8860323429107666,-9.678560256958008,-0.15263035893440247
1484219196173,1.7980455160140991,-10.238204956054688,0.6979097723960876
1484219196367,0.1646013706922531,-9.739013671875,0.5416881442070007
1484219196531,-2.3558945655822754,-9.196727752685547,-0.04728548228740692
1484219196713,-0.8200140595436096,-9.639056205749512,0.322618693113327
1484219196893,1.2635399103164673,-9.712677955627441,0.014365210197865963
1484219197074,1.8237831592559814,-10.177751541137695,0.3034650683403015
1484219197254,0.6997054219245911,-9.985616683959961,0.6506243348121643
1484219197434,-1.9752163887023926,-9.187150001525879,0.07062894850969315
1484219197611,-1.6148890256881714,-9.527127265930176,-0.13587094843387604
1484219197792,1.5957354307174683,-9.536704063415527,0.5895721912384033
1484219197973,0.4118026793003082,-9.747992515563965,0.45489832758903503
1484219198154,-0.5141547918319702,-9.513958930969238,0.2902969419956207
1484219198335,0.7924807667732239,-9.822212219238281,0.2495955228805542
1484219198514,0.33339259028434753,-9.640851974487305,0.19153612852096558
1484219198693,0.02513911761343479,-9.660603523254395,-0.36092591285705566
1484219198873,-0.35434186458587646,-9.64564037322998,0.7601590156555176
1484219199054,-0.07003039866685867,-9.644442558288574,0.42856210470199585
1484219199234,0.01975216343998909,-9.713275909423828,0.1346738487482071
1484219199417,0.3776853084564209,-9.755773544311523,0.44771572947502136
1484219199595,-0.038307227194309235,-9.585186958312988,0.048482585698366165
1484219199774,-0.4686649739742279,-9.676166534423828,0.4638765752315521
1484219199953,0.06165069341659546,-9.798869132995605,0.5746083855628967
1484219200134,0.20769700407981873,-9.636063575744629,0.15921440720558167
1484219200315,0.020949264988303185,-9.769539833068848,0.4794389009475708
1484219200495,0.3519476354122162,-9.560646057128906,-0.041299980133771896
1484219200676,-0.2687491476535797,-9.689932823181152,0.19273324310779572
1484219200855,0.016160860657691956,-9.690531730651855,0.3579331636428833
1484219201035,0.05626374110579491,-9.619902610778809,0.15322890877723694
1484219201215,-0.06404489278793335,-9.712079048156738,0.21368250250816345
1484219201395,0.12330138683319092,-9.712677955627441,0.48303020000457764
1484219201578,-0.09816227108240128,-9.543886184692383,-0.27054479718208313
1484219201758,-0.021547814831137657,-9.563638687133789,0.2214636504650116
1484219201938,-0.0077811554074287415,-9.611522674560547,0.32680854201316833
1484219202116,0.21547815203666687,-9.619902610778809,0.076015904545784
1484219202296,0.22924481332302094,-9.667786598205566,-0.08080431073904037
1484219202477,0.0802057534456253,-9.832986831665039,0.2017114907503128
1484219202659,0.4668693244457245,-9.881468772888184,0.5829881429672241
1484219202838,-0.3860650360584259,-9.639654159545898,0.018555063754320145
1484219203018,0.33997663855552673,-9.759963035583496,0.3561375141143799
1484219203198,-0.3447650372982025,-9.452308654785156,0.2064998894929886
1484219203378,0.05386953800916672,-9.577404975891113,0.10773907601833344
1484219203558,-0.14604631066322327,-9.688735961914063,0.09277531504631042
1484219203739,0.08499415963888168,-9.685144424438477,0.304063618183136
1484219203919,0.26096799969673157,-9.792284965515137,0.13826514780521393
1484219204099,-0.5147533416748047,-9.555258750915527,0.2825157940387726
1484219204279,-0.727837324142456,-9.579200744628906,0.07661445438861847
1484219204458,-1.775899052619934,-9.34037971496582,-0.2603694200515747
1484219204639,-0.6997054219245911,-9.469067573547363,-0.24121582508087158
1484219204820,0.16998831927776337,-9.617507934570313,-0.08140286058187485
1484219205000,0.7182605266571045,-9.640851974487305,0.18555063009262085
1484219205181,0.9828197956085205,-9.840767860412598,0.1041477769613266
1484219205360,0.18076223134994507,-9.639056205749512,0.13587094843387604
1484219205539,-0.24241292476654053,-9.633668899536133,0.26575639843940735
1484219205721,0.1280897855758667,-9.683947563171387,0.2346317619085312
1484219205901,-0.3974374830722809,-9.57860279083252,0.11432313174009323
1484219206082,-0.09935937076807022,-9.66539192199707,0.24480712413787842
1484219206261,-0.07062894850969315,-9.727641105651855,0.19153612852096558
1484219206439,0.20889410376548767,-9.693524360656738,0.24839842319488525
1484219206619,0.4255693554878235,-9.749189376831055,0.4076128304004669
1484219206801,1.4449007511138916,-10.078990936279297,0.18315643072128296
1484219206985,-0.6584054827690125,-9.470264434814453,0.7296329736709595
1484219207162,-2.9041666984558105,-9.023147583007813,-0.6171054840087891
1484219207344,-1.7729063034057617,-9.177573204040527,-1.0564415454864502
1484219207523,0.015562310814857483,-9.539097785949707,-0.07062894850969315
1484219207700,2.030282974243164,-9.886856079101563,0.9696516990661621
1484219207882,3.3895909786224365,-10.299856185913086,0.14604631066322327
1484219208064,0.7487865686416626,-9.983222961425781,0.3016694188117981
1484219208244,-0.9343371987342834,-9.323619842529297,0.5249287486076355
1484219208425,-3.4572272300720215,-8.96149730682373,-0.29568392038345337
1484219208604,-0.9014169573783875,-9.497797966003418,-0.547075092792511
1484219208782,2.9718029499053955,-10.143633842468262,0.6326677799224854
1484219208962,1.820790410041809,-10.10173511505127,0.3016694188117981
1484219209140,-1.4856021404266357,-9.317634582519531,0.32441434264183044
1484219209320,-2.4833858013153076,-9.09497356414795,-0.629675030708313
1484219209507,1.9931728839874268,-9.907805442810059,0.718859076499939
1484219209684,1.5640122890472412,-10.140641212463379,0.07122749835252762
1484219209862,-1.5496470928192139,-9.21588134765625,0.3250128924846649
1484219210049,-2.2176294326782227,-9.147047996520996,-0.9636662006378174
1484219210222,2.9305028915405273,-10.338761329650879,0.6841431260108948
1484219210404,2.3104045391082764,-10.065223693847656,-0.04369417950510979
1484219210585,-1.245583415031433,-9.46487808227539,0.5135562419891357
1484219210763,-4.284423828125,-8.783727645874023,-0.2717418968677521
1484219210944,-0.5404910445213318,-9.271546363830566,-0.5548562407493591
1484219211124,3.7654807567596436,-10.129867553710938,0.42377370595932007
1484219211304,2.1314380168914795,-10.251373291015625,0.5979518890380859
1484219211482,-2.781463861465454,-9.153033256530762,0.5722141861915588
1484219211666,-4.359242916107178,-9.154829025268555,-0.08200141042470932
1484219211843,1.5873557329177856,-9.50617790222168,-0.15143325924873352
1484219212025,3.2124202251434326,-10.391433715820313,0.6673837304115295
1484219212206,0.8236053586006165,-9.769539833068848,0.9475052952766418
1484219212388,-3.7229835987091064,-9.091980934143066,0.5632359385490417
1484219212566,0.2651578485965729,-9.475052833557129,0.46088382601737976
1484219212746,3.581127166748047,-10.563218116760254,0.6548141837120056
1484219212929,1.3114240169525146,-9.936535835266113,0.730231523513794
1484219213107,-2.3086090087890625,-9.410409927368164,0.35434186458587646
1484219213287,-2.8634653091430664,-9.252392768859863,-0.15502455830574036
1484219213467,1.9207483530044556,-9.586981773376465,0.31184476613998413
1484219213649,2.855085611343384,-10.605116844177246,1.0582371950149536
1484219213825,0.17058686912059784,-9.633070945739746,0.5033808946609497
1484219214009,-2.3523032665252686,-9.114726066589355,-0.0999579206109047
1484219214185,-2.053027868270874,-9.469666481018066,-0.36152446269989014
1484219214367,1.2976573705673218,-9.587580680847168,0.4537012279033661
1484219214549,2.5779566764831543,-10.056245803833008,0.24181437492370605
1484219214728,0.9516952037811279,-10.068216323852539,0.9044097065925598
1484219214907,-0.8248024582862854,-9.62947940826416,0.5351040959358215
1484219215089,-2.428917646408081,-9.218873977661133,0.0586579404771328
1484219215268,-2.8125884532928467,-9.369708061218262,-0.2214636504650116
1484219215449,-0.6506243348121643,-9.549273490905762,-0.040701430290937424
1484219215630,2.0626046657562256,-9.819818496704102,0.7374141216278076
1484219215808,3.0819361209869385,-10.148422241210938,0.595557689666748
1484219215990,2.009932279586792,-10.421361923217773,0.8882488012313843
1484219216169,-0.5901707410812378,-9.708487510681152,0.322618693113327
1484219216350,-3.5296518802642822,-8.948927879333496,-0.3274070918560028
1484219216532,-1.3856441974639893,-9.452308654785156,-0.3603273630142212
1484219216711,1.8997989892959595,-9.765948295593262,0.31124621629714966
1484219216891,1.8614917993545532,-10.16877269744873,0.29807811975479126
1484219217071,0.30526071786880493,-9.776124000549316,0.6607996821403503
1484219217250,-2.033874273300171,-9.361329078674316,0.11432313174009323
1484219217432,-2.8203697204589844,-9.296685218811035,-0.2472013235092163
1484219217612,0.3100491166114807,-9.425971984863281,0.15682020783424377
1484219217792,2.0925323963165283,-9.948506355285645,0.30226796865463257
1484219217973,1.9961656332015991,-10.255562782287598,0.9050082564353943
1484219218150,0.5261258482933044,-9.836577415466309,0.7493851184844971
1484219218333,-2.5665841102600098,-9.14225959777832,-0.1646013706922531
1484219218513,-1.8195933103561401,-9.560047149658203,0.22206220030784607
1484219218693,1.5304933786392212,-9.701305389404297,0.5069721937179565
1484219218873,2.677914619445801,-10.123882293701172,0.5183446407318115
1484219219050,1.083974838256836,-9.962273597717285,1.0283095836639404
1484219219233,-2.7557260990142822,-9.112930297851563,0.1777694821357727
1484219219413,-2.145803213119507,-9.26675796508789,-0.16819266974925995
1484219219594,-1.8393454551696777,-9.385869026184082,-0.12928688526153564
1484219219774,0.1472434103488922,-9.443928718566895,0.01735796220600605
1484219219953,1.6089035272598267,-10.005369186401367,1.0157400369644165
1484219220131,1.8962076902389526,-10.017339706420898,0.46746787428855896
1484219220314,1.4742296934127808,-10.04068374633789,0.365115761756897
1484219220494,0.35673606395721436,-9.607931137084961,0.2454056739807129
1484219220675,-0.3387795388698578,-9.418190956115723,0.05686229094862938
1484219220854,-0.2885012924671173,-9.587580680847168,0.12389993667602539
1484219221032,0.16340427100658417,-9.64564037322998,0.2298433631658554
1484219221214,-0.2902969419956207,-9.644442558288574,0.2663549482822418
1484219221394,-0.16879121959209442,-9.64803409576416,0.4345476031303406
1484219221574,0.25438392162323,-9.701904296875,0.3818751573562622
1484219221755,0.3387795388698578,-9.587580680847168,0.4010287821292877
1484219221934,0.345363587141037,-9.633668899536133,0.035913024097681046
1484219222113,0.3076549172401428,-9.742605209350586,0.6602011322975159
1484219222293,0.13407529890537262,-9.671976089477539,0.37469255924224854
1484219222475,0.10474632680416107,-9.585186958312988,-0.04967968538403511
1484219222655,0.1041477769613266,-9.661202430725098,-0.090979665517807
1484219222840,0.020949264988303185,-9.692327499389648,5.985504249110818E-4
1484219223017,-0.07003039866685867,-9.646238327026367,0.16639702022075653
1484219223195,-0.3489548861980438,-9.594164848327637,0.3824737071990967
1484219223377,-0.4040215313434601,-9.683947563171387,0.20350714027881622
1484219223557,-0.1562216579914093,-9.724648475646973,0.6548141837120056
1484219223738,-0.14006079733371735,-9.725846290588379,0.3800795078277588
1484219223919,0.0011971008498221636,-9.789292335510254,0.6428431272506714
1484219224097,0.12270283699035645,-9.837176322937012,0.5506663918495178
1484219224276,0.19393034279346466,-9.77013874053955,0.5273229479789734
1484219224458,0.10354922711849213,-9.807847023010254,0.4471171796321869
1484219224639,0.181959331035614,-9.730035781860352,0.667982280254364
1484219224819,0.545877993106842,-9.879075050354004,0.26096799969673157
1484219224999,-0.6637924313545227,-9.551667213439941,0.33997663855552673
1484219225177,-0.36152446269989014,-9.64564037322998,0.08140286058187485
1484219225357,0.004788403399288654,-9.639056205749512,0.2717418968677521
1484219225538,-0.1538274586200714,-9.730035781860352,0.36750996112823486
1484219225719,-0.11312603205442429,-9.649829864501953,0.20111294090747833
1484219225900,-0.1885433793067932,-9.696516990661621,0.2849099934101105
1484219226078,-0.2992752194404602,-9.608530044555664,0.2537853717803955
1484219226259,-0.10235211998224258,-9.72165584564209,0.6314706802368164
1484219226440,-0.08978256583213806,-9.607931137084961,0.4602852761745453
1484219226619,1.4221558570861816,-9.759963035583496,0.7146692276000977
1484219226800,1.4131776094436646,-9.602544784545898,0.5662286877632141
1484219226980,1.4598644971847534,-9.970054626464844,0.5291185975074768
1484219227160,1.1839327812194824,-9.77791976928711,0.35075053572654724
1484219227341,0.7374141216278076,-9.947908401489258,0.345363587141037
1484219227521,0.800261914730072,-10.020332336425781,0.3998316824436188
1484219227702,-0.4273650050163269,-9.79527759552002,0.6572083830833435
1484219227881,-1.4437036514282227,-9.330204010009766,0.2148796021938324
1484219228059,-1.6621745824813843,-9.34397029876709,0.32620999217033386
1484219228241,-0.05147533491253853,-9.578003883361816,0.3860650360584259
1484219228422,1.622071623802185,-9.783307075500488,0.5249287486076355
1484219228603,1.7729063034057617,-10.103530883789063,0.34835633635520935
1484219228783,0.8068459630012512,-10.0765962600708,0.5817909836769104
1484219228961,-0.38726213574409485,-9.742006301879883,0.5069721937179565
1484219229141,-0.750582218170166,-9.59835433959961,0.32022446393966675
1484219229323,0.28072014451026917,-9.585186958312988,0.18794482946395874
1484219229503,-0.3082534670829773,-9.633668899536133,0.45429977774620056
1484219229684,0.8427590131759644,-9.746196746826172,0.11252748221158981
1484219229864,-0.10115502029657364,-9.71926212310791,0.4776432514190674
1484219230041,0.07003039866685867,-9.724648475646973,0.22864626348018646
1484219230224,0.27653029561042786,-9.697713851928711,0.29867666959762573
1484219230404,-0.9738415479660034,-9.497797966003418,0.29867666959762573
1484219230585,-0.4926069974899292,-9.611522674560547,0.3944447338581085
1484219230764,-0.5165489912033081,-9.482834815979004,0.12868833541870117
1484219230943,0.0017956512747332454,-9.59177017211914,0.27712884545326233
1484219231122,0.09397241473197937,-9.651026725769043,0.5596446394920349
1484219231312,1.2012907266616821,-9.858125686645508,0.46507367491722107
1484219231485,1.1420341730117798,-9.856928825378418,0.05147533491253853
1484219231662,0.09397241473197937,-9.818022727966309,0.6631938815116882
1484219231845,-0.9157821536064148,-9.436745643615723,0.2687491476535797
1484219232023,-1.1366472244262695,-9.093177795410156,-0.20350714027881622
1484219232203,-0.768538773059845,-9.390059471130371,0.05506663769483566
1484219232385,0.22266076505184174,-9.61571216583252,0.07541735470294952
1484219232565,-0.04489128291606903,-9.616909980773926,0.3357867896556854
1484219232745,0.25079262256622314,-9.702502250671387,0.3531447649002075
1484219232924,0.18315643072128296,-9.745597839355469,0.383670836687088
1484219233103,-0.10354922711849213,-9.630077362060547,0.2041056901216507
1484219233285,-0.284311443567276,-9.641449928283691,0.375291109085083
1484219233466,0.1843535304069519,-9.764751434326172,0.2795230448246002
1484219233646,0.10833762586116791,-9.718663215637207,0.16519992053508759
1484219233826,-0.08918401598930359,-9.674370765686035,0.28730419278144836
1484219234004,0.1885433793067932,-9.768342971801758,0.35733461380004883
1484219234186,-0.1454477459192276,-9.6618013381958,0.1843535304069519
1484219234367,0.10175357013940811,-9.616909980773926,0.23163901269435883
1484219234549,0.17717093229293823,-9.57321548461914,0.28790274262428284
1484219234728,0.39863458275794983,-9.566033363342285,0.3734954595565796
1484219234906,-0.4770447015762329,-9.551667213439941,0.21787235140800476
1484219235087,-0.45848962664604187,-9.469067573547363,-0.058059390634298325
1484219235268,2.5522189140319824,-10.006566047668457,-0.2783259451389313
1484219235449,0.7164648771286011,-9.980828285217285,0.5536591410636902
1484219235628,-0.9989806413650513,-9.484031677246094,0.6961141228675842
1484219235808,-2.5288755893707275,-9.045293807983398,-0.322618693113327
1484219235986,-1.2342109680175781,-9.396642684936523,0.07182604819536209
1484219236168,0.9660604000091553,-9.741408348083496,0.6596025824546814
1484219236346,1.9698294401168823,-9.864709854125977,0.7882909178733826
1484219236529,2.009932279586792,-10.02571964263916,0.7254431247711182
1484219236709,1.886630892753601,-10.177751541137695,0.3124433159828186
1484219236888,-0.333991140127182,-10.033500671386719,0.25438392162323
1484219237069,-0.9409212470054626,-9.677961349487305,0.5512649416923523
1484219237251,-3.3291375637054443,-9.030928611755371,0.5883750915527344
1484219237428,-3.912125587463379,-9.369110107421875,-0.3758896589279175
1484219237610,-3.9821560382843018,-9.187150001525879,-0.950498104095459
1484219237789,-0.9241618514060974,-9.445724487304688,0.08379705995321274
1484219237970,2.829946517944336,-9.517550468444824,0.5225345492362976
1484219238155,4.940435409545898,-10.345345497131348,0.9906009435653687
1484219238328,4.080318450927734,-10.673351287841797,0.7511807680130005
1484219238512,1.4628572463989258,-10.589553833007813,0.35733461380004883
1484219238688,-2.358887195587158,-9.151237487792969,0.40940847992897034
1484219238872,-4.685452938079834,-8.621520042419434,-0.34656068682670593
1484219239050,-2.8137855529785156,-9.312247276306152,-0.6326677799224854
1484219239232,0.13108254969120026,-9.41100788116455,-0.30466216802597046
1484219239412,3.5039141178131104,-9.512163162231445,0.9672574996948242
1484219239592,4.376002311706543,-10.32858657836914,0.5057750940322876
1484219239773,0.4411316514015198,-9.906009674072266,0.25258827209472656
1484219239950,-1.7118542194366455,-9.252392768859863,0.17417816817760468
1484219240132,-4.613626480102539,-8.778939247131348,-0.7164648771286011
1484219240313,-2.141014814376831,-9.400833129882813,-1.0241197347640991
1484219240494,4.8919525146484375,-10.432135581970215,1.4371196031570435
1484219240671,5.003881454467773,-10.490793228149414,0.4507084786891937
1484219240853,1.8579005002975464,-10.294468879699707,0.375291109085083
1484219241032,-1.7717092037200928,-9.26795482635498,0.40282443165779114
1484219241214,-4.456207752227783,-8.708909034729004,0.01735796220600605
1484219241394,-1.2533645629882813,-9.379284858703613,-0.8888474106788635
1484219241576,2.497750997543335,-9.886856079101563,1.01753568649292
1484219241754,2.73537540435791,-10.201693534851074,0.3603273630142212
1484219241932,0.4668693244457245,-9.939528465270996,0.6709750294685364
1484219242113,-2.0165164470672607,-9.150040626525879,-0.28371289372444153
1484219242294,-1.9422961473464966,-9.321824073791504,-0.3363853394985199
1484219242475,1.5670050382614136,-9.895833969116211,0.5961562395095825
1484219242655,2.390610456466675,-10.267534255981445,0.48602294921875
1484219242833,1.7962498664855957,-10.04427433013916,0.2346317619085312
1484219243013,0.4836287498474121,-9.8970308303833,0.41359832882881165
1484219243194,-0.45429977774620056,-9.741408348083496,0.292691171169281
1484219243374,-1.1827356815338135,-9.383475303649902,0.5027823448181152
1484219243555,-0.2555810213088989,-9.560047149658203,-0.07900865375995636
1484219243735,0.25977087020874023,-9.576807022094727,0.35673606395721436
1484219243916,0.4710591733455658,-9.673172950744629,0.2579752206802368
1484219244093,-0.2693476974964142,-9.607931137084961,-0.11971008777618408
1484219244274,-0.03172317147254944,-9.750386238098145,0.15981295704841614
1484219244456,0.20470423996448517,-9.874884605407715,0.41718965768814087
1484219244636,0.09217676520347595,-9.787496566772461,0.6051344871520996
1484219244818,-0.020350715145468712,-9.873687744140625,0.5422866940498352
1484219244995,-0.304063618183136,-9.748590469360352,0.47405192255973816
1484219245175,0.181959331035614,-9.671378135681152,0.6434416770935059
1484219245355,0.07182604819536209,-9.685144424438477,0.39145198464393616
1484219245538,0.37169981002807617,-9.65222454071045,0.30885201692581177
1484219245718,0.37888240814208984,-9.624092102050781,0.28730419278144836
1484219245899,0.0933738648891449,-9.591172218322754,0.3016694188117981
1484219246075,0.228047713637352,-9.677961349487305,0.24420857429504395
1484219246258,0.08259996026754379,-9.679757118225098,0.3878606855869293
1484219246439,-0.09217676520347595,-9.66299819946289,0.24121582508087158
1484219246615,-0.10534487664699554,-9.66958236694336,0.12988543510437012
1484219246799,0.40521863102912903,-9.707290649414063,0.21428105235099792
1484219246978,-0.04249707981944084,-9.801861763000488,0.4884171485900879
1484219247157,0.30885201692581177,-9.6989107131958,0.23104046285152435
1484219247338,0.4207809567451477,-9.692327499389648,0.41539400815963745
1484219247519,0.40282443165779114,-9.734824180603027,0.4034229815006256
1484219247700,0.35733461380004883,-9.73542308807373,0.43335050344467163
1484219247880,0.19632454216480255,-9.676166534423828,0.34835633635520935
1484219248058,0.15442600846290588,-9.732429504394531,0.6320692300796509
1484219248239,-0.14604631066322327,-9.643844604492188,-0.0802057534456253
1484219248420,-0.04369417950510979,-9.53969669342041,0.05267243832349777
1484219248600,-0.38486793637275696,-9.618106842041016,0.39384618401527405
1484219248781,-0.11791443079710007,-9.568427085876465,0.24480712413787842
1484219248963,-0.18495208024978638,-9.654618263244629,0.46148237586021423
1484219249140,-0.5632359385490417,-9.677961349487305,0.4381389021873474
1484219249321,-0.16759411990642548,-9.627683639526367,0.3531447649002075
1484219249501,-0.1951274424791336,-9.694721221923828,0.6847416758537292
1484219249682,0.016759412363171577,-9.667786598205566,0.3381809890270233
1484219249860,0.15741875767707825,-9.588777542114258,0.243011474609375
1484219250039,0.34416648745536804,-9.677363395690918,0.0933738648891449
1484219250220,0.2555810213088989,-9.682151794433594,0.23582886159420013
1484219250401,0.10055647045373917,-9.763554573059082,0.243011474609375
1484219250583,0.04728548228740692,-9.741408348083496,0.21607670187950134
1484219250758,0.04668693244457245,-9.871891975402832,0.4902127981185913
1484219250938,-0.18914192914962769,-9.88386344909668,0.44831427931785583
1484219251123,-0.3034650683403015,-9.734225273132324,0.3166331648826599
1484219251303,-0.05985504388809204,-9.5809965133667,0.27892449498176575
1484219251482,0.6685808300971985,-9.675567626953125,-0.013766659423708916
1484219251660,-0.22924481332302094,-9.63187313079834,0.31842881441116333
1484219251844,0.10235211998224258,-9.650428771972656,0.24839842319488525
1484219252023,0.24839842319488525,-9.835979461669922,0.3405751883983612
1484219252202,0.22385786473751068,-9.667786598205566,0.22266076505184174
1484219252384,0.1041477769613266,-9.507973670959473,0.152031809091568
1484219252564,-0.002992752008140087,-9.525930404663086,0.17238251864910126
1484219252743,-0.10773907601833344,-9.675567626953125,0.3794809579849243
1484219252924,0.03950432687997818,-9.783307075500488,0.5345055460929871
1484219253101,0.09038111567497253,-9.741408348083496,0.11851298063993454
1484219253284,0.4495113790035248,-9.761758804321289,0.17238251864910126
1484219253464,0.272938996553421,-9.737217903137207,0.026336219161748886
1484219253645,0.5392939448356628,-9.665990829467773,0.048482585698366165
1484219253825,0.3106476664543152,-9.546280860900879,0.1412578970193863
1484219254004,0.01975216343998909,-9.498396873474121,0.17717093229293823
1484219254183,0.08080431073904037,-9.61212158203125,0.23283611238002777
1484219254364,1.9524714946746826,-10.18493366241455,0.3100491166114807
1484219254545,1.6202759742736816,-10.201693534851074,0.20709845423698425
1484219254725,-0.14484919607639313,-9.525331497192383,0.5482721924781799
1484219254906,-2.756923198699951,-9.115922927856445,-0.21428105235099792
1484219255085,1.4395138025283813,-9.961674690246582,0.4537012279033661
1484219255264,0.40462008118629456,-9.922170639038086,0.4106055796146393
1484219255445,-1.7286136150360107,-9.123106002807617,0.03950432687997818
1484219255626,0.27712884545326233,-9.831789016723633,0.21667525172233582
1484219255807,1.941697597503662,-10.074800491333008,-0.033518824726343155
1484219255988,-0.3082534670829773,-9.642647743225098,0.7332242727279663
1484219256166,-2.1110873222351074,-9.193734169006348,-0.7248445749282837
1484219256346,1.7322049140930176,-9.991601943969727,0.5925649404525757
1484219256527,0.33937808871269226,-9.812037467956543,0.1951274424791336
1484219256709,0.23942017555236816,-9.667187690734863,0.1646013706922531
1484219256888,-0.7314286231994629,-9.349357604980469,-0.18136078119277954
1484219257067,-1.4059948921203613,-9.358335494995117,-0.25498247146606445
1484219257246,2.056020736694336,-10.104129791259766,0.718859076499939
1484219257427,1.4221558570861816,-10.098742485046387,0.49799394607543945
1484219257609,-1.5861586332321167,-9.110535621643066,0.3076549172401428
1484219257789,-0.3214215636253357,-9.604938507080078,0.2968810200691223
1484219257969,2.4672248363494873,-10.248380661010742,-0.02274491637945175
1484219258174,-1.1569979190826416,-9.321824073791504,0.5931634902954102
1484219258328,-1.0666168928146362,-9.469067573547363,-0.11192893236875534
1484219258509,2.032078742980957,-10.108319282531738,0.18076223134994507
1484219258687,0.5135562419891357,-9.897629737854004,0.8834604024887085
1484219258870,-1.6112977266311646,-9.084199905395508,-0.25737667083740234
1484219259050,-0.004788403399288654,-9.70310115814209,0.35015198588371277
1484219259229,1.7729063034057617,-9.9586820602417,0.44771572947502136
1484219259409,0.7499836683273315,-9.920374870300293,0.524330198764801
1484219259591,-0.45848962664604187,-9.48462963104248,0.3818751573562622
1484219259768,-1.602918028831482,-9.402628898620605,0.1843535304069519
1484219259950,0.7003039717674255,-9.88625717163086,0.5632359385490417
1484219260129,1.9063831567764282,-9.993996620178223,0.1825578808784485
1484219260310,0.8242039084434509,-9.995792388916016,0.6524199843406677
1484219260491,-1.2246341705322266,-9.366715431213379,0.43993455171585083
1484219260678,-2.6192567348480225,-9.189544677734375,0.07122749835252762
1484219260853,1.4562731981277466,-9.676166534423828,0.43335050344467163
1484219261029,2.853289842605591,-10.127472877502441,0.29807811975479126
1484219261209,1.1552022695541382,-9.955689430236816,0.292691171169281
1484219261392,-1.4526818990707397,-9.358335494995117,0.04429273307323456
1484219261572,-1.6352397203445435,-9.360730171203613,-0.2041056901216507
1484219261751,1.1192892789840698,-9.72165584564209,0.23523031175136566
1484219261933,1.8704700469970703,-10.014945983886719,0.30226796865463257
1484219262112,0.3776853084564209,-9.80904483795166,0.535702645778656
1484219262291,-0.26575639843940735,-9.619902610778809,0.3974374830722809
1484219262473,-0.011971008032560349,-9.677961349487305,0.333991140127182
1484219262654,0.1646013706922531,-9.592967987060547,0.29807811975479126
1484219262835,-0.36750996112823486,-9.512762069702148,0.06584054976701736
1484219263013,-0.31184476613998413,-9.537900924682617,0.19273324310779572
1484219263192,0.09576806426048279,-9.756970405578613,0.6775590777397156
1484219263373,0.46627077460289,-9.560047149658203,0.1173158809542656
1484219263554,0.5847837924957275,-9.818022727966309,0.4118026793003082
1484219263735,0.09636662155389786,-9.762955665588379,0.2454056739807129
1484219263915,-0.7015010714530945,-9.651026725769043,-0.06524199992418289
1484219264094,-0.8475474119186401,-9.667187690734863,0.5315127968788147
1484219264272,0.05686229094862938,-9.680954933166504,0.2472013235092163
1484219264453,0.383670836687088,-9.834781646728516,0.09696517139673233
1484219264634,-0.43514615297317505,-9.646238327026367,0.35434186458587646
1484219264815,0.09576806426048279,-9.579200744628906,0.05506663769483566
1484219264995,-0.1604115068912506,-9.464279174804688,0.1711854189634323
1484219265173,-0.017956512048840523,-9.62828254699707,0.6709750294685364
1484219265353,0.42437225580215454,-9.64564037322998,0.49140989780426025
1484219265534,0.27473464608192444,-9.712079048156738,0.31184476613998413
1484219265715,0.15023615956306458,-9.712079048156738,0.4818331003189087
1484219265893,0.38127660751342773,-9.602544784545898,0.14784196019172668
1484219266073,-0.043095629662275314,-9.55585765838623,-0.3172317147254944
1484219266255,-0.4010287821292877,-9.668384552001953,0.44412440061569214
1484219266434,0.0071826050989329815,-9.727043151855469,0.7266402244567871
1484219266614,0.4842272996902466,-9.616909980773926,0.2106897532939911
1484219266794,0.058059390634298325,-9.575011253356934,0.2783259451389313
1484219266974,0.35075053572654724,-9.716269493103027,0.414795458316803
1484219267155,-0.2777273952960968,-9.595361709594727,0.1843535304069519
1484219267336,-0.1562216579914093,-9.70429801940918,0.507570743560791
1484219267517,0.043095629662275314,-9.714473724365234,0.4016273319721222
1484219267699,0.1801636815071106,-9.684545516967773,0.14006079733371735
1484219267878,0.38965633511543274,-9.765948295593262,0.38965633511543274
1484219268055,0.4944026470184326,-9.59835433959961,0.4189853072166443
1484219268238,-0.4165911078453064,-9.567828178405762,0.2825157940387726
1484219268417,-0.6757634282112122,-9.649829864501953,0.4531026780605316
1484219268599,-0.18136078119277954,-9.655815124511719,0.4225766062736511
1484219268779,0.05925649031996727,-9.68574333190918,0.47405192255973816
1484219268959,0.6847416758537292,-9.781511306762695,0.03950432687997818
1484219269139,0.090979665517807,-9.900622367858887,0.9020155072212219
1484219269318,-1.5047557353973389,-9.30686092376709,0.21128830313682556
1484219269500,-1.7196353673934937,-9.418190956115723,0.3728969097137451
1484219269680,0.7721300721168518,-9.633070945739746,0.5033808946609497
1484219269860,1.5101426839828491,-10.277111053466797,0.2998737692832947
1484219270040,-0.9217676520347595,-9.46727180480957,0.7487865686416626
1484219270219,-1.7070658206939697,-9.369110107421875,-0.20231004059314728
1484219270397,1.898003339767456,-9.840767860412598,0.24899697303771973
1484219270576,0.5770025849342346,-9.851541519165039,0.4920084476470947
1484219270761,-1.7190368175506592,-9.300874710083008,0.3280056416988373
1484219270939,0.5273229479789734,-9.595361709594727,0.5398924946784973
1484219271118,1.4431051015853882,-9.840168952941895,0.3058592677116394
1484219271299,0.3034650683403015,-9.837775230407715,0.5303156971931458
1484219271481,-0.4626794755458832,-9.591172218322754,0.639850378036499
1484219271658,-1.5478514432907104,-9.39245319366455,0.34835633635520935
1484219271844,0.16879121959209442,-9.57860279083252,0.5859808921813965
1484219272024,1.2934675216674805,-9.874884605407715,0.4626794755458832
1484219272200,-0.12330138683319092,-9.618705749511719,0.669179379940033
1484219272383,-1.3611036539077759,-9.558850288391113,0.37229835987091064
1484219272560,0.595557689666748,-9.672574996948242,0.6177040338516235
1484219272742,0.628477931022644,-9.699509620666504,0.5345055460929871
1484219272923,-1.0384849309921265,-9.514557838439941,0.33099839091300964
1484219273104,-0.8649053573608398,-9.5408935546875,0.5734112858772278
1484219273284,1.104325532913208,-9.618705749511719,0.45010992884635925
1484219273463,1.5640122890472412,-10.052654266357422,0.4770447015762329
1484219273642,-0.2579752206802368,-9.671378135681152,0.7104793787002563
1484219273824,-0.9888052940368652,-9.368511199951172,0.33279404044151306
1484219274003,-2.126051187515259,-9.263166427612305,0.17238251864910126
1484219274184,-0.31543606519699097,-9.53849983215332,0.38546648621559143
1484219274364,1.634641170501709,-9.943120002746582,0.645237386226654
1484219274541,-0.05925649031996727,-9.722254753112793,0.7152677774429321
1484219274724,-1.789067268371582,-9.145252227783203,0.07781155407428741
1484219274904,-0.6039373874664307,-9.583989143371582,0.23104046285152435
1484219275085,1.987187385559082,-10.027515411376953,0.07661445438861847
