timestamp,ax,ay,az
1481630020013,7.2502522468566895,8.731410026550293,4.543970108032227
1481630020219,10.045069694519043,8.841480255126953,-5.015356063842773
1481630020451,2.785245418548584,13.517054557800293,-1.0887343883514404
1481630020690,1.3160523176193237,7.302894115447998,-7.654639720916748
1481630020930,0.2871387302875519,9.446864128112793,-15.823736190795898
1481630021159,-5.766702175140381,4.761716842651367,-11.956934928894043
1481630021366,-4.3310089111328125,4.8502516746521,-14.455041885375977
1481630021568,-4.651647090911865,5.08953332901001,-8.449056625366211
1481630021817,-3.541377305984497,3.8428730964660645,-16.589439392089844
1481630022048,-5.077569961547852,2.8043880462646484,-16.493724822998047
1481630022287,-5.044069766998291,-3.4959137439727783,-13.696516990661621
1481630022527,-9.647860527038574,-0.9619146585464478,-2.517249345779419
1481630022754,-8.590232849121094,3.5222349166870117,-1.057627558708191
1481630022967,-11.643473625183105,1.5481561422348022,5.699703216552734
1481630023215,-14.93599796295166,-3.706482172012329,11.124231338500977
1481630023445,-9.906286239624023,3.5341989994049072,-0.9786643981933594
1481630023685,-2.297109842300415,6.130411148071289,-11.708081245422363
1481630023924,-7.776673316955566,3.8189451694488525,-7.030113220214844
1481630024167,-5.647061824798584,4.644468784332275,-7.929814338684082
1481630024377,-3.675375461578369,2.861815929412842,-16.747364044189453
1481630024613,-7.901099681854248,4.677968502044678,-2.65842604637146
1481630024842,-7.3363938331604,1.7754744291305542,-8.09252643585205
1481630025082,-9.623932838439941,2.3018953800201416,-8.721837997436523
1481630025321,-9.327221870422363,-0.26081767678260803,-4.34536600112915
1481630025549,-0.7752745151519775,0.27038896083831787,-7.276573657989502
1481630025766,-7.537391662597656,3.273381233215332,-4.7018961906433105
1481630026029,-2.526820659637451,1.6677974462509155,-5.505885124206543
1481630026238,-12.562318801879883,3.900300979614258,-2.7565319538116455
1481630026477,-8.417949676513672,4.890929222106934,0.26081767678260803
1481630026692,-8.408378601074219,0.82791668176651,-7.393822193145752
1481630026916,-12.241680145263672,-0.28235307335853577,4.706681728363037
1481630027157,-14.261221885681152,2.682354211807251,2.3162522315979004
1481630027408,-7.81974458694458,3.5605196952819824,-4.019941806793213
1481630027636,-12.43310546875,2.9144580364227295,1.6965112686157227
1481630027875,-7.044469833374023,-0.019142581149935722,-5.218745708465576
1481630028116,-0.7992027401924133,-5.2115678787231445,-8.286344528198242
1481630028343,-4.685146808624268,-2.919243574142456,-7.3746795654296875
1481630028573,-1.7706886529922485,-6.0538411140441895,-8.434700012207031
1481630028803,-3.335594892501831,-4.1730828285217285,-6.836294651031494
1481630029034,-1.7324036359786987,7.534998416900635,-5.209175109863281
1481630029273,-2.421536445617676,6.781259536743164,-13.418950080871582
1481630029543,-9.66221809387207,3.160918712615967,3.0149567127227783
1481630029758,-10.686346054077148,0.16031910479068756,3.046063184738159
1481630030001,-5.101497650146484,7.728816509246826,-10.403992652893066
1481630030232,-5.37906551361084,7.0683979988098145,-12.366107940673828
1481630030471,-7.948956489562988,4.122833251953125,-5.331209182739258
1481630030711,-13.87358570098877,-0.21296121180057526,8.45862865447998
1481630030940,-13.663017272949219,1.7252250909805298,6.099304676055908
1481630031148,-9.087940216064453,-0.035892341285943985,-1.430907964706421
1481630031399,-11.0835542678833,6.470191955566406,-12.07179069519043
1481630031629,-10.389636039733887,-3.5365920066833496,-14.254044532775879
1481630031834,-13.35673713684082,0.5479563474655151,-7.525426864624023
1481630032038,-16.094125747680664,3.0963122844696045,-9.449256896972656
1481630032266,-5.661418437957764,-1.6414762735366821,-0.05503492057323456
1481630032507,-5.2977094650268555,-2.849851608276367,-2.062613010406494
1481630032730,-8.63330364227295,-0.07657032459974289,-3.2590243816375732
1481630032955,-9.221939086914062,1.9525433778762817,1.6342979669570923
1481630033193,-2.7900311946868896,10.717452049255371,-14.026725769042969
1481630033395,-2.445464611053467,9.131011009216309,-13.914262771606445
1481630033597,-3.273381233215332,7.0923261642456055,-10.954340934753418
1481630033824,-4.7712883949279785,7.994420051574707,-8.188239097595215
1481630034063,-12.87817096710205,-2.304288148880005,7.013362884521484
1481630034303,-8.791230201721191,-0.6652047038078308,2.5292134284973145
1481630034533,-9.4660062789917,2.65842604637146,0.48574298620224
1481630034750,-1.7706886529922485,12.337392807006836,-15.86441421508789
1481630034990,-7.015756130218506,5.879165172576904,-4.29750919342041
1481630035221,-4.651647090911865,5.55852746963501,-11.200803756713867
1481630035463,-10.470992088317871,0.43549373745918274,-12.770493507385254
1481630035701,-9.973284721374512,-6.424728870391846,-10.466205596923828
1481630035929,-4.106083393096924,-1.490728497505188,3.9529430866241455
1481630036145,-3.7902309894561768,-0.2919243574142456,5.343173027038574
1481630036389,-5.187639236450195,-1.1820544004440308,-0.19621144235134125
1481630036619,-6.9583282470703125,-4.101297855377197,-9.329615592956543
1481630036858,-3.3068809509277344,-3.4887356758117676,-11.229516983032227
1481630037098,-3.3786656856536865,3.235095977783203,-6.410372257232666
1481630037336,-3.2446675300598145,4.266402721405029,-10.24606704711914
1481630037583,-3.565305471420288,4.603790760040283,-15.617953300476074
1481630037786,-5.072784423828125,1.0360921621322632,2.03629207611084
1481630038016,-7.939385414123535,3.2829525470733643,0.5288137793540955
1481630038255,-12.830314636230469,1.6223337650299072,2.761317014694214
1481630038495,-14.534004211425781,0.16031910479068756,4.484149932861328
1481630038725,-13.462019920349121,0.787238597869873,2.7110681533813477
1481630038936,-11.600403785705566,1.5864413976669312,0.48574298620224
1481630039183,-11.739187240600586,2.043470621109009,1.1222338676452637
1481630039413,-7.23589563369751,5.697310447692871,-0.29431718587875366
1481630039653,-5.905486583709717,5.319244384765625,-1.117448091506958
1481630039893,-4.914857387542725,5.383851051330566,-1.660618782043457
1481630040116,-3.823730707168579,7.353143692016602,-2.902493953704834
1481630040337,-12.198609352111816,2.7349963188171387,1.7682960033416748
1481630040580,-14.940784454345703,2.620140790939331,2.9240293502807617
1481630040811,-10.52363395690918,3.25663161277771,0.0263210479170084
1481630041050,-5.005784511566162,5.790630340576172,-1.6534404754638672
1481630041290,-3.2590243816375732,7.142575740814209,-3.0269205570220947
1481630041519,-12.447463035583496,1.9884356260299683,3.507878065109253
1481630041729,-10.75813102722168,-0.04307081177830696,-3.7160534858703613
1481630041933,-10.571491241455078,-0.2847459018230438,-3.1274189949035645
1481630042176,-13.174880981445312,0.8781659603118896,0.5168496966362
1481630042377,-8.389235496520996,-0.8135597109794617,-4.505684852600098
1481630042607,-6.57547664642334,-0.8590233325958252,-5.450850009918213
1481630042849,-6.3601226806640625,-0.6005984544754028,-6.010770320892334
1481630043086,-7.264609336853027,0.7274181246757507,-4.713860511779785
1481630043316,-2.5986053943634033,-2.014756679534912,-5.5345988273620605
1481630043543,4.67078971862793,2.3545374870300293,-3.7016968727111816
1481630043776,2.0338993072509766,0.7130610942840576,-4.919642925262451
1481630044004,-0.30149564146995544,0.17706887423992157,-4.323830604553223
1481630044243,-2.5076780319213867,1.430907964706421,-3.273381233215332
1481630044483,-8.303093910217285,1.3663017749786377,-0.7513462901115417
1481630044713,-18.597017288208008,7.085147857666016,-1.3782659769058228
1481630044927,-18.597017288208008,7.929814338684082,1.550549030303955
1481630045171,-16.271194458007812,8.420342445373535,1.3878371715545654
1481630045412,-15.783059120178223,8.7505521774292,0.2584248483181
1481630045640,-24.172292709350586,3.7256247997283936,-1.1078768968582153
1481630045881,-18.17109489440918,4.615755081176758,-3.5054850578308105
1481630046110,-11.00698471069336,0.7441678047180176,-5.106283187866211
1481630046328,-5.2354960441589355,-1.727617859840393,-4.326223373413086
1481630046569,-9.619147300720215,2.3018953800201416,-6.199803352355957
1481630046799,-2.857030153274536,3.4432716369628906,-4.555934429168701
1481630047038,-3.8285160064697266,7.793423175811768,-2.2396819591522217
1481630047278,-5.862415313720703,6.161518096923828,-3.1992037296295166
1481630047509,-2.3976082801818848,7.231109619140625,-4.431507587432861
1481630047714,1.2969098091125488,6.917649745941162,-3.462414264678955
1481630047917,-12.098111152648926,7.668996810913086,1.3399806022644043
1481630048165,-15.974482536315918,6.010770320892334,5.606383323669434
1481630048396,-12.409178733825684,4.153940200805664,1.3040882349014282
1481630048635,-8.078168869018555,8.403593063354492,-1.7156537771224976
1481630048875,-10.37527847290039,0.4666004180908203,-4.299902439117432
1481630049105,-2.8905296325683594,3.665804386138916,-8.10688304901123
1481630049318,-7.6666035652160645,3.5198421478271484,-3.0005996227264404
1481630049563,-10.25563907623291,5.31685209274292,-1.8041881322860718
1481630049793,-8.403593063354492,3.768695831298828,0.11724831163883209
1481630050033,-14.409578323364258,4.479363918304443,4.730610370635986
1481630050272,-16.11326789855957,1.2227323055267334,4.484149932861328
1481630050503,-6.436692714691162,5.118247985839844,-2.0338993072509766
1481630050710,-13.811371803283691,4.876572608947754,5.12303352355957
1481630050958,-15.136996269226074,-0.3661018908023834,6.903293132781982
1481630051160,-12.897314071655273,2.8450663089752197,4.910072326660156
1481630051390,-7.652246475219727,7.317252159118652,2.565105676651001
1481630051630,-3.751945972442627,9.19561767578125,-2.6560330390930176
1481630051869,-5.570490837097168,-5.039284706115723,0.4091726541519165
1481630052099,-0.7752745151519775,-2.71346116065979,5.627918720245361
1481630052310,-1.727617859840393,-1.6965112686157227,6.367300987243652
1481630052558,-1.459621787071228,0.5359922647476196,9.150154113769531
1481630052787,-3.4983065128326416,-3.8213374614715576,-0.8685945868492126
1481630053027,-5.871986389160156,-7.39860725402832,-13.727622985839844
1481630053265,-8.60459041595459,-5.924628734588623,-15.256637573242188
1481630053466,-5.192424774169922,-7.544569969177246,-15.692131042480469
1481630053704,-4.479363918304443,-3.5581274032592773,-1.0911270380020142
1481630053955,-7.99681282043457,0.24885354936122894,-1.588834285736084
1481630054186,-10.825129508972168,-1.765903115272522,-6.671189785003662
1481630054424,-14.261221885681152,4.316651821136475,-8.796016693115234
1481630054663,-14.615361213684082,4.266402721405029,-9.812965393066406
1481630054893,-9.69093132019043,3.8572301864624023,-4.993820667266846
1481630055118,-9.504291534423828,4.316651821136475,-5.5106706619262695
1481630055350,-7.001399040222168,5.37906551361084,-11.933006286621094
1481630055582,-3.579662799835205,6.10169792175293,-10.631311416625977
1481630055821,-13.428520202636719,3.1178479194641113,2.71346116065979
1481630056061,-15.294922828674316,1.6390833854675293,3.4672000408172607
1481630056299,-12.710674285888672,3.500699520111084,-0.9690931439399719
1481630056548,-5.331209182739258,-3.2853453159332275,-1.1892328262329102
1481630056779,-2.8043880462646484,-5.024927616119385,1.9166508913040161
1481630056985,-4.852644443511963,-6.013163089752197,1.4859429597854614
1481630057217,-12.05504035949707,-1.7443678379058838,-5.0201416015625
1481630057418,-8.394021987915039,-4.1970109939575195,-2.1296122074127197
1481630057689,-7.508677005767822,-3.2997026443481445,-3.7328033447265625
1481630057896,-1.9238293170928955,0.35892340540885925,-9.66939640045166
1481630058147,-2.234896183013916,5.204389572143555,-12.593424797058105
1481630058376,-5.292923927307129,4.041477203369141,-8.784051895141602
1481630058614,-6.766902446746826,4.867001533508301,-2.9001009464263916
1481630058815,-5.536991596221924,5.783452033996582,-8.6907320022583
1481630059086,-14.701501846313477,2.3186452388763428,4.938785552978516
1481630059293,-14.66800308227539,3.8045878410339355,5.197210788726807
1481630059546,-7.441678524017334,5.041677951812744,-0.9308080077171326
1481630059774,-5.637490272521973,6.096912384033203,-7.487142086029053
1481630060013,-9.116654396057129,-4.194617748260498,-14.024333000183105
1481630060252,-15.232709884643555,0.7393822073936462,-12.184252738952637
1481630060479,-16.87418556213379,1.4045867919921875,-11.181660652160645
1481630060698,-14.58186149597168,4.156332969665527,-10.03549861907959
1481630060940,-12.978670120239258,3.9074790477752686,-9.205188751220703
1481630061171,-13.462019920349121,2.407179594039917,-9.820144653320312
1481630061410,-12.42832088470459,3.902693748474121,-10.224532127380371
1481630061650,-12.748958587646484,8.432307243347168,-11.373086929321289
1481630061879,-12.179466247558594,3.768695831298828,-10.126425743103027
1481630062089,-7.28375244140625,-2.7804601192474365,-6.812366485595703
1481630062297,-3.2542388439178467,-1.727617859840393,-11.803793907165527
1481630062536,-6.939186096191406,-2.321038007736206,-7.542177200317383
1481630062738,-2.0817556381225586,-0.4498506784439087,-8.267202377319336
1481630062967,-8.461020469665527,3.4672000408172607,-4.7234320640563965
1481630063205,-15.132209777832031,5.259423732757568,-2.062613010406494
1481630063406,-4.058227062225342,2.196611166000366,-7.747959613800049
1481630063645,-4.7712883949279785,3.759124279022217,-5.852844715118408
1481630063884,-8.791230201721191,2.8689942359924316,-4.108476161956787
1481630064134,-12.184252738952637,1.6965112686157227,0.36370906233787537
1481630064335,-12.629318237304688,-0.8949156999588013,-1.3280165195465088
1481630064564,-12.949954986572266,1.3375877141952515,4.4243292808532715
1481630064804,-12.011969566345215,-0.3278167247772217,1.672582983970642
1481630065043,-11.0835542678833,4.199403762817383,-0.8422735333442688
1481630065270,-12.954741477966309,1.8831514120101929,3.208775281906128
1481630065487,-13.572090148925781,0.21296121180057526,4.058227062225342
1481630065731,-11.925827980041504,2.0099709033966064,3.998406410217285
1481630065961,-12.715458869934082,-1.8352948427200317,5.706881999969482
1481630066199,-13.26102352142334,-0.8877372145652771,5.864808082580566
1481630066400,-12.973884582519531,1.2251251935958862,4.3381876945495605
1481630066669,-13.122239112854004,-0.8470591902732849,6.029913425445557
1481630066872,-9.633503913879395,5.056034088134766,-0.4019941985607147
1481630067079,-7.805387496948242,4.063012599945068,-3.115455150604248
1481630067328,-6.197411060333252,3.988835573196411,-5.264209270477295
1481630067558,-5.259423732757568,5.757131576538086,-12.294322967529297
1481630067772,-4.168296813964844,9.542576789855957,-11.509476661682129
1481630067996,-4.000799655914307,6.252446174621582,-11.014162063598633
1481630068236,-3.1728827953338623,7.171289443969727,-14.957533836364746
1481630068464,-6.532405853271484,6.166304588317871,-10.25324535369873
1481630068675,-8.221738815307617,3.634697675704956,-6.369694232940674
1481630068886,-9.083154678344727,2.029113531112671,-3.012563943862915
1481630069125,-5.532205581665039,4.278366565704346,-9.214759826660156
1481630069354,-4.60857629776001,4.766502857208252,-11.894721984863281
1481630069594,-3.603590488433838,1.9621145725250244,-11.207980155944824
1481630069834,-8.934800148010254,1.0863415002822876,-4.910072326660156
1481630070072,-8.169095993041992,2.1511476039886475,-4.53200626373291
1481630070321,-2.0099709033966064,-0.06939186155796051,5.218745708465576
1481630070562,1.234696388244629,-0.2799602448940277,6.439085483551025
1481630070790,-11.787044525146484,-4.785645484924316,-4.096512317657471
1481630070992,-6.374479293823242,-3.988835573196411,-1.5170495510101318
1481630071230,-8.60459041595459,-3.6370904445648193,-2.289931058883667
1481630071458,-5.819344997406006,-3.594019651412964,2.0195422172546387
1481630071677,-20.204992294311523,1.4069796800613403,-9.90389347076416
1481630071917,-17.69253158569336,2.0027925968170166,1.9740787744522095
1481630072149,-10.25563907623291,2.9623143672943115,-2.926422357559204
1481630072388,-0.4019941985607147,4.682754039764404,-7.2574310302734375
1481630072628,2.321038007736206,5.44845724105835,-14.179865837097168
1481630072858,0.5982056856155396,3.3092737197875977,-15.232709884643555
1481630073075,-14.682358741760254,2.8139593601226807,1.1509476900100708
1481630073316,-15.079567909240723,2.988635540008545,3.043670415878296
1481630073546,-16.15633773803711,5.898308277130127,0.5670989155769348
1481630073789,-15.409777641296387,-5.292923927307129,-10.169495582580566
1481630074025,-17.113466262817383,1.6247265338897705,-8.02074146270752
1481630074255,-15.845272064208984,4.443471908569336,-8.592625617980957
1481630074468,-10.691130638122559,-3.3236305713653564,-0.29431718587875366
1481630074714,-1.6223337650299072,5.647061824798584,-12.067005157470703
1481630074943,-6.991827487945557,4.709074974060059,-6.561119556427002
1481630075183,-13.907085418701172,0.4163511395454407,0.8494520783424377
1481630075422,-12.619746208190918,3.754338502883911,3.675375461578369
1481630075661,-12.524033546447754,3.8596229553222656,-1.3351951837539673
1481630075873,-19.889142990112305,2.8666017055511475,7.558926582336426
1481630076110,-16.098909378051758,2.854637384414673,6.723831653594971
1481630076340,-19.75035858154297,3.2279179096221924,11.057233810424805
1481630076580,-18.03709602355957,4.974678039550781,6.508477687835693
1481630076820,-13.576875686645508,4.390829563140869,3.5294132232666016
1481630077049,-10.332208633422852,4.271188735961914,2.0578274726867676
1481630077257,-6.307480335235596,6.984649658203125,-0.3900300860404968
1481630077507,-6.221338748931885,8.061419486999512,0.7680960297584534
1481630077738,-7.441678524017334,2.069791555404663,-7.171289443969727
1481630077977,-7.6905317306518555,-0.8949156999588013,-7.862814903259277
1481630078216,-14.194223403930664,4.036691665649414,-4.106083393096924
1481630078448,-8.030312538146973,-1.0743772983551025,-6.039484024047852
1481630078655,-6.585048198699951,-2.833101987838745,-6.711867332458496
1481630078905,-7.75753116607666,-0.014356935396790504,-5.257031440734863
1481630079106,2.0673987865448,-2.4670000076293945,-6.558726787567139
1481630079334,-4.015156269073486,-2.2851457595825195,-8.336593627929688
1481630079542,-9.934999465942383,-0.35892340540885925,0.4259224236011505
1481630079774,-8.992227554321289,-0.7992027401924133,-4.54636287689209
1481630080013,-10.667202949523926,-1.2442678213119507,-5.752345561981201
1481630080243,-15.811772346496582,1.160519003868103,-9.765109062194824
1481630080461,-3.263810157775879,-3.1250264644622803,3.933800458908081
1481630080702,-4.8191447257995605,-2.8187451362609863,2.342573404312134
1481630080932,-12.303894996643066,2.445464611053467,-15.850056648254395
1481630081171,-17.127824783325195,0.6532405614852905,-10.353742599487305
1481630081410,-18.707088470458984,1.8161523342132568,-8.300702095031738
1481630081630,-15.620347023010254,-0.14835500717163086,-6.412764549255371
1481630081852,-11.95454216003418,-0.17706887423992157,-5.345565319061279
1481630082098,-4.680361270904541,-2.447857618331909,-3.115455150604248
1481630082329,-8.446663856506348,5.66620397567749,3.445664882659912
1481630082568,-10.820343971252441,6.532405853271484,-2.988635540008545
1481630082807,-13.60080337524414,8.764908790588379,-4.88853645324707
1481630083038,-12.969098091125488,4.022334575653076,-4.187439441680908
1481630083254,-8.370094299316406,-0.5455635190010071,-3.5533416271209717
1481630083495,-6.254837989807129,-0.0813559740781784,-3.1345977783203125
1481630083696,-3.823730707168579,-1.4141581058502197,-3.4025940895080566
1481630083926,-7.432106971740723,2.1678972244262695,-3.3714869022369385
1481630084165,-9.231510162353516,4.5128631591796875,-3.69930362701416
1481630084404,-10.772488594055176,6.398407459259033,-0.3038884699344635
1481630084643,-13.442877769470215,4.445864677429199,3.235095977783203
1481630084890,-11.069197654724121,2.761317014694214,0.35892340540885925
1481630085092,-13.931013107299805,3.6155548095703125,5.125426292419434
1481630085323,-13.916656494140625,2.062613010406494,-0.1986042857170105
1481630085563,-12.705887794494629,1.8592231273651123,-1.9597216844558716
1481630085802,-8.159524917602539,1.7204395532608032,-5.216352939605713
1481630086030,-4.642076015472412,2.5603203773498535,-6.175874710083008
1481630086238,-1.1341978311538696,7.487142086029053,-11.674582481384277
1481630086439,-8.082954406738281,5.175675392150879,-3.414557933807373
1481630086691,-2.589033842086792,6.690331935882568,-14.404792785644531
1481630086920,-4.364508152008057,4.101297855377197,-7.355536937713623
1481630087159,-13.864013671875,0.2967100143432617,2.1296122074127197
1481630087398,-8.408378601074219,3.759124279022217,-3.0340991020202637
1481630087629,-12.753745079040527,2.603391170501709,2.6871397495269775
1481630087836,-11.050054550170898,1.1006983518600464,5.12303352355957
1481630088088,-7.322037220001221,5.960521221160889,-6.570690631866455
1481630088317,-4.728217601776123,4.0247273445129395,-5.1565327644348145
1481630088557,-12.514461517333984,2.7014968395233154,0.5096712112426758
1481630088795,-14.787644386291504,0.7968099117279053,-10.191031455993652
1481630089026,-14.175081253051758,0.24646073579788208,-10.279565811157227
1481630089235,-14.644074440002441,5.340780735015869,-11.693723678588867
1481630089484,-6.206982612609863,-0.882951557636261,-1.1772687435150146
1481630089720,-4.704289436340332,-3.019742012023926,-0.11964112520217896
1481630089953,-2.4598214626312256,5.948556900024414,-2.557927370071411
1481630090154,-1.2490534782409668,11.040483474731445,-5.840879917144775
1481630090393,-4.091726779937744,7.788637638092041,-6.147161483764648
1481630090623,-6.541977405548096,5.883951187133789,-2.328216552734375
1481630090840,-7.81974458694458,1.37587308883667,-0.2751745879650116
1481630091080,-6.656832218170166,7.329216003417969,-2.7182462215423584
1481630091311,-8.997013092041016,-0.760917603969574,0.8087739944458008
1481630091551,-9.183652877807617,0.9427721500396729,2.031506299972534
1481630091790,-11.45683479309082,0.009571290574967861,3.8333017826080322
1481630092019,-13.792229652404785,-1.0408778190612793,7.149754047393799
1481630092239,-11.475976943969727,-0.7322037816047668,-0.729810893535614
1481630092478,-11.68175983428955,-0.6436693072319031,-13.12702465057373
1481630092708,-13.016955375671387,1.6342979669570923,-13.160524368286133
1481630092948,-10.667202949523926,0.11964112520217896,-8.590232849121094
1481630093187,-10.738987922668457,2.6632115840911865,0.16510476171970367
1481630093416,-6.723831653594971,0.004785645287483931,-1.7491532564163208
1481630093625,-10.786844253540039,-10.413564682006836,1.6510475873947144
1481630093827,-9.906286239624023,-2.421536445617676,0.7776673436164856
1481630094076,-11.897113800048828,-1.65583336353302,-0.11964112520217896
1481630094305,-7.733603000640869,-0.16031910479068756,-2.2564315795898438
1481630094545,-6.972684860229492,5.127819538116455,-10.590633392333984
1481630094784,-4.192224979400635,4.493720531463623,-19.441682815551758
1481630095015,-2.5124638080596924,8.188239097595215,-12.20339584350586
1481630095237,-9.236295700073242,1.3519448041915894,1.6414762735366821
1481630095472,-16.788043975830078,0.44027936458587646,-1.4045867919921875
1481630095702,-9.896714210510254,0.8015955686569214,-2.792424201965332
1481630095942,-17.142181396484375,-1.1892328262329102,3.2757742404937744
1481630096182,-15.079567909240723,3.972085475921631,-3.28773832321167
1481630096411,-5.958127975463867,-1.6271194219589233,-0.8853443264961243
1481630096627,-5.498706817626953,-3.476771354675293,-1.3112668991088867
1481630096869,-7.891529560089111,-3.912264823913574,-5.517848491668701
1481630097100,-5.101497650146484,-1.6797614097595215,-5.295316696166992
1481630097339,3.809373617172241,-1.7204395532608032,-8.571090698242188
1481630097579,3.7663028240203857,1.0432707071304321,-9.698110580444336
1481630097813,0.7322037816047668,0.009571290574967861,-12.713067054748535
1481630098016,-5.034498691558838,1.9908283948898315,-7.735995292663574
1481630098218,-3.2685959339141846,7.946564197540283,-6.33380126953125
1481630098466,-2.124826431274414,6.168696403503418,-9.753145217895508
1481630098696,-1.6654045581817627,2.1511476039886475,-10.425528526306152
1481630098936,-9.212367057800293,1.9621145725250244,-4.72582483291626
1481630099175,-14.031512260437012,-1.3112668991088867,-9.05683422088623
1481630099384,-13.543376922607422,-2.3066811561584473,-9.4660062789917
1481630099599,-12.495319366455078,-1.5601203441619873,-6.510870456695557
1481630099828,-2.541177749633789,7.3052873611450195,-6.142375946044922
1481630100063,-2.1343977451324463,11.093125343322754,-11.49512004852295
1481630100293,-5.484349250793457,6.393621921539307,-7.582855224609375
1481630100537,-15.409777641296387,3.778266668319702,-2.0865414142608643
1481630100772,-16.663616180419922,3.428915023803711,0.23449662327766418
1481630101002,-8.2695951461792,2.675175428390503,-5.1637115478515625
1481630101217,-1.5026925802230835,1.0360921621322632,-7.496713638305664
1481630101460,-5.66620397567749,1.2227323055267334,-5.86720085144043
1481630101690,-5.240281581878662,1.7515461444854736,-7.793423175811768
1481630101930,-7.22153902053833,-3.3714869022369385,-9.93260669708252
1481630102169,-13.12702465057373,-3.407379388809204,-12.440284729003906
1481630102397,-8.063812255859375,-3.586841106414795,-5.247459888458252
1481630102613,-11.365907669067383,4.689932346343994,-9.339186668395996
1481630102856,-13.96929931640625,-1.368694543838501,-8.898907661437988
1481630103058,-7.944170951843262,-0.7250252366065979,-2.3018953800201416
1481630103287,-10.662418365478516,2.0578274726867676,4.316651821136475
1481630103527,-14.084153175354004,0.8159525394439697,1.84965181350708
1481630103765,-15.87398624420166,2.3856441974639893,0.8805587291717529
1481630103997,-2.895315170288086,6.008377552032471,-8.286344528198242
1481630104204,0.28235307335853577,8.181060791015625,-10.588239669799805
1481630104454,-7.034898281097412,-2.4502503871917725,-10.13599681854248
1481630104685,-7.987241268157959,1.2873386144638062,-7.496713638305664
1481630104925,-8.154739379882812,-3.438485860824585,-4.2831525802612305
1481630105164,-6.73818826675415,2.177468776702881,-3.8500516414642334
1481630105391,-11.404192924499512,-1.6199408769607544,3.3427734375
1481630105609,-6.302694320678711,4.29750919342041,1.00259268283844
1481630105851,-4.890929222106934,9.714859962463379,-2.612962245941162
1481630106082,-6.872186660766602,5.886343479156494,-0.08853443711996078
1481630106321,-10.011569023132324,-1.2825528383255005,-3.2303104400634766
1481630106561,-13.777873039245605,0.430708110332489,5.434100151062012
1481630106790,-12.385249137878418,-1.0791629552841187,5.333601474761963
1481630106997,-15.132209777832031,-0.04785645008087158,3.665804386138916
1481630107199,-11.968899726867676,6.206982612609863,-10.243673324584961
1481630107448,-9.174081802368164,0.0263210479170084,-4.7712883949279785
1481630107679,-8.197811126708984,-3.1345977783203125,-3.136990547180176
1481630107918,-6.905685901641846,-5.120640754699707,-0.5264209508895874
1481630108156,-5.249853134155273,-8.274380683898926,1.1078768968582153
1481630108386,-6.905685901641846,7.056434154510498,-6.879364967346191
1481630108597,-6.790830135345459,6.620940208435059,-5.647061824798584
1481630108844,-4.321437358856201,5.2283172607421875,-5.54177713394165
1481630109073,-4.704289436340332,5.790630340576172,-4.764110088348389
1481630109290,-8.930014610290527,4.9292144775390625,-4.393222332000732
1481630109516,-7.786244869232178,4.912464618682861,-2.6488547325134277
1481630109755,-5.2977094650268555,5.436492443084717,-2.6847469806671143
1481630109986,-11.030912399291992,8.980262756347656,1.6414762735366821
1481630110204,-0.2584248483181,7.046862602233887,-6.9583282470703125
1481630110442,0.6699903011322021,5.773881435394287,-10.662418365478516
1481630110673,0.24406792223453522,7.896315097808838,-9.836893081665039
1481630110913,-3.0005996227264404,6.075376510620117,-11.198410987854004
1481630111153,-4.517649173736572,1.5361920595169067,-10.514062881469727
1481630111380,-3.211168050765991,-5.711667537689209,-10.023534774780273
1481630111608,-2.416750907897949,-7.384250640869141,-11.861222267150879
1481630111840,-6.455835819244385,-2.636890411376953,-4.223331928253174
1481630112070,-9.145368576049805,-0.760917603969574,-2.0673987865448
1481630112310,-16.57747459411621,4.156332969665527,4.642076015472412
1481630112549,-9.025726318359375,4.417150497436523,-2.4885356426239014
1481630112779,-11.791830062866211,4.029513359069824,-3.046063184738159
1481630112996,-8.298308372497559,4.1970109939575195,-3.036492109298706
1481630113236,-6.714260101318359,5.0871405601501465,0.5718846321105957
1481630113438,-11.35633659362793,0.6747759580612183,2.1607186794281006
1481630113667,-12.074182510375977,5.845665454864502,1.581655740737915
1481630113907,-13.189238548278809,6.443871021270752,2.266003131866455
1481630114146,-15.31885051727295,6.003591537475586,4.950750350952148
1481630114375,-15.117853164672852,1.6007983684539795,3.4432716369628906
1481630114586,-16.65404510498047,2.8929224014282227,4.768895626068115
1481630114790,0.4019941985607147,8.140382766723633,-4.639683246612549
1481630115034,-8.95394229888916,3.9768712520599365,-2.249253273010254
1481630115264,-6.537191867828369,4.589433670043945,-3.9457647800445557
1481630115504,-3.239881753921509,3.4025940895080566,-5.484349250793457
1481630115743,-0.8709874749183655,4.417150497436523,-6.719045639038086
1481630115973,-1.4883356094360352,4.295116424560547,-7.28375244140625
1481630116187,-10.63848876953125,5.386244297027588,-3.194417953491211
1481630116431,-11.33240795135498,1.5361920595169067,-4.1898322105407715
1481630116661,-16.998611450195312,0.6149553656578064,-10.875378608703613
1481630116901,-15.763916015625,2.132004976272583,-8.513663291931152
1481630117140,-13.548161506652832,2.366501569747925,-5.72123908996582
1481630117361,-16.309478759765625,4.340579986572266,-7.274180889129639
1481630117594,-14.725430488586426,4.644468784332275,-6.675975322723389
1481630117828,-14.30907917022705,3.263810157775879,-6.1399827003479
1481630118058,-12.969098091125488,4.299902439117432,-6.355337142944336
1481630118297,-10.332208633422852,-0.6604190468788147,-3.751945972442627
1481630118537,-11.940185546875,-1.038485050201416,-1.3830513954162598
1481630118775,-14.012369155883789,2.1056838035583496,3.4121649265289307
1481630118979,-11.45205020904541,1.6031911373138428,-2.225324869155884
1481630119225,-11.533404350280762,0.6652047038078308,0.3349951505661011
1481630119465,-10.987841606140137,1.2203395366668701,0.2799602448940277
1481630119695,-12.011969566345215,1.88075852394104,1.1629117727279663
1481630119935,-14.414361953735352,-0.6269195079803467,3.060420036315918
1481630120162,-10.968698501586914,2.366501569747925,0.4211367666721344
1481630120368,-6.034698486328125,2.9144580364227295,-6.553941249847412
1481630120575,-5.225924491882324,4.919642925262451,-7.381857395172119
1481630120823,-7.168896198272705,5.333601474761963,-5.259423732757568
1481630121052,-9.073582649230957,5.0943193435668945,-4.23529577255249
1481630121292,-11.160124778747559,1.9046868085861206,-2.021935224533081
1481630121532,-19.463218688964844,3.6873397827148438,2.2085752487182617
1481630121759,-8.403593063354492,7.259823799133301,-4.065405368804932
1481630121968,-3.2781667709350586,2.5770699977874756,-8.73619556427002
1481630122174,-2.895315170288086,6.037091255187988,-12.921241760253906
1481630122417,-3.4408791065216064,2.706282377243042,-10.155139923095703
1481630122649,-1.062413215637207,4.378865718841553,-11.105090141296387
1481630122862,-1.3878371715545654,3.369094133377075,-12.007183074951172
1481630123087,-7.4464640617370605,-0.05982056260108948,-2.610569477081299
1481630123288,-11.514263153076172,0.916451096534729,-5.654239654541016
1481630123557,-4.756931304931641,-3.5772697925567627,1.9956141710281372
1481630123772,-8.638089179992676,-3.8524444103240967,0.6293123364448547
1481630124015,-8.250452041625977,1.8424735069274902,2.021935224533081
1481630124245,-10.303494453430176,4.383650779724121,-0.7010970115661621
1481630124488,-12.634103775024414,0.14835500717163086,3.4887356758117676
1481630124725,-10.786844253540039,1.3471590280532837,1.9070796966552734
1481630124955,-6.106483459472656,6.08016300201416,-3.4911282062530518
1481630125170,-9.255437850952148,1.3399806022644043,-1.9740787744522095
1481630125412,-12.461820602416992,2.043470621109009,3.2446675300598145
1481630125643,-13.304093360900879,17.27617835998535,18.43191146850586
1481630125883,-8.824729919433594,7.568498134613037,0.5862415432929993
1481630126122,-11.279767036437988,1.3663017749786377,-0.04307081177830696
1481630126351,-11.83011531829834,4.876572608947754,5.288137912750244
1481630126568,-11.22233772277832,5.402993679046631,-2.03629207611084
1481630126810,-6.948756694793701,-0.22492533922195435,-2.65842604637146
1481630127041,-9.920641899108887,-0.43549373745918274,-9.521041870117188
1481630127279,-7.968099594116211,8.343771934509277,3.1082763671875
1481630127520,-10.7437744140625,9.930214881896973,3.594019651412964
1481630127749,-15.002998352050781,9.698110580444336,7.17368221282959
1481630127960,-17.77867317199707,12.978670120239258,8.877371788024902
1481630128207,-14.505290985107422,21.15015983581543,14.825928688049316
1481630128438,-2.981456995010376,-3.0723841190338135,-3.2374887466430664
1481630128680,-4.498506546020508,-4.161118507385254,-4.577469348907471
1481630128917,-5.991628170013428,-1.6654045581817627,-2.132004976272583
1481630129147,-4.120440483093262,-9.762716293334961,-3.2446675300598145
1481630129360,-7.700103282928467,-8.669197082519531,-2.8833510875701904
1481630129605,-3.31166672706604,6.587440490722656,-5.391028881072998
1481630129809,-5.307280540466309,6.106483459472656,-5.491527557373047
1481630130035,-5.039284706115723,4.998606204986572,-4.527220726013184
1481630130273,-6.451050281524658,6.343372344970703,-3.8333017826080322
1481630130514,-3.0723841190338135,10.191031455993652,-6.458228588104248
1481630130744,-10.269994735717773,4.187439441680908,0.38285160064697266
1481630130959,-12.227323532104492,1.8472589254379272,6.496513843536377
1481630131200,-14.629717826843262,2.366501569747925,9.111868858337402
1481630131432,-12.739388465881348,1.184447169303894,3.4097721576690674
1481630131672,-12.122039794921875,8.047062873840332,-3.34995174407959
1481630131912,-14.993427276611328,15.103496551513672,-16.6779727935791
1481630132150,-14.543575286865234,5.058426856994629,-15.328421592712402
1481630132357,-9.231510162353516,0.3493521213531494,-14.237295150756836
1481630132599,-4.555934429168701,2.730210542678833,-3.5844480991363525
1481630132829,-2.885744333267212,3.2853453159332275,-6.872186660766602
1481630133068,-1.1724830865859985,2.0267207622528076,-6.963113307952881
1481630133308,-0.3732803165912628,2.1607186794281006,-4.744967460632324
1481630133539,0.03349951654672623,1.9262222051620483,-5.43170690536499
1481630133756,-4.484149932861328,1.3974084854125977,-5.8337016105651855
1481630133997,-9.623932838439941,1.1820544004440308,-0.2991028428077698
1481630134225,-11.94497013092041,8.25284481048584,5.706881999969482
1481630134426,-11.413763999938965,2.5435702800750732,6.599405288696289
1481630134641,-5.034498691558838,9.166903495788574,-4.792823314666748
1481630134865,-2.589033842086792,7.9585280418396,-8.104490280151367
1481630135105,-2.2923240661621094,7.39860725402832,-9.992427825927734
1481630135338,-3.5700912475585938,9.664610862731934,-4.577469348907471
1481630135546,-10.906485557556152,6.9511494636535645,3.919443368911743
1481630135793,-11.633904457092285,5.891129493713379,5.991628170013428
1481630136023,-11.45205020904541,7.223931312561035,4.893322467803955
1481630136262,-13.557732582092285,5.656632423400879,5.737988471984863
1481630136502,-13.299307823181152,3.4097721576690674,4.7712883949279785
1481630136729,-14.155938148498535,3.3236305713653564,3.16331148147583
1481630136955,-7.6666035652160645,4.247260093688965,-3.998406410217285
1481630137188,-12.76331615447998,5.716453552246094,2.548356056213379
1481630137420,-11.026127815246582,5.400600433349609,0.5072783827781677
1481630137658,-5.331209182739258,1.950150489807129,-8.212166786193848
1481630137859,-3.460021495819092,2.5674986839294434,-7.697710037231445
1481630138129,-8.063812255859375,4.627718925476074,-1.7156537771224976
1481630138337,-13.50987720489502,5.752345561981201,3.620340585708618
1481630138588,-10.461421012878418,4.914857387542725,-1.514656662940979
1481630138817,-3.9050867557525635,4.302295207977295,-9.942178726196289
1481630139057,-2.2444677352905273,6.058626651763916,-11.380265235900879
1481630139296,-3.1585259437561035,5.003392219543457,-11.088340759277344
1481630139527,-3.273381233215332,7.161717891693115,-10.286745071411133
1481630139740,-7.6666035652160645,3.7184462547302246,-3.5294132232666016
1481630139984,-10.691130638122559,2.227717876434326,2.263610363006592
1481630140215,-11.490333557128906,1.813759446144104,2.9144580364227295
1481630140457,-8.843873023986816,5.082355499267578,-1.7084753513336182
1481630140694,-4.019941806793213,6.561119556427002,-9.284152030944824
1481630140924,-4.225724697113037,5.127819538116455,-4.409972190856934
1481630141131,-10.102496147155762,4.847858428955078,-1.3663017749786377
1481630141382,-8.642874717712402,5.37188720703125,-2.8761727809906006
1481630141612,-1.0241280794143677,6.486942291259766,-6.33380126953125
1481630141851,1.191625714302063,6.147161483764648,-8.090132713317871
1481630142091,-0.8662018179893494,1.7491532564163208,-6.498906135559082
1481630142314,-6.680760860443115,-1.5050854682922363,-0.2105683833360672
1481630142539,-15.649059295654297,4.240081787109375,-9.621540069580078
1481630142779,-14.93599796295166,1.1581261157989502,-8.891729354858398
1481630143009,-16.706687927246094,-0.04546363279223442,-7.719245910644531
1481630143248,-5.560920238494873,-4.780859470367432,-0.6317051649093628
1481630143487,-1.4691929817199707,-5.201996326446533,2.1056838035583496
1481630143719,-6.570690631866455,1.093519926071167,-3.649054527282715
1481630143944,-9.279366493225098,-1.4572290182113647,-3.235095977783203
1481630144179,-4.7234320640563965,-8.49452018737793,1.660618782043457
1481630144408,-6.991827487945557,-3.996013641357422,-1.9764715433120728
1481630144646,-9.360722541809082,2.2612173557281494,-4.6372904777526855
1481630144885,-11.787044525146484,0.9906285405158997,-6.096912384033203
1481630145116,-7.240681171417236,-4.3381876945495605,-3.6945178508758545
1481630145323,-3.460021495819092,6.434299945831299,-5.943771839141846
1481630145574,-2.263610363006592,11.102697372436523,-4.847858428955078
1481630145804,-2.919243574142456,11.310873031616211,-6.451050281524658
1481630146043,-4.972285747528076,9.657432556152344,-1.9669002294540405
1481630146285,-5.804987907409668,8.157133102416992,-1.3830513954162598
1481630146512,-1.3112668991088867,11.966506004333496,-5.680561065673828
1481630146721,-1.9669002294540405,12.081361770629883,-5.848058700561523
1481630146968,-3.7328033447265625,12.09093189239502,-4.441079139709473
1481630147207,-5.312066078186035,12.899706840515137,-3.830909013748169
1481630147440,-2.2061824798583984,12.612567901611328,-5.907878875732422
1481630147680,-3.1441688537597656,9.846465110778809,-5.816952228546143
1481630147913,-4.627718925476074,10.693524360656738,-5.108676433563232
1481630148117,-3.2207393646240234,7.661818027496338,-4.977071285247803
1481630148318,-4.53200626373291,3.335594892501831,-3.9457647800445557
1481630148519,-7.345965385437012,3.8261232376098633,-4.048655986785889
1481630148766,-4.90528678894043,3.6227335929870605,-4.553541660308838
1481630148997,-3.31166672706604,4.4243292808532715,-5.115854740142822
1481630149205,-7.546962738037109,4.883750915527344,-4.852644443511963
1481630149436,-7.412964344024658,4.869394302368164,-4.685146808624268
1481630149676,-4.938785552978516,4.59421968460083,-6.532405853271484
1481630149899,-6.666403770446777,5.513063907623291,-5.876771926879883
1481630150108,-7.886743545532227,4.790431022644043,-3.515056610107422
1481630150313,-6.283552646636963,7.278966426849365,-11.188838958740234
1481630150514,-3.6562328338623047,5.996413230895996,-9.628718376159668
1481630150760,-3.5222349166870117,4.814359188079834,-11.2366943359375
1481630150964,-4.890929222106934,8.365307807922363,-11.882757186889648
1481630151192,-9.126225471496582,-1.2251251935958862,1.6677974462509155
1481630151432,-7.058826446533203,4.407578945159912,2.352144718170166
1481630151672,-5.010570526123047,10.399208068847656,-10.040283203125
1481630151902,-2.407179594039917,2.895315170288086,-0.34695929288864136
1481630152112,-0.8949156999588013,4.6133623123168945,-3.572484016418457
1481630152359,-0.8327022790908813,4.2831525802612305,-7.850851535797119
1481630152590,-11.46640682220459,-1.2586246728897095,-3.0101709365844727
1481630152830,-9.4660062789917,-0.5718846321105957,-6.099304676055908
1481630153069,-6.10169792175293,-3.4911282062530518,-1.361515998840332
1481630153297,-11.423335075378418,0.41874396800994873,-6.465407371520996
1481630153508,-6.51326322555542,-5.560920238494873,0.7920243144035339
1481630153757,-3.0149567127227783,-7.7383880615234375,4.2209391593933105
1481630153986,-11.021341323852539,-7.554140567779541,-0.9236294627189636
1481630154187,-1.3639088869094849,5.2115678787231445,-6.204589366912842
1481630154398,-9.298508644104004,1.3088740110397339,-2.0195422172546387
1481630154626,-8.752944946289062,1.6175479888916016,-0.9834501147270203
1481630154865,-8.087740898132324,4.426721572875977,-3.5772697925567627
1481630155096,-13.993226051330566,-5.034498691558838,9.20279598236084
1481630155307,-10.236495971679688,0.5838487148284912,2.5938196182250977
1481630155553,-4.90528678894043,7.286144733428955,-6.838686943054199
1481630155784,-2.1104695796966553,10.013962745666504,-18.281166076660156
1481630156024,-1.210768222808838,9.066404342651367,-18.080167770385742
1481630156265,-0.49292147159576416,2.469392776489258,-12.753745079040527
1481630156495,-3.7567315101623535,3.369094133377075,-3.864408254623413
1481630156709,-11.289338111877441,-2.4981069564819336,-1.954936146736145
1481630156952,-7.83410120010376,-1.7395820617675781,-9.92542839050293
1481630157180,-9.954142570495605,-0.19381862878799438,-7.479963302612305
1481630157420,-6.546762466430664,3.160918712615967,6.017949104309082
1481630157660,-5.134997367858887,2.7804601192474365,12.880563735961914
1481630157889,-5.852844715118408,1.4093725681304932,12.208181381225586
1481630158107,-7.412964344024658,0.2105683833360672,10.956734657287598
1481630158348,-6.388835906982422,-1.0552347898483276,-6.829115867614746
1481630158577,-4.618147850036621,-0.2871387302875519,-2.4717857837677
1481630158778,-7.637890338897705,-3.177668571472168,3.524627923965454
1481630159017,-10.581062316894531,2.5459630489349365,0.9427721500396729
1481630159256,-11.71526050567627,-0.861416220664978,1.9716858863830566
1481630159490,-12.16032600402832,0.031106693670153618,2.390429735183716
1481630159707,-12.165109634399414,3.8668015003204346,-0.3326023519039154
1481630159945,-10.02592658996582,-0.9260223507881165,-9.765109062194824
1481630160146,-3.9146575927734375,-0.37806597352027893,-7.951349258422852
1481630160374,-5.345565319061279,1.9118653535842896,-3.9050867557525635
1481630160582,-13.533804893493652,4.206582069396973,-3.486342430114746
1481630160816,-13.433306694030762,1.2586246728897095,-4.883750915527344
1481630161053,-4.335794448852539,-1.2227323055267334,-7.52303409576416
1481630161293,-10.064212799072266,7.362715244293213,-0.31345975399017334
1481630161542,-7.862814903259277,-0.22971096634864807,5.182853698730469
1481630161772,-9.556933403015137,4.012763977050781,-3.31884503364563
1481630162012,-9.489934921264648,-4.615755081176758,0.12921242415905
1481630162252,-7.508677005767822,-3.4887356758117676,-1.8472589254379272
1481630162483,-4.938785552978516,-1.5792629718780518,-6.068198204040527
1481630162690,-5.694917678833008,1.1653046607971191,-4.082155227661133
1481630162941,-15.16571044921875,-2.5435702800750732,5.938986301422119
1481630163169,-10.533205032348633,0.9116654396057129,4.572684288024902
1481630163409,-8.906085968017578,4.409972190856934,2.0171494483947754
1481630163647,-4.65643310546875,10.695917129516602,-3.400200843811035
1481630163878,-11.313264846801758,4.6133623123168945,5.091926097869873
1481630164086,-11.064411163330078,8.374878883361816,7.020541667938232
1481630164292,-16.04148292541504,6.31944465637207,9.89432144165039
1481630164535,-14.467005729675293,8.341379165649414,5.402993679046631
1481630164736,-16.682758331298828,5.50349235534668,7.661818027496338
1481630164966,-15.534204483032227,4.953143119812012,8.9371919631958
1481630165205,-12.997812271118164,5.31685209274292,7.896315097808838
1481630165444,-14.155938148498535,6.02512788772583,10.176674842834473
1481630165674,-12.916457176208496,7.144968032836914,10.186245918273926
1481630165884,-12.366107940673828,-0.038285162299871445,4.187439441680908
1481630166133,-9.987641334533691,4.448256969451904,0.8973084688186646
1481630166363,-12.75853157043457,7.372286796569824,2.531606435775757
1481630166606,-6.9822564125061035,14.175081253051758,-0.7393822073936462
1481630166842,-5.843273162841797,-8.429913520812988,-2.0554347038269043
1481630167069,-5.508277893066406,-6.503692150115967,2.7804601192474365
1481630167281,-4.000799655914307,-7.6905317306518555,4.649254322052002
1481630167526,-6.680760860443115,-3.1082763671875,-1.4572290182113647
1481630167729,-9.336793899536133,5.175675392150879,-8.02791976928711
1481630167960,-12.471391677856445,11.454442024230957,-11.10030460357666
1481630168178,-12.117253303527832,8.104490280151367,-13.091133117675781
1481630168398,-8.236095428466797,9.355937004089355,3.5988054275512695
1481630168640,-2.7804601192474365,16.414762496948242,-8.49691390991211
1481630168869,-0.4498506784439087,15.902698516845703,-13.500306129455566
1481630169071,-1.0193424224853516,14.624931335449219,-10.62413215637207
1481630169283,-3.7184462547302246,11.92821979522705,-10.829915046691895
1481630169527,-5.412564754486084,6.7692952156066895,-0.5958128571510315
1481630169757,-11.021341323852539,5.900700569152832,-2.6392831802368164
1481630169996,-19.496719360351562,8.398807525634766,-3.900300979614258
1481630170235,-18.587446212768555,9.896714210510254,-2.995814085006714
1481630170473,-15.826128959655762,10.923234939575195,-6.929614543914795
1481630170678,-6.293124198913574,8.059026718139648,-2.8737800121307373
1481630170924,-3.6705896854400635,9.997212409973145,-13.694124221801758
1481630171154,-7.657032012939453,-3.5509488582611084,-2.909672498703003
1481630171393,-10.671989440917969,8.444271087646484,-1.0719845294952393
1481630171633,-7.786244869232178,6.063412666320801,-1.9525433778762817
1481630171863,-9.159724235534668,-0.8135597109794617,1.0767701864242554
1481630172080,-7.484748840332031,3.744767427444458,-2.9168508052825928
1481630172321,-4.1730828285217285,7.685746192932129,-5.67338228225708
1481630172551,-2.4741785526275635,11.437692642211914,-11.22233772277832
1481630172791,-2.6560330390930176,7.817351341247559,-9.09272575378418
1481630173030,-7.925028324127197,4.862215518951416,0.5168496966362
1481630173259,-5.996413230895996,7.049255847930908,-6.2668023109436035
1481630173473,-6.049055576324463,7.838886737823486,-6.144768238067627
1481630173717,-13.811371803283691,-2.4741785526275635,7.688138484954834
1481630173918,-9.198010444641113,5.041677951812744,-0.3732803165912628
1481630174148,-6.953542709350586,5.862415313720703,-3.5437703132629395
1481630174387,-8.886943817138672,4.646861553192139,-0.5814558863639832
1481630174625,-9.858428955078125,3.6705896854400635,-0.9236294627189636
1481630174854,-2.770888566970825,6.56829833984375,-10.05224895477295
1481630175077,-2.75174617767334,4.60139799118042,-9.34157943725586
1481630175314,-3.13938307762146,6.197411060333252,-10.719844818115234
1481630175515,-3.823730707168579,6.2189459800720215,-3.6083762645721436
1481630175745,-2.7326035499572754,8.34855842590332,-6.7692952156066895
1481630175985,-0.9284151792526245,7.886743545532227,-9.667003631591797
1481630176223,-10.174281120300293,2.5938196182250977,3.0963122844696045
1481630176454,-10.25563907623291,0.7226324081420898,-4.811966419219971
1481630176678,-1.4931212663650513,-8.054241180419922,3.8763725757598877
1481630176913,-6.685546875,-4.9363932609558105,-2.6608188152313232
1481630177142,-10.935199737548828,-0.4019941985607147,-11.392227172851562
1481630177382,-11.978469848632812,-2.926422357559204,-12.933207511901855
1481630177621,-12.595817565917969,2.840280532836914,-9.702895164489746
1481630177849,-14.060226440429688,2.6225337982177734,-10.085746765136719
1481630178069,-8.518448829650879,-0.1579262912273407,-6.214160442352295
1481630178310,-12.284751892089844,7.707281589508057,-8.544770240783691
1481630178539,-11.619546890258789,5.046462535858154,-7.678568363189697
1481630178779,-8.963513374328613,6.094519138336182,-10.14556884765625
1481630179018,-11.801401138305664,3.235095977783203,-2.6464619636535645
1481630179248,-14.739788055419922,5.86720085144043,-3.036492109298706
1481630179463,-15.328421592712402,3.88594388961792,-3.87876558303833
1481630179706,-14.677574157714844,1.648654818534851,-4.907679080963135
1481630179907,-3.3403804302215576,-1.031306505203247,-7.118647575378418
1481630180136,-0.40677985548973083,0.36370906233787537,-5.304887294769287
1481630180376,-4.426721572875977,-0.5742774605751038,-4.654040336608887
1481630180615,-9.657432556152344,-2.612962245941162,-4.823930263519287
1481630180846,-3.201596736907959,0.8374879360198975,-7.8077802658081055
1481630181064,-1.3495519161224365,4.091726779937744,-8.319844245910645
1481630181301,-2.282752752304077,4.120440483093262,-12.849457740783691
1481630181502,-2.172683000564575,8.554340362548828,-10.63370418548584
1481630181733,-5.134997367858887,9.066404342651367,-14.256437301635742
1481630181973,-14.825928688049316,-0.31106695532798767,10.293922424316406
1481630182212,-6.819544315338135,6.348158359527588,-4.486542701721191
1481630182440,-8.920442581176758,1.0528419017791748,-0.23449662327766418
1481630182657,-9.360722541809082,2.5196423530578613,-0.7082754969596863
1481630182900,-5.082355499267578,3.4025940895080566,-14.679966926574707
1481630183130,-4.139583110809326,6.9583282470703125,-12.461820602416992
1481630183369,-4.9435715675354,5.989234924316406,-11.502297401428223
1481630183609,-4.752145767211914,6.068198204040527,-13.454841613769531
1481630183839,-3.1202406883239746,12.143575668334961,-8.068597793579102
1481630184047,-5.307280540466309,11.12662410736084,-5.898308277130127
1481630184297,-3.0340991020202637,10.73180866241455,-8.492127418518066
1481630184527,-2.967100143432617,10.329815864562988,-10.832307815551758
1481630184766,-5.637490272521973,9.075976371765137,-7.520641803741455
1481630185006,-4.517649173736572,14.641681671142578,-5.137389659881592
1481630185238,-10.839487075805664,-0.3326023519039154,3.69930362701416
1481630185444,-5.536991596221924,3.8452658653259277,-1.1030912399291992
1481630185646,-12.031112670898438,3.704089403152466,4.3142595291137695
1481630185894,-8.116454124450684,13.052846908569336,0.32303106784820557
1481630186137,-5.149354457855225,3.053241729736328,-1.160519003868103
1481630186363,-2.2444677352905273,-4.864608287811279,1.6989041566848755
1481630186603,-2.0099709033966064,-4.697111129760742,1.3399806022644043
1481630186842,-2.68953275680542,-7.075576305389404,1.674975872039795
1481630187093,-4.65643310546875,-7.544569969177246,1.8185452222824097
1481630187333,-3.919443368911743,-10.40877914428711,1.6175479888916016
1481630187561,-5.838487148284912,-8.24566650390625,0.26081767678260803
1481630187801,-7.728816509246826,-9.975677490234375,1.3040882349014282
1481630188028,-8.930014610290527,-7.472784996032715,-0.24406792223453522
1481630188239,-9.710074424743652,-5.706881999969482,-0.35413774847984314
1481630188488,-10.614561080932617,-2.225324869155884,-2.7804601192474365
1481630188719,-7.590033531188965,-11.978469848632812,1.7395820617675781
1481630188957,-6.57547664642334,15.127424240112305,-1.581655740737915
1481630189197,-2.799602746963501,10.861021995544434,-5.938986301422119
1481630189427,-7.001399040222168,4.036691665649414,-3.613162040710449
1481630189637,-10.590633392333984,1.5074783563613892,0.8662018179893494
1481630189840,-9.355937004089355,3.809373617172241,-1.8257235288619995
1481630190086,-8.025527954101562,5.137389659881592,-4.503292083740234
1481630190316,-4.527220726013184,8.702695846557617,-9.714859962463379
1481630190554,-4.6133623123168945,8.71944522857666,-4.610969543457031
1481630190795,-5.082355499267578,6.541977405548096,-3.6849470138549805
1481630190996,-10.738987922668457,-2.8283162117004395,1.4141581058502197
1481630191238,-12.54317569732666,-2.2612173557281494,4.4027934074401855
1481630191483,-10.882556915283203,3.074777126312256,2.1655044555664062
1481630191713,-5.589633941650391,9.267402648925781,-12.782458305358887
1481630191953,0.8470591902732849,16.94597053527832,-9.370293617248535
1481630192194,-1.7754744291305542,8.551947593688965,-7.334001541137695
1481630192431,-6.010770320892334,3.6849470138549805,-5.950949668884277
1481630192632,-7.125825881958008,3.634697675704956,-4.867001533508301
1481630192879,-12.366107940673828,4.6301116943359375,-4.125226020812988
1481630193080,-11.097911834716797,-3.9553356170654297,-4.177868366241455
1481630193310,-7.637890338897705,-3.469593048095703,-1.9884356260299683
1481630193551,-8.188239097595215,-5.927021503448486,-2.400001049041748
1481630193789,-7.676175117492676,-5.493920803070068,-2.6009981632232666
1481630194019,-2.6703903675079346,-5.752345561981201,1.4452648162841797
1481630194233,-10.983055114746094,6.632904052734375,-4.78803825378418
1481630194476,-14.19900894165039,2.1415762901306152,6.594619274139404
1481630194677,-9.978070259094238,-2.196611166000366,-1.7252250909805298
1481630194921,-13.610376358032227,-0.07178468257188797,-4.048655986785889
1481630195145,-23.995223999023438,6.946363925933838,6.0610198974609375
1481630195386,-19.75035858154297,5.146961212158203,2.4430718421936035
1481630195625,-13.624732971191406,3.8763725757598877,-2.0793628692626953
1481630195876,-17.840885162353516,9.418149948120117,4.1970109939575195
1481630196105,-15.912269592285156,5.8959150314331055,7.884350299835205
1481630196317,-15.835700035095215,4.54636287689209,8.532805442810059
1481630196543,-14.175081253051758,0.18185453116893768,6.589833736419678
1481630196783,-11.308479309082031,2.139183282852173,3.8045878410339355
1481630197012,-13.883156776428223,1.2059825658798218,6.345765590667725
1481630197221,-12.849457740783691,-0.7202396392822266,7.23589563369751
1481630197469,-9.906286239624023,0.5216353535652161,1.7491532564163208
1481630197671,-13.825729370117188,-1.5984054803848267,7.274180889129639
1481630197901,-13.624732971191406,-2.0673987865448,7.444070816040039
1481630198140,-11.700902938842773,2.6703903675079346,1.3663017749786377
1481630198379,-16.481761932373047,6.096912384033203,10.092925071716309
1481630198613,-17.67338752746582,-7.094719409942627,-17.015361785888672
1481630198818,-18.27159309387207,1.0193424224853516,-17.64228057861328
1481630199068,-9.06879711151123,1.0815558433532715,-2.4502503871917725
1481630199269,-10.37527847290039,1.8448662757873535,1.8281164169311523
1481630199498,-5.383851051330566,-3.366701364517212,9.34157943725586
1481630199737,-1.2921242713928223,-3.3571300506591797,10.078569412231445
1481630199977,-1.2873386144638062,-4.599005222320557,8.889336585998535
1481630200209,-1.4404792785644531,2.3234307765960693,-0.04307081177830696
1481630200414,1.5026925802230835,7.104290962219238,-4.194617748260498
1481630200666,0.14835500717163086,6.695117950439453,-3.8500516414642334
1481630200867,-8.963513374328613,5.623133182525635,-3.2135608196258545
1481630201094,-18.836299896240234,4.508078098297119,1.2825528383255005
1481630201334,-21.635902404785156,3.0795629024505615,9.037691116333008
1481630201574,-15.481562614440918,-0.5934200286865234,5.048855781555176
1481630201805,-12.935599327087402,-2.7014968395233154,7.042076587677002
1481630202012,-14.380865097045898,0.0023928226437419653,7.865207672119141
1481630202262,-16.472190856933594,-5.237888813018799,7.712067127227783
1481630202492,-16.414762496948242,-4.118047714233398,8.693124771118164
1481630202731,-14.356935501098633,-5.37188720703125,11.437692642211914
1481630202972,-15.577275276184082,-1.643869161605835,4.240081787109375
1481630203203,-18.161523818969727,-1.5170495510101318,8.925228118896484
1481630203407,-17.3814640045166,-3.074777126312256,9.707681655883789
1481630203618,-8.810372352600098,3.4983065128326416,-4.618147850036621
1481630203858,-15.945770263671875,5.6685967445373535,1.1485549211502075
1481630204089,-13.97408390045166,6.874579429626465,-1.411765456199646
1481630204328,-14.132010459899902,6.541977405548096,-2.895315170288086
1481630204568,-18.24287986755371,10.430314064025879,1.3974084854125977
1481630204798,-8.551947593688965,2.0195422172546387,-5.769095420837402
1481630205005,-2.321038007736206,-0.7992027401924133,-5.960521221160889
1481630205255,-7.566104888916016,0.9571290016174316,-2.280359983444214
1481630205486,-8.10688304901123,-0.7968099117279053,-4.046263217926025
1481630205725,-6.307480335235596,-7.1473612785339355,0.7202396392822266
1481630205965,-7.499105930328369,4.95792818069458,-4.823930263519287
1481630206197,-13.481163024902344,3.9361932277679443,8.798408508300781
1481630206405,-15.079567909240723,2.3018953800201416,6.585048198699951
1481630206652,-17.022539138793945,1.765903115272522,10.571491241455078
1481630206881,-15.366706848144531,1.0145567655563354,10.72702407836914
1481630207122,-17.998811721801758,-2.775674343109131,11.294123649597168
1481630207362,-18.50609016418457,-0.5144568681716919,7.479963302612305
1481630207594,-5.2354960441589355,3.613162040710449,-1.864008903503418
1481630207813,-2.3018953800201416,-6.38165807723999,4.122833251953125
1481630208048,-4.23529577255249,-4.453042984008789,0.46899324655532837
1481630208290,-5.934200286865234,-5.213961124420166,-0.04307081177830696
1481630208518,-9.561718940734863,-2.7900311946868896,-2.603391170501709
1481630208757,-13.332807540893555,5.029713153839111,-15.227923393249512
1481630208988,-10.84427261352539,2.452643394470215,-11.430513381958008
1481630209199,-12.346964836120605,-1.246660590171814,2.1032910346984863
1481630209446,-13.95494270324707,5.802595138549805,-0.5934200286865234
1481630209689,-9.083154678344727,0.9260223507881165,-9.147761344909668
1481630209918,-5.972485065460205,1.2035897970199585,-6.537191867828369