timestamp,ax,ay,az
1481615619651,4.521450042724609,-10.061034202575684,-1.4754267930984497
1481615619830,4.3861775398254395,-9.335591316223145,-0.5841852426528931
1481615620012,2.006939649581909,-9.581595420837402,1.6603789329528809
1481615620191,2.426523447036743,-10.356119155883789,1.035492181777954
1481615620372,2.056619167327881,-8.7669677734375,2.956240653991699
1481615620555,1.0007762908935547,-7.474697589874268,5.193023681640625
1481615620733,0.9612720012664795,-2.1990742683410645,0.16160862147808075
1481615620916,-4.796184539794922,-16.69237518310547,-1.268328309059143
1481615621097,-5.938218593597412,-3.3429040908813477,3.639785051345825
1481615621305,5.442020416259766,-19.608510971069336,-0.6159083843231201
1481615621459,-1.3766659498214722,4.820126533508301,-4.809352874755859
1481615621634,-11.9027738571167,-12.269684791564941,-1.7088614702224731
1481615621819,6.099228858947754,-9.763554573059082,5.58866548538208
1481615621994,1.2186486721038818,-12.875418663024902,0.15143325924873352
1481615622174,2.2816741466522217,-5.50007963180542,-2.2469582557678223
1481615622355,-3.1004912853240967,-3.3859996795654297,-8.706514358520508
1481615622538,-2.895787000656128,-16.870742797851563,5.929839134216309
1481615622718,0.52552729845047,-1.157596468925476,2.5145103931427
1481615622900,-2.4905683994293213,-14.028225898742676,1.7836803197860718
1481615623076,-0.5626373887062073,-6.996456146240234,9.662399291992188
1481615623256,-17.705121994018555,-19.608510971069336,-11.642404556274414
1481615623435,-5.10383939743042,-2.390610456466675,4.7584757804870605
1481615623620,8.621520042419434,-19.608510971069336,1.4287399053573608
1481615623800,-2.738368272781372,1.3706804513931274,-1.5711948871612549
1481615623980,13.860631942749023,-5.4025163650512695,-5.883152008056641
1481615624159,-5.835866451263428,-3.0142998695373535,3.466804027557373
1481615624353,10.645218849182129,-19.608510971069336,-7.742249965667725
1481615624521,2.3098061084747314,1.964442491531372,-4.002506732940674
1481615624696,9.706093788146973,-4.332906723022461,-18.866907119750977
1481615624881,1.7687164545059204,-11.91235065460205,3.1866824626922607
1481615625061,-1.3838485479354858,-2.9011738300323486,-0.8224082589149475
1481615625237,1.6687586307525635,-9.756970405578613,2.522890090942383
1481615625416,-1.1252747774124146,-2.2631192207336426,1.2282254695892334
1481615625602,-19.339763641357422,-19.608510971069336,-0.07182604819536209
1481615625778,-0.9888052940368652,-2.0428526401519775,1.886630892753601
1481615625964,3.618237257003784,-19.5211238861084,1.2761094570159912
1481615626141,-0.6356605291366577,-0.41359832882881165,-1.8171991109848022
1481615626322,10.178350448608398,2.764105796813965,-6.754641532897949
1481615626503,-6.1991868019104,-2.1523873805999756,4.607641220092773
1481615626681,4.844666957855225,-19.608510971069336,-4.660912036895752
1481615626862,-0.3776853084564209,7.179013729095459,-5.86699104309082
1481615627042,-11.628637313842773,-19.608510971069336,-0.30466216802597046
1481615627221,2.7940332889556885,-6.757035732269287,6.3518171310424805
1481615627402,-3.2082302570343018,-19.608510971069336,-4.502894878387451
1481615627582,2.9293057918548584,-0.08619125932455063,-4.146757125854492
1481615627759,5.93941593170166,-2.4438812732696533,-12.854469299316406
1481615627940,6.9491705894470215,-11.232397079467773,10.579977035522461
1481615628125,-1.467047095298767,-6.6630635261535645,-0.6901286244392395
1481615628303,3.2579100131988525,-5.191826343536377,-1.3898340463638306
1481615628482,-0.2603694200515747,-9.593565940856934,1.095347285270691
1481615628665,-4.794987678527832,-19.608510971069336,1.104325532913208
1481615628845,-1.4179660081863403,-0.033518824726343155,-1.4077905416488647
1481615629020,-0.7858967185020447,-13.646949768066406,0.579995334148407
1481615629201,-1.6340426206588745,-9.594164848327637,16.470911026000977
1481615629384,-16.033370971679688,-19.608510971069336,-10.56680965423584
1481615629566,-5.646724700927734,-4.732738018035889,4.768052577972412
1481615629742,11.877036094665527,-19.608510971069336,1.6412252187728882
1481615629924,-2.2637176513671875,1.6519991159439087,-2.852691411972046
1481615630106,15.090054512023926,3.550601005554199,-7.680599212646484
1481615630281,-6.966528415679932,-4.709993362426758,3.5182793140411377
1481615630464,-1.2749123573303223,-19.608510971069336,-2.11946702003479
1481615630646,1.7363947629928589,2.3056161403656006,-4.993706226348877
1481615630825,17.960702896118164,-19.596540451049805,-9.500192642211914
1481615631002,8.12173080444336,-7.88350772857666,6.981492042541504
1481615631181,-2.980781078338623,-12.261903762817383,-2.1715409755706787
1481615631361,3.710414171218872,-4.578910827636719,1.8477251529693604
1481615631541,-2.895188331604004,-0.7050924301147461,-6.091447830200195
1481615631732,-8.376114845275879,-18.031930923461914,3.5936968326568604
1481615631908,-2.293645143508911,-0.15562310814857483,-0.6314706802368164
1481615632082,-3.24953031539917,-12.494141578674316,2.4181437492370605
1481615632263,-0.3357867896556854,-4.306570529937744,9.099761962890625
1481615632444,9.314641952514648,-17.023372650146484,-8.307281494140625
1481615632628,-9.956287384033203,-4.684854030609131,5.38096809387207
1481615632804,10.582969665527344,-19.608510971069336,-4.415506362915039
1481615632989,-0.9265560507774353,2.781463861465454,-6.366780757904053
1481615633168,-4.824914932250977,-9.546280860900879,-1.0791864395141602
1481615633345,3.6846764087677,-7.18440055847168,5.27263069152832
1481615633523,-2.2846670150756836,-14.794370651245117,-1.6154875755310059
1481615633704,2.1703438758850098,-3.4099416732788086,-1.1941081285476685
1481615633889,-5.409698963165283,0.6446388363838196,-14.689624786376953
1481615634070,-1.6609774827957153,-14.441824913024902,4.809352874755859
1481615634246,1.371279001235962,-0.52552729845047,0.43335050344467163
1481615634430,-0.444722980260849,-11.183915138244629,-0.18794482946395874
1481615634610,-2.1146786212921143,-13.86302661895752,8.039131164550781
1481615634786,-13.517064094543457,-17.98105239868164,-1.6286556720733643
1481615634970,-2.313995838165283,-1.5418659448623657,2.3965959548950195
1481615635150,0.1604115068912506,-15.006855964660645,0.4554968774318695
1481615635326,2.184709072113037,-0.8026561141014099,0.5901707410812378
1481615635511,8.827422142028809,-9.479841232299805,-7.957727909088135
1481615635697,-11.021108627319336,-4.015076160430908,3.318363666534424
1481615635870,10.24239444732666,-19.608510971069336,-1.0989385843276978
1481615636051,-3.734356164932251,2.1715409755706787,-6.433818340301514
1481615636226,18.980632781982422,17.14188575744629,-8.867524147033691
1481615636412,-4.409521102905273,-6.757035732269287,4.565742492675781
1481615636592,-3.869628429412842,-19.608510971069336,-4.416703701019287
1481615636768,5.519832134246826,6.202777862548828,-4.413711071014404
1481615636952,-16.76958656311035,-19.608510971069336,-0.3447650372982025
1481615637132,2.894589900970459,-7.906252384185791,4.868010520935059
1481615637308,0.9864110946655273,-5.8436479568481445,0.9888052940368652
1481615637492,1.3617022037506104,-7.545925140380859,0.3902548849582672
1481615637672,0.013168109580874443,-4.161721229553223,-7.714118003845215
1481615637850,-1.7579425573349,-18.847753524780273,5.183446884155273
1481615638032,0.8391677141189575,-0.16220717132091522,-0.012569558806717396
1481615638212,-2.8329391479492188,-12.513894081115723,-0.09576806426048279
1481615638390,0.18076223134994507,-10.049062728881836,17.148469924926758
1481615638574,-14.285602569580078,-19.608510971069336,-10.376470565795898
1481615638752,-5.661089897155762,-2.7437551021575928,2.0907366275787354
1481615638940,13.28602409362793,-19.608510971069336,-0.08259996026754379
1481615639115,4.426878929138184,-0.7954735159873962,1.013944387435913
1481615639291,-3.397970676422119,3.5691561698913574,0.8559271097183228
1481615639475,-0.8559271097183228,-5.3348798751831055,6.435015678405762
1481615639652,-4.089895248413086,-19.608510971069336,-6.038176536560059
1481615639830,2.518101692199707,0.6254851818084717,-1.2964602708816528
1481615640011,-1.592742681503296,3.7235822677612305,-15.206771850585938
1481615640193,-3.5266590118408203,-18.712482452392578,1.4173674583435059
1481615640371,0.36571431159973145,-0.36810851097106934,-0.5740098357200623
1481615640555,-1.1510124206542969,-13.713987350463867,0.6613982319831848
1481615640736,-3.551798105239868,-9.136872291564941,8.704120635986328
1481615640916,-19.343952178955078,-19.608510971069336,-1.7118542194366455
1481615641096,-4.22277307510376,-2.787449359893799,3.463212728500366
1481615641273,4.167108058929443,-19.608510971069336,0.2388216257095337
1481615641456,-0.5045779943466187,2.0661959648132324,-5.234921932220459
1481615641637,11.381436347961426,2.5965118408203125,-7.538742542266846
1481615641813,-6.21115779876709,-4.040215492248535,6.020818710327148
1481615641997,6.579864978790283,-19.608510971069336,-4.25629186630249
1481615642177,4.304774761199951,7.511209487915039,-2.273893117904663
1481615642355,4.479551315307617,-19.608510971069336,-10.643424034118652
1481615642537,4.709993362426758,-7.996633529663086,6.20038366317749
1481615642716,-0.6308721303939819,-7.060500621795654,0.7805097699165344
1481615642892,2.450465440750122,-6.469731330871582,-0.6667851805686951
1481615643078,-1.6059107780456543,-4.8273091316223145,-5.637746334075928
1481615643258,-4.106055736541748,-18.944719314575195,3.6996402740478516
1481615643436,-0.0077811554074287415,0.21188685297966003,0.5434837937355042
1481615643617,-2.301426410675049,-13.003507614135742,1.6101006269454956
1481615643799,-1.890222191810608,-13.186664581298828,19.608510971069336
1481615643979,-15.379154205322266,-19.58397102355957,-6.729502201080322
1481615644158,-9.710283279418945,-4.094084739685059,5.631761074066162
1481615644334,5.7095723152160645,-19.608510971069336,2.5899276733398438
1481615644517,-2.565387010574341,1.3970166444778442,-6.648099422454834
1481615644696,16.303316116333008,8.286931037902832,-12.516287803649902
1481615644875,-3.9025487899780273,-3.269881010055542,5.588066577911377
1481615645059,-6.205172061920166,-19.608510971069336,-2.4600422382354736
1481615645240,4.408323764801025,4.739322185516357,-2.18770170211792
1481615645420,12.31397819519043,-14.903905868530273,-13.10765552520752
1481615645600,1.1216834783554077,-9.737217903137207,5.395333766937256
1481615645780,-2.45285964012146,-5.696404457092285,1.026513934135437
1481615645962,3.9420530796051025,-5.9088897705078125,1.092953085899353
1481615646137,-3.177105665206909,-9.210494041442871,7.169436931610107
1481615646327,-11.642404556274414,-15.723320960998535,-1.889025092124939
1481615646500,0.18495208024978638,0.45010992884635925,1.4024035930633545
1481615646681,2.6168625354766846,-11.867459297180176,4.20541524887085
1481615646857,-0.9193734526634216,-7.179612159729004,10.322600364685059
1481615647041,9.640851974487305,-11.150395393371582,-6.4398040771484375
1481615647218,-11.941081047058105,-3.7906198501586914,5.549160957336426
1481615647397,7.374739646911621,-19.608510971069336,-2.5109190940856934
1481615647580,1.0103530883789063,2.782062292098999,-6.115389823913574
1481615647762,-9.159018516540527,-4.541800498962402,0.983418345451355
1481615647942,8.000823974609375,-7.468113422393799,10.506954193115234
1481615648123,-2.4235305786132813,-10.78587818145752,-2.959233283996582
1481615648303,3.70742130279541,-4.460996150970459,0.1430535465478897
1481615648482,-4.953603267669678,-0.20949265360832214,-8.199542045593262
1481615648662,-3.02986216545105,-16.864757537841797,4.080318450927734
1481615648839,0.9630676507949829,-1.7489643096923828,2.2846670150756836
1481615649022,-1.2539631128311157,-9.876082420349121,0.9379284977912903
1481615649199,0.3166331648826599,-9.209895133972168,9.267355918884277
1481615649379,-13.779229164123535,-14.355633735656738,-4.961384296417236
1481615649562,-2.5438392162323,-0.9612720012664795,1.5873557329177856
1481615649744,0.363918662071228,-14.450203895568848,0.44412440061569214
1481615649920,1.8291701078414917,-3.7702691555023193,13.739725112915039
1481615650102,14.247295379638672,-7.378929615020752,-7.812280178070068
1481615650280,-11.799822807312012,-4.105457305908203,5.640140533447266
1481615650465,9.032125473022461,-19.608510971069336,-3.669114112854004
1481615650645,0.4878185987472534,6.184821605682373,-7.146093368530273
1481615650826,17.66442108154297,9.838972091674805,-4.753687381744385
1481615651002,-2.4654293060302734,-8.47667121887207,3.227982521057129
1481615651184,-3.13700270652771,-18.402433395385742,-6.588842868804932
1481615651362,4.86142635345459,0.6015431880950928,-2.2840683460235596
1481615651546,8.002618789672852,-14.697405815124512,-19.500173568725586
1481615651724,5.7760114669799805,-10.16637897491455,9.791088104248047
1481615651901,1.5065513849258423,-1.12467622756958,2.3499090671539307
1481615652086,-4.819528102874756,-10.828974723815918,1.0875661373138428
1481615652266,0.4345476031303406,-12.090120315551758,16.207548141479492
1481615652442,-18.990808486938477,-19.147029876708984,-1.338358759880066
1481615652627,-5.990292549133301,-2.2164323329925537,1.600523829460144
1481615652805,1.5089455842971802,-19.608510971069336,1.3922282457351685
1481615652986,0.20290859043598175,1.1330559253692627,-6.3967084884643555
1481615653167,12.336124420166016,-1.813009262084961,-7.492654323577881
1481615653345,-7.197568893432617,-3.8337154388427734,6.353612899780273
1481615653527,5.19362211227417,-19.603723526000977,-5.036801815032959
1481615653706,2.3247697353363037,5.634753704071045,-3.141192674636841
1481615653887,16.94137191772461,-19.605518341064453,-14.732121467590332
1481615654067,6.1082072257995605,-10.40579891204834,4.37540340423584
1481615654248,-2.9885623455047607,-6.54455041885376,-0.0586579404771328
1481615654425,3.5188779830932617,-4.721365928649902,2.1284453868865967
1481615654607,-3.66851544380188,-7.736264228820801,3.8331170082092285
1481615654789,-13.569138526916504,-15.928624153137207,-0.8972271084785461
1481615654965,-1.6370353698730469,0.19273324310779572,-0.3992331326007843
1481615655147,-1.2689268589019775,-13.122020721435547,3.5015199184417725
1481615655329,0.11552023142576218,-4.814141273498535,13.133992195129395
1481615655507,-0.5524620413780212,-19.608510971069336,-7.928399085998535
1481615655689,-9.644442558288574,-4.428076267242432,3.8522706031799316
1481615655868,5.978321552276611,-19.608510971069336,-1.98958158493042
1481615656050,0.5554547905921936,2.7694928646087646,-5.127182960510254
1481615656224,5.671864032745361,1.4969745874404907,-5.288791656494141
1481615656405,-0.536899745464325,-6.744466304779053,11.513715744018555
1481615656593,5.824494361877441,-19.608510971069336,-3.2998085021972656
1481615656775,4.392761707305908,7.127538681030273,-5.359420299530029
1481615656945,-16.29912567138672,-15.69997787475586,3.1914708614349365
1481615657126,2.1308395862579346,-8.639476776123047,4.592677593231201
1481615657311,-0.15263035893440247,-18.497602462768555,-1.514931082725525
1481615657491,3.508104085922241,3.8067808151245117,-0.1604115068912506
1481615657671,5.941211700439453,5.309142112731934,-14.29398250579834
1481615657846,0.7224503755569458,-16.591218948364258,4.928464412689209
1481615658027,1.470638394355774,-4.981136798858643,-0.1693897694349289
1481615658212,0.272938996553421,-6.849212646484375,-0.7589619159698486
1481615658392,-1.4981716871261597,-9.222464561462402,0.9876081943511963
1481615658572,-5.0236334800720215,-19.608510971069336,2.337339401245117
1481615658752,-2.3313539028167725,-0.25977087020874023,-0.010175357572734356
1481615658932,-2.9550435543060303,-10.102334022521973,1.0031704902648926
1481615659114,-0.8942343592643738,-12.908937454223633,19.476232528686523
1481615659293,-19.605518341064453,-19.608510971069336,-6.7259111404418945
1481615659471,-5.949591159820557,-1.1893197298049927,1.3263877630233765
1481615659652,5.708375453948975,-19.608510971069336,1.766920804977417
1481615659832,1.878849744796753,-0.7679402232170105,-4.618414878845215
1481615660012,8.109161376953125,9.509170532226563,-11.131840705871582
1481615660194,-9.084798812866211,-2.4025814533233643,6.02919864654541
1481615660374,4.890755653381348,-19.45288848876953,-8.945934295654297
1481615660554,-1.1803414821624756,1.0468647480010986,-5.407304763793945
1481615660735,3.0310592651367188,0.7146692276000977,-5.125985622406006
1481615660915,-0.15263035893440247,-12.037447929382324,4.308365821838379
1481615661090,-2.739565372467041,-11.478401184082031,-2.5977089405059814
1481615661275,4.636371612548828,-3.1878795623779297,-0.7954735159873962
1481615661458,-4.460996150970459,0.7996633648872375,-13.338696479797363
1481615661633,-1.0690110921859741,-19.448698043823242,1.7004817724227905
1481615661816,-1.227626919746399,-1.3880383968353271,2.167949676513672
1481615661996,-3.598485231399536,-13.86182975769043,0.47644615173339844
1481615662176,-1.278503656387329,-6.721721172332764,13.781024932861328
1481615662356,-5.251681327819824,-19.608510971069336,-15.868768692016602
1481615662536,-10.213664054870605,-0.5566518902778625,3.2297780513763428
1481615662715,10.615291595458984,-19.608510971069336,-1.390432596206665
1481615662896,1.4012064933776855,2.363077163696289,-5.886145114898682
1481615663076,16.151884078979492,19.35592269897461,-4.714183330535889
1481615663256,-6.847416877746582,-5.027225017547607,6.38114595413208
1481615663437,2.874239206314087,-19.608510971069336,-0.9953893423080444
1481615663615,2.6174609661102295,8.116942405700684,-2.8580782413482666
1481615663797,-18.156429290771484,-19.608510971069336,-3.243544816970825
1481615663977,6.645705223083496,-11.03667163848877,6.0411696434021
1481615664157,1.2006921768188477,-7.150283336639404,-0.0520738884806633
1481615664337,1.624465823173523,-1.4945803880691528,-0.9289502501487732
1481615664518,-0.6105214357376099,-10.934917449951172,2.2667105197906494
1481615664693,-3.7666778564453125,-19.608510971069336,-0.5770025849342346
1481615664878,-3.2998085021972656,-2.0428526401519775,1.3353660106658936
1481615665058,-3.359663486480713,-9.230246543884277,0.6961141228675842
1481615665238,-1.469441294670105,-10.343549728393555,17.978059768676758
1481615665416,-18.15104103088379,-19.400814056396484,-9.346963882446289
1481615665597,-4.490325450897217,-2.889801502227783,5.123591423034668
1481615665779,5.054758548736572,-19.608510971069336,1.8064252138137817
1481615665956,-0.4944026470184326,-0.01496376097202301,-5.77062463760376
1481615666139,8.229470252990723,8.6089506149292,-9.271546363830566
1481615666319,-6.785766124725342,-2.274491548538208,2.3098061084747314
1481615666499,-0.8690952062606812,-19.608510971069336,-0.4812345504760742
1481615666679,2.934094190597534,5.393537998199463,-3.5446155071258545
1481615666859,-16.836027145385742,-19.608510971069336,-0.03711012750864029
1481615667040,6.045359134674072,-7.07606315612793,5.338471412658691
1481615667220,-1.8148049116134644,-11.960234642028809,-3.466804027557373
1481615667399,4.203021049499512,-4.392162799835205,-0.26156654953956604
1481615667580,-3.245340347290039,0.15981295704841614,-8.832808494567871
1481615667761,-2.205658197402954,-17.776947021484375,-0.6835445761680603
1481615667941,-0.5333084464073181,-2.5258827209472656,1.0863690376281738
1481615668117,-0.6506243348121643,-9.209895133972168,-0.18914192914962769
1481615668301,-3.9384617805480957,-9.102156639099121,4.757877349853516
1481615668481,-10.821791648864746,-13.266870498657227,-2.099714994430542
1481615668662,-0.9481038451194763,-0.6177040338516235,0.8906430602073669
1481615668842,-2.079962730407715,-14.568717002868652,-1.955464243888855
1481615669022,-2.1511902809143066,-12.669516563415527,17.036540985107422
1481615669202,-17.76856803894043,-19.608510971069336,-5.503671169281006
1481615669382,-10.954071044921875,-3.5883097648620605,3.0765492916107178
1481615669563,6.9491705894470215,-19.608510971069336,0.3705027103424072
1481615669742,0.8092401623725891,2.60548996925354,-5.027823448181152
1481615669924,11.57476806640625,18.371906280517578,-8.962095260620117
1481615670103,-3.714005470275879,-4.144961833953857,2.851494312286377
1481615670283,-3.2112231254577637,-16.13751792907715,-4.050989151000977
1481615670463,2.0667946338653564,-0.2998737692832947,-0.7882909178733826
1481615670645,3.376422882080078,3.428496837615967,-10.381856918334961
1481615670823,-0.5907692909240723,-15.845425605773926,2.8395233154296875
1481615671002,-3.6391866207122803,-0.9816226959228516,0.9624691009521484
1481615671179,-3.271078109741211,-13.995306015014648,1.0516531467437744
1481615671364,-0.7338228225708008,-4.500500679016113,9.024344444274902
1481615671550,-2.9281086921691895,-19.608510971069336,-7.525574684143066
1481615671724,-9.497797966003418,-2.9251158237457275,4.483142852783203
1481615671905,8.608352661132813,-19.608510971069336,-5.670068264007568
1481615672085,1.3024457693099976,5.586271286010742,-2.7467479705810547
1481615672265,9.252392768859863,-19.608510971069336,-10.119691848754883
1481615672446,1.4574702978134155,-8.504204750061035,5.494692802429199
1481615672626,1.4927847385406494,-5.154716491699219,-0.228047713637352
1481615672806,1.6226701736450195,-8.649652481079102,-1.6370353698730469
1481615672986,-0.060453593730926514,-4.37420654296875,-3.448249101638794
1481615673164,-14.365808486938477,-14.266448974609375,-4.214992046356201
1481615673346,-5.550956726074219,-1.2563573122024536,1.3808557987213135
1481615673526,4.871003150939941,-19.608510971069336,0.706289529800415
1481615673706,-2.892794132232666,-1.7381904125213623,-0.7032967209815979
1481615673886,11.481393814086914,-7.38132381439209,-5.763442039489746
1481615674066,-7.202357292175293,-3.733159065246582,3.0789434909820557
1481615674244,4.684854030609131,-19.608510971069336,-3.93367338180542
1481615674427,1.2360066175460815,3.094505786895752,-2.3995885848999023
1481615674606,-14.876971244812012,-19.608510971069336,2.2906525135040283
1481615674787,-0.29149407148361206,-8.740632057189941,4.004302501678467
1481615674967,-0.8882488012313843,-10.866683006286621,-2.564189910888672
1481615675147,2.4456770420074463,-7.613561630249023,0.6374561786651611
1481615675327,-2.7114334106445313,-0.47465047240257263,-3.423109769821167
1481615675508,-5.348646640777588,-17.029956817626953,-0.669179379940033
1481615675686,-2.251148223876953,-0.5039794445037842,2.079962730407715
1481615675869,-1.942894697189331,-15.272612571716309,0.9756371974945068
1481615676044,-1.9458874464035034,-8.188169479370117,14.000693321228027
1481615676227,3.60566782951355,-19.603723526000977,-5.450998783111572
1481615676407,-8.161234855651855,-3.426701068878174,4.657320976257324
1481615676589,4.789001941680908,-19.608510971069336,-1.2222399711608887
1481615676766,2.0236990451812744,1.9578584432601929,-5.832275390625
1481615676949,15.432425498962402,14.18564510345459,-1.3036428689956665
1481615677129,-1.1725603342056274,-8.918401718139648,3.731363296508789
1481615677309,-0.9714473485946655,-17.587207794189453,-3.003525972366333
1481615677489,5.0900726318359375,-2.520495891571045,-1.5257049798965454
1481615677669,-1.3856441974639893,0.9301473498344421,-15.894506454467773
1481615677849,0.9720458984375,-14.859612464904785,3.1974563598632813
1481615678030,-1.7334020137786865,-0.4339490532875061,1.3844470977783203
1481615678210,-2.146401882171631,-12.488754272460938,-0.1604115068912506
1481615678390,-2.756923198699951,-9.226655006408691,14.516643524169922
1481615678567,-18.394651412963867,-19.42475700378418,-2.1721394062042236
1481615678746,-6.427234649658203,-1.7393875122070313,5.210381507873535
1481615678930,2.322375535964966,-19.608510971069336,3.7912182807922363
1481615679110,-0.4944026470184326,2.4229321479797363,-5.109825134277344
1481615679285,18.970457077026367,16.44696807861328,-1.3479355573654175
1481615679469,-6.557119846343994,-6.552331447601318,3.071162223815918
1481615679646,0.5051765441894531,-19.608510971069336,-6.660669326782227
1481615679832,5.643732070922852,6.329071998596191,-3.1902737617492676
1481615680012,5.492298603057861,-19.293075561523438,-15.49766731262207
1481615680190,3.0591912269592285,-12.310386657714844,8.667010307312012
1481615680371,0.18076223134994507,-6.763021469116211,0.6500257849693298
1481615680548,1.5747861862182617,-5.144540786743164,-1.7896658182144165
1481615680726,-6.250063419342041,-8.621520042419434,-16.72948455810547
1481615680912,-0.0802057534456253,-15.377957344055176,3.2770636081695557
1481615681093,-0.34656068682670593,-2.1799206733703613,3.667318344116211
1481615681270,-1.5077484846115112,-9.62828254699707,-1.4993687868118286
1481615681452,-0.933738648891449,-7.346009254455566,2.2397756576538086
1481615681633,-6.566696643829346,-19.608510971069336,-1.4646528959274292
1481615681813,-3.6762967109680176,-1.2988544702529907,0.3292027413845062
1481615681993,-1.183334231376648,-13.368024826049805,-1.2599486112594604
1481615682174,-0.09516951441764832,-5.218760967254639,8.257601737976074
1481615682354,-12.984952926635742,-19.608510971069336,-9.910798072814941
1481615682535,-13.97016716003418,0.17836803197860718,3.554192304611206
1481615682711,5.975927352905273,-19.608510971069336,-6.3051300048828125
1481615682895,1.4323312044143677,4.1874589920043945,-2.380434989929199
1481615683075,-19.5217227935791,-19.608510971069336,0.436343252658844
1481615683256,5.474940776824951,-9.165602684020996,9.17577838897705
1481615683436,-2.6384103298187256,-9.790489196777344,-3.6326024532318115
1481615683613,3.242946147918701,-4.351461410522461,1.0205284357070923
1481615683789,-2.2822728157043457,0.45669397711753845,-11.137228012084961
1481615683971,-7.622539520263672,-14.973936080932617,-2.7934348583221436
1481615684155,-2.866457939147949,-1.1306617259979248,1.655590534210205
1481615684334,-4.659116744995117,-14.560935974121094,2.3738510608673096
1481615684516,-2.4235305786132813,-6.8144965171813965,12.402563095092773
1481615684694,5.008071422576904,-19.310434341430664,-6.360795497894287
1481615684875,-2.691681146621704,-2.9777884483337402,3.3650505542755127
1481615685055,0.9600749015808105,-19.608510971069336,-1.4640543460845947
1481615685237,4.522646903991699,3.3937809467315674,-1.3395558595657349
1481615685416,0.586579442024231,-19.477428436279297,-11.890204429626465
1481615685599,5.429450988769531,-9.476250648498535,6.2416839599609375
1481615685779,1.0648212432861328,-2.82515811920166,3.4374752044677734
1481615685957,-0.5614402890205383,-8.630498886108398,0.47644615173339844
1481615686137,-0.18734627962112427,-5.087080001831055,1.4287399053573608
1481615686319,-8.666411399841309,-17.681777954101563,-1.732803463935852
1481615686496,0.45908817648887634,-1.7046716213226318,2.8341362476348877
1481615686677,-2.9963433742523193,-18.537704467773438,-0.9546879529953003
1481615686858,-0.9044097065925598,-4.7620673179626465,8.712499618530273
1481615687038,-2.7688941955566406,-19.608510971069336,-6.429628849029541
1481615687218,-11.83034896850586,-2.5965118408203125,6.894702434539795
1481615687396,5.811924457550049,-19.608510971069336,-2.4426841735839844
1481615687577,5.824494361877441,8.364742279052734,-5.211578369140625
1481615687757,-19.015348434448242,-15.64491081237793,-6.2404866218566895
1481615687939,5.041590213775635,-7.7655930519104,7.494450092315674
1481615688119,-1.7220295667648315,-9.332598686218262,-3.158550500869751
1481615688294,1.6849194765090942,-3.845686435699463,-1.325789213180542
1481615688479,3.0412347316741943,3.4973301887512207,-14.929044723510742
1481615688654,-9.017162322998047,-17.571046829223633,-0.28730419278144836
1481615688840,-4.331709384918213,-0.707486629486084,0.8954314589500427
1481615689020,3.976768970489502,-9.170989990234375,1.8124107122421265
1481615689204,-7.146692276000977,-13.436858177185059,14.32750129699707
1481615689380,6.8557963371276855,-19.142240524291992,-8.236652374267578
1481615689555,-12.563573837280273,-4.035427093505859,5.652111530303955
1481615689737,6.794744491577148,-19.608510971069336,-4.0114850997924805
1481615689916,1.1426327228546143,5.073313236236572,-4.597465991973877
1481615690100,-16.44158172607422,-18.88546371459961,-8.79809284210205
1481615690281,3.2381577491760254,-10.730213165283203,8.710105895996094
1481615690461,-0.3477577865123749,-4.763264179229736,-0.3280056416988373
1481615690642,-2.3313539028167725,-11.077971458435059,-0.8493430614471436
1481615690822,-2.205059766769409,-5.60722017288208,4.8931498527526855
1481615691001,-7.982268333435059,-10.675745010375977,-3.581725835800171
1481615691182,-5.999869346618652,-2.2625205516815186,2.3576900959014893
1481615691362,5.126584529876709,-19.607913970947266,-0.7637503147125244
1481615691542,1.96683669090271,-1.1228805780410767,-0.9696516990661621
1481615691722,12.364255905151367,17.080833435058594,-9.027935981750488
1481615691899,-2.09672212600708,-8.197746276855469,4.933252811431885
1481615692080,-1.988384485244751,-19.608510971069336,-6.615179061889648
1481615692263,4.887164115905762,1.3952209949493408,-1.0283095836639404
1481615692442,2.117671489715576,-2.9879636764526367,-11.027094841003418
1481615692622,0.6129156351089478,-17.982250213623047,0.7230489253997803
1481615692804,-0.6619967818260193,-2.0829553604125977,2.826355218887329
1481615692983,-3.979761838912964,-13.827712059020996,0.9846154451370239
1481615693162,-0.5309142470359802,-7.042544364929199,10.326790809631348
1481615693340,6.609792232513428,-19.608510971069336,-12.979565620422363
1481615693524,-5.695207118988037,-3.0579941272735596,5.917269706726074
1481615693702,8.022970199584961,-19.608510971069336,-3.2800562381744385
1481615693882,4.201225280761719,6.201581001281738,-3.094505786895752
1481615694065,3.6074633598327637,-1.7872716188430786,0.1280897855758667
1481615694246,4.000112533569336,-7.709329605102539,5.417479991912842
1481615694424,-0.0586579404771328,-8.523956298828125,-1.1522095203399658
1481615694604,2.4654293060302734,-5.427655220031738,-0.6224924325942993
1481615694785,0.21009120345115662,2.140416383743286,-18.479646682739258
1481615694966,1.544858694076538,-17.98284912109375,1.3569138050079346
1481615695146,-3.6290111541748047,-1.913565754890442,2.7760767936706543
1481615695325,-3.6739025115966797,-12.52945613861084,0.12389993667602539
1481615695504,-3.954622745513916,-8.258798599243164,16.97189712524414
1481615695686,-10.845134735107422,-15.53896713256836,-6.5283894538879395
1481615695866,-11.061211585998535,-2.096123695373535,6.398504257202148
1481615696046,5.656301498413086,-19.608510971069336,4.1180267333984375
1481615696227,1.1869255304336548,-0.4507084786891937,-3.576338768005371
1481615696407,18.946516036987305,18.662202835083008,-8.909422874450684
1481615696587,-4.2975921630859375,-7.420828342437744,8.981847763061523
1481615696769,1.5280991792678833,-19.608510971069336,-1.9129672050476074
1481615696947,4.32871675491333,4.520851135253906,-2.5737667083740234
1481615697128,16.76180648803711,-19.608510971069336,-14.897321701049805
1481615697308,0.7080851793289185,-11.692682266235352,5.206191539764404
1481615697486,0.07781155407428741,-2.5540146827697754,3.0573954582214355
1481615697667,-4.7153801918029785,-10.69130802154541,-0.545877993106842
1481615697848,-3.095104217529297,-5.0685248374938965,16.819866180419922
1481615698028,-14.464569091796875,-14.601637840270996,-1.3748703002929688
1481615698216,-5.51624059677124,-1.0085574388504028,1.6352397203445435
1481615698390,12.092514038085938,-19.608510971069336,-0.9977835416793823
1481615698569,-0.6745663285255432,0.16220717132091522,-3.6349966526031494
1481615698749,8.200140953063965,9.436745643615723,-5.133767127990723
1481615698929,4.235342979431152,-9.054272651672363,4.841674327850342
1481615699109,-4.050390720367432,-17.689559936523438,-2.360682964324951
1481615699288,2.2188265323638916,-3.4823663234710693,-0.15562310814857483
1481615699467,-2.0446481704711914,-1.964442491531372,-7.3023152351379395
1481615699650,-2.360682964324951,-17.770362854003906,-1.446696400642395
1481615699829,-1.8579005002975464,0.22864626348018646,1.5843629837036133
1481615700006,-1.7549498081207275,-14.214375495910645,0.3387795388698578
1481615700188,-4.3855791091918945,-10.007762908935547,16.127941131591797
1481615700370,-10.799046516418457,-19.608510971069336,-11.46882438659668
1481615700551,-12.902353286743164,-1.8531121015548706,1.1581950187683105
1481615700730,2.117072820663452,-19.608510971069336,2.692878246307373
1481615700912,2.184709072113037,-0.010773907415568829,-2.5061306953430176
1481615701091,12.160150527954102,15.739481925964355,-13.993510246276855
1481615701271,-3.5482068061828613,-5.57250452041626,4.856039524078369
1481615701451,-2.2379801273345947,-19.608510971069336,-9.146449089050293
1481615701632,6.819284915924072,5.298368453979492,-5.6658782958984375
1481615701811,13.30577564239502,-14.873379707336426,10.936713218688965
1481615702005,6.398504257202148,-12.682684898376465,9.755773544311523
1481615702168,1.3617022037506104,-3.6762967109680176,1.4107834100723267
1481615702352,-1.7884687185287476,-7.383119583129883,0.7032967209815979
1481615702546,-2.9490580558776855,-6.847416877746582,0.7805097699165344
1481615702712,-10.581174850463867,-15.326481819152832,-3.4865562915802
1481615702893,-2.2643163204193115,-0.7374141216278076,1.8579005002975464
1481615703072,-0.11252748221158981,-18.86930274963379,-1.5508441925048828
1481615703252,0.016160860657691956,-2.1380221843719482,-2.5127146244049072
1481615703434,11.02051067352295,-14.106636047363281,-9.603142738342285
1481615703613,-12.826935768127441,-3.8570590019226074,6.104615688323975
1481615703794,5.640739440917969,-19.608510971069336,-2.5264813899993896
1481615703974,-0.5249287486076355,3.1741127967834473,-6.180631637573242
1481615704155,16.4254207611084,19.33018684387207,-1.6735470294952393
1481615704330,-3.840299606323242,-8.690353393554688,3.688267707824707
1481615704512,-5.216965675354004,-18.4257755279541,-7.5453267097473145
1481615704696,7.448361396789551,2.138620615005493,-0.8122329115867615
1481615704875,19.349937438964844,-19.290681838989258,-7.075464725494385
1481615705051,3.248931646347046,-13.785813331604004,10.165780067443848
1481615705235,1.4873977899551392,-1.6071078777313232,1.669357180595398
1481615705416,-5.066729545593262,-13.008894920349121,-1.3748703002929688
1481615705596,-2.027888774871826,-8.725069999694824,10.272920608520508
1481615705776,-13.222577095031738,-15.151705741882324,-3.936067581176758
1481615705956,-8.0145902633667,-1.4496891498565674,-0.4507084786891937
1481615706133,4.158728122711182,-19.608510971069336,-1.7794904708862305
1481615706316,1.8758569955825806,1.4939818382263184,-4.3628339767456055
1481615706496,10.74338150024414,19.117700576782227,-1.0672154426574707
1481615706676,-3.9689879417419434,-7.384915351867676,4.063559055328369
1481615706855,-4.884769916534424,-19.608510971069336,-5.386953830718994
1481615707035,4.424484729766846,-1.1264718770980835,-1.8830395936965942
1481615707217,1.3425486087799072,4.602254390716553,-19.448101043701172
1481615707397,0.03950432687997818,-17.956512451171875,-0.6200982332229614
1481615707577,-2.1535844802856445,-1.8812439441680908,1.4688427448272705
1481615707757,0.4920084476470947,-11.943474769592285,-1.3964180946350098
1481615707936,-6.3518171310424805,-10.948684692382813,14.500482559204102
1481615708115,-12.972981452941895,-19.578584671020508,-3.4973301887512207
1481615708296,-8.607154846191406,-0.22026655077934265,0.6859387755393982
1481615708478,5.370194435119629,-19.608510971069336,-0.4213795065879822
1481615708658,2.536656618118286,-4.191050052642822,3.2788591384887695
1481615708834,8.427590370178223,1.6442179679870605,-12.18409252166748
1481615709019,-8.609549522399902,-4.285022258758545,4.469376087188721
1481615709246,5.971737384796143,-19.608510971069336,-3.0125043392181396
1481615709379,2.2667105197906494,5.489904403686523,-3.580528736114502
1481615709559,7.913434982299805,12.09311294555664,-6.490680694580078
1481615709737,-2.390610456466675,-12.18409252166748,3.9031472206115723
1481615709919,1.754351258277893,-19.5582332611084,-5.2564697265625
1481615710099,4.576516628265381,1.6711528301239014,-2.955641984939575
1481615710279,-2.3319525718688965,-18.58379364013672,2.3086090087890625
1481615710459,4.774038314819336,-8.93037223815918,2.716820478439331
1481615710640,-0.14604631066322327,-18.180370330810547,-4.024054527282715
1481615710820,2.986168146133423,-0.2669534981250763,-3.293224334716797
1481615711000,2.10210919380188,-2.1092917919158936,-13.8253173828125
1481615711176,1.091755986213684,-17.13530158996582,0.06165069341659546
1481615711359,-1.5532383918762207,-1.8088194131851196,4.606443881988525
1481615711541,-4.25629186630249,-9.35893440246582,-0.679354727268219
1481615711721,-2.7246015071868896,-7.568071365356445,8.27735424041748
1481615711899,-16.567874908447266,-17.744625091552734,-8.648454666137695
1481615712077,-8.423998832702637,-1.3982137441635132,3.5625722408294678
1481615712260,3.8977603912353516,-19.534292221069336,0.788889467716217
1481615712441,0.18794482946395874,-4.611232280731201,3.796006679534912
1481615712622,9.893440246582031,-11.399991035461426,-11.842918395996094
1481615712802,-9.373299598693848,-3.688866376876831,3.716399669647217
1481615712982,5.47075080871582,-19.543869018554688,-1.113303780555725
1481615713162,3.26688814163208,5.151723384857178,-3.021482467651367
1481615713338,17.93017578125,5.369596004486084,-1.6741455793380737
1481615713522,2.160767078399658,-8.174403190612793,1.7687164545059204
1481615713703,-2.12485408782959,-6.6127848625183105,-0.9882067441940308
1481615713882,2.9963433742523193,-5.063736438751221,0.11611878126859665
1481615714063,-1.7896658182144165,-4.020462989807129,-0.004788403399288654
1481615714260,-10.04188060760498,-17.161638259887695,-2.2846670150756836
1481615714418,-2.5707740783691406,-0.8774749040603638,-0.025737667456269264
1481615714601,-2.2218191623687744,-18.893842697143555,-3.0328550338745117
1481615714782,0.5057750940322876,-2.8568811416625977,0.9469067454338074
1481615714963,19.503765106201172,19.246389389038086,-6.187215805053711
1481615715145,0.1280897855758667,-5.747879505157471,3.181295394897461
1481615715324,-3.906140089035034,-19.608510971069336,-7.261613845825195
1481615715503,2.965817451477051,0.5668272376060486,-2.191891670227051
1481615715682,0.8990227580070496,0.3196259140968323,-17.006013870239258
1481615715865,-0.7613561153411865,-16.984466552734375,4.10366153717041
1481615716046,-1.0534487962722778,-2.3068132400512695,1.8884265422821045
1481615716226,0.5063736438751221,-10.502165794372559,0.47584760189056396
1481615716401,-5.05715274810791,-7.218518257141113,9.397241592407227
1481615716586,-15.127164840698242,-19.14643096923828,1.0480618476867676
1481615716766,-3.909132719039917,0.7116764783859253,-5.985504249110818E-4
1481615716946,-2.6174609661102295,-16.984466552734375,-1.5155296325683594
1481615717122,-1.8734627962112427,-8.636484146118164,11.037269592285156
1481615717302,-0.4668693244457245,-19.608510971069336,-17.644668579101563
1481615717483,-11.707646369934082,-3.55479097366333,3.7888240814208984
1481615717664,8.3120698928833,-19.608510971069336,-1.115697979927063
1481615717844,1.8746598958969116,5.3360772132873535,-5.597044944763184
1481615718024,19.607913970947266,13.669694900512695,-1.8872294425964355
1481615718205,-3.3692402839660645,-9.379284858703613,2.0877439975738525
1481615718384,-1.0935516357421875,-19.608510971069336,-3.779845952987671
1481615718564,2.8670566082000732,-3.159149169921875,-3.5847184658050537
1481615718746,6.9904704093933105,-15.063119888305664,-12.788628578186035
1481615718924,2.6641478538513184,-12.492345809936523,6.818686485290527
1481615719104,0.6338648796081543,-2.867655038833618,2.7054479122161865
1481615719286,-1.3670891523361206,-8.881889343261719,-2.3762452602386475
1481615719468,-3.491344690322876,-9.885659217834473,10.61768627166748
1481615719648,-14.493300437927246,-13.960590362548828,-2.2182278633117676
1481615719828,-0.1759738177061081,-2.2212207317352295,4.55496883392334
1481615720009,7.052121162414551,-18.58139991760254,-0.7751228213310242
1481615720189,-1.9907786846160889,-5.8639984130859375,3.287837505340576
1481615720367,12.158354759216309,5.916670799255371,-8.728660583496094
1481615720549,-7.559691905975342,-2.9257144927978516,8.319252014160156
1481615720729,7.464522361755371,-19.608510971069336,-4.60165548324585
1481615720909,3.245340347290039,3.5033156871795654,-3.6780924797058105
1481615721089,-12.855067253112793,-15.861586570739746,-6.180631637573242
1481615721270,3.6589386463165283,-8.808267593383789,5.128978729248047
1481615721450,-0.13766659796237946,-6.521805286407471,-3.7044286727905273
1481615721630,2.83174204826355,-7.1239471435546875,0.4752490520477295
1481615721810,-6.535572052001953,-6.2386908531188965,1.7830817699432373
1481615721990,-2.4803929328918457,-17.404050827026367,-2.7748796939849854
1481615722171,-0.6350619792938232,-1.659181833267212,3.4117374420166016
1481615722351,-3.3518824577331543,-10.412383079528809,-0.20231004059314728
1481615722531,-5.480327606201172,-10.248380661010742,18.829198837280273
1481615722711,-18.20610809326172,-19.608510971069336,-9.435548782348633
1481615722891,-14.698602676391602,-2.955641984939575,3.581127166748047
1481615723071,5.4462103843688965,-19.608510971069336,1.0773907899856567
1481615723252,3.6164417266845703,2.6886885166168213,-5.559935092926025
1481615723431,17.039533615112305,19.608510971069336,0.6937199234962463
1481615723612,-2.492363929748535,-8.78432559967041,5.313930511474609
1481615723792,-2.7018566131591797,-19.608510971069336,-3.7433342933654785
1481615723972,5.594650745391846,1.775899052619934,-1.6166846752166748
1481615724152,-8.20373249053955,-19.608510971069336,-13.39436149597168
1481615724333,4.702212333679199,-12.446257591247559,6.133346080780029
1481615724512,0.7236474752426147,-4.259284973144531,-0.9648633003234863
1481615724693,1.9267338514328003,-5.540182590484619,-0.2669534981250763
1481615724873,-0.7942764163017273,-3.2579100131988525,-3.537432909011841
1481615725053,-0.7631517648696899,-18.246212005615234,-0.21188685297966003
1481615725233,-0.30286651849746704,-0.4794389009475708,1.4514847993850708
1481615725414,-0.8038532137870789,-8.023568153381348,-0.04249707981944084
1481615725594,-4.387374401092529,-9.016563415527344,19.436128616333008
1481615725774,-17.875707626342773,-19.608510971069336,-2.4151508808135986
1481615725952,-5.143343925476074,-0.2148796021938324,1.2360066175460815
1481615726132,2.0805611610412598,-19.608510971069336,2.761711597442627
1481615726315,0.46806642413139343,0.5237316489219666,-3.957016944885254
1481615726489,10.506355285644531,-3.3848025798797607,-9.810839653015137
1481615726672,-10.006566047668457,-4.0563764572143555,5.781398773193359
1481615726852,7.102997779846191,-19.608510971069336,-2.7748796939849854
1481615727035,3.930680751800537,5.404910564422607,-4.499303340911865
1481615727213,-19.60910987854004,-19.608510971069336,-5.180453777313232
1481615727396,3.9486372470855713,-9.193136215209961,5.552153587341309
1481615727576,0.6919242739677429,-8.40185260772705,-2.4893712997436523
1481615727756,3.292027235031128,-5.060743808746338,-0.15263035893440247
1481615727931,-2.7539305686950684,-1.9518729448318481,-2.764704465866089
1481615728114,-6.125565052032471,-15.779584884643555,-1.5263035297393799
1481615728296,-0.7721300721168518,-0.8607155084609985,1.0977414846420288
1481615728472,2.632424831390381,-13.17349624633789,4.513070106506348
1481615728657,-3.2974143028259277,-8.50061321258545,9.493608474731445
1481615728836,17.657238006591797,4.74231481552124,-6.649895191192627
1481615729017,-5.729324817657471,-5.508459568023682,4.143764495849609
1481615729197,5.1361613273620605,-19.608510971069336,-2.889202833175659
1481615729377,3.2626984119415283,2.386420488357544,-5.212177276611328
1481615729557,1.347337007522583,-1.6519991159439087,4.152144432067871
1481615729737,-1.2832920551300049,-9.476848602294922,3.2106244564056396
1481615729918,-1.2336124181747437,-19.58576774597168,-2.498948097229004
1481615730098,4.234145641326904,-2.4187421798706055,-0.5482721924781799
1481615730278,1.0336965322494507,3.1088709831237793,-18.35395050048828
1481615730458,1.7423802614212036,-16.36376953125,2.765302896499634
1481615730638,0.9157821536064148,-1.9919757843017578,1.5592238903045654
1481615730818,-0.07900865375995636,-10.22383975982666,-0.25677812099456787
1481615730999,-4.954800605773926,-8.556877136230469,13.013084411621094
1481615731179,-14.147337913513184,-13.213000297546387,-2.73537540435791
1481615731362,-7.439981937408447,-2.360682964324951,1.0648212432861328
1481615731535,0.2890998423099518,-19.608510971069336,-1.136048674583435
1481615731721,-1.7950527667999268,-8.406042098999023,5.329493045806885
1481615731900,11.530475616455078,-16.150087356567383,-15.097835540771484
1481615732080,-15.578472137451172,-3.5667619705200195,2.452261209487915
1481615732260,4.8285064697265625,-19.608510971069336,0.7272387742996216
1481615732439,1.2617442607879639,3.868431329727173,-4.789001941680908
1481615732618,18.925565719604492,11.79443645477295,-5.315726280212402
1481615732801,-8.44195556640625,-5.7754130363464355,1.1240776777267456
1481615732979,7.534552574157715,-19.608510971069336,2.0446481704711914
1481615733161,6.60739803314209,9.43135929107666,-4.876988887786865
1481615733341,-12.137405395507813,-13.718775749206543,-4.668693542480469
1481615733521,-2.3469161987304688,-8.527547836303711,3.932476282119751
1481615733701,0.005386953707784414,-15.081076622009277,-3.2615013122558594
1481615733881,2.1314380168914795,-5.7526679039001465,-0.8487445116043091
1481615734061,0.4842272996902466,-2.366668462753296,-7.725490570068359
1481615734242,-0.7218518257141113,-17.22328758239746,-0.48901569843292236
1481615734422,-1.392826795578003,-0.6326677799224854,2.257133722305298
1481615734602,-4.970961093902588,-10.787673950195313,1.1252747774124146
1481615734782,-7.790133953094482,-10.418368339538574,18.074426651000977
1481615734964,-15.945981979370117,-19.608510971069336,-13.638569831848145
1481615735142,-12.057199478149414,-3.1034839153289795,3.6343982219696045
1481615735323,8.3306245803833,-19.608510971069336,1.1671733856201172
1481615735503,2.8173768520355225,1.3120225667953491,-4.256890773773193
1481615735682,15.628151893615723,18.236635208129883,-10.991181373596191
1481615735863,-3.4350810050964355,-7.41484260559082,6.2650275230407715
1481615736043,-5.143942356109619,-19.608510971069336,-7.240664482116699
1481615736224,4.282628059387207,0.6177040338516235,-0.2974795699119568
1481615736404,6.960542678833008,-15.005659103393555,-3.004124641418457
1481615736580,3.072957992553711,-13.46139907836914,4.192845821380615
1481615736765,-0.5638344883918762,-1.4119805097579956,0.3908534348011017
1481615736953,-0.7230489253997803,-10.509946823120117,1.0079588890075684
1481615737122,-4.055777549743652,-7.362170219421387,9.724050521850586
1481615737305,-11.927314758300781,-14.728529930114746,-1.3694833517074585
1481615737483,-1.8273744583129883,-1.6974890232086182,1.1103110313415527
1481615737660,1.0348936319351196,-18.22705841064453,-2.6593594551086426
1481615737846,1.7747019529342651,-4.682459831237793,2.2433669567108154
1481615738026,5.640739440917969,-12.103287696838379,-12.466010093688965
1481615738206,-12.342109680175781,-4.454412460327148,5.410895824432373
1481615738385,2.3756465911865234,-19.608510971069336,-1.778891921043396
1481615738563,2.9700071811676025,3.3423056602478027,-5.14932918548584
1481615738745,12.722188949584961,16.5247802734375,-3.2094273567199707
1481615738926,-2.6378116607666016,-10.83316421508789,2.9071593284606934
1481615739106,-1.1294646263122559,-19.608510971069336,-3.848080635070801
1481615739282,4.566939830780029,0.050876785069704056,-1.0660183429718018
1481615739466,-3.2638955116271973,-19.608510971069336,-9.713874816894531
1481615739647,8.874707221984863,-11.043853759765625,9.131484985351563
1481615739827,-1.7950527667999268,-5.758055210113525,2.2810757160186768
1481615740005,0.1173158809542656,-7.321468830108643,-0.32441434264183044
1481615740187,-1.6083049774169922,-4.144362926483154,-2.168548107147217
1481615740367,-3.358466386795044,-16.077064514160156,-4.245518207550049
1481615740548,-1.4413094520568848,-1.5071499347686768,3.955819845199585
1481615740728,-5.847837448120117,-11.42752456665039,-0.8852560520172119
1481615740905,-6.054337501525879,-10.492588996887207,19.3044490814209
1481615741088,-11.940482139587402,-16.728885650634766,-2.960430383682251
1481615741268,-7.723694801330566,-2.338536500930786,4.380191802978516
1481615741444,-0.2082955539226532,-16.703746795654297,-1.3646949529647827
1481615741637,0.8080430626869202,-1.3718775510787964,6.700173377990723
1481615741808,4.355651378631592,-19.156007766723633,-4.514267444610596
1481615741987,-14.684237480163574,-2.6144683361053467,1.8309657573699951
1481615742168,7.7183074951171875,-19.608510971069336,-0.970848798751831
1481615742349,1.2012907266616821,3.1519665718078613,-7.088632583618164
1481615742529,19.607913970947266,19.608510971069336,-4.346673011779785
1481615742709,-3.1435868740081787,-8.365341186523438,4.414309501647949
1481615742889,5.958569526672363,-19.608510971069336,-0.585382342338562
1481615743068,7.061697959899902,7.842806339263916,-5.657498836517334
1481615743250,-8.620922088623047,-2.501342296600342,0.25438392162323
1481615743430,2.782660961151123,-11.131241798400879,6.3482255935668945
1481615743610,1.1438298225402832,-4.7590742111206055,-1.2844891548156738
1481615743791,0.6482301354408264,-7.530961513519287,0.33339259028434753
1481615743971,-5.21097993850708,-4.203619480133057,2.718616008758545
1481615744151,-8.506598472595215,-14.337078094482422,-3.883395195007324
1481615744331,-3.648164749145508,-1.9488801956176758,2.0171148777008057
1481615744511,-2.7557260990142822,-17.961898803710938,-0.322618693113327
1481615744687,-4.822520732879639,-10.231022834777832,11.909955978393555
1481615744871,5.950189590454102,-19.608510971069336,-14.353239059448242
1481615745052,-13.025055885314941,-3.883993625640869,2.959831953048706
1481615745232,3.8157589435577393,-19.608510971069336,-1.7537527084350586
1481615745412,2.9245173931121826,1.5209165811538696,-4.774038314819336
1481615745590,16.333843231201172,17.55668067932129,-14.189236640930176
1481615745772,-0.7224503755569458,-7.244256019592285,5.6341552734375
1481615745953,-0.43754035234451294,-19.608510971069336,-5.5329999923706055
1481615746132,5.248688697814941,1.7549498081207275,-2.2445640563964844
1481615746313,7.309497833251953,-7.673416614532471,-5.6012349128723145
1481615746489,1.3287819623947144,-16.299724578857422,1.6968904733657837
1481615746672,-2.02848744392395,-1.2832920551300049,2.12485408782959
1481615746849,-1.5795745849609375,-12.838906288146973,0.29628247022628784
1481615747029,-4.6255974769592285,-7.079654216766357,9.305065155029297
1481615747214,-15.950770378112793,-17.13530158996582,-2.293046712875366
1481615747392,-3.996521234512329,-0.45250412821769714,2.631826162338257
1481615747574,1.7609353065490723,-19.165584564208984,0.4183867573738098
1481615747766,-4.577115058898926,-8.532336235046387,10.171167373657227
1481615747934,6.448782444000244,-19.608510971069336,-15.088258743286133
1481615748111,-11.848904609680176,-3.5847184658050537,2.498948097229004
1481615748292,6.191405773162842,-19.608510971069336,-2.962824583053589
1481615748475,2.866457939147949,4.153341293334961,-8.691550254821777
1481615748656,19.5582332611084,14.689624786376953,0.4357447028160095
1481615748834,-5.829881191253662,-9.2841157913208,3.620033025741577
1481615749016,-0.557250440120697,-15.218743324279785,-4.462193489074707
1481615749196,2.604292869567871,-3.4350810050964355,-1.2725181579589844
1481615749376,10.267534255981445,-8.163030624389648,-10.38724422454834
1481615749556,-1.5670050382614136,-15.444994926452637,4.0294413566589355
1481615749736,-1.1192892789840698,-0.2472013235092163,2.698265314102173
1481615749911,-5.315726280212402,-9.79647445678711,0.8547300100326538
1481615750096,-3.8313212394714355,-14.259865760803223,17.168222427368164
1481615750276,-12.296021461486816,-19.608510971069336,-6.442198276519775
1481615750457,-9.939528465270996,0.1586158573627472,-0.2669534981250763
1481615750637,6.824671745300293,-19.608510971069336,0.9068039059638977
1481615750816,1.193509578704834,-0.424970805644989,-4.984129428863525
1481615750995,17.347787857055664,14.188637733459473,-9.469666481018066
1481615751177,0.05147533491253853,-6.235698223114014,7.486070156097412
1481615751357,-1.2539631128311157,-19.608510971069336,-2.4384944438934326
1481615751537,9.95748519897461,4.529829502105713,-4.271854400634766
1481615751718,-8.437167167663574,-19.608510971069336,1.599326729774475
1481615751898,3.06876802444458,-10.753557205200195,6.241085052490234
1481615752076,-1.5412673950195313,-8.989628791809082,-3.2848446369171143
1481615752257,4.876988887786865,-5.852625846862793,1.2096704244613647
1481615752436,-2.124255418777466,4.025251388549805,-15.558719635009766
1481615752617,-11.43530559539795,-13.461997985839844,-4.4490251541137695
1481615752799,-5.428253650665283,-1.4113819599151611,0.8918401598930359
1481615752976,-2.720411777496338,-16.37514305114746,0.375291109085083
1481615753159,-0.8164227604866028,-8.322244644165039,7.551910877227783
1481615753339,9.305663108825684,-19.458873748779297,-12.385205268859863
1481615753518,-12.685677528381348,-3.378218650817871,3.7032315731048584
1481615753697,1.6879122257232666,-19.608510971069336,-0.33758243918418884
1481615753879,4.190451622009277,0.30466216802597046,-3.1878795623779297
1481615754061,19.278112411499023,15.846622467041016,-6.119579315185547
1481615754238,-8.722675323486328,-3.0184898376464844,11.760917663574219
1481615754420,3.444657802581787,-19.608510971069336,-2.691082715988159
1481615754597,6.4164605140686035,5.836465358734131,-4.574720859527588
1481615754781,18.294095993041992,15.617976188659668,-5.595848083496094
1481615754961,-1.3215993642807007,-8.914810180664063,2.0398597717285156
1481615755141,-3.443460702896118,-19.608510971069336,-6.39192008972168
1481615755321,10.202292442321777,6.435614109039307,-4.562749862670898
1481615755501,-1.215057373046875,-19.608510971069336,-5.925050735473633
1481615755681,3.1938650608062744,-8.828020095825195,6.202179431915283
1481615755862,1.9267338514328003,-14.494497299194336,-5.443217754364014
1481615756042,2.674323320388794,-4.172494888305664,-3.5709519386291504
1481615756222,8.910619735717773,4.684854030609131,-19.608510971069336
1481615756402,-1.4826093912124634,-13.557167053222656,5.445611953735352
1481615756580,1.9399019479751587,-0.524330198764801,1.2413935661315918
1481615756762,-4.331709384918213,-8.29590892791748,-1.0408791303634644
1481615756940,-5.853823184967041,-10.755950927734375,14.208988189697266
1481615757122,-13.317747116088867,-13.69962215423584,-0.2819172441959381
1481615757303,-2.208052635192871,-1.3120225667953491,2.4145524501800537
1481615757483,-2.7305870056152344,-13.927669525146484,-1.6932991743087769
1481615757663,-4.630385875701904,-3.535637378692627,11.476007461547852
1481615757843,1.965639591217041,-11.797429084777832,-1.6531962156295776
1481615758022,-9.814431190490723,-3.35667085647583,5.702389717102051
1481615758204,3.8720226287841797,-19.608510971069336,-2.2164323329925537
1481615758384,2.7880477905273438,2.233191728591919,-4.232349872589111
1481615758565,2.251746654510498,3.883993625640869,-0.14006079733371735
1481615758745,-2.734178304672241,-6.596624374389648,3.6320040225982666
1481615758925,-0.7763199210166931,-19.608510971069336,-4.8051629066467285
1481615759102,3.4961330890655518,2.056020736694336,-2.6635494232177734
1481615759282,4.948216438293457,-19.608510971069336,-10.556633949279785
1481615759465,2.581547975540161,-9.275136947631836,4.337695121765137
1481615759645,-0.9307458996772766,-14.305355072021484,-3.0184898376464844
1481615759826,3.4530375003814697,-5.415684223175049,-1.1917139291763306
1481615760003,-1.721431016921997,-2.297835111618042,-7.879916191101074
1481615760180,-5.4025163650512695,-18.65741539001465,-2.6431987285614014
1481615760366,-1.692102074623108,-0.1586158573627472,2.446275472640991
1481615760546,-3.864241600036621,-13.0328369140625,-1.2192472219467163
1481615760726,-4.947019100189209,-11.59092903137207,15.44439697265625
1481615760905,-16.06150245666504,-19.604921340942383,3.2387564182281494
1481615761086,-9.273940086364746,-3.5655648708343506,6.2632317543029785
1481615761266,0.40462008118629456,-19.608510971069336,-1.6364368200302124
1481615761447,3.132812976837158,-1.128267526626587,-2.3235726356506348
1481615761627,15.849615097045898,1.4472949504852295,-2.7240030765533447
1481615761807,-5.66228723526001,-6.33565616607666,2.121262788772583
1481615761987,7.378929615020752,-19.608510971069336,-2.141014814376831
1481615762163,5.281609058380127,8.046313285827637,-4.1180267333984375
1481615762348,-9.352350234985352,1.4520833492279053,1.7729063034057617
1481615762526,-4.836885929107666,-9.463082313537598,2.803011655807495
1481615762708,2.0889410972595215,-19.608510971069336,-4.620210647583008
1481615762888,7.734468460083008,6.570288181304932,-3.0789434909820557
1481615763066,-4.364629745483398,-19.608510971069336,-1.578976035118103
1481615763248,8.165425300598145,-5.761646270751953,8.081028938293457
1481615763429,-0.9487023949623108,-19.608510971069336,-6.912060260772705
1481615763607,7.420828342437744,1.1959037780761719,-4.777030944824219
1481615763789,19.607913970947266,-15.112799644470215,1.9512743949890137
1481615763969,5.45339298248291,-10.494384765625,8.76577091217041
1481615764149,-0.8661024570465088,-10.764330863952637,-3.930082082748413
1481615764329,3.248931646347046,-3.8989574909210205,-3.001131772994995
1481615764509,4.398746967315674,0.801459014415741,-16.357784271240234
1481615764690,0.4040215313434601,-14.183250427246094,2.210446834564209
1481615764870,0.08738835901021957,-0.6153098344802856,3.553593873977661
1481615765046,-3.848080635070801,-11.485584259033203,-1.6160861253738403
1481615765230,-3.6379895210266113,-8.29590892791748,9.601945877075195
1481615765410,-17.29631233215332,-17.65843391418457,-1.4963760375976563
1481615765590,-9.294290542602539,-2.855085611343384,2.0416555404663086
1481615765771,5.677849292755127,-19.608510971069336,0.04249707981944084
1481615765951,3.4350810050964355,-4.35804557800293,1.3521254062652588
1481615766126,13.479355812072754,3.6942532062530518,-7.905653953552246
1481615766311,-5.68084192276001,-4.025251388549805,5.004479885101318
1481615766491,3.4338839054107666,-19.608510971069336,-1.5466543436050415
1481615766672,4.337096214294434,1.1198878288269043,-1.37906014919281
1481615766852,-10.248978614807129,-18.480243682861328,5.315127849578857
1481615767032,0.7140706777572632,-7.782951354980469,2.9436709880828857
1481615767212,-3.289034605026245,-18.896835327148438,-3.728969097137451
1481615767392,3.2615013122558594,-1.0319008827209473,-0.9600749015808105
1481615767572,9.400833129882813,5.684433460235596,-17.08203125
1481615767752,-2.5534160137176514,-15.181632995605469,3.008314371109009
1481615767933,0.11851298063993454,-3.5045127868652344,1.6938977241516113
1481615768108,-0.7876923680305481,-8.723274230957031,-0.272938996553421
1481615768291,-2.9227216243743896,-1.492186188697815,6.376956462860107
1481615768473,-5.197812080383301,-17.763181686401367,-0.6973112225532532
1481615768653,-9.825803756713867,-3.2178070545196533,4.045602321624756
1481615768834,-3.5673606395721436,-15.71613883972168,1.3976151943206787
1481615769014,-2.3110032081604004,-5.277419090270996,12.033257484436035
1481615769189,1.095347285270691,-19.504962921142578,-7.842207431793213
1481615769372,-15.559916496276855,-3.6960489749908447,1.9889830350875854
1481615769556,6.839635848999023,-19.608510971069336,-0.28311434388160706
1481615769735,1.5604209899902344,1.2689268589019775,-7.288548469543457
1481615769915,8.290521621704102,-4.8716020584106445,-2.517503023147583
1481615770093,-5.765836238861084,-5.40790319442749,6.431424140930176
1481615770276,10.441113471984863,-19.608510971069336,-3.0831332206726074
1481615770453,9.404424667358398,11.507730484008789,-4.294000625610352
1481615770634,19.607913970947266,19.580978393554688,1.390432596206665
1481615770816,-4.409521102905273,-6.888716697692871,3.005321741104126
1481615770996,0.04489128291606903,-19.608510971069336,-1.6723499298095703
1481615771171,6.5714850425720215,7.540538311004639,-4.0982747077941895
1481615771357,12.715006828308105,-18.195932388305664,-5.529408931732178
1481615771532,3.90554141998291,-9.396044731140137,5.804741859436035
1481615771712,-2.2403743267059326,-13.775039672851563,-3.974374771118164
1481615771896,5.215169906616211,-1.2425906658172607,-2.6138696670532227
1481615772076,7.465120792388916,-4.489726543426514,-15.689802169799805
1481615772256,3.3907880783081055,-11.0887451171875,6.291962146759033
1481615772437,-0.05626374110579491,-0.4255693554878235,1.003769040107727
1481615772615,-1.2689268589019775,-11.772290229797363,-1.2425906658172607
1481615772797,-4.969165802001953,-6.585850238800049,11.209651947021484
1481615772977,-12.665925979614258,-19.075801849365234,3.2375593185424805
1481615773153,-7.09222412109375,-0.5614402890205383,3.18249249458313
1481615773338,-0.322618693113327,-19.608510971069336,1.3006501197814941
1481615773518,2.9083564281463623,-0.0454898327589035,0.026336219161748886
1481615773698,13.910311698913574,-1.6903064250946045,-8.85794734954834
1481615773878,-6.668450355529785,-4.505887508392334,8.42699146270752
1481615774058,5.587468147277832,-19.608510971069336,-5.960963726043701
1481615774238,7.423222541809082,4.912901878356934,-3.1633388996124268
1481615774419,-15.757438659667969,-19.068618774414063,6.766612529754639
1481615774599,-0.4183867573738098,-8.98005199432373,4.1180267333984375
1481615774779,-3.271676540374756,-12.219407081604004,-3.39677357673645
1481615774959,4.578312397003174,-3.7636849880218506,-1.449090600013733
1481615775136,-5.593453884124756,-0.6775590777397156,-10.176554679870605
1481615775319,-6.496067523956299,-16.224308013916016,2.7772738933563232
1481615775496,-1.139639973640442,-0.5363011956214905,2.6833014488220215
1481615775680,-4.455609321594238,-11.57476806640625,0.37229835987091064
1481615775860,-2.631227731704712,-6.521206855773926,11.953051567077637
1481615776039,-11.408370971679688,-16.41883659362793,-2.810194253921509
1481615776220,-3.575141668319702,-1.4969745874404907,-0.07900865375995636
1481615776401,-1.8124107122421265,-17.890073776245117,-1.0923545360565186
1481615776581,-1.0696096420288086,-9.46607494354248,15.152902603149414
1481615776761,-0.569819986820221,-19.608510971069336,-14.284405708312988
1481615776941,-14.519636154174805,-5.705382823944092,3.711611270904541
1481615777120,6.1716532707214355,-19.608510971069336,2.6886885166168213
1481615777301,0.9331400990486145,2.7994203567504883,-5.337274074554443
1481615777480,11.654973983764648,-4.4759602546691895,-7.3903021812438965
1481615777661,-7.328651428222656,-5.780799865722656,3.9851486682891846
1481615777842,5.923853397369385,-19.608510971069336,-3.648763418197632
1481615778022,2.8868086338043213,6.180631637573242,-3.2806549072265625
1481615778205,11.447875022888184,12.283452033996582,4.931457042694092
1481615778382,-2.623446464538574,-8.761581420898438,4.35684871673584
1481615778560,-4.1844658851623535,-19.608510971069336,-10.471040725708008
1481615778743,7.429207801818848,4.976348400115967,-1.6663644313812256
1481615778923,-4.281431198120117,-19.608510971069336,-1.279700756072998
1481615779102,5.526416301727295,-8.767566680908203,8.382100105285645
1481615779288,0.5668272376060486,-10.62007999420166,-1.7435773611068726
1481615779463,3.075352191925049,-2.2457611560821533,-0.24899697303771973
1481615779642,4.419097900390625,-0.41539400815963745,-16.88450813293457
1481615779824,2.536058187484741,-15.853805541992188,2.3062148094177246
1481615780004,-1.66696298122406,-0.8667010068893433,3.446453332901001
1481615780185,-3.5057098865509033,-12.274473190307617,-2.2260091304779053
1481615780365,1.611896276473999,-8.722076416015625,13.283629417419434
1481615780545,0.36092591285705566,-19.608510971069336,-16.17522621154785
1481615780725,-8.227075576782227,-3.6379895210266113,2.520495891571045
1481615780905,5.386355400085449,-19.608510971069336,2.0027496814727783
1481615781086,4.856039524078369,1.269525408744812,-4.348468780517578
1481615781260,11.189301490783691,2.78625226020813,-5.349245071411133
1481615781446,-3.730764865875244,-5.580883979797363,9.209297180175781
1481615781620,6.36498498916626,-19.608510971069336,-6.212953567504883
1481615781806,4.356249809265137,1.7836803197860718,-5.397129058837891
1481615781986,3.596689462661743,6.740874767303467,3.533243179321289
1481615782165,-0.08200141042470932,-7.808688640594482,2.360084295272827
1481615782346,-5.81611442565918,-19.608510971069336,-9.766547203063965
1481615782526,3.0172927379608154,0.07242459803819656,-1.7735048532485962
1481615782706,8.793304443359375,-9.421782493591309,-8.557475090026855
1481615782886,0.9091981053352356,-12.911930084228516,4.036025524139404
1481615783065,0.49619829654693604,-3.2573113441467285,0.3250128924846649
1481615783247,-0.4578910768032074,-8.172607421875,-0.6506243348121643
1481615783427,-0.06883329898118973,-5.655104637145996,-0.4034229815006256
1481615783607,-6.008249282836914,-19.41098976135254,0.5147533416748047
1481615783787,-2.123656988143921,-0.9995791912078857,2.2822728157043457
1481615783967,-3.487753391265869,-15.82686996459961,0.702099621295929
1481615784149,-5.579687118530273,-8.500014305114746,18.24321746826172
1481615784324,-8.671798706054688,-19.608510971069336,-14.582484245300293
1481615784508,-10.979808807373047,-3.445854902267456,6.600215435028076
1481615784687,6.235698223114014,-19.608510971069336,1.821987509727478
1481615784868,0.7266402244567871,2.6635494232177734,-3.7906198501586914
1481615785048,16.716915130615234,0.9810241460800171,-5.369596004486084
1481615785226,-9.435548782348633,-6.22731876373291,7.141304969787598
1481615785409,6.01423454284668,-19.608510971069336,-2.4654293060302734
1481615785585,3.934272050857544,9.400833129882813,-2.389413356781006
1481615785769,-19.60910987854004,-19.608510971069336,4.22157621383667
1481615785949,4.92188024520874,-8.91301441192627,6.0597243309021
1481615786129,-2.0254945755004883,-17.38609504699707,-2.964620351791382
1481615786309,4.590283393859863,-2.05781626701355,-2.3457190990448
1481615786487,19.202096939086914,5.95138692855835,-12.171523094177246
1481615786666,-1.912368655204773,-13.318943977355957,1.9865888357162476
1481615786850,1.7094600200653076,-2.079962730407715,4.062960147857666
1481615787030,-1.4646528959274292,-8.740033149719238,-0.03292027488350868
1481615787210,-4.692635536193848,-6.192004203796387,1.578976035118103
1481615787390,-8.106766700744629,-19.59055519104004,-2.2816741466522217
1481615787570,-3.270479440689087,-0.5728127360343933,0.99479079246521
1481615787751,4.872798919677734,-16.224308013916016,1.028908133506775
1481615787931,1.6950948238372803,-4.874594688415527,5.506065368652344
1481615788110,6.843226909637451,-19.358917236328125,-12.40495777130127
1481615788291,-14.107833862304688,-5.576694488525391,0.9684545993804932
1481615788472,4.88836145401001,-19.608510971069336,1.0552444458007813
1481615788652,2.385223388671875,4.641160011291504,-4.197035789489746
1481615788832,-10.69130802154541,-15.831658363342285,8.24383544921875
1481615789012,-2.0452468395233154,-5.921459197998047,6.622960567474365
1481615789192,0.8373720645904541,-19.608510971069336,-5.657498836517334
1481615789372,4.805761337280273,2.9095535278320313,-1.4203602075576782
1481615789553,-1.5304933786392212,-5.218760967254639,-19.583372116088867
1481615789732,6.537966251373291,-13.977349281311035,6.536170482635498
1481615789913,-0.02992752194404602,-2.713229179382324,1.246780514717102
1481615790093,-1.0097545385360718,-10.502165794372559,-0.5093663930892944
1481615790272,-7.061099529266357,-10.74457836151123,6.060921669006348
1481615790448,-8.487444877624512,-18.228254318237305,-0.17956513166427612
1481615790633,-2.890998601913452,0.4902127981185913,0.7003039717674255
1481615790814,0.4878185987472534,-15.175048828125,1.6394295692443848
1481615790994,-0.9810241460800171,-5.391143798828125,13.808558464050293
1481615791175,-4.468777656555176,-19.608510971069336,-18.10016441345215
1481615791355,-11.783661842346191,-4.478952884674072,4.44782829284668
1481615791535,2.7252001762390137,-19.608510971069336,-0.9750386476516724
1481615791709,4.111443042755127,1.1252747774124146,-5.178658485412598
1481615791895,17.81525421142578,7.9182233810424805,-2.337938070297241
1481615792076,-5.868188381195068,-5.006874084472656,0.21966800093650818
1481615792256,5.484517574310303,-19.608510971069336,0.375291109085083
1481615792435,5.152920722961426,6.5948286056518555,-2.700061082839966
1481615792616,19.607913970947266,-8.197746276855469,13.91390323638916
1481615792796,2.8425159454345703,-12.214019775390625,4.764461517333984
1481615792976,0.40222588181495667,-4.70879602432251,1.9345149993896484
1481615793157,0.646434485912323,-8.381501197814941,1.0420763492584229
1481615793336,-3.251924514770508,-7.8332295417785645,1.8483237028121948
1481615793514,-6.5726823806762695,-17.917009353637695,-1.060032844543457
1481615793695,-3.1423897743225098,-1.0785878896713257,2.9508535861968994
1481615793876,-1.6531962156295776,-12.27507209777832,-0.8194155097007751
1481615794057,-4.126406669616699,-10.573392868041992,19.48461151123047
1481615794237,-19.127277374267578,-19.608510971069336,-4.550180435180664
1481615794417,-13.996502876281738,-3.200449228286743,4.868010520935059
1481615794597,6.14950704574585,-19.608510971069336,2.1978771686553955
1481615794777,2.3810336589813232,-1.8189947605133057,0.9738415479660034
1481615794958,8.117541313171387,-3.2381577491760254,-10.333374977111816
1481615795138,-7.271190643310547,-5.317522048950195,8.124723434448242
1481615795318,3.8570590019226074,-19.608510971069336,-5.036801815032959
1481615795498,2.7485435009002686,4.067748546600342,-2.871845006942749
1481615795678,-16.135723114013672,-19.608510971069336,-0.05267243832349777
1481615795857,0.3627215623855591,-8.595782279968262,5.959766387939453
1481615796039,-4.660912036895752,-18.194137573242188,-3.8941690921783447
1481615796219,4.764461517333984,-5.670666694641113,0.11312603205442429
1481615796399,-0.2064998894929886,2.516904592514038,-14.957775115966797
1481615796577,-1.3084312677383423,-14.466364860534668,0.628477931022644
1481615796759,-1.4646528959274292,-2.6162638664245605,1.9937714338302612
1481615796939,1.7794904708862305,-9.345766067504883,-0.08738835901021957
1481615797119,-4.7584757804870605,-7.204153060913086,10.705673217773438
1481615797300,-14.612411499023438,-17.451335906982422,2.5043349266052246
1481615797480,-3.292027235031128,-0.5063736438751221,2.542642116546631
1481615797660,-6.279392719268799,-15.257648468017578,-0.6865373253822327
1481615797839,-2.960430383682251,-10.891223907470703,18.16002082824707
1481615798018,-3.2776620388031006,-19.608510971069336,-14.577096939086914
1481615798201,-13.027449607849121,-4.880579948425293,2.874239206314087
1481615798381,0.3902548849582672,-19.608510971069336,-0.11133038252592087
1481615798561,1.854907751083374,0.8601169586181641,-1.0947487354278564
1481615798740,12.101492881774902,-6.645705223083496,-6.293159008026123
1481615798921,-14.09346866607666,-5.251681327819824,7.09342098236084
1481615799101,4.898536682128906,-19.608510971069336,-3.158550500869751
1481615799309,2.011129379272461,4.957194805145264,-6.700173377990723
1481615799462,18.678363800048828,12.471396446228027,-4.8895583152771
1481615799642,-8.992621421813965,-8.3707275390625,4.094683647155762
1481615799821,5.064335346221924,-19.608510971069336,-2.3104045391082764
1481615800002,5.078700542449951,9.666589736938477,-3.067570924758911
1481615800182,-19.60910987854004,-19.608510971069336,-1.1348515748977661
1481615800363,3.8355112075805664,-7.937975883483887,4.894346714019775
1481615800543,-0.40043023228645325,-16.155473709106445,-3.716399669647217
1481615800723,6.156091213226318,-1.9039889574050903,-2.832340717315674
1481615800903,14.784793853759766,-2.052429437637329,-17.609952926635742
1481615801083,0.9702502489089966,-12.749722480773926,3.22678542137146
1481615801262,3.00711727142334,-0.5440823435783386,1.6089035272598267
1481615801444,-3.448249101638794,-9.056666374206543,-1.8668787479400635
1481615801623,-4.871003150939941,-5.987299919128418,2.3355438709259033
1481615801804,-7.960122108459473,-14.405911445617676,-1.920149803161621
1481615801985,-1.7944542169570923,0.5129576921463013,2.1422119140625
1481615802161,-6.5265936851501465,-14.482525825500488,0.06404489278793335
1481615802342,-4.489128112792969,-10.47702693939209,18.825607299804688
1481615802524,-11.198280334472656,-19.608510971069336,-0.44173020124435425
1481615802702,-5.979518890380859,-3.248931646347046,7.515398979187012
1481615802886,-1.8136078119277954,-19.608510971069336,-0.7224503755569458
1481615803065,4.5406036376953125,-2.5145103931427,-1.4077905416488647
1481615803244,14.335881233215332,-2.8814218044281006,-12.384607315063477
1481615803426,-12.137405395507813,-6.479308128356934,6.610989570617676
1481615803606,5.008669853210449,-19.608510971069336,-2.029085874557495
1481615803786,4.307767391204834,0.5859808921813965,-3.205836057662964
1481615803967,9.607333183288574,16.41644287109375,0.9115923047065735
1481615804146,-3.3004069328308105,-4.856637954711914,4.975749492645264
1481615804323,6.3051300048828125,-19.608510971069336,-3.4811692237854004
1481615804506,4.577713489532471,5.989095687866211,-4.547786235809326
1481615804686,-18.08160972595215,-16.66543960571289,8.558672904968262
1481615804867,-0.5015852451324463,-8.29471206665039,2.5695769786834717
1481615805047,-4.095880508422852,-19.608510971069336,-2.318185806274414
1481615805227,4.004302501678467,0.5668272376060486,-1.0851719379425049
1481615805407,17.117942810058594,-19.31402587890625,-9.330204010009766
1481615805590,0.3561375141143799,-9.412205696105957,7.5231804847717285
1481615805762,-1.215057373046875,-11.348516464233398,-3.378817081451416
1481615805948,2.364872694015503,-2.7688941955566406,-0.4387374520301819
1481615806126,-0.3561375141143799,1.0127472877502441,-13.98872184753418
1481615806308,0.9295487999916077,-14.059350967407227,4.2724528312683105
1481615806488,-1.469441294670105,-2.1727380752563477,2.810194253921509
1481615806666,-2.1547815799713135,-9.516951560974121,-0.7332242727279663
1481615806848,-6.118980884552002,-11.637616157531738,12.792818069458008
1481615807027,-13.176488876342773,-17.037139892578125,-1.8632874488830566
1481615807206,1.071405291557312,-1.146224021911621,0.706289529800415
1481615807390,-4.065953254699707,-15.436614990234375,-1.083974838256836
1481615807569,-7.281365871429443,-9.734824180603027,18.64424705505371
1481615807748,-6.895899295806885,-14.320917129516602,-4.888959884643555
1481615807929,-9.210494041442871,-2.5246856212615967,5.559935092926025
1481615808109,2.9071593284606934,-19.608510971069336,0.7092822790145874
1481615808288,-1.2880805730819702,0.7254431247711182,1.1905168294906616
1481615808465,-13.201627731323242,-19.608510971069336,-16.02020263671875
1481615808649,-14.018649101257324,-5.386355400085449,5.125985622406006
1481615808830,4.2090067863464355,-19.608510971069336,-1.4305355548858643
1481615809010,-0.7703344225883484,3.6780924797058105,-4.5394062995910645
1481615809190,19.580978393554688,11.374253273010254,-7.969698905944824
1481615809371,-5.917868137359619,-3.686472177505493,4.9380412101745605
