timestamp,ax,ay,az
1475676748819,-4.014477729797363,-8.180388450622559,3.1513679027557373
1475676748990,-3.839700937271118,-7.423222541809082,2.20924973487854
1475676749176,-4.390965938568115,-7.146093368530273,1.5197194814682007
1475676749361,-2.430713176727295,-9.930550575256348,3.251325845718384
1475676749535,-2.0488381385803223,-16.705541610717773,6.3961100578308105
1475676749716,4.86142635345459,-7.644686222076416,2.5109190940856934
1475676749895,4.0970778465271,-8.416815757751465,2.363675594329834
1475676750072,3.8804023265838623,-8.358158111572266,2.206855535507202
1475676750256,4.122815132141113,-8.616731643676758,2.9017724990844727
1475676750434,4.918288707733154,-7.27298641204834,2.9963433742523193
1475676750613,1.3730746507644653,-8.363545417785645,1.9399019479751587
1475676750793,2.345120668411255,-12.767080307006836,2.6617536544799805
1475676750973,4.504091739654541,-7.995436668395996,-0.7805097699165344
1475676751154,3.4955344200134277,-8.837596893310547,0.29209262132644653
1475676751333,3.665522813796997,-9.275735855102539,-0.518943190574646
1475676751517,3.598485231399536,-8.993818283081055,-0.7529764175415039
1475676751696,4.003105163574219,-8.962095260620117,-0.39564183354377747
1475676751876,3.5847184658050537,-9.296086311340332,-0.1149216815829277
1475676752055,4.593874454498291,-7.952341079711914,-0.03950432687997818
1475676752236,5.504868030548096,-7.5231804847717285,0.4991910457611084
1475676752417,5.7790045738220215,-8.138489723205566,0.6949170231819153
1475676752596,5.078700542449951,-8.103774070739746,0.27712884545326233
1475676752781,3.0544028282165527,-6.377554893493652,1.9829975366592407
1475676752958,5.261856555938721,-7.721899032592773,2.1990742683410645
1475676753135,4.558559894561768,-8.237849235534668,3.2603042125701904
1475676753316,2.182913303375244,-8.099584579467773,3.750516891479492
1475676753498,3.404554843902588,-5.966948986053467,2.2882583141326904
1475676753681,7.126341342926025,-8.571840286254883,-2.407968282699585
1475676753857,1.964442491531372,-6.9461774826049805,2.558803081512451
1475676754039,13.179481506347656,-17.40704345703125,-0.16340427100658417
1475676754228,3.7852327823638916,-3.2387564182281494,-1.5867571830749512
1475676754396,2.7892448902130127,-1.2791022062301636,-6.050746440887451
1475676754576,-1.4718354940414429,-17.542316436767578,7.592612266540527
1475676754779,-1.811812162399292,0.10893617570400238,-0.4902127981185913
1475676754940,4.335899353027344,-15.195998191833496,-1.5544354915618896
1475676755121,-3.469198226928711,-4.9152960777282715,2.6647465229034424
1475676755298,15.68262004852295,-16.955137252807617,0.0867898091673851
1475676755480,-4.63397741317749,-0.8672995567321777,-1.4233529567718506
1475676755656,5.0697221755981445,-19.608510971069336,9.40023422241211
1475676755837,0.8104372620582581,3.846883535385132,1.0091559886932373
1475676756017,12.40376091003418,-11.326369285583496,-9.907206535339355
1475676756201,1.876455545425415,-7.423222541809082,2.3038206100463867
1475676756379,1.5759832859039307,-3.1878795623779297,-0.011372458189725876
1475676756561,4.250306606292725,2.010530948638916,-5.39293909072876
1475676756742,2.0213048458099365,-12.612055778503418,4.347870349884033
1475676756921,2.9472622871398926,-19.608510971069336,8.823830604553223
1475676757099,-5.790376663208008,0.788889467716217,3.337517261505127
1475676757278,10.40699577331543,-5.829881191253662,0.07721300423145294
1475676757460,-4.304176330566406,0.9193734526634216,6.117185115814209
1475676757642,16.382923126220703,-19.608510971069336,5.4653639793396
1475676757820,-3.221997022628784,0.013168109580874443,-2.126051187515259
1475676758002,19.607913970947266,-19.357120513916016,17.316062927246094
1475676758182,-3.0807390213012695,4.207211017608643,-1.567603588104248
1475676758360,11.3455228805542,-5.107430934906006,-0.9684545993804932
1475676758542,-2.321178436279297,-3.339911460876465,-0.9498994946479797
1475676758723,0.03232172131538391,-2.8006174564361572,9.103353500366211
1475676758901,1.5837644338607788,3.5236663818359375,-5.710171222686768
1475676759084,19.607913970947266,-19.608510971069336,-11.635820388793945
1475676759261,-2.036268472671509,-11.047445297241211,3.8295257091522217
1475676759444,-2.80361008644104,1.4245500564575195,-3.2638955116271973
1475676759622,7.0353617668151855,-1.9393033981323242,-1.8507179021835327
1475676759808,-1.8034324645996094,-8.769960403442383,4.316745758056641
1475676759985,4.863820552825928,-19.51274299621582,-3.5170822143554688
1475676760165,-4.183867454528809,1.3221979141235352,3.5284547805786133
1475676760342,14.177265167236328,-0.5380968451499939,-1.45806884765625
1475676760526,-6.409876346588135,-1.6867151260375977,2.8868086338043213
1475676760706,14.698602676391602,-7.755417823791504,-1.1581950187683105
1475676760883,-2.9047651290893555,-2.0691888332366943,-1.227626919746399
1475676761066,19.377471923828125,-19.608510971069336,8.787917137145996
1475676761246,0.7948749661445618,5.295974254608154,-1.4095861911773682
1475676761425,12.152369499206543,-18.433557510375977,-15.290569305419922
1475676761607,-0.6829460263252258,-11.235389709472656,0.3315969407558441
1475676761787,-0.628477931022644,-0.15143325924873352,-1.184531331062317
1475676761967,4.78122091293335,-0.5662286877632141,-3.315969467163086
1475676762147,4.593276023864746,-3.5260605812072754,0.6661866307258606
1475676762324,1.0869675874710083,-12.734160423278809,0.7194576263427734
1475676762508,-4.730343818664551,1.0414776802062988,0.5620388388633728
1475676762687,5.22175407409668,-4.965574264526367,-3.4799721240997314
1475676762865,-3.5727474689483643,-5.965153694152832,4.379593372344971
1475676763046,6.263830184936523,-18.668190002441406,-6.717531204223633
1475676763227,-4.620210647583008,1.2892776727676392,2.63362193107605
1475676763405,14.939220428466797,-6.069900035858154,4.343081951141357
1475676763588,-5.506065368652344,1.3114240169525146,7.922413349151611
1475676763767,9.806650161743164,-17.38848876953125,-3.0651767253875732
1475676763948,-3.6326024532318115,0.707486629486084,-0.9385270476341248
1475676764128,19.607913970947266,-19.608510971069336,-3.380612850189209
1475676764308,-2.9520506858825684,4.200626850128174,-4.480748653411865
1475676764488,6.387730121612549,-3.60028076171875,13.669095993041992
1475676764666,-0.9295487999916077,-4.888959884643555,4.66330623626709
1475676764847,-1.4317326545715332,-2.671929121017456,0.010175357572734356
1475676765029,5.0900726318359375,2.094327926635742,-2.876034736633301
1475676765209,19.607913970947266,-18.999786376953125,-3.0148985385894775
1475676765387,0.06763619929552078,-8.449137687683105,6.839635848999023
1475676765569,-1.9740192890167236,0.6631938815116882,-1.2743138074874878
1475676765750,6.028001308441162,-1.1216834783554077,-4.150348663330078
1475676765927,8.640673637390137,-6.287173748016357,-0.41359832882881165
1475676766110,4.613626480102539,-13.361440658569336,-1.8986018896102905
1475676766290,-5.505466938018799,1.1839327812194824,3.0538041591644287
1475676766471,3.73016619682312,-6.584054470062256,-0.9253589510917664
1475676766650,-2.652176856994629,-6.8575921058654785,6.157288074493408
1475676766832,7.451952934265137,-19.608510971069336,-5.763442039489746
1475676767012,-4.945223808288574,1.1210849285125732,2.717418909072876
1475676767191,19.568408966064453,-1.9183541536331177,1.357512354850769
1475676767369,-4.587290287017822,4.631583213806152,6.119579315185547
1475676767551,14.906898498535156,-16.91862678527832,0.035913024097681046
1475676767730,-4.1192240715026855,-1.0678139925003052,-4.812345504760742
1475676767909,19.607913970947266,-19.608510971069336,-15.62096881866455
1475676768090,-3.207033157348633,6.9258270263671875,0.3495534360408783
1475676768272,5.097255229949951,-2.828150749206543,11.338939666748047
1475676768450,-0.8972271084785461,-5.184045314788818,1.294066071510315
1475676768631,5.085883140563965,-11.012130737304688,9.213486671447754
1475676768812,2.070984363555908,3.1932666301727295,-3.442263603210449
1475676768990,19.607913970947266,-19.608510971069336,-14.214375495910645
1475676769175,1.5233107805252075,-6.4817023277282715,1.4981716871261597
1475676769358,4.038419723510742,-8.751405715942383,-2.7329812049865723
1475676769532,9.134477615356445,1.566406488418579,-4.255693435668945
1475676769715,4.561553001403809,-5.10383939743042,4.307168960571289
1475676769891,1.7854759693145752,-12.9927339553833,6.7929487228393555
1475676770073,-6.066308498382568,3.027467966079712,0.4878185987472534
1475676770254,2.9891607761383057,-11.340734481811523,-1.0271124839782715
1475676770436,-2.61087703704834,-6.719326972961426,-4.789600372314453
1475676770612,8.899846076965332,-19.608510971069336,-10.486004829406738
1475676770794,-5.400720596313477,1.3467384576797485,6.156091213226318
1475676770973,15.518616676330566,2.0841526985168457,-0.13108254969120026
1475676771156,-8.380903244018555,1.0145429372787476,3.06876802444458
1475676771335,12.934674263000488,-17.726070404052734,2.0404584407806396
1475676771512,-5.084087371826172,-1.632246971130371,-5.300164222717285
1475676771695,19.607913970947266,-19.608510971069336,17.57463836669922
1475676771876,-1.4221558570861816,8.283339500427246,1.6364368200302124
1475676772053,11.403582572937012,-9.134477615356445,8.433575630187988
1475676772235,-2.892794132232666,-5.231330871582031,-5.507861137390137
1475676772414,0.2106897532939911,-5.616796970367432,-0.3621230125427246
1475676772594,2.477400302886963,4.0976762771606445,-5.339668273925781
1475676772776,19.607913970947266,-19.608510971069336,-19.608510971069336
1475676772953,0.35015198588371277,-8.920795440673828,19.014150619506836
1475676773137,-1.8399440050125122,0.2801215946674347,-1.2384008169174194
1475676773315,3.3925838470458984,-2.367865562438965,-3.378817081451416
1475676773498,1.1713632345199585,-3.2806549072265625,1.0720038414001465
1475676773676,7.371747016906738,-11.77169132232666,-0.47584760189056396
1475676773857,-6.1267619132995605,2.625242233276367,2.2631192207336426
1475676774050,4.78660774230957,-10.517727851867676,-0.619499683380127
1475676774217,-0.7170634269714355,-6.408679485321045,-3.5919010639190674
1475676774397,11.158177375793457,-17.040132522583008,-6.856993675231934
1475676774578,-7.218518257141113,1.5496470928192139,5.08648157119751
1475676774783,7.727285861968994,-5.351639270782471,6.054337501525879
1475676774934,1.6053122282028198,-6.6828155517578125,-5.722142219543457
1475676775118,12.804789543151855,-19.608510971069336,-8.562263488769531
1475676775299,-5.376778602600098,-0.17896658182144165,0.5117605924606323
1475676775477,19.607913970947266,1.2755109071731567,3.230376720428467
1475676775659,-5.8221001625061035,7.363367557525635,13.650541305541992
1475676775838,10.785280227661133,-4.444835662841797,1.4520833492279053
1475676776020,-3.648164749145508,-2.164358377456665,-2.3684639930725098
1475676776199,19.607913970947266,-19.608510971069336,-14.574104309082031
1475676776380,-1.1528080701828003,6.387131690979004,-0.6751648783683777
1475676776559,3.1058781147003174,-0.9301473498344421,10.4542818069458
1475676776740,-0.42018240690231323,-5.152920722961426,0.13048399984836578
1475676776917,4.349067211151123,-12.114062309265137,0.22086510062217712
1475676777100,4.332906723022461,4.760869979858398,-3.535637378692627
1475676777280,19.607913970947266,-14.388553619384766,3.729567766189575
1475676777461,1.467047095298767,-10.794857025146484,15.612588882446289
1475676777641,-3.405751943588257,2.4217350482940674,-2.5995044708251953
1475676777821,3.2603042125701904,-7.492654323577881,0.010773907415568829
1475676777998,-2.9053637981414795,-7.371148586273193,-6.433818340301514
1475676778182,11.363479614257813,-15.523405075073242,-6.33565616607666
1475676778361,-5.91128396987915,2.6659436225891113,4.325125217437744
1475676778542,12.650961875915527,3.181894063949585,4.926070213317871
1475676778720,-3.4063503742218018,-0.061052143573760986,-0.9636662006378174
1475676778900,16.146495819091797,-17.801488876342773,-4.496310710906982
1475676779081,-6.12017822265625,-1.1306617259979248,-4.775833606719971
1475676779261,19.607913970947266,-16.950349807739258,18.494609832763672
1475676779440,-3.906738519668579,9.915586471557617,2.5713725090026855
1475676779621,14.63036823272705,-6.806715488433838,3.8947675228118896
1475676779801,-4.002506732940674,-3.959411144256592,-5.462969779968262
1475676779979,19.600730895996094,-19.608510971069336,1.128267526626587
1475676780160,0.3663128614425659,7.381922245025635,-3.5877113342285156
1475676780341,15.293561935424805,-19.608510971069336,-17.486051559448242
1475676780520,1.8914192914962769,-7.879317760467529,11.844714164733887
1475676780704,-0.74040687084198,-1.106719732284546,0.7481880187988281
1475676780883,4.777030944824219,6.542156219482422,-5.732915878295898
1475676781063,19.464262008666992,-7.738059997558594,0.74040687084198
1475676781242,1.2186486721038818,-9.223063468933105,7.581838130950928
1475676781428,-1.5963339805603027,1.116895079612732,-0.7990648150444031
1475676781602,9.005789756774902,-3.664924144744873,-0.17058686912059784
1475676781784,-4.70879602432251,-10.259154319763184,-2.676717519760132
1475676781962,8.730456352233887,-16.8222599029541,-10.370484352111816
1475676782146,-7.95712947845459,1.3946224451065063,6.048352241516113
1475676782323,8.546102523803711,-2.0045454502105713,7.3232645988464355
1475676782503,-0.3315969407558441,-5.540781497955322,-7.241262912750244
1475676782685,18.796279907226563,-16.4625301361084,0.010773907415568829
1475676782866,-6.940192222595215,-1.2988544702529907,-1.8351556062698364
1475676783045,19.607913970947266,-9.915586471557617,10.517129898071289
1475676783226,-6.013636112213135,7.339425086975098,-1.1953052282333374
1475676783406,13.306374549865723,-6.378751754760742,1.6639702320098877
1475676783587,-2.980182647705078,-3.97257924079895,-1.7974469661712646
1475676783766,18.97344970703125,-19.57918357849121,-1.5017629861831665
1475676783949,0.8481459617614746,4.882375717163086,-3.4614171981811523
1475676784128,19.607913970947266,-10.08437728881836,-5.274426460266113
1475676784304,1.692102074623108,-11.086949348449707,19.30983543395996
1475676784485,-1.7148469686508179,-0.5973533391952515,-1.0145429372787476
1475676784667,3.5877113342285156,-2.5480291843414307,-2.300827741622925
1475676784848,1.3186066150665283,-5.339069843292236,-0.08439560979604721
1475676785025,8.755595207214355,-10.390835762023926,-1.6639702320098877
1475676785208,-5.521627902984619,1.5646108388900757,1.6561890840530396
1475676785388,7.484274387359619,-11.858481407165527,2.124255418777466
1475676785567,1.27191960811615,-6.051344871520996,-4.612429618835449
1475676785748,19.10213851928711,-19.608510971069336,-5.98610258102417
1475676785928,-7.784148216247559,-1.7064672708511353,5.567716121673584
1475676786108,19.19910430908203,3.3907880783081055,1.0732009410858154
1475676786288,-5.0236334800720215,5.191826343536377,11.66694450378418
1475676786467,19.598934173583984,-11.384428977966309,1.7082629203796387
1475676786649,-6.710947513580322,-3.9869444370269775,-7.31967306137085
1475676786831,19.607913970947266,-19.608510971069336,12.055403709411621
1475676787006,-5.04099178314209,10.301053047180176,1.43532395362854
1475676787189,0.0077811554074287415,-2.919728994369507,8.564059257507324
1475676787370,-0.20350714027881622,-4.498106479644775,2.5767595767974854
1475676787548,14.770428657531738,-18.528127670288086,3.8576574325561523
1475676787730,-2.2248120307922363,8.576030731201172,-4.252102375030518
1475676787910,2.4199392795562744,-10.630255699157715,-15.11878490447998
1475676788091,-0.2783259451389313,-6.689998149871826,5.139752388000488
1475676788270,-0.5979518890380859,-0.8912416100502014,-1.304241418838501
1475676788451,3.362656354904175,1.9584569931030273,-6.6846113204956055
1475676788629,14.794370651245117,-4.894346714019775,-3.8989574909210205
1475676788811,1.1492167711257935,-7.587224960327148,9.667786598205566
1475676788989,-2.4378957748413086,1.8177976608276367,-1.7154455184936523
1475676789171,5.491700172424316,-0.15981295704841614,-1.7615338563919067
1475676789351,-0.7038952708244324,-7.662044048309326,-2.276287317276001
1475676789529,8.316259384155273,-14.166491508483887,-3.7439329624176025
1475676789711,-7.3023152351379395,1.468244194984436,3.406949043273926
1475676789892,5.439626216888428,-9.191340446472168,-0.42197805643081665
1475676790069,-0.050876785069704056,-9.656414031982422,-1.688510775566101
1475676790252,12.09191608428955,-19.51873016357422,-10.061633110046387
1475676790432,-4.823119163513184,1.169567584991455,2.522890090942383
1475676790610,12.999917030334473,7.6536641120910645,5.39293909072876
1475676790791,1.9590555429458618,-6.480505466461182,-6.655880928039551
1475676790972,16.0483341217041,-18.024747848510742,-2.258330821990967
1475676791153,-6.943184852600098,-1.9722236394882202,-1.3670891523361206
1475676791331,19.607913970947266,-1.490989089012146,8.58919906616211
1475676791512,-6.476315498352051,7.490260124206543,11.050437927246094
1475676791691,9.618106842041016,0.1628057211637497,1.6418237686157227
1475676791874,-7.402273178100586,-4.1198225021362305,-5.764639377593994
1475676792051,19.607913970947266,-19.608510971069336,-6.75883150100708
1475676792234,-1.5209165811538696,7.865550994873047,-2.764704465866089
1475676792414,-0.3860650360584259,-12.574347496032715,12.18528938293457
1475676792592,1.434126853942871,-2.9777884483337402,-1.1288660764694214
1475676792774,3.2956185340881348,-12.963404655456543,-3.028665065765381
1475676792956,0.8475474119186401,8.62511157989502,-2.7347769737243652
1475676793135,19.607913970947266,-17.575834274291992,-8.588001251220703
1475676793313,0.023343466222286224,-7.1706342697143555,14.76384449005127
1475676793495,-1.8070237636566162,1.062427043914795,-1.3970166444778442
1475676793677,6.260239124298096,3.025073766708374,-3.9456443786621094
1475676793856,7.210138320922852,-1.9399019479751587,0.45908817648887634
1475676794034,7.043741226196289,-13.345878601074219,-2.056020736694336
1475676794216,-3.974973440170288,2.403778553009033,0.8661024570465088
1475676794397,3.4350810050964355,-11.296442031860352,-0.38067805767059326
1475676794573,-1.4862006902694702,-12.929885864257813,-4.446630954742432
1475676794759,11.674726486206055,-18.85613441467285,-6.417657852172852
1475676794936,-6.3069257736206055,-0.8301894664764404,5.043385982513428
1475676795117,17.67399787902832,9.478644371032715,3.030460834503174
1475676795297,0.5512649416923523,-8.851962089538574,-3.1926679611206055
1475676795477,19.607913970947266,-18.57062530517578,5.078700542449951
1475676795657,-5.583877086639404,-0.49320554733276367,-0.19931729137897491
1475676795837,19.607913970947266,-6.1716532707214355,9.3427734375
1475676796023,-5.097255229949951,9.35893440246582,5.971138954162598
1475676796198,16.233884811401367,-7.310096263885498,-2.05123233795166
1475676796375,-6.02919864654541,-2.9975404739379883,-7.438186168670654
1475676796557,19.607913970947266,-19.608510971069336,12.412139892578125
1475676796738,1.3766659498214722,9.342175483703613,-2.072780132293701
1475676796919,11.357494354248047,-18.931550979614258,-12.097901344299316
1475676797096,1.9015947580337524,-4.653729438781738,7.339425086975098
1475676797279,-0.5895721912384033,-1.204882025718689,-0.8170213103294373
1475676797458,3.8073792457580566,7.90086555480957,-4.81593656539917
1475676797640,13.853449821472168,-0.2992752194404602,14.841057777404785
1475676797821,1.5921441316604614,-10.035895347595215,11.513715744018555
1475676797999,-2.3738510608673096,1.2270283699035645,-1.3533225059509277
1475676798179,5.640739440917969,1.22642982006073,-3.6810851097106934
1475676798357,13.472172737121582,-11.286865234375,11.860276222229004
1475676798538,2.258330821990967,-13.901333808898926,9.946710586547852
1475676798720,-3.6762967109680176,3.1256303787231445,-1.9141643047332764
1475676798900,3.9624037742614746,-4.835090160369873,-1.2198457717895508
1475676799077,-2.589329242706299,-10.920552253723145,-5.7538652420043945
1475676799260,6.948571681976318,-16.278776168823242,-1.8626888990402222
1475676799441,-7.334636688232422,2.145204782485962,0.7230489253997803
1475676799618,2.9747955799102783,-9.817423820495605,-0.7984662652015686
1475676799801,-0.4291606545448303,-13.105859756469727,-2.9484593868255615
1475676799981,9.439739227294922,-18.797475814819336,-7.314884662628174
1475676800161,-5.565920352935791,2.6557681560516357,4.480149745941162
1475676800341,7.144298076629639,-5.7089738845825195,4.73573112487793
1475676800521,1.381454348564148,-12.285247802734375,-8.225279808044434
1475676800700,19.252973556518555,-19.608510971069336,-2.4229321479797363
1475676800882,-5.592256546020508,-1.1659762859344482,-1.470638394355774
1475676801060,19.607913970947266,-5.248688697814941,9.831191062927246
1475676801241,-4.7189717292785645,14.532804489135742,10.357914924621582
1475676801422,13.584101676940918,-7.62373685836792,0.6236895322799683
1475676801600,-5.67964506149292,-3.772064685821533,-6.460753440856934
1475676801781,19.607913970947266,-19.608510971069336,11.444284439086914
1475676801963,-6.464942932128906,13.676279067993164,2.623446464538574
1475676802141,1.5771803855895996,-3.597886562347412,5.549160957336426
1475676802322,-1.3066356182098389,-4.723161220550537,2.3792378902435303
1475676802501,-0.11432313174009323,-7.908646583557129,-1.5951368808746338
1475676802682,2.1380221843719482,6.773795127868652,-3.509899616241455
1475676802863,18.039710998535156,-19.608510971069336,-19.608510971069336
1475676803045,-1.0043675899505615,-7.558494567871094,13.642760276794434
1475676803222,-3.6308069229125977,-0.1412578970193863,-0.7906851172447205
1475676803404,5.0685248374938965,0.8337807655334473,-3.333327293395996
1475676803582,16.390705108642578,-5.896918773651123,18.814834594726563
1475676803766,-0.39564183354377747,-12.43727970123291,10.919954299926758
1475676803944,-3.6780924797058105,0.7003039717674255,-1.460463047027588
1475676804123,3.688267707824707,-2.1954829692840576,-1.513733983039856
1475676804303,1.357512354850769,-4.189853191375732,0.8732850551605225
1475676804486,4.786009311676025,-14.144943237304688,-1.9033904075622559
1475676804663,-7.8296380043029785,3.046621561050415,1.3186066150665283
1475676804846,1.8596961498260498,-11.19349193572998,-1.5400702953338623
1475676805022,-1.3838485479354858,-8.018181800842285,-3.7642836570739746
1475676805202,12.391789436340332,-17.854759216308594,-10.387842178344727
1475676805382,-7.095216751098633,3.007715940475464,8.567051887512207
1475676805568,8.860342025756836,-7.0808515548706055,7.378929615020752
1475676805744,-2.142810583114624,-10.735600471496582,-6.111798286437988
1475676805927,14.295778274536133,-18.884864807128906,-7.420229434967041
1475676806104,-9.175179481506348,0.2017114907503128,7.836222171783447
1475676806287,14.562731742858887,-0.900818407535553,2.850895643234253
1475676806467,-1.0444705486297607,-2.0590133666992188,1.5616180896759033
1475676806645,18.773534774780273,-19.608510971069336,-4.402936935424805
1475676806828,-7.56208610534668,-1.245583415031433,2.5953147411346436
1475676807008,19.607913970947266,2.499546527862549,7.735665798187256
1475676807187,-7.362170219421387,12.952033042907715,7.492654323577881
1475676807368,17.59319305419922,-13.693636894226074,-3.706224203109741
1475676807548,-6.722918510437012,-1.4221558570861816,-4.459799289703369
1475676807729,19.607913970947266,-19.123685836791992,10.987589836120605
1475676807908,-8.266579627990723,11.742362022399902,3.027467966079712
1475676808089,16.899473190307617,-3.4368765354156494,-3.265691041946411
1475676808269,-5.715558052062988,-1.8716671466827393,-6.389525890350342
1475676808449,19.607913970947266,-19.251176834106445,18.108545303344727
1475676808627,-6.556521415710449,11.243170738220215,5.139752388000488
1475676808810,18.205509185791016,-5.609015941619873,-2.0925323963165283
1475676808989,-5.629965305328369,-2.367865562438965,-7.411251544952393
1475676809166,19.607913970947266,-19.608510971069336,10.38604736328125
1475676809350,-6.036381244659424,14.727333068847656,-4.730343818664551
1475676809528,-1.745373010635376,5.523423194885254,-2.449866771697998
1475676809708,2.2194249629974365,-2.2661118507385254,2.565387010574341
1475676809889,-2.4229321479797363,-4.222174644470215,2.979583978652954
1475676810071,2.6174609661102295,10.270526885986328,-3.8732197284698486
1475676810250,8.593987464904785,-19.608510971069336,-5.914875507354736
1475676810431,-0.46986207365989685,-8.647856712341309,9.123106002807617
1475676810608,-2.0045454502105713,-0.13168109953403473,-0.7667431235313416
1475676810791,5.152322292327881,0.7038952708244324,-2.6827030181884766
1475676810971,19.607913970947266,-19.608510971069336,-5.806537628173828
1475676811149,0.767341673374176,-5.0014872550964355,19.608510971069336
1475676811331,-2.743156671524048,-0.5285200476646423,-1.66696298122406
1475676811512,4.0964789390563965,3.069965124130249,-4.747103214263916
1475676811689,7.508815288543701,0.93254154920578,12.388197898864746
1475676811872,4.923676013946533,-13.384185791015625,0.950498104095459
1475676812052,-4.992508888244629,2.827552318572998,-1.4676456451416016
1475676812232,3.928286552429199,-5.740696907043457,-2.1703438758850098
1475676812410,-2.5324668884277344,-11.662156105041504,-4.098873138427734
1475676812593,9.939528465270996,-19.60013198852539,-9.0859956741333
1475676812773,-6.02919864654541,2.9095535278320313,6.638522624969482
1475676812953,9.318233489990234,-4.569932460784912,6.067505836486816
1475676813132,3.026869535446167,-15.334263801574707,-5.310937881469727
1475676813313,19.398420333862305,-19.608510971069336,-7.135319709777832
1475676813493,-5.308543682098389,-2.3295583724975586,0.3908534348011017
1475676813671,19.607913970947266,-5.288193225860596,3.641580820083618
1475676813854,-4.201824188232422,11.93629264831543,6.664858818054199
1475676814034,17.035343170166016,-7.956530570983887,-1.5729905366897583
1475676814211,-7.423222541809082,-5.0254292488098145,-8.177994728088379
1475676814392,19.607913970947266,-19.608510971069336,-10.49677848815918
1475676814575,-1.2120646238327026,9.654618263244629,-2.6360161304473877
1475676814755,-1.6089035272598267,-4.972158432006836,17.277158737182617
1475676814934,1.4838064908981323,-3.9665937423706055,4.043208122253418
1475676815117,6.057330131530762,-12.913126945495605,-10.883441925048828
1475676815296,2.6354174613952637,7.065887928009033,-4.984129428863525
1475676815476,19.607913970947266,-19.607913970947266,-17.251420974731445
1475676815655,-0.11013327538967133,-5.781398773193359,7.5848307609558105
1475676815838,-1.501164436340332,-0.8744821548461914,-1.3623007535934448
1475676816017,5.027823448181152,5.899911403656006,-7.170035362243652
1475676816193,18.931550979614258,-14.162302017211914,10.888829231262207
1475676816377,1.4634557962417603,-7.4333977699279785,19.370887756347656
1475676816554,-5.596446514129639,0.8535329103469849,-4.001309394836426
1475676816734,4.237138271331787,-0.3429693877696991,-1.138442873954773
1475676816916,10.8690767288208,-12.322956085205078,17.030555725097656
1475676817097,0.5410895943641663,-9.771934509277344,15.46175479888916
1475676817277,-7.116764545440674,2.1697452068328857,-2.036867141723633
1475676817457,3.180696964263916,-7.614758491516113,-0.7996633648872375
1475676817644,-0.7948749661445618,-11.35929012298584,-5.331288814544678
1475676817818,4.061763286590576,-18.073827743530273,-2.75812029838562
1475676817997,-9.144054412841797,3.494935989379883,0.18076223134994507
1475676818176,4.762665748596191,-9.102156639099121,1.3958195447921753
1475676818358,-2.6426000595092773,-9.385271072387695,-4.26706600189209
1475676818539,8.391676902770996,-19.608510971069336,-17.899051666259766
1475676818716,-4.883573055267334,2.0254945755004883,6.5948286056518555
1475676818899,3.6780924797058105,-6.762422561645508,3.8361096382141113
1475676819081,1.6573861837387085,-8.53413200378418,-5.48272180557251
1475676819255,16.454750061035156,-19.608510971069336,-11.877036094665527
1475676819443,-5.1349639892578125,2.3989901542663574,5.595249176025391
1475676819619,11.44907283782959,-0.45010992884635925,3.0992941856384277
1475676819800,2.342127799987793,-9.52114200592041,-9.254786491394043
1475676819980,17.966089248657227,-19.608510971069336,-3.2573113441467285
1475676820162,-6.174646377563477,-0.010773907415568829,3.0178911685943604
1475676820341,19.607913970947266,-3.711611270904541,-3.0843303203582764
1475676820519,-0.9522937536239624,0.6440402865409851,-5.763442039489746
1475676820698,9.906009674072266,-6.558915615081787,12.24275016784668
1475676820880,-4.54419469833374,-6.985682010650635,-4.474762916564941
1475676821061,19.607913970947266,-19.608510971069336,7.725490570068359
1475676821238,-1.1522095203399658,9.99339771270752,-0.8044517636299133
1475676821421,0.9738415479660034,-3.5733461380004883,9.288904190063477
1475676821601,-1.006163239479065,-3.644573450088501,-0.2172738015651703
1475676821782,19.444509506225586,-19.608510971069336,-10.910975456237793
1475676821959,1.7962498664855957,7.366360187530518,-0.04967968538403511
1475676822139,15.09903335571289,-18.792089462280273,-12.249334335327148
1475676822321,0.5297171473503113,-5.974730491638184,8.703521728515625
1475676822502,-1.4550760984420776,-1.5532383918762207,-1.3539210557937622
1475676822682,2.433107376098633,3.2806549072265625,-5.571906089782715
1475676822861,16.786945343017578,-13.275249481201172,0.3687070608139038
1475676823043,0.4315548539161682,-11.12226390838623,11.266514778137207
1475676823220,-3.5224692821502686,0.9085995554924011,-1.6615760326385498
1475676823402,4.689642429351807,0.6745663285255432,-2.7467479705810547
1475676823581,19.276914596557617,-12.641385078430176,6.556521415710449
1475676823760,0.0933738648891449,-14.504074096679688,9.742605209350586
1475676823943,-4.030638694763184,1.754351258277893,-1.1815385818481445
1475676824124,1.613093376159668,-7.677007675170898,-2.457049608230591
1475676824302,-2.8335378170013428,-5.072714805603027,-3.957615375518799
1475676824481,3.9851486682891846,-17.757793426513672,-5.6191911697387695
1475676824664,-9.169792175292969,3.2555158138275146,4.101267337799072
1475676824843,4.827907562255859,-10.042478561401367,-0.09277531504631042
1475676825024,-1.7531541585922241,-8.660426139831543,-8.38449478149414
1475676825202,10.582969665527344,-18.12769889831543,-7.568670272827148
1475676825383,-7.508216381072998,4.4957122802734375,3.996521234512329
1475676825566,10.630255699157715,-0.7386112213134766,2.765302896499634
1475676825742,1.6065093278884888,-5.24030876159668,-13.581109046936035
1475676825926,12.715006828308105,-19.608510971069336,-9.850942611694336
1475676826102,-4.957194805145264,0.23762452602386475,3.0765492916107178
1475676826283,19.607913970947266,-5.019443988800049,-0.9624691009521484
1475676826466,1.334767460823059,13.627197265625,15.948974609375
1475676826645,13.098078727722168,-18.10734748840332,-1.1534066200256348
1475676826826,-4.126406669616699,-0.05147533491253853,-2.956839084625244
1475676827007,19.519926071166992,-19.608510971069336,17.17899513244629
1475676827187,1.5807716846466064,16.432004928588867,13.752294540405273
1475676827367,6.083067893981934,-8.322244644165039,2.5959131717681885
1475676827546,-4.708197593688965,-5.89392614364624,-6.230311393737793
1475676827725,19.607913970947266,-19.608510971069336,-9.86650562286377
1475676827907,-1.7489643096923828,12.370241165161133,-0.9630676507949829
1475676828087,11.299434661865234,-7.305307865142822,-1.446696400642395
1475676828264,-4.514267444610596,-3.712209701538086,-7.315483093261719
1475676828447,2.6443958282470703,-13.435661315917969,-2.1499931812286377
1475676828625,-0.9373299479484558,6.870760440826416,-3.7666778564453125
1475676828807,0.8355764150619507,-5.407304763793945,9.9000244140625
1475676828988,0.4106055796146393,-4.234744071960449,0.6272808313369751
1475676829167,3.8995559215545654,-17.324443817138672,-4.077325344085693
1475676829348,0.46567222476005554,3.5715503692626953,-5.816712856292725
1475676829527,19.607913970947266,-19.166183471679688,-14.724340438842773
1475676829709,-0.05446808785200119,-5.2666449546813965,16.19078826904297
1475676829888,-2.009333848953247,-0.29867666959762573,-1.7154455184936523
1475676830070,3.6721067428588867,2.0422539710998535,-4.23893404006958
1475676830247,11.399393081665039,-5.157709121704102,11.543045043945313
1475676830429,-3.022679567337036,-15.292963027954102,3.8049850463867188
1475676830609,-4.8051629066467285,1.4832079410552979,-2.0009541511535645
1475676830787,3.6146459579467773,-3.998915433883667,-1.3431471586227417
1475676830970,1.61069917678833,-9.912593841552734,-3.756502389907837
1475676831148,6.025008678436279,-19.20808219909668,-2.1332337856292725
1475676831327,-8.42040729522705,3.444059133529663,4.4975080490112305
1475676831510,4.399944305419922,-9.239823341369629,-0.0017956512747332454
1475676831690,-3.4841620922088623,-8.358158111572266,-7.062296390533447
1475676831871,12.29242992401123,-15.179837226867676,-4.546588897705078
1475676832050,-4.39156436920166,2.782660961151123,3.8804023265838623
1475676832230,6.4595561027526855,-2.429516077041626,5.576694488525391
1475676832412,0.690727174282074,-5.628169536590576,-7.205349922180176
1475676832591,12.677896499633789,-19.608510971069336,-10.547057151794434
1475676832769,-5.288791656494141,0.706289529800415,3.7499184608459473
1475676832951,19.36310577392578,-11.504737854003906,-0.6033388376235962
1475676833132,-2.0452468395233154,3.2782607078552246,7.161057472229004
1475676833309,19.102737426757813,-14.250288963317871,4.680664539337158
1475676833492,-5.643732070922852,-2.5749640464782715,-5.674258232116699
1475676833670,19.607913970947266,-19.30744171142578,16.4254207611084
1475676833853,0.1843535304069519,15.663466453552246,9.044695854187012
1475676834030,-0.42197805643081665,-6.435015678405762,8.596980094909668
1475676834213,-3.09689998626709,-5.506663799285889,-1.0696096420288086
1475676834391,19.607913970947266,-19.608510971069336,-10.922348022460938
1475676834573,-0.3824737071990967,9.99459457397461,-0.3579331636428833
1475676834751,7.978677272796631,-5.476137638092041,0.16160862147808075
1475676834933,-1.1563993692398071,-7.73207426071167,-1.1390414237976074
1475676835114,0.788889467716217,-6.213551998138428,-5.141548156738281
1475676835291,1.878849744796753,7.067084789276123,-1.1665748357772827
1475676835473,10.74218463897705,-17.027563095092773,-5.91128396987915
1475676835654,-1.5921441316604614,-8.721478462219238,12.328941345214844
1475676835833,-2.0225019454956055,-0.14484919607639313,-1.6543933153152466
1475676836014,5.117007732391357,3.0609867572784424,-3.847482204437256
1475676836197,17.82842254638672,-9.673771858215332,17.193960189819336
1475676836374,1.2755109071731567,-6.619967937469482,9.988011360168457
1475676836555,-5.196016311645508,1.601720929145813,-2.743156671524048
1475676836742,7.630321025848389,-5.14932918548584,-0.961870551109314
1475676836915,-1.5556325912475586,-12.9927339553833,-8.215105056762695
1475676837095,9.458892822265625,-15.03199577331543,-3.3668460845947266
1475676837273,-7.756615161895752,2.297835111618042,2.1332337856292725
1475676837453,4.206612586975098,-11.343728065490723,0.6057330369949341
1475676837632,-1.9494787454605103,-6.655880928039551,-7.554903507232666
1475676837813,11.291653633117676,-19.094955444335938,-5.9340291023254395
1475676837993,-10.587160110473633,2.0434510707855225,7.150881767272949
1475676838177,2.1110873222351074,-8.38688850402832,4.034229755401611
1475676838353,-0.9127894043922424,-5.673659324645996,-5.316324710845947
1475676838541,11.516708374023438,-19.589956283569336,-9.050681114196777
1475676838716,-5.018246650695801,1.2934675216674805,5.771821975708008
1475676838898,14.775815963745117,-4.314351558685303,-1.1330559253692627
1475676839076,0.5309142470359802,2.1517887115478516,-3.9252936840057373
1475676839255,19.211673736572266,-19.440319061279297,-1.944091796875
1475676839437,-5.31812047958374,-0.3878606855869293,-2.7036523818969727
1475676839615,19.607913970947266,-19.608510971069336,19.280506134033203
1475676839795,2.4857800006866455,13.589488983154297,0.6991068720817566
1475676839975,3.8504748344421387,-8.00561237335205,5.480327606201172
1475676840154,-4.614823818206787,-5.846042156219482,-5.760449409484863
1475676840335,19.607913970947266,-19.608510971069336,10.900800704956055
1475676840519,0.43335050344467163,9.979631423950195,-4.503493309020996
1475676840698,-1.6304513216018677,-5.549160957336426,12.055403709411621
1475676840879,-1.8124107122421265,-6.9940619468688965,-1.278503656387329
1475676841059,19.476831436157227,-19.608510971069336,-15.787365913391113
1475676841240,1.1635819673538208,7.050325393676758,-4.609436988830566
1475676841419,14.182053565979004,-16.68160057067871,-11.185111999511719
1475676841598,-1.4748282432556152,-8.545504570007324,4.7584757804870605
1475676841777,-0.6218938827514648,-6.554127216339111,-5.781398773193359
1475676841960,2.121861219406128,6.735487937927246,-2.912546396255493
1475676842138,7.515997886657715,-13.013683319091797,-0.48602294921875
1475676842317,0.5692214369773865,-8.634089469909668,8.351573944091797
1475676842497,-0.6302735805511475,-1.6502034664154053,0.3357867896556854
1475676842679,1.4981716871261597,4.028244495391846,-5.640140533447266
1475676842858,19.446304321289063,-19.608510971069336,-19.608510971069336
1475676843041,-0.07302315533161163,-5.756259441375732,11.904569625854492
1475676843221,-2.4163479804992676,0.6057330369949341,-0.7870938181877136
1475676843401,3.734356164932251,3.4973301887512207,-3.957016944885254
1475676843581,19.607913970947266,-14.727333068847656,-2.855085611343384
1475676843763,1.1899182796478271,-8.787917137145996,16.46731948852539
1475676843939,-5.504868030548096,1.7932571172714233,-2.8353333473205566
1475676844122,5.619790077209473,-1.173158884048462,-3.3243491649627686
1475676844300,6.963535785675049,-10.844536781311035,10.751761436462402
1475676844479,-0.26396074891090393,-16.685791015625,3.1681272983551025
1475676844660,-9.017162322998047,1.9273324012756348,-1.1127052307128906
1475676844841,3.290830135345459,-7.693168640136719,-0.41718965768814087
1475676845045,-2.690484046936035,-7.53275728225708,-5.634753704071045
1475676845201,7.589020729064941,-18.762760162353516,-4.571728229522705
1475676845380,-10.486004829406738,2.823362350463867,4.091690540313721
1475676845561,2.2361843585968018,-8.299500465393066,1.4335283041000366
1475676845741,-3.5895068645477295,-10.40579891204834,-5.740696907043457
1475676845921,5.361216068267822,-19.608510971069336,-4.989516258239746
1475676846101,-11.537059783935547,3.3919851779937744,5.045181751251221
1475676846281,3.251325845718384,-10.58775806427002,6.555324077606201
1475676846461,1.292868971824646,-6.050147533416748,-7.18440055847168
1475676846642,11.793837547302246,-19.608510971069336,-15.112200736999512
1475676846822,-4.282029628753662,1.468244194984436,5.4444146156311035
1475676847002,19.607913970947266,-18.10315704345703,12.697050094604492
1475676847182,-2.3145945072174072,13.324331283569336,16.031574249267578
1475676847362,13.306973457336426,-8.509591102600098,1.0235211849212646
1475676847542,-4.104260444641113,-1.1683704853057861,-4.912901878356934
1475676847726,19.607913970947266,-19.608510971069336,2.3337481021881104
1475676847904,0.4800374507904053,6.603208065032959,-1.9057846069335938
1475676848085,3.141192674636841,-5.969942092895508,3.270479440689087
1475676848268,-1.2701239585876465,-2.29484224319458,0.6446388363838196
1475676848444,-3.4099416732788086,-7.0772600173950195,-2.9694087505340576
1475676848626,0.9163807034492493,6.647500991821289,-4.547187805175781
1475676848809,14.675259590148926,-17.91581153869629,-14.15332317352295
1475676848986,0.11552023142576218,-2.653972625732422,8.854954719543457
1475676849166,-2.032677173614502,-0.46986207365989685,-1.0426748991012573
1475676849343,2.6833014488220215,1.8842366933822632,-5.917868137359619
1475676849533,16.857574462890625,-11.48378849029541,14.132373809814453
1475676849706,2.3481132984161377,-11.945270538330078,3.8516719341278076
1475676849885,-5.890933513641357,3.8073792457580566,-2.8844144344329834
1475676850067,5.522226333618164,-2.764105796813965,-1.6968904733657837
1475676850248,2.957437753677368,-15.713744163513184,-2.187103271484375
1475676850428,2.2822728157043457,-18.451513290405273,-6.654085159301758
1475676850607,-5.325303077697754,4.042609691619873,2.5941176414489746
1475676850788,4.048594951629639,-3.8522706031799316,6.605003833770752
1475676850968,-2.6360161304473877,-12.445060729980469,-12.22000503540039
1475676851149,9.68813705444336,-19.608510971069336,-8.69214916229248
1475676851335,-11.363479614257813,2.1380221843719482,8.075043678283691
1475676851508,1.1929110288619995,-5.3564276695251465,6.057929039001465
1475676851693,1.6496049165725708,-6.412869453430176,-11.14381217956543
1475676851866,8.42699146270752,-19.608510971069336,-11.313799858093262
1475676852049,-7.016806602478027,2.3092074394226074,5.079897403717041
1475676852229,5.045780181884766,-5.2049946784973145,5.47075080871582
1475676852406,1.7172411680221558,-8.040328025817871,-11.928511619567871
1475676852587,10.809222221374512,-19.608510971069336,-7.48726749420166
1475676852769,-4.3628339767456055,0.982221245765686,-1.0935516357421875
1475676852950,19.607913970947266,-14.805144309997559,2.3989901542663574
1475676853130,-2.4145524501800537,11.594520568847656,11.467028617858887
1475676853310,13.918092727661133,-15.617976188659668,4.381389141082764
1475676853490,-5.854421615600586,-5.416881561279297,-5.452794551849365
1475676853668,19.607913970947266,-19.608510971069336,19.608510971069336
1475676853854,-0.7972691655158997,17.320253372192383,12.187684059143066
1475676854029,13.180679321289063,-6.86597204208374,-2.404376983642578
1475676854211,-6.404489517211914,-5.491700172424316,-7.449558734893799
1475676854388,18.242021560668945,-19.608510971069336,-14.15092945098877
1475676854572,1.6729484796524048,6.658275127410889,-5.143343925476074
1475676854751,1.5634137392044067,-7.625532627105713,3.779247283935547
1475676854929,-1.5275006294250488,-3.2974143028259277,-2.494159698486328
1475676855112,5.698200225830078,-17.515979766845703,-11.265915870666504
1475676855291,1.4598644971847534,5.077503204345703,-5.495890140533447
1475676855473,2.2212207317352295,-11.389816284179688,5.781398773193359
1475676855650,2.6605565547943115,-2.8784289360046387,6.964134216308594
1475676855831,-2.296638011932373,-5.377377033233643,-1.357512354850769
1475676856011,1.0109516382217407,4.460397720336914,-3.714005470275879
1475676856191,19.538480758666992,-19.608510971069336,-13.099874496459961
1475676856370,-0.7924807667732239,-1.9117701053619385,7.6075758934021
1475676856555,-1.4431051015853882,-1.845929503440857,-1.092953085899353
1475676856733,1.8285715579986572,4.8722004890441895,-6.272210121154785
1475676856911,18.64664077758789,-18.35395050048828,-5.789179801940918
1475676857092,-0.13287819921970367,-5.794566631317139,11.567585945129395
1475676857274,-3.3207578659057617,0.7601590156555176,-2.036268472671509
1475676857451,5.357026100158691,-0.3902548849582672,-0.9253589510917664
1475676857635,7.620145320892334,-4.17728328704834,13.312359809875488
1475676857814,-1.114500880241394,-15.335460662841797,6.079476833343506
1475676857994,-8.941145896911621,2.536656618118286,-2.7952303886413574
1475676858175,2.689286947250366,-11.621455192565918,0.14903905987739563
1475676858355,-2.655169725418091,-8.599373817443848,-8.459911346435547
1475676858535,8.398859977722168,-18.48503303527832,-2.589329242706299
1475676858714,-10.916362762451172,1.6406266689300537,3.639785051345825
1475676858893,2.139219284057617,-11.71542739868164,3.3686418533325195
1475676859076,0.7248445749282837,-5.354033470153809,-4.6704888343811035
1475676859256,10.130465507507324,-19.608510971069336,-11.89738655090332
1475676859434,-7.526173114776611,2.1948843002319336,6.757035732269287
1475676859616,10.10053825378418,-1.5412673950195313,3.4302923679351807
1475676859798,-1.5436615943908691,-6.868366241455078,-9.065046310424805
1475676859975,9.761758804321289,-19.608510971069336,-10.112509727478027
1475676860157,-3.8714241981506348,0.5716156363487244,3.1531636714935303
1475676860334,15.486294746398926,-1.7094600200653076,0.2795230448246002
1475676860517,2.606687068939209,-5.133767127990723,-8.837596893310547
1475676860699,7.050923824310303,-19.608510971069336,-14.464569091796875
1475676860883,-3.6972460746765137,0.2944868206977844,-0.22445641458034515
1475676861057,19.53548812866211,-5.609614372253418,-1.6478092670440674
1475676861238,-2.2254104614257813,2.671929121017456,-5.107430934906006
1475676861415,14.289194107055664,-19.608510971069336,-2.785653591156006
1475676861598,-5.543774127960205,-1.294066071510315,-0.872686505317688
1475676861777,19.607913970947266,-18.562246322631836,16.52956771850586
1475676861956,4.866214752197266,15.683816909790039,14.413692474365234
1475676862138,8.966285705566406,-19.608510971069336,19.608510971069336
1475676862319,-3.3704373836517334,0.45190557837486267,0.06165069341659546
1475676862496,19.607913970947266,-10.335169792175293,6.017826080322266
1475676862679,0.8930372595787048,5.170876979827881,5.33009147644043
1475676862858,18.962675094604492,-18.413206100463867,1.8812439441680908
1475676863038,-6.293159008026123,-3.8349125385284424,-5.2049946784973145
1475676863218,19.571401596069336,-3.20404052734375,-5.317522048950195
1475676863405,-1.2587515115737915,3.2626984119415283,-1.84233820438385
1475676863578,19.103933334350586,-19.085378646850586,4.788403511047363
1475676863761,-5.4246625900268555,-1.0893617868423462,-3.535637378692627
1475676863937,19.607913970947266,-11.541848182678223,1.7435773611068726
1475676864120,-0.18614917993545532,1.6053122282028198,9.02015495300293
1475676864301,19.607913970947266,-19.577985763549805,0.05506663769483566
1475676864478,-6.630143165588379,-6.348824501037598,-5.125985622406006
1475676864660,19.607913970947266,-16.34701156616211,17.131710052490234
1475676864862,-2.3989901542663574,17.932571411132813,7.8996686935424805
1475676865020,14.947599411010742,-8.753800392150879,-1.1276689767837524
1475676865201,-6.127959251403809,-6.035782337188721,-5.987299919128418
1475676865381,19.607913970947266,-19.608510971069336,-14.896722793579102
1475676865562,0.8158242106437683,8.716690063476563,-1.635838270187378
1475676865741,7.638102054595947,-6.485293865203857,6.6127848625183105
1475676865923,-4.34607458114624,-5.6221842765808105,-4.063559055328369
1475676866102,19.607913970947266,-19.608510971069336,-11.776479721069336
1475676866282,-3.6996402740478516,10.035296440124512,-3.575141668319702
1475676866459,1.4550760984420776,-8.851364135742188,17.01499366760254
1475676866643,-1.2054805755615234,-6.457161903381348,2.4181437492370605
1475676866822,14.102446556091309,-19.327192306518555,-7.713519096374512
1475676867000,1.1276689767837524,4.879981517791748,-3.9588124752044678
1475676867181,1.1097124814987183,-5.013458251953125,9.097966194152832
1475676867363,0.829590916633606,-5.743690013885498,9.36013126373291
1475676867541,-1.489791989326477,-3.0567970275878906,-0.9828197956085205
1475676867724,0.9026140570640564,3.2411506175994873,-2.7760767936706543
1475676867903,19.607913970947266,-17.322647094726563,-3.384204149246216
1475676868082,-1.7088614702224731,-6.135141849517822,18.822614669799805
1475676868264,-2.759916067123413,1.1857284307479858,-1.6561890840530396
1475676868443,4.428076267242432,0.08140286058187485,-3.377619981765747
1475676868622,7.491456985473633,-4.355052947998047,9.259574890136719
1475676868806,-1.8201918601989746,-16.060304641723633,1.3012486696243286
1475676868982,-3.2986114025115967,1.5466543436050415,-1.8932149410247803
1475676869165,5.457582950592041,-7.292140007019043,-0.11611878126859665
1475676869345,-2.1912930011749268,-11.354501724243164,-5.445013046264648
1475676869522,7.893682956695557,-16.064495086669922,-3.959411144256592
1475676869707,-7.646481513977051,3.4296939373016357,1.8590975999832153
1475676869885,5.021239280700684,-14.001890182495117,2.1266496181488037
1475676870065,-1.6950948238372803,-9.819818496704102,-12.358869552612305
1475676870246,11.823166847229004,-19.608510971069336,-7.156269073486328
1475676870427,-11.899182319641113,3.5182793140411377,7.372944355010986
1475676870606,2.9945478439331055,-8.06666374206543,6.300341606140137
1475676870786,1.1091139316558838,-8.826823234558105,-7.816470146179199
1475676870964,17.243040084838867,-14.132972717285156,4.924274444580078
1475676871146,-5.34625244140625,-2.779668092727661,-3.6984431743621826
1475676871327,19.607913970947266,-9.840767860412598,5.100846767425537
1475676871504,-1.4484920501708984,-1.3557167053222656,-2.917933225631714
1475676871687,19.597139358520508,-17.34479331970215,2.9454667568206787
1475676871867,-4.411915302276611,-2.2236149311065674,-5.497087001800537
1475676872045,19.607913970947266,-19.608510971069336,19.556438446044922
1475676872228,4.523844242095947,15.630545616149902,12.078747749328613
1475676872408,-2.868852138519287,-2.1272482872009277,11.473014831542969
1475676872588,-0.9002198576927185,-7.362170219421387,-3.4141316413879395
1475676872767,9.369708061218262,-19.15301513671875,-6.735487937927246
1475676872948,1.337161660194397,7.513603687286377,-3.974973440170288
1475676873129,7.901463985443115,-14.695610046386719,-10.27591323852539
1475676873308,1.3084312677383423,-5.528810501098633,6.123170852661133
1475676873487,-1.3503297567367554,-10.878653526306152,-6.739078998565674
1475676873669,1.8926163911819458,4.506485939025879,-1.7920600175857544
1475676873849,17.164031982421875,-19.608510971069336,-18.668787002563477
1475676874027,2.7754783630371094,-5.766434669494629,10.591948509216309
1475676874210,-0.6350619792938232,-1.1450269222259521,-1.4658499956130981
1475676874402,4.510077476501465,4.0294413566589355,-5.479729175567627
1475676874567,17.2185001373291,-19.603124618530273,-11.838728904724121
1475676874749,0.36332011222839355,-4.412513732910156,10.088567733764648
1475676874930,-1.5753847360610962,0.1999158412218094,-1.3078327178955078
1475676875110,5.3546319007873535,3.6750996112823486,-3.755305290222168
1475676875290,19.10991859436035,-11.042656898498535,-2.7246015071868896
1475676875471,1.964442491531372,-7.124545574188232,14.194622993469238
1475676875652,-3.0759506225585938,2.4833858013153076,-2.052429437637329
1475676875831,5.212177276611328,-6.138134479522705,-1.489791989326477
1475676876013,0.14844051003456116,-10.272322654724121,-5.1361613273620605
1475676876191,3.13700270652771,-16.54094123840332,-4.160523891448975
1475676876372,-8.040328025817871,2.470816135406494,0.0065840547904372215
1475676876549,5.072116374969482,-9.84376049041748,-0.5632359385490417
1475676876732,-2.3762452602386475,-4.280233860015869,-4.440047264099121
1475676876917,11.312004089355469,-19.37388038635254,-4.967968463897705
1475676877090,-8.610147476196289,2.875436305999756,5.151124954223633
1475676877272,4.17728328704834,-7.609371662139893,3.6990416049957275
1475676877453,0.37469255924224854,-10.881647109985352,-9.778518676757813
1475676877631,10.609306335449219,-19.608510971069336,-10.867281913757324
1475676877811,-4.985326290130615,2.9269115924835205,3.80378794670105
1475676877991,7.515398979187012,-3.5877113342285156,5.50007963180542
1475676878173,1.6992846727371216,-5.829881191253662,-9.767744064331055
1475676878353,14.988301277160645,-19.608510971069336,-1.0528502464294434
1475676878531,-6.649296760559082,-1.9752163887023926,-2.493561029434204
1475676878712,17.96908187866211,-4.22157621383667,-0.47165772318840027
1475676878891,-2.832340717315674,1.488594889640808,-3.0555999279022217
1475676879071,19.607913970947266,-17.11495018005371,2.563591480255127
1475676879254,-6.9455790519714355,-3.7930140495300293,-3.250727415084839
1475676879432,19.607913970947266,-16.636709213256836,9.982624053955078
1475676879614,-1.8327614068984985,14.514248847961426,6.209362030029297
1475676879792,18.53351593017578,-12.264896392822266,-0.7715315222740173
1475676879973,-6.4266357421875,-4.025251388549805,-4.120420932769775
1475676880156,19.607913970947266,-19.608510971069336,-13.998298645019531
1475676880335,0.152031809091568,10.574590682983398,0.6536170840263367
1475676880522,7.374141216278076,-11.63222885131836,-2.3026235103607178
1475676880695,1.0594342947006226,-7.240664482116699,4.621407985687256
1475676880876,-1.0324994325637817,-3.1896753311157227,-2.5127146244049072
1475676881053,1.9967641830444336,6.143521785736084,-4.703409194946289
1475676881234,18.1282958984375,-19.608510971069336,-19.608510971069336
1475676881416,2.272696018218994,-2.1966800689697266,10.287884712219238
1475676881593,-2.213439464569092,-0.536899745464325,-1.0085574388504028
1475676881776,3.5158851146698,4.947019100189209,-4.367622375488281
1475676881956,11.927314758300781,-17.24603271484375,1.6519991159439087
1475676882135,-1.5873557329177856,-13.901931762695313,8.817246437072754
1475676882318,-2.983773946762085,2.1972784996032715,-2.8095955848693848
1475676882497,6.275202751159668,-2.5785553455352783,-1.3964180946350098
1475676882677,0.25677812099456787,-9.59835433959961,-0.32860419154167175
1475676882858,1.3479355573654175,-15.34084701538086,-4.630385875701904
1475676883042,-7.338826656341553,2.9281086921691895,1.3868412971496582
1475676883218,2.5133132934570313,-8.814253807067871,-1.5807716846466064
1475676883398,0.10773907601833344,-11.612476348876953,-4.598662853240967
1475676883577,5.200804710388184,-18.731037139892578,-6.93959379196167
1475676883758,-9.920374870300293,2.7712883949279785,2.497152328491211
1475676883939,5.024232387542725,-11.079168319702148,3.492541790008545
1475676884116,4.019864559173584,-6.435614109039307,-10.594342231750488
1475676884298,11.153986930847168,-19.608510971069336,-8.470685958862305
1475676884479,-5.061941146850586,0.23044191300868988,1.2964602708816528
1475676884659,15.251065254211426,-4.881178855895996,-0.7721300721168518
1475676884839,-0.8948329091072083,15.616779327392578,13.105859756469727
1475676885020,15.28338623046875,-15.682021141052246,-1.4425065517425537
1475676885199,-4.575918197631836,-2.7521347999572754,-5.813121795654297
1475676885379,19.328989028930664,-19.608510971069336,19.425355911254883
1475676885559,2.210446834564209,17.938556671142578,17.799692153930664
1475676885741,4.265868663787842,-4.302978992462158,1.8291701078414917
1475676885920,-2.9011738300323486,-5.097854137420654,-1.0516531467437744
1475676886098,0.7912836670875549,-16.51819610595703,-12.879608154296875
1475676886280,2.427720546722412,6.094440460205078,1.1324573755264282
1475676886458,-1.3569138050079346,-10.294468879699707,18.798673629760742
1475676886638,0.568622887134552,-2.691681146621704,3.157353401184082
1475676886821,-1.5861586332321167,-4.969764232635498,-3.316567897796631
1475676887001,1.5945383310317993,4.299986362457275,-3.863642930984497
1475676887181,1.0648212432861328,-19.608510971069336,12.084733009338379
1475676887361,-0.6386532783508301,-7.4351935386657715,8.736441612243652
1475676887541,-2.1350293159484863,-2.779069662094116,-0.47405192255973816
1475676887721,0.9481038451194763,1.9823989868164063,-3.3668460845947266
1475676887901,19.607913970947266,-19.608510971069336,-12.325350761413574
1475676888080,2.3977930545806885,-5.747281074523926,17.535133361816406
1475676888262,-2.3912088871002197,0.33099839091300964,-1.833359956741333
1475676888442,4.693233966827393,5.109825134277344,-5.477334976196289
1475676888620,19.607913970947266,-19.31881332397461,-6.556521415710449
1475676888803,0.5063736438751221,-7.71591329574585,16.71631622314453
1475676888981,-2.121262788772583,2.982576847076416,-1.5855600833892822
1475676889159,5.953182697296143,1.7058687210083008,-5.059546947479248
1475676889343,19.607913970947266,-19.608510971069336,-9.050681114196777
1475676889522,-0.6853402256965637,-9.744400978088379,14.988900184631348
1475676889703,-4.112639904022217,1.6089035272598267,-2.674921751022339
1475676889883,5.161899089813232,-3.688866376876831,-0.628477931022644
1475676890066,0.414795458316803,-8.921394348144531,-0.06883329898118973
1475676890244,1.5825673341751099,-15.737686157226563,0.24899697303771973
1475676890423,-8.790311813354492,2.674921751022339,-1.3317747116088867
1475676890602,3.731363296508789,-11.514912605285645,3.2632968425750732
1475676890785,-3.758896589279175,-6.906673431396484,-7.261613845825195
1475676890966,5.483919143676758,-19.608510971069336,-4.262876033782959
1475676891143,-10.04427433013916,2.1960813999176025,3.930680751800537
1475676891325,3.1028854846954346,-12.588113784790039,2.49834942817688
1475676891506,-1.9159599542617798,-7.129932880401611,-7.65186882019043
1475676891683,5.371990203857422,-19.608510971069336,-10.806827545166016
1475676891863,-7.583035469055176,2.915539026260376,4.039616584777832
1475676892047,4.654327869415283,-5.32889461517334,5.862801551818848
1475676892225,1.5514427423477173,-9.136273384094238,-13.589488983154297
1475676892404,5.054758548736572,-19.608510971069336,-8.91301441192627
1475676892590,-4.037821292877197,1.083974838256836,-2.121262788772583
1475676892766,14.592061042785645,-1.323395013809204,-0.09816227108240128
1475676892947,5.272032260894775,2.209848165512085,-2.470217704772949
1475676893124,6.542156219482422,-19.608510971069336,-9.909601211547852
1475676893307,-2.448071241378784,0.7451952695846558,-0.8966285586357117
1475676893487,19.607913970947266,-19.608510971069336,15.06671142578125
1475676893665,0.5985504388809204,16.07347297668457,13.988123893737793
1475676893845,12.933477401733398,-6.85100793838501,-0.9762357473373413
1475676894028,-5.595848083496094,-4.447229862213135,-5.659893035888672
1475676894208,19.607913970947266,-19.608510971069336,19.42475700378418
1475676894387,-0.5003881454467773,12.521675109863281,0.6733692288398743
1475676894566,-0.8702923059463501,-3.776254653930664,7.3687543869018555
1475676894749,-1.2000936269760132,-5.849034786224365,-1.7561469078063965
1475676894928,5.521028995513916,-19.599533081054688,-12.865242958068848
1475676895111,0.07003039866685867,4.964377403259277,-2.4666264057159424
1475676895288,14.637550354003906,-19.608510971069336,-11.473612785339355
1475676895469,1.071405291557312,-8.397662162780762,9.123106002807617
1475676895647,-2.0219032764434814,-1.3934253454208374,-1.3120225667953491
1475676895830,2.580350875854492,3.361459255218506,-4.57232666015625
1475676896009,19.607913970947266,-19.608510971069336,-9.976638793945313
1475676896187,-1.7387889623641968,-9.874884605407715,10.090363502502441
1475676896369,-6.574477672576904,1.768117904663086,-3.6092591285705566
1475676896551,4.021061897277832,2.3965959548950195,-7.3436150550842285
1475676896730,7.681197643280029,-6.642712593078613,5.810129165649414
1475676896909,-1.2012907266616821,-8.373720169067383,10.767922401428223
1475676897090,-7.2119340896606445,0.6859387755393982,-3.227383852005005
1475676897271,2.607884168624878,-2.8203697204589844,-4.261080265045166
1475676897451,-0.6673837304115295,-3.248931646347046,0.19213469326496124
1475676897636,-1.9243396520614624,-18.23184585571289,-5.524620532989502
1475676897811,-7.259219646453857,3.067570924758911,-0.8792705535888672
1475676897992,4.392162799835205,-8.85555362701416,-1.3742717504501343
1475676898169,-2.9765913486480713,-11.023503303527832,-7.398083209991455
1475676898352,6.406883716583252,-19.312828063964844,-4.062960147857666
1475676898530,-7.648875713348389,2.5462334156036377,-1.0187327861785889
1475676898710,6.214150428771973,-8.916007041931152,0.4668693244457245
1475676898894,-1.2659341096878052,-12.527660369873047,-9.005789756774902
1475676899072,9.167996406555176,-19.608510971069336,-11.226411819458008
1475676899251,-7.845798969268799,1.3742717504501343,4.438849925994873
1475676899431,7.605181694030762,-7.018003940582275,3.7684733867645264
1475676899610,2.276287317276001,-3.4398694038391113,-4.3861775398254395
1475676899793,13.968969345092773,-19.608510971069336,-6.368576526641846
1475676899973,-5.1152119636535645,-1.3066356182098389,-2.9670145511627197
1475676900149,19.607913970947266,-12.341510772705078,5.546168327331543
1475676900336,3.1417911052703857,19.068021774291992,18.742408752441406
1475676900512,13.970765113830566,-15.577275276184082,1.1647791862487793
1475676900691,-5.616198539733887,-1.7393875122070313,-6.655282020568848
1475676900872,19.607913970947266,-19.608510971069336,9.546878814697266
1475676901052,-0.18375498056411743,8.882488250732422,-2.4361002445220947
1475676901241,4.817133903503418,-7.889492988586426,11.350311279296875
1475676901415,-1.5490485429763794,-6.1303534507751465,-2.1493945121765137
1475676901595,18.686145782470703,-19.608510971069336,-12.731765747070313
1475676901772,0.42616790533065796,5.260659694671631,-2.868852138519287
1475676901956,1.790264368057251,-8.400654792785645,12.24394702911377
1475676902137,1.3239935636520386,-6.874950408935547,10.192715644836426
1475676902315,-1.9829975366592407,-3.335721492767334,-2.052429437637329
1475676902496,0.9965864419937134,3.9827544689178467,-4.440645694732666
1475676902675,19.607913970947266,-19.608510971069336,-16.266206741333008
1475676902856,-3.8989574909210205,-9.056666374206543,16.256031036376953
1475676903037,-2.072780132293701,1.7663222551345825,-2.653972625732422
1475676903213,2.9933507442474365,4.092887878417969,-4.416105270385742
1475676903396,18.02175521850586,-11.239580154418945,1.945288896560669
1475676903576,-1.3551181554794312,-8.659229278564453,15.327080726623535
1475676903754,-4.381389141082764,1.86508309841156,-3.2190041542053223
1475676903937,3.6379895210266113,-3.3285388946533203,-1.0684125423431396
1475676904117,-0.760757565498352,-4.500500679016113,-1.3227964639663696
1475676904296,1.8872294425964355,-19.608510971069336,-6.081272125244141
1475676904476,-8.161833763122559,3.399167776107788,0.9534908533096313
1475676904656,3.089118719100952,-12.048820495605469,1.8022353649139404
1475676904838,-0.7733271718025208,-8.477270126342773,-7.423222541809082
1475676905017,14.164695739746094,-19.465457916259766,-7.937376976013184
1475676905196,-10.555437088012695,1.6968904733657837,5.207987308502197
1475676905377,7.604583263397217,-5.040393352508545,4.977545261383057
1475676905559,6.072294235229492,-0.013168109580874443,-8.576628684997559
1475676905736,11.03667163848877,-19.608510971069336,-5.9771246910095215
1475676905919,-4.384980201721191,-0.5225345492362976,-3.9264907836914063
1475676906097,19.607913970947266,-7.94635534286499,0.32441434264183044
1475676906277,-3.584120035171509,11.945270538330078,-1.4484920501708984
1475676906458,16.03636360168457,-10.257957458496094,-3.18249249458313
1475676906639,-6.269815921783447,-5.123591423034668,-5.871181011199951
1475676906819,19.607913970947266,-19.608510971069336,13.646949768066406
1475676906999,1.501164436340332,14.43224811553955,2.3313539028167725
1475676907186,10.496180534362793,-7.283161640167236,-0.9929951429367065
1475676907362,-2.6024973392486572,-4.15992546081543,-4.530427932739258
1475676907538,6.280589580535889,-17.478271484375,-6.455366134643555
1475676907718,0.45190557837486267,5.272032260894775,-6.737283706665039
1475676907898,16.005237579345703,-19.174562454223633,-8.592789649963379
1475676908081,-0.02693476900458336,-10.697892189025879,7.561487674713135
1475676908258,-1.0295066833496094,-1.756745457649231,-0.7422025203704834
1475676908441,2.3457190990448,3.468599796295166,-4.457405090332031
1475676908621,19.151817321777344,-15.814300537109375,5.182249546051025
1475676908799,0.9463081955909729,-6.627150535583496,14.356231689453125
1475676908981,-5.087080001831055,1.9363106489181519,-2.580949544906616
1475676909161,3.7439329624176025,-2.469619035720825,-1.7046716213226318
1475676909342,-0.5997475385665894,-12.000337600708008,-6.60739803314209
1475676909521,1.7621324062347412,-19.608510971069336,-5.580883979797363
1475676909700,-8.650849342346191,3.02986216545105,1.45806884765625
1475676909882,5.626373767852783,-8.828619003295898,-0.3411737382411957
1475676910060,-3.7217864990234375,-12.864046096801758,-11.53885555267334
1475676910240,9.929951667785645,-18.550872802734375,-4.867412090301514
1475676910421,-12.316970825195313,2.698863983154297,2.8826189041137695
1475676910603,3.075352191925049,-10.709263801574707,3.5206735134124756
1475676910780,-1.9829975366592407,-7.402273178100586,-4.946420669555664
1475676910961,10.573392868041992,-19.608510971069336,-8.972869873046875
1475676911143,-5.519832134246826,3.444059133529663,7.602189064025879
1475676911323,6.753444671630859,-4.667496204376221,8.487444877624512
1475676911501,-0.7475894689559937,-9.293692588806152,-12.392388343811035
1475676911682,12.757503509521484,-19.608510971069336,-11.46762752532959
1475676911864,-6.898892402648926,0.4926069974899292,4.5609540939331055
1475676912045,16.209941864013672,-3.1286230087280273,2.0649988651275635
1475676912222,-2.389413356781006,1.5741876363754272,-14.010868072509766
1475676912404,17.979257583618164,-19.608510971069336,0.47165772318840027
1475676912586,-4.727949619293213,-1.2186486721038818,-0.9642647504806519
1475676912761,19.114707946777344,-19.608510971069336,19.608510971069336
1475676912942,1.036689281463623,19.33258056640625,12.198457717895508
1475676913125,8.78312873840332,-4.012083530426025,1.8417396545410156
1475676913303,-2.912546396255493,-4.502894878387451,-1.0031704902648926
1475676913485,19.09974479675293,-19.608510971069336,-17.30289649963379
1475676913667,-0.4752490520477295,6.21235466003418,-2.8137855529785156
1475676913846,1.6573861837387085,-7.948151111602783,6.388328552246094
1475676914025,4.019864559173584,-3.5230677127838135,14.874576568603516
1475676914207,-1.103128433227539,-1.5490485429763794,-1.0223240852355957
1475676914387,2.604292869567871,6.699574947357178,-4.641758441925049
1475676914566,0.9911994934082031,-13.018471717834473,-4.073135852813721
1475676914744,0.03711012750864029,-5.688024520874023,17.587804794311523
1475676914927,-1.4933832883834839,1.1569979190826416,-1.9147628545761108
1475676915107,4.301183223724365,0.9373299479484558,-4.667496204376221
1475676915285,7.271190643310547,-8.851364135742188,7.546523571014404
1475676915468,0.6542156338691711,-7.758410453796387,8.095993041992188
1475676915647,-3.004124641418457,2.053626537322998,-2.4851813316345215
1475676915826,6.117784023284912,-4.392761707305908,-2.141014814376831
1475676916007,0.5728127360343933,-10.648810386657715,-3.1429882049560547
1475676916188,3.181894063949585,-17.295114517211914,-2.6210522651672363
1475676916368,-9.017760276794434,3.8301241397857666,-0.20769700407981873
1475676916550,5.355230808258057,-9.88386344909668,-0.14903905987739563
1475676916728,-1.269525408744812,-5.388749599456787,-3.025672435760498
1475676916910,11.117475509643555,-19.608510971069336,-8.03075122833252
1475676917089,-6.3751606941223145,1.7723077535629272,5.705981254577637
1475676917268,4.315548419952393,-10.70746898651123,3.2136173248291016
1475676917449,0.7182605266571045,-8.591592788696289,-6.057330131530762
1475676917629,12.18648624420166,-19.608510971069336,-5.6455278396606445
1475676917807,-3.424306869506836,0.750582218170166,1.9375077486038208
1475676917988,19.540876388549805,-6.04775333404541,0.04369417950510979
1475676918170,0.5764040350914001,10.017938613891602,0.3357867896556854
1475676918351,12.20683765411377,-19.608510971069336,-6.44279670715332
1475676918530,-4.4274773597717285,-1.0851719379425049,-2.0045454502105713
1475676918710,19.607913970947266,-19.608510971069336,18.711284637451172
1475676918891,6.798335552215576,19.608510971069336,18.428768157958984
1475676919071,8.346187591552734,-4.550778865814209,-2.361281394958496
1475676919252,-4.862623691558838,-4.564545631408691,-4.55496883392334
1475676919431,19.607913970947266,-19.608510971069336,13.605051040649414
1475676919609,1.6190788745880127,12.943653106689453,2.876034736633301
1475676919789,-0.20470423996448517,-6.45357084274292,7.612364292144775
1475676919972,-0.3016694188117981,-6.169857978820801,-1.7190368175506592
1475676920151,6.779780864715576,-17.587207794189453,-10.521319389343262
1475676920330,-1.072602391242981,5.10264253616333,-6.603208065032959
1475676920512,2.739565372467041,-15.848418235778809,7.29034423828125
1475676920692,6.321889400482178,-5.442020416259766,17.91341781616211
1475676920872,-0.060453593730926514,-0.4638765752315521,-0.05267243832349777
1475676921052,2.0626046657562256,3.1100680828094482,-4.919486045837402
1475676921231,19.23621368408203,-18.73163604736328,-0.2902969419956207
1475676921413,-0.5207388401031494,-6.323685169219971,13.815142631530762
1475676921591,-3.551798105239868,2.6833014488220215,-2.409764051437378
1475676921771,6.026205539703369,-1.482010841369629,-3.157952070236206
1475676921954,4.6914381980896,-6.656479358673096,2.7706899642944336
1475676922131,-0.9678560495376587,-15.256451606750488,-1.2084733247756958
1475676922311,-4.858433723449707,2.7036523818969727,-4.05158805847168
1475676922494,4.733336925506592,-6.768408298492432,-2.3355438709259033
1475676922674,-2.338536500930786,-6.760627269744873,-3.511695384979248
1475676922851,1.3341689109802246,-19.607315063476563,-5.6233811378479
1475676923034,-10.606313705444336,1.581370234489441,2.0242974758148193
1475676923214,2.8455088138580322,-10.458471298217773,1.148618221282959
1475676923395,-0.10833762586116791,-4.091092109680176,-1.1863269805908203
1475676923573,5.747281074523926,-19.608510971069336,-4.310760021209717
1475676923756,-9.339780807495117,4.175487995147705,3.228580951690674
1475676923935,5.205593109130859,-13.326725006103516,4.133589267730713
1475676924116,0.076015904545784,-4.8267107009887695,-7.161655902862549
1475676924293,13.957597732543945,-19.608510971069336,-13.802573204040527
1475676924476,-4.846462726593018,-0.7433996200561523,-2.5719711780548096
1475676924656,15.883732795715332,-5.808333396911621,1.688510775566101
1475676924834,1.6956933736801147,4.107253074645996,-6.451176643371582
1475676925015,11.065999984741211,-19.608510971069336,-3.464409828186035
1475676925196,-4.199429988861084,-2.3044190406799316,-2.649184226989746
1475676925374,19.607913970947266,-17.65843391418457,15.202582359313965
1475676925559,2.7934348583221436,14.429853439331055,3.538031578063965
1475676925737,11.21444034576416,-19.45049476623535,-1.8160020112991333
1475676925916,-6.12017822265625,-2.567182779312134,-1.670554280281067
1475676926097,17.92538833618164,-19.518131256103516,16.401477813720703
1475676926279,2.076969861984253,19.608510971069336,18.915390014648438
1475676926458,12.445060729980469,-9.244012832641602,-0.17058686912059784
1475676926636,-6.774393558502197,-5.2462944984436035,-7.981669902801514
1475676926816,19.607913970947266,-19.608510971069336,10.268731117248535
1475676926998,6.698976516723633,17.96249771118164,16.168642044067383
1475676927178,7.558494567871094,-7.629123687744141,-0.7499836683273315
1475676927356,-5.751471042633057,-6.569090843200684,-5.868786811828613
1475676927539,5.5557451248168945,-19.608510971069336,-12.127828598022461
1475676927718,1.9704279899597168,9.974244117736816,-0.9391255974769592
1475676927897,4.951807498931885,-4.268861770629883,3.175309896469116
1475676928079,0.04429273307323456,-4.677671432495117,0.7781155705451965
1475676928259,-3.1884782314300537,-9.37748908996582,-5.2049946784973145
1475676928437,0.7266402244567871,2.455253839492798,-3.1747114658355713
1475676928617,19.01654624938965,-19.608510971069336,-18.5861873626709
1475676928798,2.496553897857666,-6.996456146240234,8.260594367980957
1475676928980,-1.5981296300888062,-2.4905683994293213,-0.8834604024887085
1475676929160,2.075174331665039,1.9931728839874268,-5.605424880981445
1475676929338,14.67286491394043,-14.660295486450195,-1.2012907266616821
1475676929518,0.05267243832349777,-5.0290207862854,17.083826065063477
1475676929698,-2.1140801906585693,2.761711597442627,-0.9792284965515137
1475676929878,4.887762546539307,-0.3471592366695404,-3.976768970489502
1475676930060,7.723694801330566,-14.997878074645996,2.5085248947143555
1475676930239,1.9494787454605103,-16.79652214050293,-2.5246856212615967
1475676930419,-10.08318042755127,4.293402194976807,0.21009120345115662
1475676930601,4.52803373336792,-9.229048728942871,-0.019153613597154617
1475676930781,-2.5450363159179688,-5.439027786254883,-5.727529048919678
1475676930962,3.80378794670105,-19.608510971069336,-4.44782829284668
1475676931142,-14.475343704223633,3.308786630630493,3.710414171218872
1475676931327,4.367622375488281,-12.391789436340332,2.232593059539795
1475676931502,-0.8667010068893433,-6.719326972961426,-4.04201078414917
1475676931682,9.97065258026123,-19.608510971069336,-16.088436126708984
1475676931860,-4.098873138427734,3.175309896469116,0.5907692909240723
1475676932043,15.058331489562988,-4.712985992431641,1.1815385818481445
1475676932223,0.5135562419891357,3.290830135345459,-10.10053825378418
1475676932400,12.792220115661621,-19.608510971069336,0.3555389642715454
1475676932582,-5.585073947906494,-4.671087741851807,-3.627215623855591
1475676932764,19.607913970947266,-17.15565299987793,13.46379280090332
1475676932942,-1.4155718088150024,14.16828727722168,8.303091049194336
1475676933123,3.733159065246582,-5.52821159362793,-0.2064998894929886
1475676933303,-3.139995574951172,-7.581239700317383,-2.448669672012329
1475676933484,2.412158250808716,-18.127099990844727,-10.199897766113281
1475676933663,-0.7050924301147461,4.929661273956299,-3.581725835800171
1475676933851,13.560758590698242,-19.40201187133789,-1.169567584991455
1475676934022,-0.3842693865299225,-4.545392036437988,16.426618576049805
1475676934205,-1.4754267930984497,1.0995371341705322,-1.7549498081207275
1475676934382,2.7455508708953857,1.6268600225448608,-5.540182590484619
1475676934564,10.548852920532227,-15.090054512023926,4.7153801918029785
1475676934745,-1.4095861911773682,-12.982558250427246,-3.292027235031128
1475676934922,-5.320514678955078,2.673126220703125,-2.889202833175659
1475676935105,7.2113356590271,-5.07570743560791,-0.646434485912323
1475676935287,6.21235466003418,-15.17265510559082,-5.602431774139404
1475676935466,1.4407109022140503,-11.499350547790527,-0.9271546006202698
1475676935646,-5.041590213775635,2.761711597442627,-4.071938514709473
1475676935827,5.310339450836182,-5.531803131103516,-2.632424831390381
1475676936007,-0.5734112858772278,-3.6822822093963623,-1.9949685335159302
1475676936186,3.1519665718078613,-17.221492767333984,-3.227383852005005
1475676936366,-6.430227279663086,3.026869535446167,-1.301847219467163
1475676936547,3.0759506225585938,-9.157821655273438,-2.1380221843719482
1475676936727,-1.43532395362854,-7.365761756896973,-4.935647010803223
1475676936904,9.118915557861328,-19.493589401245117,-9.228450775146484
1475676937088,-8.631695747375488,2.029684543609619,9.322422981262207
1475676937267,4.3640313148498535,-3.0861260890960693,4.800972938537598
1475676937446,1.8507179021835327,-4.793191909790039,-4.396352767944336
1475676937627,13.301586151123047,-19.608510971069336,-13.712191581726074
1475676937808,-4.824316501617432,0.4129997789859772,3.514688014984131
1475676937988,19.607913970947266,-19.480422973632813,19.160198211669922
1475676938168,-1.589151382446289,7.784148216247559,8.392873764038086
1475676938346,8.394071578979492,-6.993463039398193,16.72948455810547
1475676938527,-3.994725465774536,-5.124190330505371,0.6314706802368164
1475676938708,7.165246963500977,-12.940061569213867,4.004900932312012
1475676938885,1.2258312702178955,4.045003890991211,-3.773261785507202
1475676939069,19.607913970947266,-19.608510971069336,-16.34760856628418
1475676939248,1.1689690351486206,-11.686697006225586,-1.79146146774292
1475676939427,-1.1216834783554077,1.3299790620803833,-0.7416039705276489
1475676939607,12.242152214050293,-11.881824493408203,9.616909980773926
1475676939789,-1.7345991134643555,-1.978209137916565,-7.357381820678711
1475676939967,9.702502250671387,-3.976768970489502,-1.4814122915267944
1475676940151,-5.598840713500977,-5.900510311126709,1.9584569931030273
1475676940330,1.835754156112671,-1.9482816457748413,5.789179801940918
1475676940510,6.073491096496582,9.06983470916748,-4.621407985687256
1475676940691,3.8821980953216553,-3.9372646808624268,8.145672798156738
1475676940869,-2.558803081512451,-19.608510971069336,9.910798072814941
1475676941052,-4.95001220703125,1.5466543436050415,2.479794502258301
1475676941228,9.858125686645508,-4.78122091293335,9.41519832611084
1475676941409,-1.5975310802459717,2.2391772270202637,2.412158250808716
1475676941592,19.607913970947266,-18.330007553100586,0.7709329724311829
1475676941771,-6.079476833343506,-7.207744121551514,2.0410568714141846
1475676941949,19.607913970947266,-19.608510971069336,-6.758233070373535
1475676942131,-2.3989901542663574,9.81143856048584,-9.208698272705078
1475676942311,3.888782024383545,-11.705850601196289,4.6740803718566895
1475676942489,-1.1300631761550903,-8.069656372070313,-0.03292027488350868
1475676942670,-0.19153612852096558,-1.2832920551300049,0.03411737456917763
1475676942852,2.033874273300171,6.155492782592773,-8.695141792297363
1475676943034,4.07014274597168,-6.615179061889648,-2.623446464538574
1475676943213,1.5783774852752686,-4.291007995605469,2.9251158237457275
1475676943398,-0.7422025203704834,-1.5005658864974976,-1.324592113494873
1475676943573,2.868253707885742,2.891597032546997,-5.963956356048584
1475676943754,19.607913970947266,-19.42954444885254,-11.185709953308105
1475676943930,0.25258827209472656,-3.293823003768921,19.608510971069336
1475676944111,-0.2579752206802368,-0.14903905987739563,-1.282094955444336
1475676944292,2.6024973392486572,1.2431892156600952,-3.7487213611602783
1475676944471,16.373945236206055,-4.211400985717773,10.399813652038574
1475676944655,2.560598611831665,-4.145560264587402,18.981828689575195
1475676944834,-1.4927847385406494,0.9552865028381348,-1.7202339172363281
1475676945012,0.34656068682670593,2.452261209487915,-8.592191696166992
1475676945193,19.607913970947266,-19.608510971069336,-18.524538040161133
1475676945376,3.6140475273132324,-0.5249287486076355,18.652626037597656
1475676945556,-2.538452386856079,0.7643488645553589,-1.73519766330719
1475676945736,2.826953649520874,1.1617863178253174,-3.1699230670928955
1475676945914,19.607913970947266,-11.644200325012207,3.9151182174682617
1475676946097,-2.8143839836120605,-12.53065299987793,14.085088729858398
1475676946276,-5.222352504730225,2.890399932861328,-4.67827033996582
1475676946452,4.532822132110596,-2.698265314102173,-4.624999046325684
1475676946636,0.46806642413139343,-3.2124202251434326,-0.10893617570400238
1475676946819,7.171831130981445,-16.765398025512695,-1.678335428237915
1475676946994,-9.214683532714844,2.190694570541382,5.051167011260986
1475676947176,6.694188117980957,-7.282563209533691,5.075109004974365
1475676947357,1.5729905366897583,-4.324526786804199,-4.498106479644775
1475676947537,11.027692794799805,-19.608510971069336,-12.894572257995605
1475676947717,-8.246828079223633,-1.2743138074874878,7.330447196960449
1475676947897,1.999756932258606,-8.497620582580566,4.597465991973877
1475676948078,4.200626850128174,-5.94061279296875,-0.0736217051744461
1475676948257,11.608885765075684,-19.608510971069336,-14.996681213378906
1475676948435,-5.981913089752197,0.6625953316688538,4.845265865325928
1475676948616,15.862184524536133,-0.39145198464393616,-5.146336555480957
1475676948798,-0.10654197633266449,6.309918403625488,-7.176021099090576
1475676948975,10.177751541137695,-19.577985763549805,4.286818027496338
1475676949158,-6.949769020080566,-4.031835556030273,-1.0881646871566772
1475676949338,19.607913970947266,-19.225439071655273,17.85655403137207
1475676949517,0.7841010689735413,15.179238319396973,11.63103199005127
1475676949699,18.938135147094727,-13.679869651794434,0.19153612852096558
1475676949879,-6.050746440887451,-6.517016887664795,-5.661688327789307
1475676950058,19.607913970947266,-19.608510971069336,17.721881866455078
1475676950239,1.1976994276046753,19.271528244018555,5.7089738845825195
1475676950420,12.200851440429688,-8.40185260772705,-0.004189853090792894
1475676950600,-5.962160587310791,-6.1501054763793945,-6.598419666290283
1475676950780,19.607913970947266,-19.608510971069336,8.3707275390625
1475676950958,-0.9085995554924011,15.040973663330078,-4.875193119049072
1475676951140,-1.3784615993499756,-14.802750587463379,18.65502166748047
1475676951321,-2.3582887649536133,-5.270236492156982,-5.4665608406066895
1475676951498,19.607913970947266,-19.608510971069336,-15.831658363342285
1475676951678,-0.9678560495376587,14.426261901855469,-3.8301241397857666
1475676951861,2.868852138519287,-3.3931822776794434,3.560776472091675
1475676952038,-1.8076223134994507,-4.280832767486572,-1.1456254720687866
1475676952221,7.8763251304626465,-18.665197372436523,-5.343858242034912
1475676952400,-0.7487865686416626,6.8372416496276855,-6.469132900238037
1475676952582,4.570530891418457,-14.213178634643555,-6.8809356689453125
1475676952759,3.757101058959961,-5.770026206970215,19.444509506225586
1475676952941,-1.0678139925003052,-0.7793126702308655,-1.4227544069290161
1475676953122,1.557428240776062,3.642179250717163,-5.191826343536377
1475676953300,19.607913970947266,-19.608510971069336,-14.882357597351074
1475676953480,0.6051344871520996,-3.359065055847168,19.608510971069336
1475676953661,-2.8562827110290527,0.7649474143981934,-1.5424644947052002
1475676953842,3.931279182434082,-0.8224082589149475,-2.8119897842407227
1475676954021,7.005434036254883,-6.929418087005615,4.072536945343018
1475676954203,1.2234370708465576,-11.519103050231934,-3.8810009956359863
1475676954383,-5.252279758453369,0.6518214344978333,-2.6815059185028076
1475676954561,6.8162922859191895,-3.558382272720337,-0.9582792520523071
1475676954743,-0.6649895310401917,-12.720393180847168,-4.31135892868042
1475676954946,5.083488941192627,-17.98284912109375,-4.104260444641113
1475676955104,-9.354744911193848,2.250549554824829,-0.395043283700943
1475676955284,5.834071159362793,-9.639654159545898,-1.3778630495071411
1475676955469,-1.1994950771331787,-8.477270126342773,-0.32441434264183044
1475676955643,11.66455078125,-19.608510971069336,-8.601768493652344
1475676955824,-11.583745956420898,2.4833858013153076,7.205948352813721
1475676956001,5.83347225189209,-6.6397199630737305,6.147112846374512
1475676956184,-0.5303156971931458,-6.404489517211914,-2.4217350482940674
1475676956366,11.19468879699707,-17.72726821899414,-13.10765552520752
1475676956542,-5.17626428604126,1.4586673974990845,8.560467720031738
1475676956726,7.140108108520508,-4.356249809265137,4.368220806121826
1475676956905,2.2415714263916016,-5.880159378051758,1.2952631711959839
1475676957086,14.834473609924316,-19.608510971069336,-9.980828285217285
1475676957266,-3.308786630630493,1.92134690284729,1.0540473461151123
1475676957446,19.607913970947266,-6.918045997619629,-0.9989806413650513
1475676957627,-1.2300211191177368,6.487688064575195,-8.045714378356934
1475676957806,15.244481086730957,-19.608510971069336,2.094327926635742
1475676957984,-5.895721912384033,-2.1535844802856445,-1.4802151918411255
1475676958167,18.1905460357666,-3.24414324760437,-2.6204538345336914
1475676958346,-0.13108254969120026,9.047089576721191,-3.07415509223938
1475676958525,13.110648155212402,-19.160797119140625,1.2473790645599365
1475676958707,-5.015254020690918,-1.5352818965911865,-1.3126211166381836
1475676958888,19.607913970947266,-9.5007905960083,2.4187421798706055
1475676959064,1.7334020137786865,3.15974760055542,-7.561487674713135
1475676959246,13.88158130645752,-13.111247062683105,0.1735796183347702
1475676959428,-5.397727966308594,-5.258265495300293,-4.416105270385742
1475676959609,19.607913970947266,-19.46366310119629,17.735647201538086
1475676959785,-0.01975216343998909,8.813055992126465,-0.23822307586669922
1475676959968,9.75397777557373,-4.9565958976745605,-1.016338586807251
1475676960145,-4.684854030609131,-2.052429437637329,-0.6021417379379272
1475676960329,19.607913970947266,-19.608510971069336,17.848773956298828
1475676960508,5.527613162994385,19.608510971069336,-1.2419921159744263
1475676960688,11.330559730529785,-11.896788597106934,2.300827741622925
1475676960868,-4.829703330993652,-4.0312371253967285,-3.715202569961548
1475676961047,19.607913970947266,-19.608510971069336,-2.7922377586364746
1475676961230,1.2234370708465576,8.888473510742188,-8.986037254333496
1475676961409,17.975067138671875,-19.068021774291992,-3.4991257190704346
1475676961587,1.081580638885498,-5.817311763763428,8.376712799072266
1475676961769,-3.4141316413879395,-4.4705729484558105,-3.6786909103393555
1475676961950,1.7675193548202515,4.837484359741211,-1.4257471561431885
1475676962127,1.8944120407104492,-5.8203043937683105,-10.955866813659668
1475676962310,-2.74076247215271,-3.199850559234619,10.526107788085938
1475676962491,-1.3593080043792725,-0.48722004890441895,-0.45908817648887634
1475676962671,2.7012581825256348,2.7485435009002686,-4.398746967315674
1475676962850,18.148048400878906,-17.59079933166504,-18.640655517578125
1475676963029,-1.0301052331924438,-2.2361843585968018,7.150283336639404
1475676963209,-1.0887632369995117,-0.34656068682670593,-0.04668693244457245
1475676963392,4.681262969970703,3.5188779830932617,-6.222530364990234
1475676963569,19.607913970947266,-19.608510971069336,-19.608510971069336
1475676963752,2.115875720977783,-3.3028011322021484,19.608510971069336
1475676963930,-1.060032844543457,0.48243165016174316,-0.10534487664699554
1475676964110,3.7642836570739746,1.358709454536438,-6.2865753173828125
1475676964291,6.663661956787109,-5.52821159362793,4.072536945343018
1475676964473,1.589151382446289,-4.879383087158203,18.4688720703125
1475676964650,-3.4356794357299805,2.9472622871398926,-1.5807716846466064
1475676964832,3.9013516902923584,0.5063736438751221,-4.7189717292785645
1475676965014,2.033275842666626,-5.0499701499938965,4.001309394836426
1475676965192,0.6129156351089478,-12.331933975219727,11.875839233398438
1475676965373,-5.4444146156311035,3.494935989379883,-3.3895909786224365
1475676965551,5.801150798797607,-2.736572504043579,-3.1501708030700684
1475676965734,1.1593921184539795,-7.574057102203369,-1.6166846752166748
1475676965913,5.163095951080322,-18.617910385131836,-5.034407615661621
1475676966092,-8.94773006439209,3.090914487838745,2.5288755893707275
1475676966274,2.450465440750122,-10.131064414978027,2.20924973487854
1475676966453,-2.1990742683410645,-6.569090843200684,-5.437830448150635
1475676966632,8.146869659423828,-18.921974182128906,-10.24239444732666
1475676966812,-4.615422248840332,2.826953649520874,7.893682956695557
1475676966996,4.075530052185059,-6.568492412567139,6.984484672546387
1475676967176,4.709394931793213,-7.912238121032715,-10.116100311279297
1475676967353,11.303625106811523,-19.608510971069336,-11.807005882263184
1475676967539,-5.0685248374938965,0.7601590156555176,2.802412986755371
1475676967715,18.221670150756836,-3.9665937423706055,-2.5911247730255127
1475676967897,0.6494272351264954,8.529942512512207,-3.1908724308013916
1475676968073,18.046894073486328,-19.23082733154297,5.16429328918457
1475676968252,-3.465008497238159,-0.8631097078323364,-1.6160861253738403
1475676968436,19.607913970947266,-17.301698684692383,13.117232322692871
1475676968613,2.07397723197937,17.44415283203125,4.322132587432861
1475676968797,2.190095901489258,0.4752490520477295,-5.640739440917969
1475676968976,-4.532822132110596,-6.783970355987549,-3.73016619682312
1475676969155,19.607913970947266,-19.608510971069336,10.986392974853516
1475676969333,7.411251544952393,19.570802688598633,12.80359172821045
1475676969517,-1.9907786846160889,-8.722675323486328,-1.3569138050079346
1475676969696,-4.505289077758789,-5.5114521980285645,-2.6791117191314697
1475676969874,19.607913970947266,-19.608510971069336,-17.650653839111328
1475676970063,1.8285715579986572,12.377424240112305,-3.1477766036987305
1475676970235,-2.6797101497650146,-15.712547302246094,14.378377914428711
1475676970417,-3.465008497238159,-10.140042304992676,-4.6255974769592285
1475676970594,-1.5939397811889648,-3.838503837585449,-1.764526605606079
1475676970778,0.1215057373046875,3.375225782394409,-2.8161797523498535
1475676970957,19.607913970947266,-19.608510971069336,-19.608510971069336
1475676971136,1.1216834783554077,-3.7253777980804443,9.560646057128906
1475676971319,-3.4829649925231934,-7.101202011108398,-2.2685060501098633
1475676971499,0.9169792532920837,3.3710360527038574,-5.107430934906006
1475676971676,19.607913970947266,-19.608510971069336,-19.608510971069336
1475676971859,0.014365210197865963,-6.111199855804443,18.689138412475586
1475676972039,-1.1504138708114624,-1.6071078777313232,-1.5203180313110352
1475676972219,0.444722980260849,3.1926679611206055,-4.730343818664551
1475676972399,8.270770072937012,-6.856993675231934,-8.304886817932129
1475676972577,-1.8249802589416504,-9.246406555175781,16.989852905273438
1475676972760,-2.0422539710998535,1.0881646871566772,-2.1487960815429688
1475676972940,6.054935932159424,1.3353660106658936,-5.145139217376709
1475676973118,6.68520975112915,-7.70394229888916,-2.4426841735839844
1475676973300,4.592078685760498,-17.462709426879883,-3.0585925579071045
1475676973481,-5.851428985595703,2.7724854946136475,-0.8936358094215393
1475676973658,5.369596004486084,-6.513425827026367,-2.058414936065674
1475676973841,-1.9806033372879028,-6.980893611907959,-2.367865562438965
1475676974021,7.113771915435791,-18.260576248168945,-4.331709384918213
1475676974199,-12.464812278747559,3.073556423187256,3.005920171737671
1475676974379,3.7439329624176025,-10.867879867553711,4.308365821838379
1475676974560,4.660912036895752,-8.010400772094727,1.1510124206542969
1475676974741,12.505514144897461,-19.608510971069336,-13.7666597366333
1475676974919,-5.913678169250488,1.171961784362793,5.886743545532227
1475676975100,10.446500778198242,-5.0050787925720215,-0.45489832758903503
1475676975279,-2.3133974075317383,5.123591423034668,-5.924452304840088
1475676975462,12.901155471801758,-19.608510971069336,-3.7026329040527344
1475676975640,-5.3348798751831055,-1.9584569931030273,-2.9023709297180176
1475676975821,19.607913970947266,-16.39788818359375,12.78384017944336
1475676976001,3.755903959274292,15.331270217895508,2.7479450702667236
1475676976181,1.657984733581543,-0.284311443567276,0.8583213090896606
1475676976363,-5.303156852722168,-7.539939880371094,-3.5703532695770264
1475676976544,11.119271278381348,-16.50442886352539,-9.118915557861328
1475676976723,1.2563573122024536,10.271124839782715,-6.600215435028076
1475676976902,-2.535459518432617,-14.166491508483887,10.154407501220703
1475676977083,1.7866730690002441,-6.279392719268799,1.5292962789535522
1475676977264,-2.913743495941162,-4.826112270355225,-3.2866404056549072
1475676977443,1.590348482131958,3.9701850414276123,-1.7944542169570923
1475676977622,19.607913970947266,-19.608510971069336,-19.608510971069336
1475676977806,2.146401882171631,-4.129399299621582,10.213664054870605
1475676977985,-3.110666513442993,-2.0853497982025146,-0.8415619134902954
1475676978162,2.1481974124908447,3.90554141998291,-2.586935043334961
1475676978345,11.227010726928711,-19.10692596435547,-17.643470764160156
1475676978526,2.278681516647339,-5.492298603057861,14.468759536743164
1475676978703,-1.279700756072998,-1.3443442583084106,-1.548449993133545
1475676978886,1.5981296300888062,3.7696704864501953,-5.315127849578857
1475676979067,19.607913970947266,-19.60671615600586,-9.988011360168457
1475676979246,0.4129997789859772,-3.3530795574188232,19.608510971069336
1475676979426,-3.1423897743225098,3.2788591384887695,-1.622071623802185
1475676979606,3.0837318897247314,5.346850872039795,-6.460753440856934
1475676979787,16.4445743560791,-19.608510971069336,13.287819862365723
1475676979968,-0.18614917993545532,-14.16709041595459,11.428123474121094
1475676980145,-6.152499675750732,2.7946319580078125,-5.439626216888428
1475676980330,4.74111795425415,-1.0115501880645752,-3.667917013168335
1475676980507,8.259995460510254,-18.59756088256836,5.518634796142578
1475676980685,1.7639280557632446,-8.497021675109863,15.040973663330078
1475676980867,-10.214861869812012,4.502894878387451,-1.0348936319351196
1475676981048,3.0382418632507324,-8.197746276855469,-0.2124854028224945
1475676981229,-2.0661959648132324,-4.852448463439941,2.1320366859436035
1475676981408,9.517550468444824,-17.634492874145508,0.11133038252592087
1475676981588,-8.578424453735352,4.490325450897217,3.2830491065979004
1475676981768,2.6174609661102295,-4.574720859527588,5.720944881439209
1475676981949,-3.025672435760498,-9.21707820892334,1.202487826347351
1475676982130,10.310629844665527,-19.608510971069336,-7.504026889801025
1475676982309,-9.549273490905762,2.962824583053589,5.793369770050049
1475676982490,1.974617838859558,-4.574122428894043,8.24383544921875
1475676982667,7.502231121063232,-5.061941146850586,-9.883264541625977
1475676982849,12.037447929382324,-19.608510971069336,-7.6782050132751465
1475676983030,-7.342418193817139,1.368884801864624,6.919841289520264
1475676983207,7.99064826965332,-5.75326681137085,4.613028049468994
1475676983390,6.409876346588135,-5.052364349365234,-9.485228538513184
1475676983569,13.086108207702637,-19.608510971069336,1.0091559886932373
1475676983748,-5.45458984375,-3.2399535179138184,-1.337161660194397
1475676983931,18.8034610748291,-5.682637691497803,-2.5540146827697754
1475676984111,6.050746440887451,-2.409764051437378,-13.231555938720703
1475676984291,19.607913970947266,-19.608510971069336,1.0947487354278564
1475676984471,-6.168062210083008,-4.792593479156494,-3.1645359992980957
1475676984657,19.607913970947266,-19.608510971069336,19.243993759155273
1475676984829,3.5709519386291504,19.473838806152344,14.63276195526123
1475676985009,12.418724060058594,-18.1713924407959,2.5917234420776367
1475676985189,-4.939836502075195,-1.777694821357727,-2.214038133621216
1475676985371,19.607913970947266,-19.608510971069336,9.480440139770508
1475676985551,-2.123058319091797,14.864400863647461,1.7723077535629272
1475676985729,-0.19153612852096558,-6.3284735679626465,1.4640543460845947
1475676985916,0.04668693244457245,-4.917690277099609,0.7757213711738586
1475676986092,2.096123695373535,-14.775217056274414,-4.779425144195557
1475676986271,1.7004817724227905,5.431845188140869,-1.2749123573303223
1475676986452,19.607913970947266,-19.608510971069336,-19.23381996154785
1475676986632,-0.6877344250679016,-7.255029678344727,16.703147888183594
1475676986813,-1.7154455184936523,1.6202759742736816,-1.2976573705673218
1475676986993,3.536834478378296,2.2164323329925537,-5.913079738616943
1475676987172,2.299032211303711,-1.7920600175857544,2.006939649581909
1475676987354,3.648164749145508,-12.361862182617188,-5.105036735534668
1475676987536,-7.526173114776611,3.7026329040527344,-1.5873557329177856
1475676987712,7.858368396759033,-4.580706596374512,-2.9460651874542236
1475676987893,5.152920722961426,-19.576190948486328,-4.768052577972412
1475676988072,3.008913040161133,-19.432538986206055,-5.496488571166992
1475676988251,-10.010157585144043,0.6500257849693298,5.263652324676514
1475676988433,4.194042682647705,-6.9689226150512695,2.118868589401245
1475676988614,-0.29209262132644653,-6.698976516723633,-3.3243491649627686
1475676988796,8.118738174438477,-18.884265899658203,-9.100360870361328
1475676988974,-10.342352867126465,2.4654293060302734,6.447585105895996
1475676989156,1.9722236394882202,-6.254253387451172,6.202777862548828
1475676989336,4.216787815093994,-3.359065055847168,-1.3652935028076172
1475676989516,10.198700904846191,-19.608510971069336,-13.182474136352539
1475676989693,-3.3883938789367676,2.874837636947632,8.330026626586914
1475676989877,9.446921348571777,-5.779603004455566,-0.9588778018951416
1475676990056,-0.5045779943466187,6.038775444030762,-4.581903457641602
1475676990234,17.565061569213867,-19.42236328125,6.059125900268555
1475676990416,-7.48846435546875,-6.176441669464111,-2.6216509342193604
1475676990596,19.607913970947266,-19.608510971069336,16.12674331665039
1475676990774,2.6641478538513184,14.277223587036133,6.67982292175293
1475676990957,5.1331682205200195,-14.597447395324707,3.624821424484253
1475676991137,-6.5948286056518555,-6.2847795486450195,-5.720944881439209
1475676991317,19.607913970947266,-19.608510971069336,-7.3202714920043945
1475676991497,1.3437457084655762,8.3922758102417,-4.43705415725708
1475676991675,16.182409286499023,-18.296489715576172,-2.9957449436187744
1475676991857,0.5817909836769104,-5.000290393829346,9.836577415466309
1475676992038,-2.0380642414093018,-2.675520420074463,-1.1593921184539795
1475676992216,1.5717934370040894,5.2229509353637695,-3.4332852363586426
1475676992397,6.91265869140625,-18.746000289916992,-11.562797546386719
1475676992578,2.0171148777008057,-4.908113479614258,19.04886817932129
1475676992758,-1.801636815071106,1.2006921768188477,-0.9457096457481384
1475676992938,2.299032211303711,3.181894063949585,-5.855618953704834
1475676993119,15.148713111877441,-11.168352127075195,2.360682964324951
1475676993297,1.6340426206588745,-6.907870292663574,12.713211059570313
1475676993479,-1.3521254062652588,2.5121161937713623,-1.4802151918411255
1475676993659,4.800374507904053,-0.27712884545326233,-3.493738889694214
1475676993840,-0.4129997789859772,-6.490082263946533,-1.6484078168869019
1475676994019,1.7627309560775757,-15.061324119567871,-3.9899370670318604
1475676994199,-5.889736175537109,3.664325714111328,-3.3877954483032227
1475676994379,5.4881086349487305,-3.6721067428588867,-3.1980550289154053
1475676994561,-1.3623007535934448,-3.9893386363983154,-0.3998316824436188
1475676994740,4.8722004890441895,-19.370288848876953,-3.4955344200134277
1475676994921,-9.837176322937012,3.7427358627319336,0.3190273642539978
1475676995101,3.579331636428833,-10.858901977539063,0.5919663906097412
1475676995278,-2.610278367996216,-8.495824813842773,-4.712985992431641
1475676995467,10.434529304504395,-19.36549949645996,-5.760449409484863
1475676995641,-11.53885555267334,2.472611904144287,8.232462882995605
1475676995822,3.446453332901001,-8.89685344696045,3.776254653930664
1475676996001,1.3521254062652588,-6.130951881408691,-1.1869255304336548
1475676996182,13.145364761352539,-19.608510971069336,-14.034810066223145
1475676996362,-5.437830448150635,1.4095861911773682,3.357269287109375
1475676996542,18.471864700317383,-3.5847184658050537,-2.7742812633514404
1475676996724,-1.8608932495117188,3.514089584350586,-11.984176635742188
1475676996903,16.77796745300293,-19.608510971069336,3.511096715927124
1475676997082,-4.720767021179199,0.060453593730926514,2.472611904144287
1475676997261,19.607913970947266,-12.986748695373535,8.107365608215332
1475676997441,-1.1737574338912964,17.757793426513672,10.259154319763184
1475676997621,9.770736694335938,-11.077372550964355,3.7846343517303467
1475676997800,-5.364208698272705,-9.319430351257324,-4.54419469833374
1475676997985,19.607913970947266,-19.608510971069336,18.51017189025879
1475676998163,1.2874820232391357,14.510658264160156,14.305953979492188
1475676998342,-2.847304344177246,-8.201337814331055,9.233837127685547
1475676998521,1.0630255937576294,-3.5691561698913574,0.9367313981056213
1475676998705,2.515108823776245,-12.339117050170898,-2.050633668899536
1475676998884,1.2563573122024536,4.531625270843506,-3.135207176208496
1475676999065,13.148357391357422,-12.304999351501465,-3.13700270652771
1475676999242,2.3277626037597656,-4.698022365570068,13.171700477600098
1475676999426,-0.7296329736709595,-1.7166426181793213,-0.8619126081466675
1475676999606,0.9870096445083618,4.761468410491943,-2.2008697986602783
1475676999783,19.607913970947266,-19.608510971069336,-17.702728271484375
1475676999965,1.4987702369689941,-4.931457042694092,12.774861335754395
1475677000147,-4.2090067863464355,2.0039467811584473,-1.0773907899856567
1475677000323,2.3475148677825928,1.63344407081604,-4.9350481033325195
1475677000505,19.04228401184082,-14.499285697937012,16.058509826660156
1475677000687,-0.25737667083740234,-9.84376049041748,12.676100730895996
1475677000867,-3.892971992492676,1.809417963027954,-2.4666264057159424
1475677001046,5.442020416259766,-8.235455513000488,-2.0165164470672607
1475677001229,-3.8762125968933105,-7.997830867767334,-4.491522312164307
1475677001407,8.307879447937012,-15.227721214294434,-1.7549498081207275
1475677001587,-8.452130317687988,2.5779566764831543,1.0103530883789063
1475677001764,6.163273811340332,-9.264962196350098,-0.7858967185020447
1475677001947,-2.1571757793426514,-7.361571788787842,-2.649184226989746
1475677002127,9.373299598693848,-19.59235191345215,-8.596980094909668
1475677002305,-6.598419666290283,1.8285715579986572,5.6233811378479
1475677002487,2.581547975540161,-11.453861236572266,5.7754130363464355
1475677002666,5.035604953765869,-6.370970726013184,-4.094683647155762
1475677002845,14.041993141174316,-19.608510971069336,2.12485408782959
1475677003028,-6.621164798736572,-4.791994571685791,-1.4652514457702637
1475677003208,19.607913970947266,-13.945027351379395,14.698003768920898
1475677003387,-2.337339401245117,17.37232780456543,14.6393461227417
1475677003568,9.80904483795166,-4.121618270874023,-1.7639280557632446
1475677003748,-3.5907039642333984,-7.467514991760254,-2.227206230163574
1475677003928,19.607913970947266,-19.608510971069336,-4.093486309051514
1475677004109,-1.0899603366851807,5.992686748504639,-2.6402058601379395
1475677004287,4.192845821380615,-8.847772598266602,2.9927520751953125
1475677004469,1.0402805805206299,-2.2421698570251465,2.186504602432251
1475677004649,10.690110206604004,-18.382081985473633,-2.603095769882202
1475677004827,0.507570743560791,5.868786811828613,-5.340266704559326
1475677005010,3.8744168281555176,-17.781736373901367,-14.127585411071777
1475677005190,1.744175910949707,-4.183867454528809,4.240729808807373
1475677005367,-0.9929951429367065,-5.098452568054199,0.050876785069704056
1475677005550,1.7944542169570923,3.378817081451416,-2.492363929748535
1475677005729,15.133150100708008,-6.223727226257324,12.018892288208008
1475677005911,2.4594438076019287,-7.75900936126709,16.32486343383789
1475677006091,-2.3271639347076416,3.47039532661438,-1.8626888990402222
1475677006269,6.132747650146484,1.6813281774520874,-6.433219909667969
1475677006451,0.9594763517379761,-4.774636745452881,1.3748703002929688
1475677006631,5.831078052520752,-15.704766273498535,-2.589329242706299
1475677006809,-5.764639377593994,3.9234981536865234,-0.4578910768032074
1475677006990,5.780799865722656,-8.853158950805664,-1.6502034664154053
1475677007172,-1.9692308902740479,-3.955819845199585,0.5315127968788147
1475677007349,8.752602577209473,-19.204490661621094,-2.4815900325775146
1475677007532,-11.267112731933594,2.964620351791382,4.815338134765625
1475677007710,1.8926163911819458,-11.490970611572266,-0.7152677774429321
1475677007892,-0.05985504388809204,-4.416703701019287,-0.6596025824546814
1475677008071,8.67598819732666,-19.21466636657715,-11.814786911010742
1475677008253,-5.8855462074279785,1.1336544752120972,7.641693115234375
1475677008432,9.728240013122559,-5.63535213470459,4.660313606262207
1475677008614,-1.0372878313064575,-4.505887508392334,-2.668936252593994
1475677008796,19.607913970947266,-19.608510971069336,4.1395745277404785
1475677008972,-5.756857872009277,-2.342127799987793,0.4405331015586853
1475677009154,11.832144737243652,-5.1349639892578125,3.933074951171875
1475677009331,-4.8722004890441895,-2.403179883956909,1.780089020729065
1475677009513,19.607913970947266,-19.608510971069336,2.9442696571350098
1475677009694,-7.806893348693848,-6.411672115325928,4.006696701049805
1475677009871,19.135656356811523,-8.48205852508545,3.9480385780334473
1475677010056,-3.714005470275879,5.4875102043151855,2.0638017654418945
1475677010232,17.366342544555664,-9.468469619750977,-0.6434416770935059
1475677010414,-4.885368347167969,-8.288725852966309,-2.2038626670837402
1475677010595,19.607913970947266,-16.309900283813477,19.048269271850586
1475677010773,-3.533243179321289,16.16325569152832,14.09466552734375
1475677010953,19.396026611328125,-15.348628997802734,1.5173252820968628
1475677011136,-4.424484729766846,-4.851849555969238,-5.408501625061035
1475677011313,19.607913970947266,-19.608510971069336,2.013523578643799
1475677011495,-0.39145198464393616,12.862848281860352,-4.231751441955566
1475677011676,1.3611036539077759,-10.877456665039063,10.36569595336914
1475677011854,-2.942473888397217,-5.953182697296143,-2.3062148094177246
1475677012036,16.919225692749023,-19.608510971069336,1.8997989892959595
1475677012217,0.6428431272506714,4.378396511077881,-3.626616954803467
1475677012394,5.665279865264893,-19.5959415435791,0.557250440120697
1475677012576,-1.1941081285476685,-9.193734169006348,6.53377628326416
1475677012757,-0.961870551109314,-1.246780514717102,-0.6063315868377686
1475677012938,2.826355218887329,4.012083530426025,-5.987898349761963
1475677013117,19.607913970947266,-15.00925064086914,6.1536970138549805
1475677013297,2.756923198699951,-14.244901657104492,0.8415619134902954
1475677013477,-1.3120225667953491,1.9913772344589233,-1.5155296325683594
1475677013658,7.95832633972168,-2.322375535964966,-3.1974563598632813
1475677013835,-1.9027918577194214,-3.313575267791748,-0.1280897855758667
1475677014018,8.109161376953125,-16.53914451599121,-15.803526878356934
1475677014198,-5.146336555480957,2.1314380168914795,3.399167776107788
1475677014376,7.439383029937744,-10.60272216796875,0.6697779297828674
1475677014558,-1.6753426790237427,-9.1446533203125,-4.966771602630615
1475677014737,13.332112312316895,-19.608510971069336,-11.383232116699219
1475677014916,-8.249221801757813,1.8136078119277954,6.943184852600098
1475677015096,12.8933744430542,-4.841674327850342,3.13700270652771
1475677015279,-8.064867973327637,13.53502082824707,7.38132381439209
1475677015458,18.553865432739258,-10.340557098388672,0.8762778043746948
1475677015639,-2.980781078338623,-4.228160381317139,0.46327802538871765
1475677015820,19.607913970947266,-19.608510971069336,-12.77845287322998
1475677016000,1.2234370708465576,5.3564276695251465,-2.448669672012329
1475677016181,-0.5111620426177979,-7.402871608734131,9.818621635437012
1475677016357,-0.02454056777060032,-3.3704373836517334,8.349180221557617
1475677016541,-0.11791443079710007,-0.5590460896492004,-0.36571431159973145
1475677016721,1.3096283674240112,4.50947904586792,-2.4205379486083984
1475677016898,19.607913970947266,-19.608510971069336,-17.878700256347656
1475677017079,-0.21128830313682556,-2.205059766769409,19.444509506225586
1475677017262,-0.3256114423274994,0.7254431247711182,-0.9307458996772766
1475677017438,8.75080680847168,-1.5807716846466064,-3.7433342933654785
1475677017621,16.067487716674805,-10.879252433776855,17.09160804748535
1475677017801,3.2788591384887695,-11.580753326416016,2.6210522651672363
1475677017981,-1.6855180263519287,0.8870517015457153,-2.167351007461548
1475677018162,6.211756229400635,-1.4472949504852295,-4.741716384887695
1475677018340,-0.5033808946609497,-2.0464439392089844,1.246780514717102
1475677018521,5.297770023345947,-14.956578254699707,-1.0977414846420288
1475677018702,-5.371391296386719,2.1996726989746094,-2.3768436908721924
1475677018880,8.712499618530273,-4.993107795715332,-3.3692402839660645
