timestamp,ax,ay,az
1484274712789,7.034898281097412,-2.210968255996704,0.7034898400306702
1484274713020,-6.776473522186279,10.15992546081543,0.33738797903060913
1484274713273,3.5605196952819824,0.11485548317432404,2.627319574356079
1484274713499,21.559329986572266,22.803600311279297,0.4977070987224579
1484274713740,-11.380265235900879,9.578469276428223,5.302494525909424
1484274713983,11.088340759277344,3.4959137439727783,1.129412293434143
1484274714219,18.831514358520508,15.823736190795898,-2.6249265670776367
1484274714470,-7.977671146392822,9.473184585571289,2.5004994869232178
1484274714701,20.75534439086914,22.906492233276367,-2.9694931507110596
1484274714937,9.820144653320312,-6.546762466430664,-0.7226324081420898
1484274715181,2.100898265838623,16.967504501342773,-1.7443678379058838
1484274715416,0.6652047038078308,21.894329071044922,-1.6079767942428589
1484274715628,4.244867324829102,-4.158725738525391,0.906879723072052
1484274715869,17.022539138793945,20.721843719482422,-3.1106693744659424
1484274716099,-11.13619613647461,11.691330909729004,1.9118653535842896
1484274716335,18.477375030517578,2.7110681533813477,3.3403804302215576
1484274716574,16.031911849975586,-5.405385971069336,-2.5914268493652344
1484274716817,-3.689732551574707,14.366507530212402,-1.191625714302063
1484274717063,26.383262634277344,24.531217575073242,5.029713153839111
1484274717292,9.470791816711426,-10.372885704040527,0.7537391781806946
1484274717531,3.3164520263671875,15.177674293518066,1.0480562448501587
1484274717772,6.422336101531982,23.67219352722168,2.2707886695861816
1484274718013,6.374479293823242,-8.48016357421875,2.0482561588287354
1484274718259,15.835700035095215,21.018556594848633,-5.601597785949707
1484274718459,-9.671788215637207,7.042076587677002,2.888136863708496
1484274718688,15.55813217163086,9.958927154541016,3.321237564086914
1484274718889,7.546962738037109,-4.95792818069458,0.44027936458587646
1484274719130,1.765903115272522,8.465806007385254,-2.062613010406494
1484274719369,1.368694543838501,23.794227600097656,6.879364967346191
1484274719608,5.283352375030518,-3.345165967941284,3.436093330383301
1484274719829,37.5098876953125,28.000810623168945,3.5509488582611084
1484274720059,-12.725030899047852,8.83669376373291,3.153740167617798
1484274720285,25.229921340942383,12.366107940673828,4.833501815795898
1484274720526,10.73420238494873,-8.38684368133545,-0.8231310248374939
1484274720764,-3.445664882659912,10.399208068847656,-0.9547362923622131
1484274720966,8.250452041625977,33.73162078857422,7.537391662597656
1484274721205,7.867600917816162,-12.885350227355957,1.0480562448501587
1484274721422,23.942584991455078,29.807392120361328,-7.963313579559326
1484274721655,-12.629318237304688,16.474584579467773,4.35254430770874
1484274721882,12.964313507080078,2.2085752487182617,2.5076780319213867
1484274722083,8.939584732055664,-9.030512809753418,0.6269195079803467
1484274722322,1.3782659769058228,10.16231918334961,-1.8927226066589355
1484274722563,13.395020484924316,33.056846618652344,4.2831525802612305
1484274722802,8.059026718139648,-6.7621169090271,3.649054527282715
1484274723019,14.869000434875488,26.617759704589844,-3.4887356758117676
1484274723251,-9.891928672790527,12.55274772644043,2.328216552734375
1484274723480,9.035298347473145,3.201596736907959,1.954936146736145
1484274723721,22.784454345703125,12.217752456665039,-0.4043869972229004
1484274723962,-5.077569961547852,8.185846328735352,-0.6939185857772827
1484274724180,17.883955001831055,42.87698745727539,6.786045074462891
1484274724398,7.642674922943115,-11.217552185058594,3.4672000408172607
1484274724646,14.342578887939453,24.14597511291504,1.246660590171814
1484274724849,-10.533205032348633,14.663217544555664,6.5180487632751465
1484274725077,9.91585636138916,2.665604591369629,1.4548362493515015
1484274725279,9.81535816192627,-5.414957523345947,0.3924228847026825
1484274725516,0.1339980661869049,14.120046615600586,-1.0648061037063599
1484274725760,28.9483699798584,40.922054290771484,9.286543846130371
1484274725995,8.38444995880127,-12.485749244689941,1.581655740737915
1484274726244,8.432307243347168,20.695520401000977,-2.328216552734375
1484274726445,-8.901299476623535,6.86979341506958,0.17946170270442963
1484274726673,13.189238548278809,7.499105930328369,2.2205395698547363
1484274726915,10.825129508972168,-2.029113531112671,1.3830513954162598
1484274727153,-0.48813584446907043,10.260422706604004,0.08853443711996078
1484274727413,34.5523567199707,45.415775299072266,4.316651821136475
1484274727644,6.963113307952881,-9.741181373596191,3.8524444103240967
1484274727869,6.374479293823242,17.39582061767578,-2.368894338607788
1484274728071,-11.700902938842773,9.047262191772461,2.830709218978882
1484274728311,10.140782356262207,0.4498506784439087,3.90987229347229
1484274728550,19.41057777404785,7.379465103149414,-0.40677985548973083
1484274728790,-4.8574299812316895,13.533804893493652,-0.28953152894973755
1484274729038,16.543975830078125,13.383056640625,0.9020940661430359
1484274729269,4.091726779937744,1.210768222808838,6.38165807723999
1484274729506,3.1250264644622803,6.994220733642578,-6.546762466430664
1484274729708,-3.689732551574707,18.896120071411133,0.24406792223453522
1484274729947,4.666004180908203,-0.2871387302875519,4.721039295196533
1484274730191,23.55973243713379,19.712072372436523,3.211168050765991
1484274730440,-6.192624568939209,6.553941249847412,2.0793628692626953
1484274730665,19.156938552856445,19.085153579711914,5.855237007141113
1484274730866,6.943971633911133,-8.563912391662598,1.5122638940811157
1484274731076,11.179267883300781,22.236501693725586,-0.6652047038078308
1484274731305,-9.432506561279297,8.891729354858398,1.636690616607666
1484274731543,10.418350219726562,5.697310447692871,1.931007981300354
1484274731746,10.595418930053711,-7.862814903259277,0.7680960297584534
1484274731982,0.5886343717575073,10.767702102661133,-1.7611174583435059
1484274732183,1.0193424224853516,21.272192001342773,3.2757742404937744
1484274732433,7.939385414123535,-8.102097511291504,5.788238048553467
1484274732664,27.436105728149414,33.241092681884766,-3.555734634399414
1484274732902,-6.403193473815918,7.200003147125244,-5.8959150314331055
1484274733138,12.150753021240234,6.850651264190674,2.71346116065979
1484274733343,5.661418437957764,-3.4121649265289307,1.8592231273651123
1484274733580,3.5844480991363525,12.571890830993652,-1.9094725847244263
1484274733833,1.4548362493515015,26.90489959716797,2.2372891902923584
1484274734058,1.947757601737976,3.9768712520599365,2.8833510875701904
1484274734316,14.3330078125,17.848064422607422,-8.171488761901855
1484274734539,-6.714260101318359,5.340780735015869,-1.8664016723632812
1484274734777,15.132209777832031,9.418149948120117,1.026520848274231
1484274734980,8.810372352600098,-11.095518112182617,1.3328022956848145
1484274735227,4.292723655700684,13.100704193115234,-0.7968099117279053
1484274735428,-4.029513359069824,12.052647590637207,3.2135608196258545
1484274735656,4.321437358856201,-0.1339980661869049,4.192224979400635
1484274735895,25.751556396484375,22.760530471801758,0.97148597240448
1484274736137,-3.651447057723999,7.874779224395752,-0.5431707501411438
1484274736345,30.886554718017578,32.367713928222656,7.829315185546875
1484274736575,7.408178806304932,-8.255237579345703,4.1898322105407715
1484274736823,8.513663291931152,17.43889045715332,-2.5770699977874756
1484274737025,-8.518448829650879,5.295316696166992,-1.9405791759490967
1484274737252,11.380265235900879,3.5294132232666016,4.366901397705078
1484274737491,12.141182899475098,-4.41475772857666,1.447657585144043
1484274737692,3.7663028240203857,12.6676025390625,0.5647061467170715
1484274737932,11.791830062866211,26.58904457092285,3.76151704788208
1484274738171,9.016156196594238,-9.052047729492188,9.67657470703125
1484274738420,17.568103790283203,28.079774856567383,-5.730810642242432
1484274738621,-11.801401138305664,6.872186660766602,1.703689694404602
1484274738847,16.81197166442871,12.136396408081055,2.770888566970825
1484274739049,6.508477687835693,-6.173482418060303,2.4909284114837646
1484274739288,7.15932559967041,16.314266204833984,-0.5264209508895874
1484274739528,-5.2354960441589355,19.42493438720703,3.6466617584228516
1484274739768,5.0009989738464355,-3.1824538707733154,3.5533416271209717
1484274740018,29.302505493164062,22.15753746032715,-0.43549373745918274
1484274740247,-5.106283187866211,4.654040336608887,-3.2159535884857178
1484274740456,32.01596450805664,28.405197143554688,5.036891937255859
1484274740688,4.048655986785889,-5.273780822753906,2.280359983444214
1484274740925,11.030912399291992,16.388442993164062,-2.4598214626312256
1484274741169,-6.135197162628174,14.775679588317871,3.4432716369628906
1484274741416,4.713860511779785,-3.689732551574707,2.452643394470215
1484274741651,32.6093864440918,29.123044967651367,-3.208775281906128
1484274741884,-10.389636039733887,6.900900363922119,0.763310432434082
1484274742121,16.04148292541504,8.989834785461426,3.9672999382019043
1484274742323,6.317051887512207,-6.963113307952881,2.9383859634399414
1484274742563,2.7421746253967285,8.786444664001465,-2.6775684356689453
1484274742812,4.60857629776001,27.885953903198242,3.0867412090301514
1484274743014,4.302295207977295,-4.285545349121094,4.285545349121094
1484274743260,22.387248992919922,29.793033599853516,-1.5050854682922363
1484274743481,-10.236495971679688,5.72123908996582,-0.31345975399017334
1484274743721,17.529817581176758,13.665410041809082,4.828716278076172
1484274743960,7.944170951843262,-6.927221298217773,-0.2991028428077698
1484274744208,3.5030922889709473,9.949356079101562,-0.5431707501411438
1484274744439,11.609975814819336,27.395427703857422,8.140382766723633
1484274744677,7.288537979125977,-5.773881435394287,4.453042984008789
1484274744885,41.83611297607422,33.030521392822266,8.980262756347656
1484274745121,-13.624732971191406,8.087740898132324,3.706482172012329
1484274745356,19.946569442749023,9.578469276428223,3.8428730964660645
1484274745557,9.422935485839844,-7.676175117492676,2.0482561588287354
1484274745805,8.685946464538574,18.95594024658203,-3.2518460750579834
1484274746006,-5.345565319061279,7.511070251464844,-2.6249265670776367
1484274746234,8.528019905090332,5.302494525909424,2.1822540760040283
1484274746436,10.308279991149902,-6.853044033050537,0.04546363279223442
1484274746673,3.4791641235351562,11.270195007324219,-1.031306505203247
1484274746875,-9.111868858337402,10.985447883605957,5.613561630249023
1484274747116,4.388436794281006,-2.043470621109009,1.0097711086273193
1484274747356,31.32204818725586,24.937997817993164,4.275973796844482
1484274747605,-4.240081787109375,4.871786594390869,-2.746960401535034
1484274747824,16.472190856933594,31.422544479370117,-0.5790630578994751
1484274748032,8.666803359985352,-8.405985832214355,4.7952165603637695
1484274748246,28.2448787689209,20.329421997070312,-12.315858840942383
1484274748471,-10.944771766662598,7.908278465270996,4.170689582824707
1484274748710,15.902698516845703,10.121639251708984,2.837887763977051
1484274748954,9.078369140625,-4.431507587432861,-0.6532405614852905
1484274749203,-3.7902309894561768,7.472784996032715,-0.019142581149935722
1484274749459,13.036097526550293,22.26042938232422,4.1659040451049805
1484274749668,5.0009989738464355,-6.104090690612793,3.3475589752197266
1484274749886,17.25225067138672,24.75614356994629,-3.2279179096221924
1484274750107,-9.93978500366211,6.142375946044922,0.7776673436164856
1484274750347,10.121639251708984,5.501099109649658,2.641676187515259
1484274750598,15.079567909240723,-3.3547375202178955,-0.29431718587875366
1484274750826,0.2392822504043579,10.48534870147705,-0.24406792223453522
1484274751084,27.842884063720703,26.438297271728516,4.704289436340332
1484274751305,5.953342437744141,-9.219545364379883,1.550549030303955
1484274751544,7.322037220001221,16.369298934936523,-2.3712873458862305
1484274751796,-3.5126638412475586,9.183652877807617,2.3306093215942383
1484274752024,6.240481376647949,-1.6295121908187866,2.0003998279571533
1484274752264,27.393033981323242,25.23231315612793,0.380458801984787
1484274752503,-5.680561065673828,7.47517728805542,-1.6654045581817627
1484274752712,27.110679626464844,26.390439987182617,1.234696388244629
1484274752942,6.436692714691162,-6.632904052734375,2.667997360229492
1484274753190,3.751945972442627,15.460026741027832,-2.651247262954712
1484274753392,-7.503891944885254,8.98265552520752,2.1200408935546875
1484274753621,7.566104888916016,3.641876220703125,1.3184452056884766
1484274753861,14.624931335449219,3.5126638412475586,-1.4739787578582764
1484274754101,0.6029912829399109,8.169095993041992,-1.9573287963867188
1484274754340,25.560129165649414,25.299314498901367,1.5242280960083008
1484274754590,5.800201892852783,-7.566104888916016,1.7467604875564575
1484274754816,3.493520975112915,12.210573196411133,-1.56969153881073
1484274755017,-6.948756694793701,11.868400573730469,2.715853452682495
1484274755258,6.259624004364014,1.2323036193847656,1.7324036359786987
1484274755497,25.837697982788086,5.766702175140381,2.242074966430664
1484274755737,-5.2115678787231445,9.851251602172852,-1.5864413976669312
1484274755955,26.277976989746094,35.74159240722656,7.28375244140625
1484274756184,7.168896198272705,-7.774280071258545,2.957528829574585
1484274756412,8.662017822265625,20.803199768066406,-4.764110088348389
1484274756614,-10.451848983764648,3.187239646911621,0.6580261588096619
1484274756855,11.509476661682129,0.5264209508895874,3.390629768371582
1484274757098,15.510276794433594,11.514263153076172,1.234696388244629
1484274757332,-4.780859470367432,6.441478729248047,0.8757730722427368
1484274757541,27.933813095092773,35.54777526855469,6.281159400939941
1484274757783,6.26440954208374,-8.537590980529785,0.38285160064697266
1484274758009,4.153940200805664,13.907085418701172,-1.2658032178878784
1484274758212,-8.10688304901123,11.868400573730469,3.720839262008667
1484274758451,7.953742504119873,0.05503492057323456,1.1437692642211914
1484274758691,21.712472915649414,15.63948917388916,2.9838497638702393
1484274758932,-4.981856822967529,8.590232849121094,-0.5264209508895874
1484274759146,29.546573638916016,28.8646183013916,5.4628143310546875
1484274759382,7.3746795654296875,-5.752345561981201,3.1920251846313477
1484274759607,5.383851051330566,14.177474021911621,-3.34995174407959
1484274759809,-6.805188179016113,7.645068168640137,0.4713860750198364
1484274760047,9.566505432128906,1.7395820617675781,1.7371891736984253
1484274760288,19.549360275268555,9.68375301361084,2.392822742462158
1484274760530,-5.589633941650391,4.393222332000732,-0.2967100143432617
1484274760775,20.937196731567383,17.4293212890625,4.211367607116699
1484274760978,6.680760860443115,-8.446663856506348,2.455036163330078
1484274761205,5.546562671661377,18.63530158996582,-3.783052444458008
1484274761446,-2.957528829574585,16.780864715576172,1.6701902151107788
1484274761684,4.6995038986206055,-3.3236305713653564,2.0171494483947754
1484274761885,27.9625244140625,30.656843185424805,0.11724831163883209
1484274762124,-9.212367057800293,3.562912940979004,-0.9595218896865845
1484274762372,18.764514923095703,12.411571502685547,4.914857387542725
1484274762576,5.86720085144043,-5.891129493713379,0.3038884699344635
1484274762801,1.8951154947280884,12.193824768066406,-2.8833510875701904
1484274763003,-6.340980052947998,10.454241752624512,2.9288151264190674
1484274763242,10.403992652893066,-0.7250252366065979,1.998006820678711
1484274763481,28.206592559814453,20.539989471435547,0.29431718587875366
1484274763721,-5.192424774169922,7.537391662597656,-0.45224347710609436
1484274763969,22.731815338134766,14.876177787780762,3.2135608196258545
1484274764171,10.954340934753418,-10.370492935180664,0.8997013568878174
1484274764397,6.2500529289245605,16.0701961517334,-3.153740167617798
1484274764598,-8.461020469665527,8.49452018737793,-0.014356935396790504
1484274764839,9.55214786529541,2.194218397140503,3.012563943862915
1484274765079,18.017955780029297,4.709074974060059,0.8662018179893494
1484274765317,-6.1399827003479,10.202995300292969,-1.7252250909805298
1484274765565,20.11406707763672,20.68355941772461,2.3808584213256836
1484274765768,6.891329765319824,-10.054640769958496,2.4957141876220703
1484274765995,12.078968048095703,25.225135803222656,-1.8233308792114258
1484274766196,-6.690331935882568,7.329216003417969,0.3445664942264557
1484274766435,13.586446762084961,9.17886734008789,5.182853698730469
1484274766675,17.75952911376953,-6.3361945152282715,2.029113531112671
1484274766913,-1.0049854516983032,10.29870891571045,-2.03629207611084
1484274767172,23.14816665649414,26.495725631713867,4.067798614501953
1484274767392,5.819344997406006,-10.037891387939453,5.103890895843506
1484274767638,8.882158279418945,16.979469299316406,-2.801995038986206
1484274767872,-6.072984218597412,14.297115325927734,2.8761727809906006
1484274768111,3.2590243816375732,-7.987241268157959,2.47896409034729
1484274768312,28.063024520874023,8.336593627929688,4.07258415222168
1484274768563,-8.2695951461792,8.216952323913574,-0.7537391781806946
1484274768777,24.47857666015625,23.765514373779297,3.211168050765991
1484274768990,2.4646072387695312,-8.93240737915039,0.11006984114646912
1484274769196,17.199609756469727,20.81277084350586,-2.878565788269043
1484274769430,-8.542377471923828,10.439885139465332,1.0671988725662231
1484274769668,10.557132720947266,4.199403762817383,0.12681959569454193
1484274769909,18.09930992126465,-2.5363922119140625,4.663610935211182
1484274770158,-3.3786656856536865,8.255237579345703,-2.0506489276885986
1484274770400,40.299922943115234,29.285755157470703,9.956534385681152
1484274770627,8.394021987915039,-10.966304779052734,1.459621787071228
1484274770865,4.139583110809326,11.600403785705566,-1.9381862878799438
1484274771067,-7.613961696624756,12.825529098510742,2.589033842086792
1484274771309,7.020541667938232,-1.887937068939209,2.076970100402832
1484274771557,20.70748519897461,19.111473083496094,0.16749757528305054
1484274771785,-4.555934429168701,9.42054271697998,0.5694918036460876
1484274772003,22.731815338134766,29.723642349243164,7.637890338897705
1484274772224,6.403193473815918,-8.999405860900879,2.3712873458862305
1484274772462,7.613961696624756,15.256637573242188,-2.6727826595306396
1484274772708,-3.9433717727661133,12.949954986572266,4.244867324829102
1484274772953,6.374479293823242,-6.690331935882568,3.012563943862915
1484274773183,21.506690979003906,25.706092834472656,-1.6103696823120117
1484274773422,-6.948756694793701,3.3643085956573486,1.007378339767456
1484274773659,15.510276794433594,12.380464553833008,3.0723841190338135
1484274773901,7.025327682495117,-4.869394302368164,0.05982056260108948
1484274774151,1.4213367700576782,6.999006271362305,-1.6534404754638672
1484274774380,8.599804878234863,25.35195541381836,5.1565327644348145
1484274774619,5.254639148712158,-4.9292144775390625,2.421536445617676
1484274774842,28.589445114135742,31.68815040588379,0.9547362923622131
1484274775057,-9.686145782470703,8.437092781066895,-0.7680960297584534
1484274775296,19.649858474731445,6.551548480987549,5.118247985839844
1484274775498,6.551548480987549,-5.623133182525635,0.038285162299871445
1484274775699,7.436892509460449,12.748958587646484,-3.136990547180176
1484274775948,-6.613761901855469,8.831908226013184,2.799602746963501
1484274776175,6.293124198913574,3.610769510269165,1.1988041400909424
1484274776416,18.147165298461914,2.4670000076293945,2.636890411376953
1484274776655,-1.722832441329956,8.511269569396973,-1.459621787071228
1484274776856,16.922040939331055,24.385255813598633,5.213961124420166
1484274777095,4.484149932861328,-3.7495529651641846,3.345165967941284
1484274777342,13.811371803283691,16.323835372924805,-3.3882367610931396
1484274777545,-6.5180487632751465,5.458028793334961,-0.38285160064697266
1484274777770,10.490135192871094,7.606783390045166,3.156132936477661
1484274777973,6.661618232727051,-8.164310455322266,2.964707374572754
1484274778212,2.6799612045288086,11.155338287353516,-1.8113667964935303
1484274778452,1.6941183805465698,17.64467430114746,1.931007981300354
1484274778690,7.030113220214844,-7.386643409729004,3.8572301864624023
1484274778938,26.87139892578125,14.048262596130371,-7.534998416900635
1484274779140,-9.614361763000488,10.84427261352539,5.304887294769287
1484274779344,23.124237060546875,21.434904098510742,3.0867412090301514
1484274779569,3.7423744201660156,-6.077769756317139,0.21296121180057526
1484274779807,13.366307258605957,15.340386390686035,-1.306481122970581
1484274780008,-8.676375389099121,10.681561470031738,2.6464619636535645
1484274780248,10.74855899810791,2.6321046352386475,2.3784656524658203
1484274780487,13.677373886108398,-3.28773832321167,1.184447169303894
1484274780688,-0.3349951505661011,9.724431037902832,-2.0506489276885986
1484274780938,23.502304077148438,34.085758209228516,11.387442588806152
1484274781166,4.972285747528076,-5.565705299377441,1.7180466651916504
1484274781376,14.213366508483887,20.513668060302734,-3.9696927070617676
1484274781606,-10.006784439086914,4.034298896789551,-0.44745784997940063
1484274781844,8.250452041625977,5.8337016105651855,4.261617183685303
1484274782045,8.987441062927246,-5.295316696166992,0.0023928226437419653
1484274782285,1.9956141710281372,8.374878883361816,-1.6175479888916016
1484274782536,11.121840476989746,26.94318199157715,6.434299945831299
1484274782763,6.608975887298584,-6.860222339630127,3.7878382205963135
1484274782981,23.42573356628418,25.41895294189453,-8.422735214233398
1484274783202,-9.308080673217773,6.451050281524658,4.4721856117248535
1484274783440,14.787644386291504,7.944170951843262,3.809373617172241
1484274783641,7.456035614013672,-8.300702095031738,1.0145567655563354
1484274783880,0.6029912829399109,8.547162055969238,-3.586841106414795
1484274784081,-5.331209182739258,13.610376358032227,1.8161523342132568
1484274784331,5.3216376304626465,-2.1535403728485107,0.9475577473640442
1484274784560,23.96651268005371,26.809185028076172,4.709074974060059
1484274784799,-3.321237564086914,5.276174068450928,1.8903299570083618
1484274785019,15.974482536315918,29.477182388305664,6.364907741546631
1484274785238,5.3694939613342285,-9.06879711151123,1.710868239402771
1484274785446,18.003597259521484,23.33959197998047,-3.3475589752197266
1484274785678,-7.75753116607666,6.742973804473877,0.39960137009620667
1484274785926,7.527820110321045,4.244867324829102,2.7421746253967285
1484274786128,7.680960178375244,-7.716853141784668,-0.9978070855140686
1484274786356,2.857030153274536,10.389636039733887,-0.17946170270442963
1484274786596,6.781259536743164,23.870798110961914,1.442872166633606
1484274786835,5.560920238494873,-1.9764715433120728,1.3950155973434448
1484274787053,29.001008987426758,23.140987396240234,-0.11485548317432404
1484274787274,-6.766902446746826,5.290531158447266,2.9766712188720703
1484274787522,22.32982063293457,14.684751510620117,5.723631858825684
1484274787724,7.743173599243164,-11.73440170288086,1.6247265338897705
1484274787952,3.28773832321167,13.71326732635498,-2.1990041732788086
1484274788193,-3.019742012023926,11.777473449707031,1.648654818534851
1484274788432,9.207581520080566,-1.7324036359786987,0.397208571434021
1484274788673,30.398418426513672,30.49173927307129,1.3208380937576294
1484274788922,-11.743972778320312,7.310072898864746,-0.7417750358581543
1484274789150,19.305294036865234,14.727824211120605,3.579662799835205
1484274789392,7.465606689453125,-6.87697172164917,-1.1988041400909424
1484274789629,3.6083762645721436,11.265408515930176,-0.44745784997940063
1484274789873,2.3162522315979004,18.661623001098633,3.414557933807373
1484274790121,7.216752529144287,-3.2303104400634766,1.7156537771224976
1484274790347,16.151552200317383,21.765113830566406,-4.7234320640563965
1484274790548,-9.083154678344727,5.953342437744141,1.325623631477356
1484274790786,21.06162452697754,13.306486129760742,3.6945178508758545
1484274790987,8.063812255859375,-8.511269569396973,1.801795244216919
1484274791225,10.767702102661133,18.795621871948242,-2.6153552532196045
1484274791426,-7.116254806518555,5.113461971282959,-1.289731502532959
1484274791664,17.094324111938477,9.186046600341797,3.5341989994049072
1484274791871,5.962913990020752,-9.595218658447266,1.947757601737976
1484274792117,4.091726779937744,12.346964836120605,-1.5601203441619873
1484274792345,-2.7900311946868896,15.141780853271484,3.8691940307617188
1484274792584,4.814359188079834,-1.4380863904953003,2.117647886276245
1484274792841,26.378477096557617,25.95016098022461,1.1629117727279663
1484274793063,-5.2115678787231445,0.6173481941223145,-2.691925525665283
1484274793310,17.271392822265625,12.815958023071289,5.0009989738464355
1484274793513,5.283352375030518,-6.807580471038818,1.8065810203552246
1484274793740,4.503292083740234,14.076974868774414,-0.6412764191627502
1484274793941,-7.197610855102539,5.051248073577881,2.2564315795898438
1484274794181,10.916057586669922,6.977471351623535,2.8067808151245117
1484274794421,9.332008361816406,-4.6301116943359375,0.03349951654672623
1484274794660,-0.3493521213531494,6.460620880126953,-1.672582983970642
1484274794925,21.028125762939453,32.46342468261719,6.094519138336182
1484274795139,5.508277893066406,-6.491727352142334,2.4981069564819336
1484274795376,14.888141632080078,20.776880264282227,-1.6079767942428589
1484274795578,-7.948956489562988,3.90987229347229,0.14835500717163086
1484274795816,16.05583953857422,11.880364418029785,5.029713153839111
1484274796017,6.5180487632751465,-6.750153064727783,2.3186452388763428
1484274796255,3.5748770236968994,12.052647590637207,-0.916451096534729
1484274796457,-5.101497650146484,9.501898765563965,-0.8757730722427368
1484274796705,8.169095993041992,-0.7896314859390259,4.074976921081543
1484274796908,7.795816421508789,-3.184847116470337,1.0408778190612793
1484274797135,-0.7704889178276062,6.477370738983154,-1.864008903503418
1484274797394,13.112667083740234,30.860233306884766,5.280959606170654
1484274797615,7.020541667938232,-1.179661512374878,2.2707886695861816
1484274797836,22.15275001525879,30.017959594726562,-2.775674343109131
1484274798053,-6.005984783172607,5.594419479370117,-2.3018953800201416
1484274798301,17.97966957092285,12.301501274108887,4.108476161956787
1484274798504,5.484349250793457,-7.032505512237549,0.5958128571510315
1484274798730,7.259823799133301,17.831314086914062,-2.4047868251800537
1484274798931,-6.211767196655273,9.382257461547852,1.5840486288070679
1484274799170,10.7437744140625,4.043870449066162,2.6009981632232666
1484274799411,13.682159423828125,0.5838487148284912,1.9956141710281372
1484274799653,-3.5700912475585938,1.3351951837539673,0.11485548317432404
1484274799866,9.456435203552246,27.81177520751953,-2.3617160320281982
1484274800102,7.389035701751709,-5.493920803070068,4.101297855377197
1484274800316,18.778871536254883,27.110679626464844,-4.419543266296387
1484274800529,-3.617947816848755,4.374079704284668,-0.5742774605751038
1484274800767,18.984655380249023,22.53321075439453,2.47896409034729
1484274801008,6.230910301208496,-7.097111701965332,3.9074790477752686
1484274801249,2.407179594039917,10.990234375,-3.129812002182007
1484274801497,-2.431107759475708,17.57288932800293,7.537391662597656
1484274801726,7.5326056480407715,-4.742574691772461,5.161318302154541
1484274801966,17.797815322875977,21.669403076171875,-4.90528678894043
1484274802203,-9.083154678344727,6.573083877563477,1.7730815410614014
1484274802445,10.418350219726562,5.771488666534424,1.7443678379058838
1484274802696,19.15215301513672,3.1034913063049316,2.4430718421936035
1484274802923,-0.8709874749183655,3.3714869022369385,-2.665604591369629
1484274803176,17.405391693115234,21.083160400390625,2.218146562576294
1484274803402,7.034898281097412,-9.528220176696777,4.993820667266846
1484274803641,7.494320392608643,10.243673324584961,-5.757131576538086
1484274803842,-4.000799655914307,6.008377552032471,-2.761317014694214
1484274804092,6.967899799346924,4.773681163787842,3.3882367610931396
1484274804321,13.663017272949219,-2.47896409034729,0.3852444589138031
1484274804559,-1.4548362493515015,4.589433670043945,-2.124826431274414
1484274804807,29.460432052612305,28.24248695373535,4.022334575653076
1484274805039,6.6520466804504395,-9.66221809387207,2.538784980773926
1484274805286,3.996013641357422,12.547962188720703,-3.81655216217041
1484274805491,-8.958727836608887,12.014362335205078,2.400001049041748
1484274805718,12.509675979614258,8.054241180419922,3.814159393310547
1484274805958,13.35673713684082,2.65842604637146,-0.4737788736820221
1484274806197,-0.6795615553855896,4.309473514556885,-1.7371891736984253
1484274806437,12.844672203063965,29.273792266845703,3.7088751792907715
1484274806685,6.69990348815918,-7.908278465270996,2.1032910346984863
1484274806913,2.3545374870300293,17.2666072845459,-1.3208380937576294
1484274807115,-9.131011009216309,6.51326322555542,3.6562328338623047
1484274807354,8.188239097595215,3.7974092960357666,1.581655740737915
1484274807595,20.64048957824707,9.482755661010742,0.9523434042930603
1484274807833,-3.957728624343872,5.965306758880615,-2.2061824798583984
1484274808077,0.03349951654672623,22.825136184692383,1.7371891736984253
1484274808284,5.747560024261475,-4.3310089111328125,3.184847116470337
1484274808512,13.380663871765137,19.446468353271484,-3.988835573196411