,timestamp,ax,ay,az
0,0.0,1.8185452222824097,9.131011009216307,-3.960121393203736
1,200.0,1.8185452222824097,9.131011009216307,-3.960121393203736
2,400.0,-3.2446675300598145,7.3363938331604,-8.403593063354492
3,600.0,-4.168296813964844,7.099504470825195,-5.264209270477295
4,800.0,-0.4689932465553284,6.642475128173827,-6.611368656158447
5,1000.0,0.2392822504043579,8.161917686462402,-4.225724697113037
6,1200.0,-0.13878372311592102,9.934999465942383,-2.313859462738037
7,1400.0,-0.4354937374591827,7.417750358581543,-6.348158359527588
8,1600.0,-0.4354937374591827,7.417750358581543,-6.348158359527588
9,1800.0,-0.7896314859390259,10.660024642944336,-0.902094066143036
10,2000.0,0.2488535493612289,6.087340831756593,-7.4703922271728525
11,2200.0,-0.4067798554897308,6.6352972984313965,-7.195217609405518
12,2400.0,-0.5503491759300232,5.776273727416992,-8.422735214233397
13,2600.0,-0.4546363055706024,6.113661766052246,-7.8652076721191415
14,2800.0,-0.397208571434021,5.493920803070068,-8.066205024719237
15,3000.0,-0.607776939868927,6.7453670501708975,-7.326822757720947
16,3200.0,-0.607776939868927,6.7453670501708975,-7.326822757720947
17,3400.0,-0.4881358444690704,8.307880401611326,-5.807380676269531
18,3600.0,0.9236294627189636,8.295915603637695,-5.443671703338623
19,3800.0,0.02392822504043579,5.592026710510254,-8.135597229003906
20,4000.0,-0.00957129057496786,4.1036906242370605,-8.975478172302246
21,4200.0,-0.20578275620937347,5.747560024261475,-7.903492927551269
22,4400.0,-0.20578275620937347,5.747560024261475,-7.903492927551269
23,4600.0,0.014356935396790503,4.335794448852538,-8.171488761901855
24,4800.0,-0.3684946894645691,7.22871732711792,-6.817151546478272
25,5000.0,-0.3397807776927948,5.242674350738525,-8.324630737304688
26,5200.0,-0.17706887423992154,5.053641319274902,-8.319844245910645
27,5400.0,-0.014356935396790503,5.1014976501464835,-9.119047164916992
28,5600.0,-0.16749757528305054,4.1563329696655265,-8.530412673950195
29,5800.0,-0.2919243574142456,3.751945972442627,-9.221939086914062
30,6000.0,-0.2919243574142456,3.751945972442627,-9.221939086914062
31,6200.0,-0.3445664942264557,5.048855781555176,-7.934599876403809
32,6400.0,-0.3158525824546814,5.592026710510254,-7.932207107543945
33,6600.0,-0.062213387340307236,5.276174068450928,-8.463413238525389
34,6800.0,-0.6699903011322021,7.4608211517333975,-6.671189785003662
35,7000.0,-0.4594219326972962,6.120840072631836,-7.625925540924072
36,7200.0,-0.4785645008087158,5.948556900024414,-7.791030406951903
37,7400.0,-0.4785645008087158,5.948556900024414,-7.791030406951903
38,7600.0,-0.6556334495544434,6.709475040435791,-6.970292568206787
39,7800.0,-0.7274181246757507,7.2263240814208975,-6.702296257019043
40,8000.0,-0.2871387302875519,6.034698486328125,-7.573283672332764
41,8200.0,0.00957129057496786,4.886143684387207,-7.9728851318359375
42,8400.0,-0.4785645008087158,6.16391134262085,-7.365108013153076
43,8600.0,-0.057427741587162025,5.032106399536133,-8.468198776245117
44,8800.0,-0.057427741587162025,5.032106399536133,-8.468198776245117
45,9000.0,-0.4259224236011505,5.608776092529297,-8.090132713317871
46,9200.0,-0.3445664942264557,5.548955917358398,-7.831708431243896
47,9400.0,-0.4163511395454407,6.419942855834961,-7.39860725402832
48,9600.0,-0.35892340540885925,7.601996898651122,-7.0540409088134775
49,9800.0,-0.7992027401924133,8.329416275024414,-5.302494525909424
50,10000.0,-0.7992027401924133,8.329416275024414,-5.302494525909424
51,10200.0,-0.7034898400306702,7.204789161682129,-6.467799663543701
52,10400.0,-0.4929214715957642,7.999206066131593,-5.812166690826416
53,10600.0,-0.4689932465553284,7.0851478576660165,-6.8099732398986825
54,10800.0,-0.4785645008087158,7.451249599456787,-6.372087001800537
55,11000.0,-0.4594219326972962,8.740981101989746,-5.32403039932251
56,11200.0,0.07178468257188797,7.8077802658081055,-6.434299945831299
57,11400.0,0.07178468257188797,7.8077802658081055,-6.434299945831299
58,11600.0,-0.10049854964017868,4.840680122375488,-8.563912391662598
59,11800.0,-0.5742774605751038,5.9342002868652335,-7.484748840332031
60,12000.0,-0.4354937374591827,6.321837425231934,-7.252645492553711
61,12200.0,-0.6652047038078308,7.16650390625,-6.783651828765869
62,12400.0,-0.4211367666721344,6.7142601013183585,-9.20279598236084
63,12600.0,-0.5312066078186035,6.431907176971436,-7.45364236831665
64,12800.0,-0.5312066078186035,6.431907176971436,-7.45364236831665
65,13000.0,-0.3206382095813751,5.37188720703125,-8.212166786193848
66,13200.0,-1.3304094076156616,9.260223388671877,-4.682754039764403
67,13400.0,-0.3780659735202789,6.123232841491699,-7.599604606628418
68,13600.0,-0.5264209508895874,6.266802310943604,-7.5014991760253915
69,13800.0,-0.2392822504043579,6.6352972984313965,-8.188239097595215
70,14000.0,-0.6891329884529114,7.17368221282959,-6.62333345413208
71,14200.0,-0.6891329884529114,7.17368221282959,-6.62333345413208
72,14400.0,-0.6364907622337341,7.716853141784668,-6.336194515228272
73,14600.0,-0.4354937374591827,6.525227069854736,-7.133004188537598
74,14800.0,-0.4833501875400543,6.252446174621582,-7.582855224609375
75,15000.0,-0.28235307335853577,5.994020462036133,-7.544569969177246
76,15200.0,-0.5024927258491516,6.898508071899414,-6.719045639038086
77,15400.0,-0.4211367666721344,6.429513931274414,-7.444070816040039
78,15600.0,-0.4642075896263122,6.494120597839356,-6.900900363922119
79,15800.0,-0.4642075896263122,6.494120597839356,-6.900900363922119
80,16000.0,-0.7752745151519775,7.601996898651122,-6.20219612121582
81,16200.0,-0.5551348924636841,6.412764549255371,-7.374679565429687
82,16400.0,-0.6221339106559753,6.242874622344972,-7.334001541137695
83,16600.0,-0.7465606331825256,7.125825881958008,-6.56829833984375
84,16800.0,-0.6699903011322021,7.269395351409912,-6.400800704956055
85,17000.0,-0.5982056856155396,7.262216091156006,-6.539584159851074
86,17200.0,-0.4689932465553284,6.8554368019104,-6.898508071899414
87,17400.0,-0.7704889178276062,6.972684860229492,-6.527620315551758
88,17600.0,-0.7704889178276062,6.972684860229492,-6.527620315551758
89,17800.0,-0.5886343717575073,6.723831653594972,-6.845865249633789
90,18000.0,-0.6029912829399109,7.365108013153076,-6.419942855834961
91,18200.0,-0.6364907622337341,7.913064479827881,-6.307480335235597
92,18400.0,-0.6029912829399109,6.972684860229492,-6.608975887298584
93,18600.0,0.22492533922195435,7.4081788063049325,-4.634897232055664
94,18800.0,-0.5742774605751038,9.152545928955078,-4.3453660011291495
95,19000.0,-0.5742774605751038,9.152545928955078,-4.3453660011291495
96,19200.0,0.18185453116893768,5.50349235534668,-7.135397434234619
97,19400.0,0.7800601720809937,5.091926097869873,-8.578269004821777
98,19600.0,0.14835500717163086,5.7930235862731925,-7.9585280418396
99,19800.0,-0.03828516229987145,5.647061824798584,-7.901099681854247
100,20000.0,-0.2919243574142456,7.077969074249268,-7.28375244140625
101,20200.0,-0.2919243574142456,7.077969074249268,-7.28375244140625
102,20400.0,-0.09571290016174316,5.4795637130737305,-7.661818027496338
103,20600.0,-0.2153540551662445,6.072984218597412,-7.307680606842041
104,20800.0,-0.11485548317432405,6.357729434967041,-7.549355506896973
105,21000.0,-0.14356936514377594,6.417550563812256,-8.415557861328125
106,21200.0,-0.2488535493612289,6.774080753326416,-7.293323516845702
107,21400.0,-0.35892340540885925,6.173482418060303,-7.599604606628418
108,21600.0,-0.35892340540885925,6.173482418060303,-7.599604606628418
109,21800.0,-0.1052841916680336,5.989234924316406,-7.46799898147583
110,22000.0,-0.4450649619102478,6.16391134262085,-7.697710037231445
111,22200.0,-0.3876372575759888,7.4081788063049325,-6.463014125823975
112,22400.0,-0.2871387302875519,7.032505512237549,-6.9918274879455575
113,22600.0,-0.5694918036460876,7.479963302612305,-6.620940208435059
114,22800.0,-0.6460621356964111,8.047062873840332,-5.86720085144043
115,23000.0,-0.6460621356964111,8.047062873840332,-5.86720085144043
116,23200.0,-0.6747759580612183,6.419942855834961,-6.903293132781982
117,23400.0,-0.2967100143432617,7.070791244506836,-6.970292568206787
118,23600.0,-0.6125625967979431,7.310072898864746,-6.453442573547362
119,23800.0,-0.5790630578994751,7.520641803741455,-6.632904052734375
120,24000.0,-0.25363919138908386,6.8554368019104,-6.833901405334473
121,24200.0,-0.4881358444690704,6.2979087829589835,-6.833901405334473
122,24400.0,-0.4881358444690704,6.2979087829589835,-6.833901405334473
123,24600.0,-0.3158525824546814,7.046862602233888,-6.589833736419678
124,24800.0,-0.5838487148284912,8.073383331298826,-5.706881999969482
125,25000.0,-0.5886343717575073,7.6115684509277335,-6.3912291526794425
126,25200.0,-0.5503491759300232,7.597211837768555,-6.123232841491699
127,25400.0,-0.7082754969596863,7.709674835205077,-5.946164608001709
128,25600.0,-0.8039883971214294,6.62333345413208,-7.125825881958008
129,25800.0,-0.7896314859390259,7.822136878967285,-5.938986301422119
130,26000.0,-0.9619146585464478,8.571090698242188,-5.424529075622559
131,26200.0,-0.4642075896263122,8.492127418518066,-6.10887622833252
132,26400.0,-0.6221339106559753,6.829115867614746,-7.570890426635742
133,26600.0,-0.6221339106559753,6.829115867614746,-7.570890426635742
134,26800.0,-0.3158525824546814,6.7860450744628915,-6.759723663330077
135,27000.0,-0.6125625967979431,8.001599311828612,-6.022734642028809
136,27200.0,-0.2679961323738098,5.857630252838135,-7.712067127227782
137,27400.0,-0.3732803165912628,6.104090690612793,-7.58524751663208
138,27600.0,-0.4881358444690704,6.463014125823975,-7.22153902053833
139,27800.0,-0.4689932465553284,6.4151573181152335,-7.22871732711792
140,28000.0,-0.3493521213531494,5.9198431968688965,-7.776673316955566
141,28200.0,-0.3493521213531494,5.9198431968688965,-7.776673316955566
142,28400.0,-0.3302095234394073,7.326822757720947,-7.590033531188965
143,28600.0,-0.35413774847984314,6.448657035827638,-7.362715244293213
144,28800.0,-0.3302095234394073,5.6997032165527335,-7.625925540924072
145,29000.0,-0.7657032012939453,7.417750358581543,-6.656832218170166
146,29200.0,-0.5647061467170715,7.3052873611450195,-6.747759819030763
147,29400.0,-0.4498506784439087,6.613761901855469,-7.451249599456787
148,29600.0,-0.5407779216766357,7.8867435455322275,-5.797809600830077
149,29800.0,-0.5407779216766357,7.8867435455322275,-5.797809600830077
150,30000.0,-0.19621144235134125,7.3531436920166025,-6.63051176071167
151,30200.0,-0.4642075896263122,7.81974458694458,-5.931807041168213
152,30400.0,-0.4211367666721344,6.975078105926514,-6.659225463867188
153,30600.0,0.3684946894645691,5.955735206604004,-8.248059272766112
154,30800.0,-0.1339980661869049,6.766902446746826,-6.434299945831299
155,31000.0,0.01914258114993572,6.017949104309082,-7.537391662597656
156,31200.0,0.01914258114993572,6.017949104309082,-7.537391662597656
157,31400.0,-0.7274181246757507,7.456035614013673,-6.436692714691162
158,31600.0,-0.41156551241874695,7.140182495117188,-6.9320068359375
159,31800.0,-0.4450649619102478,7.116254806518555,-6.8482584953308105
160,32000.0,-0.5359922647476196,7.020541667938232,-6.80040168762207
161,32200.0,-0.3732803165912628,7.427321434020996,-6.4869422912597665
162,32400.0,-0.4977070987224579,7.118647575378418,-7.0540409088134775
163,32600.0,-0.9140582084655762,6.4151573181152335,-6.719045639038086
164,32800.0,-0.9140582084655762,6.4151573181152335,-6.719045639038086
165,33000.0,-0.4163511395454407,6.376872539520264,-7.6833534240722665
166,33200.0,-0.3302095234394073,6.616154670715332,-7.257431030273437
167,33400.0,-0.2871387302875519,6.116055011749268,-7.798208713531494
168,33600.0,-0.41156551241874695,7.0851478576660165,-6.7932233810424805
169,33800.0,-0.3684946894645691,6.240481376647949,-7.465606689453125
170,34000.0,-0.3349951505661011,6.817151546478272,-6.900900363922119
171,34200.0,-0.3349951505661011,6.817151546478272,-6.900900363922119
172,34400.0,-0.13878372311592102,6.443871021270753,-7.142575740814209
173,34600.0,-0.07657032459974289,6.458228588104247,-7.329216003417969
174,34800.0,-0.3110669553279877,7.125825881958008,-6.443871021270753
175,35000.0,-0.4977070987224579,7.278966426849365,-6.7142601013183585
176,35200.0,-0.22013968229293826,6.5324058532714835,-7.17368221282959
177,35400.0,-0.4546363055706024,7.477570533752441,-6.118447780609131
178,35600.0,-0.4546363055706024,7.477570533752441,-6.118447780609131
179,35800.0,-0.7369893789291382,7.786244869232178,-6.309873104095459
180,36000.0,-0.5694918036460876,7.293323516845702,-7.099504470825195
181,36200.0,-0.4019941985607147,6.697510242462157,-6.9511494636535645
182,36400.0,-0.5312066078186035,6.75493860244751,-7.28375244140625
183,36600.0,-0.4737788736820221,6.077769756317139,-7.477570533752441
184,36800.0,-0.7561319470405579,7.082754611968994,-6.838686943054199
185,37000.0,-0.6556334495544434,7.178467750549316,-6.833901405334473
186,37200.0,-0.3254238963127136,6.556333541870117,-7.2885379791259775
187,37400.0,-0.3254238963127136,6.556333541870117,-7.2885379791259775
188,37600.0,-0.4354937374591827,6.982256412506104,-6.620940208435059
189,37800.0,-0.4163511395454407,7.743173599243164,-5.584848403930664
190,38000.0,-0.4737788736820221,8.386843681335451,-5.278566360473633
191,38200.0,-0.11964112520217896,6.812366485595702,-8.281558990478517
192,38400.0,-0.7274181246757507,5.091926097869873,-8.750552177429201
193,38600.0,-0.4259224236011505,7.479963302612305,-7.018148422241211
194,38800.0,-0.2297109663486481,6.67836856842041,-7.621140003204347
195,39000.0,-0.2297109663486481,6.67836856842041,-7.621140003204347
196,39200.0,-0.3062812983989716,5.950949668884277,-7.817351341247559
197,39400.0,-0.3397807776927948,6.417550563812256,-7.403393745422362
198,39600.0,-0.36370906233787537,6.723831653594972,-7.4703922271728525
199,39800.0,-0.25842484831810003,6.128018856048584,-7.709674835205077
200,40000.0,-0.25842484831810003,6.149554252624513,-7.479963302612305
201,40200.0,-0.08614162355661392,5.410171985626222,-8.00638484954834
202,40400.0,-0.08614162355661392,5.410171985626222,-8.00638484954834
203,40600.0,-0.10049854964017868,5.474778175354004,-7.8460655212402335
204,40800.0,-0.2632104754447937,6.9272212982177725,-6.900900363922119
205,41000.0,-0.07178468257188797,5.599205493927002,-7.709674835205077
206,41200.0,-0.5264209508895874,6.498906135559082,-7.331608772277832
207,41400.0,-0.4498506784439087,6.197411060333253,-7.716853141784668
208,41600.0,-0.4689932465553284,7.29093074798584,-7.027719974517822
209,41800.0,-0.4689932465553284,7.29093074798584,-7.027719974517822
210,42000.0,-0.2392822504043579,5.201996326446533,-8.204988479614258
211,42200.0,-0.5312066078186035,6.31944465637207,-7.5254268646240225
212,42400.0,0.19142580032348636,7.365108013153076,-3.90987229347229
213,42600.0,-0.6556334495544434,6.735795497894287,-6.649653911590576
214,42800.0,0.03828516229987145,5.651846885681152,-7.17368221282959
215,43000.0,0.03828516229987145,5.651846885681152,-7.17368221282959
216,43200.0,-0.14835500717163086,5.747560024261475,-7.697710037231445
217,43400.0,-0.430708110332489,5.955735206604004,-7.8460655212402335
218,43600.0,-0.16749757528305054,5.4795637130737305,-8.176274299621582
219,43800.0,-0.7609176039695741,7.008577823638916,-6.86979341506958
220,44000.0,-0.5264209508895874,6.151947498321532,-7.640282154083253
221,44200.0,-0.5264209508895874,6.151947498321532,-7.640282154083253
222,44400.0,-0.4737788736820221,5.814558982849121,-7.891529560089111
223,44600.0,-0.7609176039695741,7.152146816253662,-7.264609336853027
224,44800.0,-0.4498506784439087,6.422336101531982,-7.1090760231018075
225,45000.0,-0.8949156999588013,7.22871732711792,-6.589833736419678
226,45200.0,-0.4450649619102478,5.601597785949707,-8.035098075866701
227,45400.0,-0.6364907622337341,6.295516490936278,-7.341179370880128
228,45600.0,-0.6364907622337341,6.295516490936278,-7.341179370880128
229,45800.0,-0.6412764191627502,6.056234359741211,-7.456035614013673
230,46000.0,-1.105484127998352,7.793423175811768,-6.2979087829589835
231,46200.0,-0.7896314859390259,6.228517532348633,-7.539783954620361
232,46400.0,-0.4737788736820221,6.317051887512207,-7.420143127441406
233,46600.0,-0.7322037816047668,5.790630340576173,-7.087540626525879
234,46800.0,-0.7322037816047668,5.790630340576173,-7.087540626525879
235,47000.0,-0.6747759580612183,6.819544315338135,-7.097111701965332
236,47200.0,-0.4785645008087158,6.845865249633789,-7.348358631134032
237,47400.0,-0.7274181246757507,6.120840072631836,-6.955935001373291
238,47600.0,-0.7800601720809937,6.886543273925781,-6.994220733642577
239,47800.0,-0.6460621356964111,6.20219612121582,-7.080362319946289
240,48000.0,-0.6460621356964111,6.20219612121582,-7.080362319946289
241,48200.0,-0.5599204897880554,6.7070817947387695,-6.982256412506104
242,48400.0,-0.6747759580612183,7.149754047393799,-6.984649658203125
243,48600.0,-0.6221339106559753,7.259823799133301,-6.711867332458496
244,48800.0,-0.7034898400306702,7.020541667938232,-6.733402729034424
245,49000.0,-0.6460621356964111,6.6831536293029785,-6.908078193664551
246,49200.0,-0.2679961323738098,4.137190341949463,-8.673982620239258
247,49400.0,-0.2679961323738098,4.137190341949463,-8.673982620239258
248,49600.0,0.17706887423992154,6.257230758666992,-7.28375244140625
249,49800.0,-0.430708110332489,5.644669055938722,-7.905886173248291
250,50000.0,-0.41156551241874695,5.716453552246094,-7.853243827819824
251,50200.0,-0.15314064919948578,5.874379634857178,-7.841279983520508
252,50400.0,-0.23449662327766416,6.963113307952881,-7.659425258636475
253,50600.0,-0.3828516006469727,5.6350975036621085,-7.9585280418396
254,50800.0,-0.3828516006469727,5.6350975036621085,-7.9585280418396
255,51000.0,-0.36370906233787537,5.398207664489746,-8.157133102416992
256,51200.0,-0.19142580032348636,4.969892501831055,-8.262415885925293
257,51400.0,-0.25363919138908386,6.585048198699951,-7.211967468261719
258,51600.0,-0.4354937374591827,6.309873104095459,-7.630711555480957
259,51800.0,-0.6173481941223145,6.742973804473878,-7.137789726257324
260,52000.0,-0.430708110332489,5.546562671661377,-7.743173599243164
261,52200.0,-0.2105683833360672,5.546562671661377,-7.932207107543945
262,52400.0,-0.06699903309345245,5.120640754699707,-8.429913520812987
263,52600.0,-0.06699903309345245,5.120640754699707,-8.429913520812987
264,52800.0,-0.35413774847984314,7.654639720916747,-6.458228588104247
265,53000.0,-0.4259224236011505,6.620940208435059,-6.898508071899414
266,53200.0,-0.397208571434021,6.455835819244385,-7.094719409942628
267,53400.0,-0.4737788736820221,7.195217609405518,-6.642475128173827
268,53600.0,1.3016955852508545,10.380064964294434,-2.1032910346984863
269,53800.0,0.07178468257188797,3.5365920066833496,-6.764510154724121
270,54000.0,0.07178468257188797,3.5365920066833496,-6.764510154724121
271,54200.0,-0.3732803165912628,5.836094379425049,-7.788637638092041
272,54400.0,-0.5551348924636841,6.704688549041747,-7.15932559967041
273,54600.0,-0.6125625967979431,5.61834716796875,-8.257630348205566
274,54800.0,-0.5024927258491516,6.967899799346924,-6.826723098754883
275,55000.0,-1.0241280794143677,11.593226432800293,-1.9669002294540403
276,55200.0,-1.0241280794143677,11.593226432800293,-1.9669002294540403
277,55400.0,-0.6269195079803467,6.10169792175293,-7.4703922271728525
278,55600.0,-1.0719845294952393,7.858029365539551,-6.075376510620117
279,55800.0,-1.34476637840271,8.075776100158691,-6.08494758605957
280,56000.0,-0.8805587291717529,6.38165807723999,-7.29810905456543
281,56200.0,-0.7513462901115417,6.0945191383361825,-7.0444698333740225
282,56400.0,-0.9762716889381408,6.171089172363281,-7.362715244293213
283,56600.0,-1.4835500717163086,10.557132720947266,-1.131805181503296
284,56800.0,-1.4835500717163086,10.557132720947266,-1.131805181503296
285,57000.0,-1.3399806022644043,7.542177200317383,-5.804987907409668
286,57200.0,-1.2873386144638062,8.544770240783691,-5.292923927307129
287,57400.0,-0.6843472719192505,6.541977405548097,-6.537191867828369
288,57600.0,-0.9092726111412048,8.066205024719237,-5.836094379425049
289,57800.0,-1.5122638940811155,7.776673316955566,-6.338587284088135
290,58000.0,-0.8470591902732849,7.070791244506836,-6.903293132781982
291,58200.0,-0.8470591902732849,7.070791244506836,-6.903293132781982
292,58400.0,-0.7178468108177185,7.128218650817871,-6.340980052947997
293,58600.0,-1.0001999139785769,7.549355506896973,-6.2093749046325675
294,58800.0,-0.9571290016174316,7.8006019592285165,-6.118447780609131
295,59000.0,-0.8327022790908813,6.613761901855469,-7.068397998809815
296,59200.0,-0.6125625967979431,6.7310099601745605,-6.436692714691162
297,59400.0,-0.9619146585464478,8.063812255859375,-5.812166690826416
298,59600.0,-0.8805587291717529,7.125825881958008,-6.750153064727782
299,59800.0,-0.8805587291717529,7.125825881958008,-6.750153064727782
300,60000.0,-1.2825528383255005,9.300901412963867,-2.0673987865448002
301,60200.0,0.3158525824546814,4.701896190643311,-8.630911827087402
302,60400.0,-0.20099709928035736,5.572883605957031,-7.874779224395753
303,60600.0,-0.861416220664978,5.575276851654053,-7.862814903259277
304,60800.0,-0.4163511395454407,5.704488754272461,-7.659425258636475
305,61000.0,-0.5120640397071838,5.302494525909424,-8.032705307006836
306,61200.0,-0.5120640397071838,5.302494525909424,-8.032705307006836
307,61400.0,-0.4929214715957642,5.828916072845459,-7.822136878967285
308,61600.0,-0.5312066078186035,6.821937084197997,-7.006184577941895
309,61800.0,-0.4785645008087158,6.747759819030763,-7.154539585113525
310,62000.0,-0.6987042427062988,6.537191867828369,-7.310072898864746
311,62200.0,-0.6508477926254272,5.816952228546143,-7.554140567779541
312,62400.0,-0.5455635190010071,7.527820110321045,-6.613761901855469
313,62600.0,-0.5455635190010071,7.527820110321045,-6.613761901855469
314,62800.0,-0.6125625967979431,6.647261142730713,-7.39860725402832
315,63000.0,-0.7274181246757507,7.549355506896973,-6.058626651763916
316,63200.0,-0.41156551241874695,7.345965385437013,-6.5180487632751465
317,63400.0,-0.4498506784439087,7.484748840332031,-6.340980052947997
318,63600.0,-0.5168496966362001,7.494320392608643,-6.585048198699951
319,63800.0,-0.5264209508895874,6.254837989807129,-7.477570533752441
320,64000.0,-0.5264209508895874,6.254837989807129,-7.477570533752441
321,64200.0,-0.3924228847026825,5.97727108001709,-7.3363938331604
322,64400.0,-0.5742774605751038,7.5014991760253915,-6.4869422912597665
323,64600.0,-0.5694918036460876,7.051648139953612,-6.463014125823975
324,64800.0,-0.9475577473640442,7.668996810913086,-6.458228588104247
325,65000.0,-0.4833501875400543,6.654439926147461,-6.908078193664551
326,65200.0,-0.4833501875400543,6.654439926147461,-6.908078193664551
327,65400.0,-0.5072783827781677,7.590033531188965,-6.63051176071167
328,65600.0,-0.5312066078186035,7.28375244140625,-6.448657035827638
329,65800.0,-0.7034898400306702,6.470191955566406,-7.255037784576416
330,66000.0,-0.5599204897880554,6.228517532348633,-3.38823676109314
331,66200.0,-0.5503491759300232,7.664210796356201,-6.474977493286133
332,66400.0,-0.4881358444690704,7.116254806518555,-6.8650078773498535
333,66600.0,-0.4881358444690704,7.116254806518555,-6.8650078773498535
334,66800.0,-0.3876372575759888,5.242674350738525,-8.298308372497559
335,67000.0,-0.18185453116893768,4.335794448852538,-8.492127418518066
336,67200.0,-0.3254238963127136,5.704488754272461,-7.5804619789123535
337,67400.0,-0.4977070987224579,7.0923261642456055,-7.393822193145753
338,67600.0,-0.5599204897880554,7.042076587677003,-7.022934436798097
339,67800.0,-0.6939185857772827,6.453442573547362,-7.295715808868407
340,68000.0,-0.5694918036460876,6.1878395080566415,-7.487142086029053
341,68200.0,-0.6556334495544434,6.458228588104247,-7.365108013153076
342,68400.0,-0.6556334495544434,6.458228588104247,-7.365108013153076
343,68600.0,-0.6029912829399109,6.331408977508545,-7.264609336853027
344,68800.0,-0.3732803165912628,6.068198204040527,-7.570890426635742
345,69000.0,-0.5599204897880554,6.798008918762207,-7.3052873611450195
346,69200.0,-0.10049854964017868,6.903293132781982,-7.860422611236572
347,69400.0,-0.4546363055706024,0.97148597240448,-10.729416847229004
348,69600.0,-0.5168496966362001,5.680561065673827,-7.925028324127197
349,69800.0,-0.5168496966362001,5.680561065673827,-7.925028324127197
350,70000.0,-0.04785645008087158,5.623133182525635,-8.008777618408201
351,70200.0,-0.07657032459974289,4.948357105255127,-8.027919769287111
352,70400.0,-0.03828516229987145,4.981856822967528,-8.23848819732666
353,70600.0,-0.28235307335853577,5.876771926879883,-7.2023963928222665
354,70800.0,-0.4498506784439087,6.309873104095459,-7.3675007820129395
355,71000.0,-0.28235307335853577,5.103890895843506,-7.99681282043457
356,71200.0,-0.28235307335853577,5.103890895843506,-7.99681282043457
357,71400.0,-0.4211367666721344,6.967899799346924,-7.269395351409912
358,71600.0,-0.19142580032348636,6.276373863220215,-7.511070251464844
359,71800.0,-0.14835500717163086,5.771488666534424,-7.960920810699463
360,72000.0,-0.4402793645858765,6.293124198913574,-7.630711555480957
361,72200.0,-0.3254238963127136,6.7692952156066895,-7.28375244140625
362,72400.0,-0.2679961323738098,6.496513843536378,-7.568498134613037
363,72600.0,-0.2679961323738098,6.496513843536378,-7.568498134613037
364,72800.0,-0.28235307335853577,6.491727352142334,-7.243074417114258
365,73000.0,0.3924228847026825,11.31565761566162,-3.8524444103240967
366,73200.0,0.07178468257188797,4.2065820693969735,-7.231109619140625
367,73400.0,-0.82791668176651,6.305087566375732,-7.822136878967285
368,73600.0,-1.0959126949310305,6.010770320892334,-7.798208713531494
369,73800.0,-1.0959126949310305,6.010770320892334,-7.798208713531494
370,74000.0,-0.5072783827781677,5.592026710510254,-8.023134231567383
371,74200.0,-0.6460621356964111,5.852844715118407,-7.853243827819824
372,74400.0,-0.3110669553279877,5.280959606170653,-8.305487632751465
373,74600.0,-1.0336993932724001,6.805188179016112,-7.1712894439697275
374,74800.0,-0.7800601720809937,7.341179370880128,-6.8721866607666025
375,75000.0,-0.6652047038078308,6.369694232940674,-7.479963302612305
376,75200.0,-0.6652047038078308,6.369694232940674,-7.479963302612305
377,75400.0,-1.4691929817199707,7.700103282928468,-6.276373863220215
378,75600.0,-1.210768222808838,6.6831536293029785,-7.075576305389403
379,75800.0,-0.7226324081420898,6.041877269744872,-7.843672752380371
380,76000.0,-0.7609176039695741,5.615954875946045,-7.915457248687744
381,76200.0,-0.6843472719192505,5.891129493713379,-7.427321434020996
382,76400.0,-0.9475577473640442,6.465407371520996,-7.503891944885254
383,76600.0,-1.2299107313156128,7.920242786407472,-6.362515449523926
384,76800.0,-1.2299107313156128,7.920242786407472,-6.362515449523926
385,77000.0,-1.813759446144104,10.514062881469727,-3.2279179096221924
386,77200.0,-0.9379864931106568,5.221138954162598,-8.757731437683105
387,77400.0,-0.5982056856155396,5.048855781555176,-8.276773452758789
388,77600.0,-0.7752745151519775,6.314659118652344,-8.030312538146973
389,77800.0,-0.4402793645858765,5.218745708465576,-8.286344528198242
390,78000.0,-0.9810572862625122,7.183253765106201,-7.204789161682129
391,78200.0,-0.6269195079803467,5.2833523750305185,-8.405985832214355
392,78400.0,-0.6173481941223145,5.434100151062012,-8.126025199890138
393,78600.0,-0.11485548317432405,3.6131620407104488,-8.918049812316895
394,78800.0,-0.6604190468788147,5.302494525909424,-8.169095993041992
395,79000.0,-0.6604190468788147,5.302494525909424,-8.169095993041992
396,79200.0,-1.2921242713928225,6.63051176071167,-6.946363925933838
397,79400.0,-0.861416220664978,6.410372257232666,-7.570890426635742
398,79600.0,-1.0241280794143677,6.436692714691162,-7.446464061737059
399,79800.0,-1.0815558433532717,6.27876615524292,-7.39860725402832
400,80000.0,-1.2346963882446291,7.374679565429687,-6.522834300994872
401,80200.0,-0.6699903011322021,4.953143119812012,-8.336593627929688
402,80400.0,-0.6699903011322021,4.953143119812012,-8.336593627929688
403,80600.0,-1.0480562448501587,6.379265785217285,-7.551748275756836
404,80800.0,-1.3399806022644043,10.423135757446287,-3.6299118995666495
405,81000.0,-0.5407779216766357,6.300302028656006,-7.401000499725343
406,81200.0,-0.6317051649093628,5.886343479156494,-7.597211837768555
407,81400.0,-0.6317051649093628,6.8482584953308105,-6.891329765319824
408,81600.0,-0.607776939868927,7.1641106605529785,-6.747759819030763
409,81800.0,-0.607776939868927,7.1641106605529785,-6.747759819030763
410,82000.0,-0.7369893789291382,6.9583282470703125,-7.503891944885254
411,82200.0,-0.6269195079803467,6.647261142730713,-7.39860725402832
412,82400.0,-0.9379864931106568,7.15932559967041,-6.795616626739503
413,82600.0,-0.4354937374591827,10.839487075805664,-3.775874137878418
414,82800.0,-0.784845769405365,6.723831653594972,-7.032505512237549
415,83000.0,-0.784845769405365,6.723831653594972,-7.032505512237549
416,83200.0,-0.4977070987224579,5.460421085357666,-9.229117393493652
417,83400.0,0.2440679222345352,7.429713726043701,-5.781059265136719
418,83600.0,-0.6364907622337341,7.278966426849365,-6.525227069854736
419,83800.0,-0.5264209508895874,6.711867332458496,-6.97986364364624
420,84000.0,-0.5742774605751038,6.659225463867188,-7.295715808868407
421,84200.0,-0.6364907622337341,6.2117671966552725,-7.29810905456543
422,84400.0,-0.9810572862625122,7.255037784576416,-6.436692714691162
423,84600.0,-0.7322037816047668,6.379265785217285,-7.149754047393799
424,84800.0,-0.9236294627189636,6.728617191314697,-6.829115867614746
425,85000.0,-0.4977070987224579,5.548955917358398,-7.6115684509277335
426,85200.0,-0.4977070987224579,5.548955917358398,-7.6115684509277335
427,85400.0,-0.6939185857772827,6.537191867828369,-7.2023963928222665
428,85600.0,-0.9762716889381408,7.642674922943115,-6.898508071899414
429,85800.0,-0.4785645008087158,6.348158359527588,-7.592426776885986
430,86000.0,-0.5551348924636841,7.042076587677003,-6.8482584953308105
431,86200.0,-0.5168496966362001,6.185446262359619,-7.46799898147583
432,86400.0,-0.5024927258491516,6.314659118652344,-7.52303409576416
433,86600.0,-0.5024927258491516,6.314659118652344,-7.52303409576416
434,86800.0,-0.25842484831810003,9.741181373596193,-3.1130621433258057
435,87000.0,-0.12921242415905002,5.106283187866211,-8.499305725097656
436,87200.0,-0.7465606331825256,7.032505512237549,-7.671389579772949
437,87400.0,-0.6795615553855896,6.592226982116699,-7.355536937713622
438,87600.0,-0.5599204897880554,5.493920803070068,-8.202595710754395
439,87800.0,-0.5599204897880554,5.493920803070068,-8.202595710754395
440,88000.0,-0.6125625967979431,5.97727108001709,-7.812565803527832
441,88200.0,-0.8662018179893494,6.790830135345459,-8.293522834777832
442,88400.0,-0.7513462901115417,5.8337016105651855,-7.929814338684082
443,88600.0,-0.2919243574142456,5.615954875946045,-7.956134796142577
444,88800.0,-0.4259224236011505,5.613561630249023,-8.152346611022951
445,89000.0,-0.07657032459974289,4.649254322052002,-8.889336585998535
446,89200.0,-0.5120640397071838,5.178067684173584,-8.22413158416748
447,89400.0,-0.5120640397071838,5.178067684173584,-8.22413158416748
448,89600.0,-0.5024927258491516,5.465207099914551,-8.039883613586426
449,89800.0,-0.6699903011322021,5.553741931915283,-8.061419486999513
450,90000.0,-0.4929214715957642,5.907878875732423,-7.558926582336426
451,90200.0,-0.7561319470405579,5.92223596572876,-7.81974458694458
452,90400.0,-0.7561319470405579,5.92223596572876,-7.81974458694458
453,90600.0,-0.25363919138908386,4.977071285247803,-8.018348693847656
454,90800.0,-0.028713870793581012,8.685946464538574,-4.1347975730896005
455,91000.0,-0.607776939868927,7.75753116607666,-6.0921263694763175
456,91200.0,-0.4977070987224579,6.180660724639893,-7.310072898864746
457,91400.0,-0.607776939868927,7.197610855102539,-6.65204668045044
458,91600.0,-0.7034898400306702,7.582855224609375,-6.254837989807129
459,91800.0,-0.7178468108177185,7.137789726257324,-6.601797103881836
460,92000.0,-0.7178468108177185,7.137789726257324,-6.601797103881836
461,92200.0,-0.5503491759300232,7.716853141784668,-6.216552734375
462,92400.0,-0.3828516006469727,6.673582077026367,-6.7070817947387695
463,92600.0,-0.3493521213531494,6.771688461303711,-6.577868938446045
464,92800.0,-0.2440679222345352,6.3290162086486825,-7.240681171417236
465,93000.0,-0.0813559740781784,6.321837425231934,-6.604190349578857
466,93200.0,-0.25363919138908386,7.049255847930907,-6.759723663330077
467,93400.0,-0.3828516006469727,7.144968032836914,-6.814758777618407
468,93600.0,-0.12921242415905002,7.762316703796388,-7.499105930328369
469,93800.0,-0.12921242415905002,7.762316703796388,-7.499105930328369
470,94000.0,-0.7082754969596863,6.977471351623535,-3.1800613403320312
471,94200.0,-0.15314064919948578,8.303093910217285,-5.649453639984131
472,94400.0,-0.8949156999588013,7.058826446533202,-6.798008918762207
473,94600.0,-0.7034898400306702,6.451050281524657,-7.341179370880128
474,94800.0,-1.0528419017791748,7.243074417114258,-6.4462642669677725
475,95000.0,-1.0528419017791748,7.243074417114258,-6.4462642669677725
476,95200.0,-1.5457634925842283,7.434500217437744,-6.616154670715332
477,95400.0,-0.9379864931106568,6.175874710083008,-7.774280071258545
478,95600.0,-0.7513462901115417,6.216552734375,-7.623533248901367
479,95800.0,-1.0911270380020142,6.539584159851074,-7.006184577941895
480,96000.0,-1.2538390159606934,7.137789726257324,-6.680760860443115
481,96200.0,-1.3112668991088867,6.082554817199707,-7.6737823486328125
482,96400.0,-0.7226324081420898,6.3912291526794425,-7.185646057128906
483,96600.0,-0.7226324081420898,6.3912291526794425,-7.185646057128906
484,96800.0,-1.2729815244674685,6.16391134262085,-7.310072898864746
485,97000.0,-1.1102697849273682,7.068397998809815,-6.838686943054199
486,97200.0,-1.430907964706421,6.288337707519531,-7.735995292663574
487,97400.0,-1.1198409795761108,6.013163089752197,-7.635497093200684
488,97600.0,-1.244267821311951,6.118447780609131,-7.556533336639403
489,97800.0,-1.0528419017791748,6.180660724639893,-7.252645492553711
490,98000.0,-1.0480562448501587,6.302694320678711,-7.350750923156737
491,98200.0,-1.0480562448501587,6.302694320678711,-7.350750923156737
492,98400.0,-0.4881358444690704,8.439485549926758,-6.5491557121276855
493,98600.0,-1.0145567655563354,5.606383323669434,-8.068597793579103
494,98800.0,-1.210768222808838,6.357729434967041,-7.609175682067871
495,99000.0,-1.0863415002822876,5.965306758880615,-7.534998416900635
496,99200.0,-1.22033953666687,7.63310432434082,-6.142375946044923
497,99400.0,-1.2299107313156128,6.008377552032472,-7.724031925201416
498,99600.0,1.6989041566848757,8.391629219055176,-8.724230766296388
499,99800.0,1.6989041566848757,8.391629219055176,-8.724230766296388
500,100000.0,-0.8039883971214294,6.65204668045044,-7.3363938331604
501,100200.0,-0.6795615553855896,5.819344997406006,-7.88913631439209
502,100400.0,-0.4067798554897308,5.204389572143555,-8.551947593688965
503,100600.0,-0.6939185857772827,6.022734642028809,-7.542177200317383
504,100800.0,-0.9188438653945924,6.017949104309082,-7.695317268371582
505,101000.0,-0.9188438653945924,6.017949104309082,-7.695317268371582
506,101200.0,-1.0241280794143677,5.39342212677002,-7.334001541137695
507,101400.0,-0.9906285405158995,7.348358631134032,-6.728617191314697
508,101600.0,-0.9810572862625122,5.61116886138916,-7.046862602233888
509,101800.0,-1.5601203441619873,6.455835819244385,-7.073184013366699
510,102000.0,-1.2346963882446291,6.453442573547362,-7.190432548522949
511,102200.0,-1.129412293434143,6.300302028656006,-7.231109619140625
512,102400.0,-1.306481122970581,6.455835819244385,-7.180860996246338
513,102600.0,-1.306481122970581,6.455835819244385,-7.180860996246338
514,102800.0,-1.1102697849273682,6.788437843322754,-7.075576305389403
515,103000.0,-1.0863415002822876,5.860023021697997,-7.563712120056152
516,103200.0,-0.5312066078186035,5.994020462036133,-7.1090760231018075
517,103400.0,-0.7609176039695741,6.929614543914795,-6.661618232727051
518,103600.0,-1.4548362493515017,7.604390144348144,-6.474977493286133
519,103800.0,-1.2634103298187256,6.912864685058594,-7.1066832542419425
520,104000.0,-1.043270707130432,5.711667537689209,-7.601996898651122
521,104200.0,-1.043270707130432,5.711667537689209,-7.601996898651122
522,104400.0,-1.2490534782409668,6.3936219215393075,-7.209574222564697
523,104600.0,-0.9236294627189636,5.967699527740479,-7.216752529144287
524,104800.0,-1.4021940231323242,6.620940208435059,-6.86979341506958
525,105000.0,-1.4165509939193726,7.310072898864746,-6.544370174407959
526,105200.0,-1.430907964706421,6.405585765838622,-7.276573657989503
527,105400.0,-1.2011969089508057,7.049255847930907,-7.118647575378418
528,105600.0,-1.3974084854125977,7.073184013366699,-6.917649745941162
529,105800.0,-1.239482045173645,6.118447780609131,-7.073184013366699
530,106000.0,-1.239482045173645,6.118447780609131,-7.073184013366699
531,106200.0,-1.1772687435150146,6.288337707519531,-7.319644451141357
532,106400.0,-1.2777673006057741,6.5730838775634775,-7.2813591957092285
533,106600.0,-1.043270707130432,6.98704195022583,-6.900900363922119
534,106800.0,-1.1676974296569824,6.226124286651611,-7.575676441192628
535,107000.0,-0.8949156999588013,6.020341873168945,-9.20279598236084
536,107200.0,-1.2586246728897097,5.465207099914551,-7.83410120010376
537,107400.0,-1.2586246728897097,5.465207099914551,-7.83410120010376
538,107600.0,-1.1485549211502075,6.226124286651611,-7.671389579772949
539,107800.0,-1.0719845294952393,6.716653347015381,-7.008577823638916
540,108000.0,-1.1581261157989502,7.444070816040039,-6.582655429840088
541,108200.0,-0.2105683833360672,4.8574299812316895,-8.212166786193848
542,108400.0,-0.5886343717575073,6.551548480987549,-7.355536937713622
543,108600.0,-0.5886343717575073,6.104090690612793,-7.726424217224121
544,108800.0,-1.0815558433532717,6.841079711914063,-7.609175682067871
545,109000.0,-1.0815558433532717,6.841079711914063,-7.609175682067871
546,109200.0,3.838087558746338,13.26102352142334,-6.587440490722656
547,109400.0,0.09571290016174316,5.1086764335632315,-8.537590980529785
548,109600.0,-0.0526420958340168,4.438685894012451,-8.98265552520752
549,109800.0,0.028713870793581012,3.3619158267974854,-9.399007797241213
550,110000.0,-0.6460621356964111,6.159125804901122,-7.527820110321045
551,110200.0,-0.4785645008087158,6.388835906982423,-7.750352382659912
552,110400.0,-0.4785645008087158,6.388835906982423,-7.750352382659912
553,110600.0,-0.25363919138908386,6.436692714691162,-7.496713638305664
554,110800.0,-0.3302095234394073,5.546562671661377,-8.506484031677246
555,111000.0,-0.5934200286865234,6.372087001800537,-7.362715244293213
556,111200.0,-0.28235307335853577,6.551548480987549,-6.982256412506104
557,111400.0,-0.19621144235134125,5.015356063842773,-8.24566650390625
558,111600.0,-0.3302095234394073,5.962913990020753,-7.355536937713622
559,111800.0,-0.3302095234394073,5.962913990020753,-7.355536937713622
560,112000.0,-0.2392822504043579,5.474778175354004,-8.173882484436035
561,112200.0,-0.4211367666721344,5.800201892852782,-8.745766639709473
562,112400.0,-0.4067798554897308,6.257230758666992,-7.551748275756836
563,112600.0,-0.4019941985607147,4.9363932609558105,-8.71944522857666
564,112800.0,-0.27278175950050354,5.0225348472595215,-8.516055107116701
565,113000.0,-0.10049854964017868,2.1583259105682373,-12.868599891662598
566,113200.0,-1.765903115272522,4.376472473144531,-5.304887294769287
567,113400.0,-1.765903115272522,4.376472473144531,-5.304887294769287
568,113600.0,-0.17706887423992154,8.731410026550293,-7.647461414337157
569,113800.0,-0.5886343717575073,5.766702175140381,-8.063812255859375
570,114000.0,-0.3206382095813751,5.362315654754639,-7.908278465270996
571,114200.0,-0.8135597109794617,6.005984783172607,-7.6115684509277335
572,114400.0,-0.4833501875400543,5.326423168182373,-8.135597229003906
573,114600.0,-0.9954141974449158,6.2333030700683585,-7.307680606842041
574,114800.0,-0.9954141974449158,6.2333030700683585,-7.307680606842041
575,115000.0,-1.124626636505127,5.72841739654541,-7.269395351409912
576,115200.0,-1.1198409795761108,5.749952793121338,-7.599604606628418
577,115400.0,-1.0001999139785769,5.726025104522705,-7.618747234344482
578,115600.0,-0.8901299238204956,5.613561630249023,-7.6737823486328125
579,115800.0,-1.244267821311951,6.171089172363281,-7.144968032836914
580,116000.0,-1.0145567655563354,5.812166690826416,-7.9585280418396
581,116200.0,-1.0145567655563354,5.812166690826416,-7.9585280418396
582,116400.0,-1.2011969089508057,6.293124198913574,-7.594818592071532
583,116600.0,-1.0193424224853516,6.2093749046325675,-7.3052873611450195
584,116800.0,-1.1772687435150146,6.494120597839356,-7.484748840332031
585,117000.0,-0.9379864931106568,5.223531246185303,-7.992027282714844
586,117200.0,-1.2490534782409668,5.245067596435547,-7.609175682067871
587,117400.0,-0.4450649619102478,3.1082763671875,-9.516255378723145
588,117600.0,-1.34476637840271,7.573283672332764,-6.654439926147461
589,117800.0,-1.34476637840271,7.573283672332764,-6.654439926147461
590,118000.0,-0.6125625967979431,6.494120597839356,-6.86979341506958
591,118200.0,-1.0001999139785769,4.613362312316895,-8.633303642272951
592,118400.0,-1.1868400573730469,6.20219612121582,-7.484748840332031
593,118600.0,-0.5216353535652161,7.8795647621154785,-5.233102798461914
594,118800.0,-1.1341978311538696,5.620740413665772,-7.884350299835205
595,119000.0,-1.2825528383255005,6.166304588317871,-7.451249599456787
596,119200.0,-1.0097711086273191,6.065804958343506,-7.487142086029053
597,119400.0,-1.856830358505249,7.322037220001222,-6.843472957611084
598,119600.0,-1.856830358505249,7.322037220001222,-6.843472957611084
599,119800.0,-1.2825528383255005,6.472585201263428,-7.324430465698242
600,120000.0,-1.526620864868164,6.80040168762207,-6.709475040435791
601,120200.0,-1.3208380937576294,6.697510242462157,-6.984649658203125
602,120400.0,-1.1772687435150146,6.376872539520264,-7.1090760231018075
603,120600.0,-1.4356936216354368,7.319644451141357,-7.0540409088134775
604,120800.0,-1.4356936216354368,7.319644451141357,-7.0540409088134775
605,121000.0,-0.97148597240448,6.1471614837646475,-7.738388061523437
606,121200.0,-0.7226324081420898,5.0368919372558585,-8.561518669128418
607,121400.0,-1.129412293434143,6.711867332458496,-7.025327682495117
608,121600.0,-1.4356936216354368,6.618547439575195,-7.034898281097412
609,121800.0,-1.3974084854125977,6.434299945831299,-7.3675007820129395
610,122000.0,-0.8997013568878174,7.709674835205077,-4.462614059448242
611,122200.0,-0.8997013568878174,7.709674835205077,-4.462614059448242
612,122400.0,-0.9092726111412048,5.967699527740479,-8.11406135559082
613,122600.0,-0.7704889178276062,5.807380676269531,-7.592426776885986
614,122800.0,-0.4642075896263122,5.568098068237305,-7.700103282928468
615,123000.0,-0.6029912829399109,6.022734642028809,-7.63310432434082
616,123200.0,-0.7992027401924133,5.8337016105651855,-7.697710037231445
617,123400.0,-0.6173481941223145,5.273780822753906,-8.037490844726562
618,123600.0,-1.062413215637207,6.541977405548097,-7.276573657989503
619,123800.0,-1.8185452222824097,4.596612453460693,-8.695517539978027
620,124000.0,-0.6029912829399109,5.417350769042969,-8.262415885925293
621,124200.0,-0.6029912829399109,5.417350769042969,-8.262415885925293
622,124400.0,-0.8566305041313171,7.066005229949951,-6.936792850494385
623,124600.0,-0.5455635190010071,5.599205493927002,-8.078168869018555
624,124800.0,-0.3349951505661011,3.91705060005188,-8.910871505737305
625,125000.0,-0.6795615553855896,5.536991596221924,-7.805387496948242
626,125200.0,-1.0241280794143677,6.336194515228272,-7.111469268798827
627,125400.0,-0.8422735333442688,6.27158784866333,-7.300501823425293
628,125600.0,-0.7082754969596863,4.00319242477417,-9.023333549499512
629,125800.0,-0.7082754969596863,4.00319242477417,-9.023333549499512
630,126000.0,-0.5072783827781677,5.917449951171875,-7.448856830596924
631,126200.0,-0.9236294627189636,6.049055576324463,-7.728816509246826
632,126400.0,-0.9667003750801086,5.577669143676758,-8.044669151306152
633,126600.0,-0.8518448472023009,5.737988471984862,-7.869993209838867
634,126800.0,-0.6652047038078308,6.719045639038086,-7.190432548522949
635,127000.0,-0.6652047038078308,6.719045639038086,-7.190432548522949
636,127200.0,-1.1102697849273682,6.2117671966552725,-8.350951194763184
637,127400.0,-0.4737788736820221,5.61116886138916,-8.082954406738281
638,127600.0,-0.7513462901115417,5.623133182525635,-7.776673316955566
639,127800.0,-1.057627558708191,5.814558982849121,-7.735995292663574
640,128000.0,-0.9571290016174316,5.651846885681152,-7.8077802658081055
641,128200.0,-0.28235307335853577,4.967499732971191,-8.102097511291504
642,128400.0,-0.28235307335853577,4.967499732971191,-8.102097511291504
643,128600.0,-0.7800601720809937,5.592026710510254,-7.872386455535889
644,128800.0,-0.6029912829399109,6.80040168762207,-7.2335028648376465
645,129000.0,-0.04785645008087158,5.972485065460205,-7.537391662597656
646,129200.0,-0.2632104754447937,5.166104316711426,-8.413164138793945
647,129400.0,-0.6939185857772827,6.558726787567139,-7.34357213973999
648,129600.0,-0.6939185857772827,6.740581512451173,-6.955935001373291
649,129800.0,-0.7561319470405579,5.960521221160889,-7.999206066131593
650,130000.0,-0.7561319470405579,5.960521221160889,-7.999206066131593
651,130200.0,-1.0719845294952393,7.355536937713622,-6.403193473815918
652,130400.0,-0.8327022790908813,7.341179370880128,-6.900900363922119
653,130600.0,-0.7082754969596863,6.888936519622803,-7.104290962219237
654,130800.0,-0.6125625967979431,6.764510154724121,-6.967899799346924
655,131000.0,-0.8662018179893494,7.149754047393799,-6.824329853057861
656,131200.0,-0.8662018179893494,7.149754047393799,-6.824329853057861
657,131400.0,-0.12921242415905002,6.266802310943604,-7.190432548522949
658,131600.0,0.0813559740781784,8.281558990478517,-6.838686943054199
659,131800.0,-0.3302095234394073,6.111269474029541,-7.23589563369751
660,132000.0,-1.215553879737854,5.599205493927002,-7.965706348419189
661,132200.0,-0.20099709928035736,4.78803825378418,-8.58305549621582
662,132400.0,-0.7704889178276062,6.577868938446045,-7.774280071258545
663,132600.0,-0.7465606331825256,6.1399827003479,-7.714460372924805
664,132800.0,-1.0001999139785769,6.709475040435791,-7.061219692230225
665,133000.0,-1.0001999139785769,6.709475040435791,-7.061219692230225
666,133200.0,-1.1006983518600464,6.917649745941162,-7.025327682495117
667,133400.0,-0.8709874749183655,6.175874710083008,-7.6522464752197275
668,133600.0,-0.784845769405365,5.367101192474365,-8.257630348205566
669,133800.0,-1.062413215637207,6.477370738983153,-7.077969074249268
670,134000.0,-1.0911270380020142,6.798008918762207,-6.982256412506104
671,134200.0,-0.9571290016174316,5.685347080230713,-7.7072815895080575
672,134400.0,-0.9571290016174316,5.685347080230713,-7.7072815895080575
673,134600.0,-0.22013968229293826,4.3381876945495605,-8.874979019165039
674,134800.0,-1.2011969089508057,5.69013261795044,-7.613961696624756
675,135000.0,-1.062413215637207,6.03230619430542,-7.678568363189697
676,135200.0,-0.5982056856155396,6.357729434967041,-7.207180976867676
677,135400.0,-1.0480562448501587,8.248059272766112,-6.305087566375732
678,135600.0,-1.0480562448501587,8.248059272766112,-6.305087566375732
679,135800.0,-1.306481122970581,5.9700927734375,-7.518248558044434
680,136000.0,-1.4069796800613403,5.996413230895996,-7.661818027496338
681,136200.0,-1.6031911373138428,6.982256412506104,-7.178467750549316
682,136400.0,-1.6941183805465698,5.8337016105651855,-7.810173511505128
683,136600.0,-1.0911270380020142,5.924628734588622,-7.977671146392822
684,136800.0,-0.8566305041313171,6.226124286651611,-7.776673316955566
685,137000.0,-0.8566305041313171,6.226124286651611,-7.776673316955566
686,137200.0,-0.30149564146995544,6.829115867614746,-7.374679565429687
687,137400.0,-0.6939185857772827,6.252446174621582,-7.472784996032715
688,137600.0,-2.756531953811645,3.0484561920166016,-12.241680145263672
689,137800.0,-2.0243279933929443,4.941178798675537,-4.752145767211914
690,138000.0,-0.4642075896263122,6.467799663543701,-7.345965385437013
691,138200.0,0.4689932465553284,4.9842495918273935,-8.181060791015625
692,138400.0,-1.105484127998352,6.120840072631836,-7.4703922271728525
693,138600.0,-1.105484127998352,6.120840072631836,-7.4703922271728525
694,138800.0,-0.8231310248374939,6.20219612121582,-7.39860725402832
695,139000.0,-0.6939185857772827,6.7621169090271,-6.963113307952881
696,139200.0,-0.3732803165912628,6.008377552032472,-7.3052873611450195
697,139400.0,-1.0767701864242554,6.5659050941467285,-7.1641106605529785
698,139600.0,-1.2251251935958862,5.950949668884277,-7.534998416900635
699,139800.0,-0.7034898400306702,3.7878382205963135,-8.82233715057373
700,140000.0,-1.2490534782409668,5.831308364868164,-7.458428382873535
701,140200.0,-1.2490534782409668,5.831308364868164,-7.458428382873535
702,140400.0,-1.0384850502014158,5.460421085357666,-7.869993209838867
703,140600.0,-1.4261221885681152,6.7310099601745605,-7.582855224609375
704,140800.0,-1.5601203441619873,7.350750923156737,-7.613961696624756
705,141000.0,-1.411765456199646,7.17368221282959,-6.448657035827638
706,141200.0,-1.3782659769058228,6.843472957611084,-6.702296257019043
707,141400.0,-1.0719845294952393,7.412964344024657,-6.396015167236327
708,141600.0,-1.0719845294952393,7.412964344024657,-6.396015167236327
709,141800.0,-1.0911270380020142,6.460620880126952,-7.369894027709961
710,142000.0,-1.0767701864242554,5.733203411102295,-8.099704742431639
711,142200.0,-1.0049854516983032,5.61116886138916,-7.695317268371582
712,142400.0,-0.9571290016174316,5.474778175354004,-7.774280071258545
713,142600.0,-0.7752745151519775,5.874379634857178,-7.544569969177246
714,142800.0,-0.3206382095813751,4.467400074005127,-9.28893756866455
715,143000.0,-2.0673987865448002,4.898108005523682,-7.968099594116211
716,143200.0,-2.0673987865448002,4.898108005523682,-7.968099594116211
717,143400.0,-1.0336993932724001,7.764709949493407,-6.5324058532714835
718,143600.0,-0.9906285405158995,5.726025104522705,-7.396214485168457
719,143800.0,-0.5551348924636841,6.4079790115356445,-7.034898281097412
720,144000.0,-0.6269195079803467,6.443871021270753,-7.082754611968994
721,144200.0,-1.1006983518600464,6.312265872955322,-7.728816509246826
722,144400.0,-0.9140582084655762,6.410372257232666,-7.274180889129639
723,144600.0,-1.1102697849273682,6.38165807723999,-7.188039302825928
724,144800.0,-1.1485549211502075,5.118247985839844,-7.901099681854247
725,145000.0,-1.1485549211502075,5.118247985839844,-7.901099681854247
726,145200.0,-1.0959126949310305,4.986642360687256,-8.688338279724121
727,145400.0,-0.9332008361816406,8.056633949279785,-5.9748783111572275
728,145600.0,-1.306481122970581,5.139782905578613,-8.070990562438965
729,145800.0,-0.8566305041313171,5.874379634857178,-8.305487632751465
730,146000.0,-1.0671988725662231,6.149554252624513,-7.606783390045166
731,146200.0,-0.8757730722427368,5.6350975036621085,-8.049454689025879
732,146400.0,-0.6891329884529114,5.4795637130737305,-8.140382766723633
733,146600.0,-1.062413215637207,6.666403770446777,-7.257431030273437
734,146800.0,-0.5742774605751038,5.694917678833008,-7.659425258636475
735,147000.0,-0.5742774605751038,5.694917678833008,-7.659425258636475
736,147200.0,-0.7513462901115417,4.88853645324707,-8.152346611022951
737,147400.0,-1.1629117727279663,5.737988471984862,-8.334200859069824
738,147600.0,-1.5984054803848269,7.9106712341308585,-6.8482584953308105
739,147800.0,0.3349951505661011,8.401200294494629,-5.584848403930664
740,148000.0,-1.129412293434143,7.494320392608643,-6.675975322723389
741,148200.0,-0.6556334495544434,7.003791332244872,-7.348358631134032
742,148400.0,-0.5503491759300232,6.501298904418945,-7.180860996246338
743,148600.0,-0.5503491759300232,6.501298904418945,-7.180860996246338
744,148800.0,-0.5599204897880554,6.9344000816345215,-7.168896198272705
745,149000.0,-0.6125625967979431,6.7142601013183585,-7.295715808868407
746,149200.0,-0.6987042427062988,7.439285278320312,-6.833901405334473
747,149400.0,-0.25842484831810003,5.120640754699707,-7.195217609405518
748,149600.0,-0.3684946894645691,6.314659118652344,-7.259823799133301
749,149800.0,-0.36370906233787537,5.266602516174316,-8.135597229003906
750,150000.0,-0.36370906233787537,5.266602516174316,-8.135597229003906
751,150200.0,-0.7417750358581543,7.257431030273437,-6.369694232940674
752,150400.0,-0.5599204897880554,6.525227069854736,-7.393822193145753
753,150600.0,-0.9044869542121888,7.52303409576416,-6.64486837387085
754,150800.0,-0.3158525824546814,6.498906135559082,-6.879364967346191
755,151000.0,-1.0049854516983032,6.654439926147461,-7.22153902053833
756,151200.0,-1.411765456199646,8.767301559448242,-2.823530912399292
757,151400.0,-0.5264209508895874,6.80040168762207,-9.477970123291016
758,151600.0,-0.6699903011322021,7.133004188537598,-6.661618232727051
759,151800.0,-0.6699903011322021,7.133004188537598,-6.661618232727051
760,152000.0,-0.6652047038078308,5.029713153839111,-8.417949676513674
761,152200.0,-1.0193424224853516,6.92482852935791,-6.427121639251709
762,152400.0,-0.7513462901115417,5.3551368713378915,-8.58305549621582
763,152600.0,-0.5072783827781677,5.7547383308410645,-7.939385414123535
764,152800.0,-0.06699903309345245,5.72123908996582,-8.25284481048584
765,153000.0,-0.06699903309345245,5.72123908996582,-8.25284481048584
766,153200.0,-0.27278175950050354,4.764110088348389,-8.700303077697754
767,153400.0,-0.5790630578994751,7.262216091156006,-6.2739810943603525
768,153600.0,-0.8662018179893494,6.776473522186278,-6.898508071899414
769,153800.0,-0.9858429431915284,6.771688461303711,-7.183253765106201
770,154000.0,-0.7178468108177185,5.498706817626953,-8.372486114501951
771,154200.0,-0.7609176039695741,6.874579429626465,-7.465606689453125
772,154400.0,-0.7609176039695741,6.874579429626465,-7.465606689453125
773,154600.0,-1.124626636505127,6.498906135559082,-7.654639720916747
774,154800.0,-1.1724830865859983,6.750153064727782,-7.034898281097412
775,155000.0,-0.9523434042930604,5.321637630462647,-8.075776100158691
776,155200.0,-0.7226324081420898,5.697310447692871,-7.869993209838867
777,155400.0,-0.7274181246757507,5.66620397567749,-7.4608211517333975
778,155600.0,-2.6703903675079346,6.764510154724121,-6.7860450744628915
779,155800.0,-2.6703903675079346,6.764510154724121,-6.7860450744628915
780,156000.0,-1.5074783563613892,6.953542709350586,-6.790830135345459
781,156200.0,-0.6891329884529114,5.9700927734375,-7.99681282043457
782,156400.0,-1.0815558433532717,6.221338748931885,-7.697710037231445
783,156600.0,-0.97148597240448,6.051448345184326,-7.810173511505128
784,156800.0,-1.062413215637207,7.503891944885254,-6.4462642669677725
785,157000.0,-1.239482045173645,6.293124198913574,-7.28375244140625
786,157200.0,-0.4737788736820221,4.230510234832764,-8.587841033935549
787,157400.0,-0.4737788736820221,4.230510234832764,-8.587841033935549
788,157600.0,-1.392622709274292,6.276373863220215,-7.278966426849365
789,157800.0,-0.8997013568878174,3.9146575927734375,-8.776873588562013
790,158000.0,-1.2634103298187256,5.644669055938722,-7.537391662597656
791,158200.0,-0.7752745151519775,5.120640754699707,-8.157133102416992
792,158400.0,-1.5553346872329712,6.817151546478272,-6.6352972984313965
793,158600.0,-1.1437692642211914,6.515655517578125,-6.963113307952881
794,158800.0,-1.1437692642211914,6.515655517578125,-6.963113307952881
795,159000.0,-1.0480562448501587,5.9342002868652335,-8.073383331298826
796,159200.0,0.8087739944458008,7.5014991760253915,-6.587440490722656
797,159400.0,-0.4929214715957642,5.637490272521973,-7.822136878967285
798,159600.0,-0.8566305041313171,5.060819625854492,-8.499305725097656
799,159800.0,-0.4929214715957642,3.8500516414642334,-9.726823806762695
800,160000.0,-0.19621144235134125,5.4006004333496085,-7.901099681854247
801,160200.0,-0.19621144235134125,5.4006004333496085,-7.901099681854247
802,160400.0,-0.7561319470405579,6.293124198913574,-7.2885379791259775
803,160600.0,-0.9762716889381408,6.10169792175293,-7.597211837768555
804,160800.0,-0.12921242415905002,3.888336658477783,-9.286543846130373
805,161000.0,-0.8231310248374939,6.2739810943603525,-7.3052873611450195
806,161200.0,-1.1485549211502075,5.443671703338623,-8.015955924987793
807,161400.0,-0.7609176039695741,5.07517671585083,-8.140382766723633
808,161600.0,-0.7609176039695741,5.07517671585083,-8.140382766723633
809,161800.0,-0.8997013568878174,4.462614059448242,-8.748159408569336
810,162000.0,-0.7752745151519775,4.280759334564209,-8.616554260253906
811,162200.0,-0.8901299238204956,5.467599868774414,-7.963313579559326
812,162400.0,-1.0959126949310305,6.142375946044923,-7.300501823425293
813,162600.0,-0.9092726111412048,4.240081787109375,-8.573483467102049
814,162800.0,-0.9523434042930604,5.836094379425049,-7.7694945335388175
815,163000.0,4.25922441482544,8.269595146179201,-7.223931312561035
816,163200.0,4.25922441482544,8.269595146179201,-7.223931312561035
817,163400.0,0.23449662327766416,6.530013084411621,-6.97986364364624
818,163600.0,-0.5838487148284912,6.788437843322754,-6.939186096191406
819,163800.0,-0.397208571434021,7.489534854888916,-6.6831536293029785
820,164000.0,-0.8997013568878174,6.1471614837646475,-7.57806921005249
821,164200.0,-0.2919243574142456,5.781059265136719,-8.11406135559082
822,164400.0,-0.861416220664978,7.381857395172119,-5.927021503448486
823,164600.0,-0.861416220664978,7.381857395172119,-5.927021503448486
824,164800.0,-0.2153540551662445,7.29810905456543,-6.6281185150146475
825,165000.0,-0.4785645008087158,6.149554252624513,-7.4608211517333975
826,165200.0,-0.7609176039695741,6.632904052734375,-7.1066832542419425
827,165400.0,-0.6317051649093628,6.183053970336914,-7.690531730651855
828,165600.0,-0.35413774847984314,5.781059265136719,-7.554140567779541
829,165800.0,-0.4737788736820221,6.412764549255371,-7.192824840545653
830,166000.0,-0.4737788736820221,6.412764549255371,-7.192824840545653
831,166200.0,-0.7465606331825256,6.075376510620117,-7.5804619789123535
832,166400.0,-1.105484127998352,6.412764549255371,-7.575676441192628
833,166600.0,-0.8901299238204956,6.702296257019043,-6.843472957611084
834,166800.0,-0.8949156999588013,5.536991596221924,-7.604390144348144
835,167000.0,-0.9236294627189636,6.943971633911133,-6.687938690185548
836,167200.0,-0.9236294627189636,6.943971633911133,-6.687938690185548
837,167400.0,-0.7178468108177185,6.771688461303711,-7.197610855102539
838,167600.0,-0.7561319470405579,6.702296257019043,-7.537391662597656
839,167800.0,-0.2871387302875519,6.350551128387451,-7.448856830596924
840,168000.0,-0.6460621356964111,6.685546875,-7.204789161682129
841,168200.0,-0.4546363055706024,6.620940208435059,-7.286144733428955
842,168400.0,-0.9379864931106568,6.57547664642334,-7.396214485168457
843,168600.0,-1.4213367700576782,7.276573657989503,-6.506085395812987
844,168800.0,-1.4213367700576782,7.276573657989503,-6.506085395812987
845,169000.0,-1.1581261157989502,6.467799663543701,-7.295715808868407
846,169200.0,-0.397208571434021,7.573283672332764,-4.185047149658203
847,169400.0,-0.6843472719192505,6.604190349578857,-7.317252159118652
848,169600.0,-0.9332008361816406,6.594619274139403,-7.396214485168457
849,169800.0,-0.7322037816047668,6.26440954208374,-7.448856830596924
850,170000.0,-1.196411371231079,7.056434154510497,-6.908078193664551
851,170200.0,-0.9188438653945924,6.503692150115968,-7.456035614013673
852,170400.0,-0.9188438653945924,6.503692150115968,-7.456035614013673
853,170600.0,-0.8327022790908813,5.936593055725098,-7.795816421508789
854,170800.0,-0.5982056856155396,5.501099109649658,-8.037490844726562
855,171000.0,-0.7274181246757507,4.747360229492188,-8.695517539978027
856,171200.0,-0.4019941985607147,6.003591537475586,-8.116454124450684
857,171400.0,-0.7130610942840576,5.814558982849121,-7.901099681854247
858,171600.0,-1.7371891736984253,5.328815937042236,-8.528019905090332
859,171800.0,-1.0097711086273191,5.92223596572876,-7.403393745422362
860,172000.0,-1.6893328428268433,6.175874710083008,-7.6522464752197275
861,172200.0,-1.6893328428268433,6.175874710083008,-7.6522464752197275
862,172400.0,-2.560320377349853,9.269794464111328,-1.5984054803848269
863,172600.0,-1.6845470666885376,7.70249605178833,-6.819544315338135
864,172800.0,-1.2825528383255005,5.769095420837402,-7.144968032836914
865,173000.0,-1.550549030303955,7.008577823638916,-6.6281185150146475
866,173200.0,-1.8616160154342647,6.08016300201416,-7.403393745422362
867,173400.0,-1.7850456237792969,7.805387496948242,-6.750153064727782
868,173600.0,-1.7132610082626345,7.116254806518555,-6.477370738983153
869,173800.0,-2.148754596710205,7.786244869232178,-6.2739810943603525
870,174000.0,-2.148754596710205,7.786244869232178,-6.2739810943603525
871,174200.0,-1.4404792785644531,6.613761901855469,-7.006184577941895
872,174400.0,-1.2825528383255005,5.546562671661377,-8.008777618408201
873,174600.0,-1.411765456199646,6.577868938446045,-7.200003147125244
874,174800.0,-1.3495519161224363,6.10887622833252,-7.412964344024657
875,175000.0,-1.6510475873947144,7.7694945335388175,-6.2093749046325675
876,175200.0,-2.167897224426269,7.357929229736327,-6.5084776878356925
877,175400.0,-2.167897224426269,7.357929229736327,-6.5084776878356925
878,175600.0,-1.7324036359786987,6.733402729034424,-7.154539585113525
879,175800.0,-2.665604591369629,7.355536937713622,-8.61894702911377
880,176000.0,-2.0195422172546387,7.491927623748778,-6.561119556427003
881,176200.0,-1.411765456199646,6.20219612121582,-7.006184577941895
882,176400.0,-1.1437692642211914,4.744967460632324,-8.590232849121094
883,176600.0,-1.2346963882446291,5.391028881072998,-7.8867435455322275
884,176800.0,-1.325623631477356,5.900700569152832,-7.444070816040039
885,177000.0,-1.325623631477356,5.900700569152832,-7.444070816040039
886,177200.0,-1.430907964706421,5.513063907623291,-7.671389579772949
887,177400.0,-1.7084753513336182,6.501298904418945,-6.999006271362305
888,177600.0,-2.0099709033966064,7.176074504852295,-6.955935001373291
889,177800.0,-1.6031911373138428,6.812366485595702,-7.0444698333740225
890,178000.0,-1.5457634925842283,6.1256256103515625,-7.4081788063049325
891,178200.0,-1.7850456237792969,6.427121639251709,-7.389035701751709
892,178400.0,-1.392622709274292,5.271388053894043,-8.10688304901123
893,178600.0,-1.392622709274292,5.271388053894043,-8.10688304901123
894,178800.0,-1.6941183805465698,6.618547439575195,-6.955935001373291
895,179000.0,-1.4452648162841797,6.240481376647949,-7.278966426849365
896,179200.0,-1.4261221885681152,5.556134223937988,-8.056633949279785
897,179400.0,-1.6606187820434568,6.451050281524657,-7.125825881958008
898,179600.0,-1.56969153881073,6.242874622344972,-7.22871732711792
899,179800.0,-1.526620864868164,6.0538411140441895,-7.678568363189697
900,180000.0,-1.526620864868164,6.0538411140441895,-7.678568363189697
901,180200.0,-1.8472589254379272,6.553941249847412,-7.147361278533936
902,180400.0,-1.6079767942428589,6.2739810943603525,-7.424928665161133
903,180600.0,-1.2921242713928225,6.369694232940674,-7.348358631134032
904,180800.0,-1.4548362493515017,7.422535419464111,-6.563512325286865
905,181000.0,-1.3974084854125977,6.853044033050537,-7.0444698333740225
906,181200.0,-1.5218352079391482,7.118647575378418,-6.963113307952881
907,181400.0,-1.5218352079391482,7.118647575378418,-6.963113307952881
908,181600.0,-1.244267821311951,5.941378593444824,-7.551748275756836
909,181800.0,-1.1389836072921753,5.9533424377441415,-7.850851535797119
910,182000.0,-1.3591231107711792,6.388835906982423,-7.176074504852295
911,182200.0,-1.4165509939193726,6.369694232940674,-7.362715244293213
912,182400.0,-1.5744771957397459,6.728617191314697,-6.970292568206787
913,182600.0,-1.5744771957397459,6.728617191314697,-6.970292568206787
914,182800.0,-1.373480200767517,6.6903319358825675,-7.099504470825195
915,183000.0,-1.2921242713928225,5.685347080230713,-7.58524751663208
916,183200.0,-1.4356936216354368,7.080362319946289,-4.587040901184082
917,183400.0,-1.4452648162841797,9.566505432128906,-7.326822757720947
918,183600.0,-1.6845470666885376,6.922436237335205,-6.977471351623535
919,183800.0,-1.6845470666885376,6.922436237335205,-6.977471351623535
920,184000.0,-1.761117458343506,6.774080753326416,-6.860222339630128
921,184200.0,-1.6462620496749878,6.419942855834961,-7.317252159118652
922,184400.0,-1.9716858863830569,6.819544315338135,-6.920042991638184
923,184600.0,-1.804188132286072,6.587440490722656,-7.137789726257324
924,184800.0,-1.7371891736984253,7.077969074249268,-6.896114826202393
925,185000.0,-1.7371891736984253,7.077969074249268,-6.896114826202393
926,185200.0,-1.3399806022644043,6.20219612121582,-7.362715244293213
927,185400.0,-1.7515461444854736,4.826323509216309,-8.626125335693361
928,185600.0,-1.8376877307891848,6.08494758605957,-7.747959613800049
929,185800.0,-1.3830513954162598,4.998606204986572,-8.240880966186522
930,186000.0,-1.8951154947280884,6.8554368019104,-6.752545356750487
931,186200.0,-2.47896409034729,7.322037220001222,-6.008377552032472
932,186400.0,-1.7515461444854736,5.91505765914917,-7.6522464752197275
933,186600.0,-1.7515461444854736,5.91505765914917,-7.6522464752197275
934,186800.0,-3.1250264644622803,8.338986396789549,-4.95792818069458
935,187000.0,-2.0147566795349117,5.462814331054688,-7.659425258636475
936,187200.0,-2.177468776702881,5.986842632293701,-7.121039390563965
937,187400.0,-2.4358932971954346,6.73818826675415,-6.80040168762207
938,187600.0,-2.589033842086792,5.627918720245361,-7.654639720916747
939,187800.0,-2.335394859313965,5.92223596572876,-7.322037220001222
940,188000.0,-1.804188132286072,4.378865718841554,-8.382057189941406
941,188200.0,-1.804188132286072,4.378865718841554,-8.382057189941406
942,188400.0,-2.4885356426239014,6.307480335235597,-7.066005229949951
943,188600.0,-2.8426735401153564,6.795616626739503,-6.26440954208374
944,188800.0,-2.785245418548584,5.639883518218994,-7.307680606842041
945,189000.0,-2.823530912399292,6.386443614959718,-6.8650078773498535
946,189200.0,-3.1250264644622803,7.3675007820129395,-6.259624004364014
947,189400.0,-3.1250264644622803,7.3675007820129395,-6.259624004364014
948,189600.0,-2.392822742462158,6.010770320892334,-7.594818592071532
