timestamp,ax,ay,az
1484224069427,-0.761954665184021,-7.571064472198486,1.7166426181793213
1484224069597,-3.1465795040130615,-9.112930297851563,0.3705027103424072
1484224069777,-3.9211037158966064,-9.75637149810791,2.695871114730835
1484224069958,-5.643133640289307,-10.350732803344727,1.5197194814682007
1484224070140,-2.7670986652374268,-6.847416877746582,5.479729175567627
1484224070319,-5.409698963165283,-11.924321174621582,5.805340766906738
1484224070500,2.8568811416625977,-2.624643564224243,0.21428105235099792
1484224070678,-1.1839327812194824,-4.4059295654296875,0.21009120345115662
1484224070861,-0.3902548849582672,-9.20211410522461,-0.0933738648891449
1484224071039,-3.6942532062530518,-14.916475296020508,1.7393875122070313
1484224071219,-2.0021512508392334,-14.356231689453125,-9.977835655212402
1484224071401,1.0235211849212646,-3.465008497238159,2.521692991256714
1484224071591,-3.843890905380249,-11.84650993347168,5.950788497924805
1484224071783,4.797980308532715,-2.9281086921691895,-0.39863458275794983
1484224071942,-1.5670050382614136,-10.149619102478027,0.375291109085083
1484224072120,-1.533486247062683,-9.59177017211914,0.048482585698366165
1484224072300,-1.4113819599151611,-10.169970512390137,-0.04728548228740692
1484224072482,1.0480618476867676,-9.55466079711914,-1.0749965906143188
1484224072662,0.322618693113327,-5.184643745422363,0.020949264988303185
1484224072839,-2.5115175247192383,-11.659163475036621,7.464522361755371
1484224073022,-0.5925649404525757,-19.598337173461914,9.01895809173584
1484224073204,-10.314221382141113,-16.060903549194336,7.798513412475586
1484224073381,-3.667318344116211,-9.582193374633789,0.07422025501728058
1484224073563,-1.6735470294952393,-9.085396766662598,-0.7445967197418213
1484224073743,-5.175665378570557,-13.053187370300293,1.8938134908676147
1484224073924,-3.60028076171875,-12.491148948669434,-5.522824764251709
1484224074104,2.425326347351074,-4.642356872558594,2.250549554824829
1484224074283,-5.233725070953369,-14.45199966430664,5.503072738647461
1484224074460,9.440337181091309,-1.391629695892334,-1.3581109046936035
1484224074642,0.1364694982767105,-10.001178741455078,-0.6560112833976746
1484224074841,-1.2731167078018188,-9.588179588317871,-0.24660277366638184
1484224075005,-1.6801310777664185,-10.424354553222656,-1.202487826347351
1484224075184,-1.0983400344848633,-9.649829864501953,-0.04967968538403511
1484224075364,0.1735796183347702,-6.9940619468688965,-1.6328455209732056
1484224075543,-0.6572083830833435,-7.707533836364746,3.8600516319274902
1484224075725,1.6825252771377563,-3.694851875305176,-0.9217676520347595
1484224075908,2.0853497982025146,-10.64162826538086,-4.370016574859619
1484224076088,-0.4058171808719635,-7.906252384185791,-0.19033902883529663
1484224076266,-0.7577648162841797,-9.006986618041992,-0.9995791912078857
1484224076445,-2.786850690841675,-11.704054832458496,1.7070658206939697
1484224076626,0.5512649416923523,-13.852850914001465,0.14664486050605774
1484224076807,1.290474772453308,-5.321712017059326,0.6847416758537292
1484224076987,-2.316390037536621,-13.431471824645996,6.1770405769348145
1484224077167,-3.0316579341888428,-9.545681953430176,1.9141643047332764
1484224077345,-6.629544734954834,-6.737882137298584,-0.1646013706922531
1484224077526,-2.406771183013916,-9.510367393493652,-0.3010708689689636
1484224077708,-2.832340717315674,-10.4357271194458,-1.1294646263122559
1484224077898,-2.315791606903076,-11.258134841918945,0.5446808934211731
1484224078068,-3.405751943588257,-10.827776908874512,5.418078422546387
1484224078246,0.33279404044151306,-5.14932918548584,1.2461819648742676
1484224078431,2.5755624771118164,-4.273650169372559,5.5575408935546875
1484224078609,6.308721542358398,-5.434239387512207,0.4489128291606903
1484224078789,0.20350714027881622,-8.378508567810059,1.049857497215271
1484224078968,-2.1302409172058105,-9.26675796508789,0.24001872539520264
1484224079148,-1.7184382677078247,-10.119691848754883,0.6123170852661133
1484224079328,0.7380126714706421,-8.989029884338379,-5.985504249110818E-4
1484224079509,0.45848962664604187,-7.138312339782715,-0.8008604645729065
1484224079689,-2.3116016387939453,-9.193734169006348,5.964554786682129
1484224079903,2.385822057723999,-1.9740192890167236,0.9397241473197937
1484224080046,3.1088709831237793,-9.579200744628906,-6.273406982421875
1484224080229,0.12270283699035645,-7.362768650054932,-0.1173158809542656
1484224080410,-2.031480073928833,-9.227252960205078,-0.7936778664588928
1484224080590,-2.93349552154541,-11.745354652404785,-1.832162857055664
1484224080771,-1.1653777360916138,-9.635464668273926,-2.2002713680267334
1484224080954,-0.6434416770935059,-7.662044048309326,-0.9558850526809692
1484224081128,-3.9031472206115723,-9.165003776550293,8.388684272766113
1484224081309,0.9295487999916077,-9.345766067504883,0.7667431235313416
1484224081491,-1.7190368175506592,-11.41675090789795,-1.5837644338607788
1484224081671,0.08918401598930359,-7.44417142868042,0.1759738177061081
1484224081851,-0.23163901269435883,-8.777742385864258,-0.8481459617614746
1484224082031,-4.281431198120117,-13.420697212219238,0.21188685297966003
1484224082211,1.9937714338302612,-16.11716651916504,2.1757307052612305
1484224082390,1.2653355598449707,-4.434659957885742,0.8194155097007751
1484224082572,-2.787449359893799,-12.891578674316406,8.516175270080566
1484224082753,-16.666038513183594,-19.60671615600586,8.422203063964844
1484224082934,-7.614160060882568,-9.229647636413574,1.4012064933776855
1484224083113,-4.456806659698486,-9.995792388916016,-0.6326677799224854
1484224083292,-3.0567970275878906,-9.55705451965332,-0.910993754863739
1484224083471,-3.093308687210083,-12.777854919433594,2.6557681560516357
1484224083652,0.4315548539161682,-13.982137680053711,-3.1741127967834473
1484224083833,1.4634557962417603,-5.433640956878662,1.777096152305603
1484224084014,-2.1086931228637695,-12.984354019165039,6.399102687835693
1484224084193,-3.424306869506836,-6.846818447113037,5.457582950592041
1484224084373,-5.650914669036865,-8.02416706085205,0.645237386226654
1484224084551,-2.2834699153900146,-9.288305282592773,0.19871874153614044
1484224084732,-3.050811529159546,-10.318410873413086,-1.7166426181793213
1484224084913,-1.4371196031570435,-11.103110313415527,2.477400302886963
1484224085091,-3.56017804145813,-11.940482139587402,-2.849698543548584
1484224085274,0.45489832758903503,-4.608838081359863,1.7052701711654663
1484224085455,2.431910276412964,0.7200561761856079,5.78678560256958
1484224085633,14.610615730285645,-0.6051344871520996,3.0101101398468018
1484224085813,0.5063736438751221,-11.684901237487793,1.12467622756958
1484224085993,0.06464344263076782,-9.586383819580078,1.7268179655075073
1484224086175,-0.9433154463768005,-10.219051361083984,-0.21308395266532898
1484224086356,-0.9415197968482971,-10.305841445922852,0.8583213090896606
1484224086537,-3.560776472091675,-9.07103157043457,1.6364368200302124
1484224086714,-0.6242880821228027,-6.777386665344238,1.9183541536331177
1484224086894,1.4891934394836426,-1.171961784362793,2.892794132232666
1484224087075,-0.872686505317688,-8.78731918334961,-4.190451622009277
1484224087257,-0.5817909836769104,-7.729081630706787,0.6386532783508301
1484224087437,-0.9786299467086792,-8.565855026245117,-1.0097545385360718
1484224087617,-3.687669277191162,-11.137825965881348,-0.9702502489089966
1484224087796,0.22026655077934265,-10.480019569396973,-1.7387889623641968
1484224087975,-0.18076223134994507,-6.629544734954834,0.2651578485965729
1484224088156,-4.003105163574219,-12.534244537353516,14.389750480651855
1484224088338,-11.59631633758545,-16.791732788085938,4.4939165115356445
1484224088518,-4.87758731842041,-9.01895809173584,-0.2256535142660141
1484224088699,-2.7311856746673584,-9.296685218811035,0.8427590131759644
1484224088878,-1.391629695892334,-9.48882007598877,-0.9804255962371826
1484224089055,-4.620809078216553,-13.728951454162598,0.568622887134552
1484224089238,0.10534487664699554,-12.183493614196777,1.460463047027588
1484224089419,1.4233529567718506,-6.224325656890869,1.3467384576797485
1484224089597,-3.2573113441467285,-12.497733116149902,4.475361347198486
1484224089781,-6.916848659515381,-19.608510971069336,7.1257429122924805
1484224089958,-9.895236015319824,-16.548124313354492,2.0620062351226807
1484224090137,-2.918531894683838,-9.871294021606445,-1.3952209949493408
1484224090318,-1.3084312677383423,-9.967659950256348,0.9989806413650513
1484224090499,-3.9037458896636963,-12.820351600646973,1.326986312866211
1484224090678,-1.5556325912475586,-13.863624572753906,-7.393893241882324
1484224090861,0.9193734526634216,-5.427655220031738,1.0241197347640991
1484224091039,-3.737348794937134,-11.8626708984375,5.251681327819824
1484224091217,5.105036735534668,-1.5634137392044067,-5.875370979309082
1484224091399,-2.8568811416625977,-10.738593101501465,-1.414973258972168
1484224091580,-0.8277952671051025,-9.59596061706543,1.1988965272903442
1484224091761,-1.1773487329483032,-10.380660057067871,-1.7699135541915894
1484224091940,-0.7984662652015686,-11.024700164794922,1.1192892789840698
1484224092122,-3.6798880100250244,-9.05367374420166,1.6639702320098877
1484224092301,0.011971008032560349,-5.880159378051758,2.1727380752563477
1484224092480,-0.6111199855804443,-2.190095901489258,2.5546131134033203
1484224092661,1.9255367517471313,-8.701725959777832,-4.568735599517822
1484224092841,-0.3214215636253357,-7.361571788787842,1.7753005027770996
1484224093023,-1.8351556062698364,-10.06582260131836,0.09816227108240128
1484224093202,-2.562992811203003,-10.58656120300293,-0.2890998423099518
1484224093379,1.2641384601593018,-8.691550254821777,-1.942894697189331
1484224093562,-0.6649895310401917,-7.493252754211426,-0.04189852997660637
1484224093742,-2.8574798107147217,-8.99621295928955,4.424484729766846
1484224093924,2.895188331604004,-8.359953880310059,4.043208122253418
1484224094103,-4.0994720458984375,-9.497797966003418,0.35075053572654724
1484224094282,0.3800795078277588,-8.297704696655273,0.2944868206977844
1484224094462,-2.0015525817871094,-9.270947456359863,0.07062894850969315
1484224094642,-4.146158695220947,-10.65898609161377,-0.5770025849342346
1484224094824,1.6843209266662598,-11.881824493408203,-0.0017956512747332454
1484224095004,0.002394201699644327,-5.440823554992676,0.6177040338516235
1484224095182,-3.7702691555023193,-12.294824600219727,12.285247802734375
1484224095362,-4.026448726654053,-19.608510971069336,5.976525783538818
1484224095542,-6.662464618682861,-12.213421821594238,0.6141127347946167
1484224095724,-4.270657062530518,-9.847352027893066,1.0749965906143188
1484224095904,-1.4610615968704224,-9.229048728942871,-0.8439561128616333
1484224096085,-3.7056257724761963,-12.22539234161377,1.138442873954773
1484224096263,0.6458359360694885,-13.261483192443848,-5.299565315246582
1484224096442,0.27712884545326233,-5.6658782958984375,1.4425065517425537
1484224096623,-2.096123695373535,-12.003929138183594,7.141304969787598
1484224096804,1.7812861204147339,-0.5518634915351868,-4.596867084503174
1484224096987,-3.713406801223755,-8.256404876708984,1.1019313335418701
1484224097165,-2.7910406589508057,-9.827000617980957,0.7374141216278076
1484224097343,-2.2242133617401123,-10.292673110961914,-1.0157400369644165
1484224097525,-2.1362264156341553,-12.51449203491211,1.5508441925048828
1484224097706,-0.3902548849582672,-12.56417179107666,-6.487688064575195
1484224097888,1.1186907291412354,-2.7772738933563232,1.0492589473724365
1484224098066,-0.23942017555236816,-6.502651691436768,5.147533416748047
1484224098245,6.364386558532715,-3.9695863723754883,-0.5404910445213318
1484224098426,0.8481459617614746,-9.638457298278809,0.2621650993824005
1484224098607,-1.655590534210205,-9.744999885559082,0.34177228808403015
1484224098788,-2.4355015754699707,-9.908403396606445,-1.4047977924346924
1484224098963,1.3024457693099976,-9.896432876586914,2.585737943649292
1484224099147,-3.337517261505127,-10.66018295288086,3.0597896575927734
1484224099327,0.899621307849884,-4.887762546539307,2.013523578643799
1484224099508,-1.9165585041046143,-5.639542102813721,4.705803394317627
1484224099689,8.001421928405762,-3.2866404056549072,2.8359320163726807
1484224099870,-0.28371289372444153,-10.289680480957031,0.8050503134727478
1484224100047,-0.9080010056495667,-9.546878814697266,0.5105634927749634
1484224100226,-1.2617442607879639,-10.444106101989746,-0.23283611238002777
1484224100406,-0.629675030708313,-10.94150161743164,0.8188169598579407
1484224100586,-3.6517560482025146,-8.705916404724121,-0.06823474913835526
1484224100766,-0.8601169586181641,-6.509235858917236,3.0544028282165527
1484224100946,3.6768951416015625,-11.318588256835938,3.7475242614746094
1484224101126,-1.2300211191177368,-8.71489429473877,-1.5520412921905518
1484224101308,-0.8457517623901367,-7.316680431365967,-0.1472434103488922
1484224101488,-2.3582887649536133,-9.300874710083008,-0.16519992053508759
1484224101668,-3.271676540374756,-11.900379180908203,-1.1510124206542969
1484224101848,-0.39624038338661194,-10.563218116760254,-1.5143325328826904
1484224102031,0.14844051003456116,-6.511630058288574,0.19871874153614044
1484224102208,-5.981314182281494,-18.035520553588867,17.15146255493164
1484224102389,1.5735890865325928,-3.640383720397949,-2.5731682777404785
1484224102568,-0.25977087020874023,-10.305242538452148,0.15442600846290588
1484224102750,0.1646013706922531,-9.82879638671875,1.0779893398284912
1484224102931,-2.12485408782959,-10.00955867767334,-1.8716671466827393
1484224103111,1.4610615968704224,-11.182119369506836,3.0585925579071045
1484224103292,-3.2567129135131836,-12.014103889465332,0.13048399984836578
1484224103472,0.30047231912612915,-5.971737384796143,1.946485996246338
1484224103649,-2.675520420074463,-13.472771644592285,7.249044418334961
1484224103831,10.6709566116333,3.2124202251434326,-4.100070476531982
1484224104011,-0.19812019169330597,-10.779892921447754,0.06823474913835526
1484224104192,-1.4245500564575195,-9.803058624267578,1.0073603391647339
1484224104374,-1.6178817749023438,-11.016919136047363,0.24899697303771973
1484224104555,1.1037269830703735,-9.518747329711914,1.3210008144378662
1484224104731,-2.589329242706299,-8.738836288452148,-0.2711433470249176
1484224104911,-0.07960720360279083,-8.216899871826172,3.0561983585357666
1484224105092,-1.291671872138977,-5.066130638122559,6.3518171310424805
1484224105270,10.434529304504395,-0.6613982319831848,-0.1430535465478897
1484224105453,-0.5907692909240723,-10.38724422454834,0.5231330990791321
1484224105634,-1.0007762908935547,-8.829815864562988,1.1581950187683105
1484224105812,-1.5382746458053589,-10.518326759338379,-0.8864531517028809
1484224105992,-1.0887632369995117,-8.613739013671875,-1.0696096420288086
1484224106172,-1.4215573072433472,-8.010400772094727,-0.30526071786880493
1484224106353,-1.513733983039856,-7.701548099517822,4.662707805633545
1484224106533,1.7459715604782104,-2.340332269668579,2.765901565551758
1484224106714,1.6819267272949219,-10.596138000488281,-0.8577227592468262
1484224106894,1.0013748407363892,-8.67718505859375,1.1342530250549316
1484224107072,-0.2974795699119568,-9.725846290588379,1.413776159286499
1484224107252,-2.6449942588806152,-10.062231063842773,-1.4754267930984497
1484224107433,-0.9582792520523071,-9.553462982177734,-0.07541735470294952
1484224107614,-2.5061306953430176,-8.154650688171387,0.3734954595565796
1484224107796,-0.6099228858947754,-9.29309368133545,3.9252936840057373
1484224107976,1.2030863761901855,-2.824559450149536,6.763021469116211
1484224108154,10.162787437438965,-1.3652935028076172,1.6687586307525635
1484224108334,1.0462661981582642,-10.183138847351074,0.5979518890380859
1484224108515,-0.5195417404174805,-9.700108528137207,0.5919663906097412
1484224108698,-0.8990227580070496,-11.337143898010254,-0.2555810213088989
1484224108877,-3.6810851097106934,-11.922526359558105,-0.9840168952941895
1484224109056,-2.296638011932373,-13.128006935119629,-6.749853134155273
1484224109237,0.304063618183136,-7.375338554382324,2.255337953567505
1484224109418,-1.5909470319747925,-9.23563289642334,2.977189779281616
1484224109623,-7.255029678344727,-18.400636672973633,7.8080902099609375
1484224109777,-6.494870662689209,-9.261370658874512,1.9375077486038208
1484224109957,-3.494935989379883,-10.104129791259766,0.6673837304115295
1484224110138,-0.7350199222564697,-9.307458877563477,-1.247977614402771
1484224110317,-3.6170401573181152,-11.917139053344727,-1.227626919746399
1484224110495,2.165555477142334,-10.148422241210938,2.433107376098633
1484224110677,0.6649895310401917,-7.498041152954102,0.36092591285705566
1484224110858,-1.6364368200302124,-7.75900936126709,5.427056789398193
1484224111039,-2.956240653991699,-19.608510971069336,5.329493045806885
1484224111218,-3.6535518169403076,-11.577162742614746,0.10594342648983002
1484224111398,-1.3569138050079346,-9.548674583435059,-0.9582792520523071
1484224111576,-1.5298948287963867,-8.90762710571289,-0.8535329103469849
1484224111758,-3.333327293395996,-11.058218955993652,0.9097966551780701
1484224111939,3.2375593185424805,-7.7877397537231445,0.47884035110473633
1484224112120,0.4345476031303406,-8.280346870422363,-0.1107318252325058
1484224112299,-0.6135141849517822,-6.241085052490234,3.9169139862060547
1484224112478,3.7271735668182373,-15.292963027954102,-0.6374561786651611
1484224112657,-2.27748441696167,-12.648567199707031,-3.111265182495117
1484224112839,-1.0079588890075684,-7.982867240905762,-1.647210717201233
1484224113020,-0.8804676532745361,-8.810662269592285,-1.7525556087493896
1484224113200,-1.9488801956176758,-10.466851234436035,-0.1364694982767105
1484224113381,5.726930618286133,-7.201159954071045,1.3808557987213135
1484224113556,0.31603461503982544,-7.659649848937988,1.3329718112945557
1484224113737,-0.7924807667732239,-7.395090579986572,4.61661958694458
1484224113918,-0.5781996846199036,-5.169680118560791,2.9741971492767334
1484224114097,0.595557689666748,-10.497377395629883,-5.098452568054199
1484224114281,-0.7050924301147461,-7.190984725952148,-0.3944447338581085
1484224114463,-0.030526071786880493,-9.069235801696777,-1.0235211849212646
1484224114639,-1.6400281190872192,-9.925163269042969,0.1562216579914093
1484224114822,1.1318588256835938,-7.529764175415039,-1.0534487962722778
1484224115000,-0.16759411990642548,-9.167996406555176,-0.3124433159828186
1484224115182,-1.6723499298095703,-8.13669490814209,6.230909824371338
1484224115363,1.9692308902740479,-5.214571475982666,-0.6506243348121643
1484224115543,0.9253589510917664,-12.634202003479004,-3.5242648124694824
1484224115723,0.5728127360343933,-7.538742542266846,0.8702923059463501
1484224115902,-1.335964560508728,-9.340977668762207,0.5093663930892944
1484224116080,-4.104858875274658,-13.17469310760498,0.3489548861980438
1484224116262,3.485957622528076,-10.970232009887695,1.6645687818527222
1484224116443,0.8852560520172119,-7.754220962524414,1.656787633895874
1484224116624,-2.076969861984253,-8.67718505859375,4.6471452713012695
1484224116804,-0.8906430602073669,-19.34874153137207,3.0400376319885254
1484224116983,-1.4407109022140503,-12.055403709411621,-1.1025298833847046
1484224117162,-0.40521863102912903,-9.032724380493164,0.2064998894929886
1484224117342,-1.1420341730117798,-9.467870712280273,-1.4197616577148438
1484224117523,-0.8966285586357117,-12.860454559326172,2.715024709701538
1484224117704,0.2585737705230713,-11.696273803710938,-4.137779235839844
1484224117884,0.33339259028434753,-6.122572422027588,2.346317768096924
1484224118065,-2.1733365058898926,-12.773664474487305,5.685031890869141
1484224118244,5.92325496673584,-1.006163239479065,-0.547075092792511
1484224118423,-1.5490485429763794,-10.682928085327148,-0.1646013706922531
1484224118602,-1.1976994276046753,-9.839570045471191,0.6877344250679016
1484224118785,-1.4550760984420776,-10.0580415725708,-0.7218518257141113
1484224118966,0.08559270948171616,-11.113883972167969,2.652775526046753
1484224119147,-1.7166426181793213,-12.144588470458984,-5.157110691070557
1484224119323,1.3120225667953491,-5.717952251434326,2.409165382385254
1484224119503,-1.511339783668518,-13.408726692199707,6.797737121582031
1484224119686,6.603208065032959,-0.48303020000457764,-3.556586742401123
1484224119891,-2.557007312774658,-11.276689529418945,0.5512649416923523
1484224120047,-1.3090298175811768,-9.960477828979492,0.4878185987472534
1484224120227,-0.7870938181877136,-10.141838073730469,0.30047231912612915
1484224120406,-1.513733983039856,-11.932103157043457,1.4951789379119873
1484224120582,-4.489726543426514,-10.682928085327148,3.6146459579467773
1484224120765,0.20709845423698425,-6.2165446281433105,3.2980127334594727
1484224120947,0.9050082564353943,-3.6343982219696045,5.934627532958984
1484224121128,2.9239187240600586,-10.04307746887207,2.0392613410949707
1484224121308,0.7990648150444031,-10.415375709533691,0.718859076499939
1484224121488,-0.04728548228740692,-9.485827445983887,1.217451572418213
1484224121667,-2.214038133621216,-10.900800704956055,-0.7583633661270142
1484224121847,-0.18614917993545532,-9.43135929107666,0.228047713637352
1484224122028,-3.3674447536468506,-9.348758697509766,0.08080431073904037
1484224122208,-0.41718965768814087,-7.181407928466797,2.4887726306915283
1484224122389,-0.5518634915351868,-3.0538041591644287,6.936002254486084
1484224122566,5.417479991912842,-6.62355899810791,-0.13587094843387604
1484224122747,-1.2210428714752197,-8.863933563232422,-0.005386953707784414
1484224122929,0.47824180126190186,-9.68933391571045,0.07661445438861847
1484224123109,-1.1857284307479858,-9.782109260559082,0.8044517636299133
1484224123289,0.48901569843292236,-9.73542308807373,0.8146271109580994
1484224123471,-3.928286552429199,-8.999804496765137,0.6308721303939819
1484224123648,0.628477931022644,-6.607996463775635,3.71280837059021
1484224123829,-0.7739257216453552,-17.31067657470703,4.377797603607178
1484224124011,-2.4851813316345215,-14.107833862304688,-1.2982559204101563
1484224124190,-1.0977414846420288,-9.731232643127441,-0.4411316514015198
1484224124371,-2.42472767829895,-9.621698379516602,-1.3215993642807007
1484224124619,-2.608482837677002,-12.488754272460938,0.7649474143981934
1484224124729,-2.0386626720428467,-13.419500350952148,-8.795698165893555
1484224124909,1.8932149410247803,-6.6361284255981445,2.940678119659424
1484224125091,-1.5999252796173096,-11.044452667236328,5.850830554962158
1484224125272,-8.577826499938965,-17.07784080505371,7.931990146636963
1484224125451,-3.843292236328125,-13.43027400970459,-0.14365209639072418
1484224125631,-3.8983588218688965,-10.395025253295898,-0.8032546639442444
1484224125812,-1.2114660739898682,-10.105925559997559,0.04010287672281265
1484224125992,-2.7060465812683105,-12.500126838684082,-0.21547815203666687
1484224126173,0.7930793166160583,-14.607623100280762,2.233191728591919
1484224126352,0.9433154463768005,-4.829703330993652,0.8325836658477783
1484224126531,-1.9279309511184692,-11.066598892211914,5.327098846435547
1484224126713,-3.7433342933654785,-7.948749542236328,3.4063503742218018
1484224126890,-4.8494553565979,-11.77288818359375,-0.2495955228805542
1484224127072,-2.5965118408203125,-9.9586820602417,0.24121582508087158
1484224127252,-1.7280150651931763,-9.133280754089355,-1.3718775510787964
1484224127434,-1.9243396520614624,-12.469600677490234,2.8341362476348877
1484224127614,1.0594342947006226,-13.687650680541992,-0.9894038438796997
1484224127793,1.113303780555725,-5.241506099700928,2.5103204250335693
1484224127971,-1.999756932258606,-11.349713325500488,4.999691486358643
1484224128152,-5.130774021148682,-13.764266014099121,8.307281494140625
1484224128333,-2.1745336055755615,-10.58775806427002,-0.9911994934082031
1484224128514,-2.5007436275482178,-10.111910820007324,0.03651157766580582
1484224128693,-1.5981296300888062,-8.857349395751953,-2.118868589401245
1484224128875,-3.116652011871338,-12.445060729980469,0.5297171473503113
1484224129052,1.9626468420028687,-14.362815856933594,2.0907366275787354
1484224129233,1.4879963397979736,-4.629787445068359,1.521515130996704
1484224129413,-2.1948843002319336,-12.155362129211426,6.403292655944824
1484224129594,3.6086604595184326,0.4405331015586853,-3.049015760421753
1484224129776,-2.6659436225891113,-11.386224746704102,-0.12749123573303223
1484224129955,-2.009932279586792,-9.724648475646973,0.07003039866685867
1484224130134,-0.8242039084434509,-10.379463195800781,0.8092401623725891
1484224130314,0.07541735470294952,-11.32158088684082,2.7311856746673584
1484224130496,-2.564788579940796,-12.315773963928223,5.085284233093262
1484224130677,1.8040310144424438,-4.436455726623535,1.1264718770980835
1484224130856,-0.40282443165779114,-9.321824073791504,5.859210014343262
1484224131034,7.204751491546631,-0.32022446393966675,-5.037400245666504
1484224131215,-3.401561975479126,-10.722432136535645,0.6200982332229614
1484224131394,-1.755548357963562,-9.464279174804688,1.3856441974639893
1484224131578,-0.4638765752315521,-10.429740905761719,1.2156559228897095
1484224131758,3.66851544380188,-11.152790069580078,0.2902969419956207
1484224131938,-0.13946224749088287,-8.071452140808105,1.7172411680221558
1484224132117,-1.094150185585022,-7.6752119064331055,4.104858875274658
1484224132295,-0.20051439106464386,-7.235876083374023,3.1459810733795166
1484224132477,-2.27748441696167,-12.588113784790039,2.654571056365967
1484224132658,-4.902127742767334,-11.458649635314941,2.5797524452209473
1484224132839,-0.7511807680130005,-9.272743225097656,0.2801215946674347
1484224133018,-1.6645687818527222,-10.611102104187012,-0.8319851160049438
1484224133198,1.2910733222961426,-10.32978343963623,2.5294740200042725
1484224133377,-2.271498918533325,-9.329007148742676,2.1362264156341553
1484224133558,1.4383167028427124,-3.2620997428894043,2.0248961448669434
1484224133739,1.5622166395187378,-4.61661958694458,4.477157115936279
1484224133919,1.2964602708816528,-9.058462142944336,-1.8722656965255737
1484224134098,0.5315127968788147,-7.876923561096191,-0.4183867573738098
1484224134279,-0.19153612852096558,-9.665990829467773,0.3627215623855591
1484224134459,-1.0450690984725952,-9.68694019317627,-0.9433154463768005
1484224134639,0.5949591398239136,-10.062231063842773,1.5723919868469238
1484224134820,-2.4199392795562744,-10.535085678100586,2.0889410972595215
1484224135002,-0.19871874153614044,-5.65151309967041,2.337339401245117
1484224135181,0.6045359373092651,-2.53725528717041,5.187636375427246
1484224135358,-0.9355342984199524,-12.658143997192383,-4.660313606262207
1484224135539,-0.27712884545326233,-8.695740699768066,-0.9750386476516724
1484224135720,-0.6003460884094238,-9.478644371032715,-0.20530278980731964
1484224135900,-0.8481459617614746,-10.075399398803711,0.090979665517807
1484224136083,-0.12449848651885986,-9.530718803405762,-1.1534066200256348
1484224136261,-2.0464439392089844,-7.604583263397217,-1.18094003200531
1484224136439,-1.315613865852356,-8.325836181640625,4.52683687210083
1484224136621,2.964620351791382,-2.1553800106048584,1.7393875122070313
1484224136802,-1.0552444458007813,-12.755707740783691,-6.084265232086182
1484224136983,0.47465047240257263,-8.076240539550781,0.11372458189725876
1484224137164,-1.0426748991012573,-9.393052101135254,-0.9702502489089966
1484224137343,-1.5286977291107178,-10.11430549621582,0.9570821523666382
1484224137521,0.47165772318840027,-8.746018409729004,-1.3413515090942383
1484224137702,-0.6314706802368164,-8.0331449508667,-1.5855600833892822
1484224137882,-1.7274165153503418,-9.170989990234375,7.132327079772949
1484224138063,0.028131870552897453,-4.4071269035339355,4.701014995574951
1484224138243,2.035670042037964,-9.548076629638672,-0.641047477722168
1484224138422,-0.7858967185020447,-9.805453300476074,0.5488707423210144
1484224138602,-0.8834604024887085,-9.649829864501953,0.690727174282074
1484224138782,-2.0213048458099365,-10.92534065246582,-1.3425486087799072
1484224138963,-0.4794389009475708,-9.23323917388916,-0.35015198588371277
1484224139143,-0.702099621295929,-7.7847466468811035,-0.44173020124435425
1484224139324,-0.5548562407493591,-7.5668745040893555,3.468599796295166
1484224139505,1.7932571172714233,-2.279878616333008,5.054758548736572
1484224139682,3.180696964263916,-7.07606315612793,-1.3012486696243286
1484224139863,1.5364789962768555,-7.62373685836792,1.247977614402771
1484224140041,-1.3455413579940796,-9.517550468444824,-0.6350619792938232
1484224140221,-1.6759412288665771,-10.13166332244873,0.1472434103488922
1484224140406,1.184531331062317,-8.635885238647461,-0.6314706802368164
1484224140584,-0.7811083197593689,-7.86734676361084,-0.7852981686592102
1484224140763,-1.426345705986023,-9.049484252929688,5.448604583740234
1484224140944,0.7493851184844971,-3.712209701538086,3.5158851146698
1484224141125,2.032078742980957,-10.09934139251709,-1.091755986213684
1484224141307,0.811634361743927,-8.614337921142578,-0.18076223134994507
1484224141487,-0.9624691009521484,-9.317035675048828,-0.7906851172447205
1484224141665,-2.030881643295288,-10.469843864440918,1.1773487329483032
1484224141844,1.2360066175460815,-10.283695220947266,-1.8997989892959595
1484224142025,-0.40521863102912903,-6.634931564331055,-0.5315127968788147
1484224142207,-3.5859155654907227,-10.186131477355957,8.544905662536621
1484224142388,-0.456095427274704,-5.656899929046631,0.8750807046890259
1484224142567,-2.844910144805908,-12.464812278747559,-9.021950721740723
1484224142745,0.14903905987739563,-6.348824501037598,0.3734954595565796
1484224142926,-1.324592113494873,-9.223063468933105,-0.8319851160049438
1484224143107,-1.2419921159744263,-9.903017044067383,1.413776159286499
1484224143288,1.7944542169570923,-8.790311813354492,-1.094150185585022
1484224143469,-0.6165069341659546,-7.744045257568359,0.606930136680603
1484224143648,-1.7196353673934937,-7.387907981872559,7.359776020050049
1484224143828,1.2545616626739502,-11.053430557250977,2.2840683460235596
1484224144007,-3.5619735717773438,-12.175114631652832,-3.8504748344421387
1484224144188,-0.009576806798577309,-6.664858818054199,0.7715315222740173
1484224144368,-1.1522095203399658,-8.873510360717773,-1.1115081310272217
1484224144549,-1.944091796875,-9.495404243469238,-0.16101007163524628
1484224144732,1.4838064908981323,-9.225458145141602,0.48482584953308105
1484224144908,-0.13527239859104156,-8.025962829589844,-1.072602391242981
1484224145085,-2.0422539710998535,-7.665635108947754,4.595071792602539
1484224145269,1.5616180896759033,-2.8778305053710938,1.1941081285476685
1484224145450,-4.105457305908203,-12.951434135437012,-7.396886348724365
1484224145630,0.5548562407493591,-6.619967937469482,-0.33937808871269226
1484224145809,-1.3090298175811768,-9.719860076904297,0.11192893236875534
1484224145989,-1.0869675874710083,-9.774927139282227,-0.9911994934082031
1484224146171,1.1791443824768066,-10.02811336517334,0.7152677774429321
1484224146349,-4.069544315338135,-9.048286437988281,0.9846154451370239
1484224146530,-0.3728969097137451,-7.271190643310547,3.4853591918945313
1484224146711,-0.6649895310401917,-6.85100793838501,4.57112979888916
1484224146893,-1.5352818965911865,-12.563573837280273,-5.108029365539551
1484224147071,-1.0241197347640991,-8.44315242767334,-0.3196259140968323
1484224147251,-1.0091559886932373,-9.358335494995117,0.3770867586135864
1484224147430,-1.6406266689300537,-10.325592994689941,0.12270283699035645
1484224147612,0.9624691009521484,-9.367314338684082,-1.5280991792678833
1484224147792,-0.7948749661445618,-8.079233169555664,-1.0456676483154297
1484224147974,-1.4101848602294922,-7.531559944152832,4.9380412101745605
1484224148153,0.6584054827690125,-3.578134536743164,2.8113913536071777
1484224148331,-6.342838764190674,-19.5211238861084,-2.914341926574707
1484224148510,-0.4297592043876648,-8.416217803955078,-0.24779987335205078
1484224148692,-0.20949265360832214,-9.469666481018066,0.30945056676864624
1484224148872,-1.2258312702178955,-10.230423927307129,0.002394201699644327
1484224149054,1.183334231376648,-8.49402904510498,-0.025737667456269264
1484224149234,-2.5779566764831543,-8.072051048278809,1.613093376159668
1484224149413,-1.6543933153152466,-8.962095260620117,4.194641590118408
1484224149591,0.5602431893348694,-4.289212226867676,4.156333923339844
1484224149772,15.780183792114258,4.08510684967041,-2.0380642414093018
1484224149953,2.955641984939575,-8.141483306884766,0.6602011322975159
1484224150134,-0.46507367491722107,-10.036493301391602,1.0851719379425049
1484224150314,-0.47465047240257263,-9.6618013381958,0.47165772318840027
1484224150500,-2.6204538345336914,-11.348516464233398,-2.4199392795562744
1484224150673,-2.4241292476654053,-10.02811336517334,-2.318784236907959
1484224150856,-0.9768342971801758,-8.495824813842773,-0.39863458275794983
1484224151033,-2.0248961448669434,-8.095993041992188,6.541557788848877
1484224151215,1.194706678390503,-1.9105730056762695,1.2144588232040405
1484224151396,-3.5871126651763916,-14.445415496826172,-3.8923733234405518
1484224151577,-0.4213795065879822,-7.560290336608887,-0.3687070608139038
1484224151753,-1.7334020137786865,-9.348160743713379,-0.1107318252325058
1484224151934,-1.1336544752120972,-9.959280967712402,-1.5885528326034546
1484224152115,-3.1926679611206055,-13.120823860168457,-0.5285200476646423
1484224152296,-0.32381579279899597,-13.77204704284668,-3.4159271717071533
1484224152477,2.2613234519958496,-6.197391033172607,0.9738415479660034
1484224152656,-1.0845733880996704,-8.99740982055664,5.5760955810546875
1484224152837,-9.187150001525879,-19.608510971069336,8.661025047302246
1484224153015,0.01496376097202301,-9.542689323425293,-0.4159925580024719
1484224153195,-1.9494787454605103,-9.59835433959961,-2.0165164470672607
1484224153377,-2.1116859912872314,-9.649829864501953,-0.2041056901216507
1484224153557,-2.051830768585205,-13.01667594909668,0.8265981078147888
1484224153738,0.4141969084739685,-10.942100524902344,1.4107834100723267
1484224153915,0.8289923667907715,-7.897274494171143,1.0863690376281738
1484224154097,-1.6328455209732056,-10.38305377960205,5.528810501098633
1484224154277,-2.9915549755096436,-7.059902191162109,3.048417329788208
1484224154457,0.8242039084434509,-0.1628057211637497,-4.55496883392334
1484224154643,-3.690661907196045,-11.963826179504395,1.004966139793396
1484224154818,0.2454056739807129,-9.422380447387695,0.5195417404174805
1484224154998,-0.5273229479789734,-9.892242431640625,0.08259996026754379
1484224155178,-4.845265865325928,-12.92569637298584,-1.1976994276046753
1484224155358,1.0426748991012573,-10.821791648864746,3.068169593811035
1484224155539,1.3652935028076172,-6.998850345611572,0.37169981002807617
1484224155720,-0.9911994934082031,-8.825626373291016,3.31118106842041
1484224155899,-0.5608417391777039,-5.722740650177002,4.576516628265381
1484224156081,-0.45429977774620056,-13.245322227478027,-3.7666778564453125
1484224156259,-0.2819172441959381,-8.251616477966309,0.8906430602073669
1484224156439,-1.0618284940719604,-9.518148422241211,0.3034650683403015
1484224156620,-2.4127566814422607,-10.317214012145996,-1.227626919746399
1484224156800,1.2527660131454468,-8.834005355834961,1.0935516357421875
1484224156981,-2.800018787384033,-9.815628051757813,0.3489548861980438
1484224157161,0.39145198464393616,-7.753023624420166,4.544793605804443
1484224157341,0.3758896589279175,-5.115810394287109,6.138733386993408
1484224157519,8.299500465393066,4.892550945281982,-3.206434726715088
1484224157700,2.011728048324585,-10.34833812713623,0.29209262132644653
1484224157882,-0.43933600187301636,-9.361329078674316,0.181959331035614
1484224158062,-1.2677297592163086,-10.157999038696289,-0.4686649739742279
1484224158242,-2.5031378269195557,-12.312182426452637,0.7110779285430908
1484224158422,3.470993995666504,-12.550405502319336,1.1001356840133667
1484224158601,1.070208191871643,-4.67946720123291,1.521515130996704
1484224158781,-1.7866730690002441,-10.247781753540039,4.379593372344971
1484224158961,-6.493673324584961,-19.608510971069336,9.164405822753906
1484224159142,-2.123058319091797,-8.747814178466797,0.10354922711849213
1484224159324,-2.3965959548950195,-9.314641952514648,-1.632246971130371
1484224159503,-0.9750386476516724,-9.346364974975586,-1.43532395362854
1484224159682,-2.257133722305298,-14.226346969604492,2.582146644592285
1484224159862,2.298433542251587,-12.710816383361816,2.229600429534912
1484224160042,1.036689281463623,-6.330867767333984,1.899200439453125
1484224160222,-1.1079168319702148,-9.050082206726074,3.3500866889953613
1484224160404,0.9564836025238037,-12.027871131896973,6.221333026885986
1484224160584,-5.637746334075928,-13.536816596984863,-4.714183330535889
1484224160763,-1.9105730056762695,-7.706336498260498,-0.838569164276123
1484224160942,-1.1061211824417114,-9.103952407836914,-0.40282443165779114
1484224161122,-1.382651448249817,-11.413758277893066,-1.5077484846115112
1484224161303,0.9217676520347595,-8.872312545776367,1.7280150651931763
1484224161484,-3.2830491065979004,-12.45703125,-2.941276788711548
1484224161665,1.8285715579986572,-4.732738018035889,2.075174331665039
1484224161844,-0.2322375625371933,-7.872135162353516,5.796362400054932
1484224162024,11.520299911499023,1.9494787454605103,0.9816226959228516
1484224162204,-0.08918401598930359,-11.266514778137207,-0.23582886159420013
1484224162385,-0.1735796183347702,-9.762955665588379,0.10474632680416107
1484224162569,-1.347337007522583,-9.604340553283691,-0.9421183466911316
1484224162746,-3.089717388153076,-12.56536865234375,-0.5237316489219666
1484224162927,1.459265947341919,-11.697470664978027,-0.4668693244457245
1484224163104,0.6596025824546814,-7.154473304748535,-0.568622887134552
1484224163284,-0.9858125448226929,-7.261613845825195,1.6956933736801147
1484224163465,-1.6011223793029785,-7.53275728225708,4.244919776916504
1484224163646,-5.170278549194336,-14.987104415893555,-5.127182960510254
1484224163827,-2.646790027618408,-9.046490669250488,-0.22445641458034515
1484224164007,-0.38905778527259827,-9.1847562789917,0.23762452602386475
1484224164188,-2.0638017654418945,-10.698490142822266,0.5147533416748047
1484224164365,1.9590555429458618,-6.52719259262085,-0.619499683380127
1484224164547,-0.38905778527259827,-9.185953140258789,0.18375498056411743
1484224164735,-0.8206126093864441,-7.474099159240723,3.9917328357696533
1484224164908,-0.558447539806366,-6.8378400802612305,5.188833713531494
1484224165089,6.362590789794922,-6.375759124755859,5.616198539733887
1484224165268,-0.9498994946479797,-10.898406028747559,0.656609833240509
1484224165447,-0.5279214978218079,-9.454702377319336,0.9582792520523071
1484224165627,-0.6147112846374512,-9.66958236694336,-0.5327098965644836
1484224165809,-3.759495258331299,-13.840880393981934,-3.4566287994384766
1484224165989,1.1121066808700562,-13.376404762268066,1.3736732006072998
1484224166168,0.9840168952941895,-6.667253017425537,0.7679402232170105
1484224166348,-1.9961656332015991,-9.119514465332031,4.050989151000977
1484224166527,-2.011728048324585,-5.846042156219482,3.1459810733795166
1484224166709,-4.36343240737915,-13.512874603271484,-8.737639427185059
1484224166889,-2.714426279067993,-7.586028099060059,0.406415730714798
1484224167070,-1.127070426940918,-8.948927879333496,-0.13706804811954498
1484224167251,-2.409165382385254,-9.673172950744629,-0.5638344883918762
1484224167429,1.5233107805252075,-10.348937034606934,0.8547300100326538
1484224167608,-4.129399299621582,-11.802217483520508,2.0590133666992188
1484224167789,0.6661866307258606,-7.147889137268066,3.0322563648223877
1484224167969,0.6835445761680603,-7.731475830078125,6.746262073516846
1484224168150,0.9971849918365479,-7.538144111633301,7.65845251083374
1484224168331,1.4975731372833252,-6.7708024978637695,-1.3706804513931274
1484224168512,-1.8195933103561401,-10.40460205078125,0.6105214357376099
1484224168690,-1.0779893398284912,-8.857349395751953,-1.1294646263122559
1484224168870,-2.939481019973755,-11.1072998046875,-0.07900865375995636
1484224169052,3.3644518852233887,-7.660248279571533,0.3298012912273407
1484224169232,-0.44173020124435425,-8.993818283081055,-0.03950432687997818
1484224169414,-1.3569138050079346,-8.62630844116211,4.706401824951172
1484224169592,-0.1777694821357727,-3.909731388092041,3.2160115242004395
1484224169795,7.62373685836792,0.06883329898118973,2.403179883956909
1484224169950,-0.19452889263629913,-11.854290962219238,0.3711012601852417
1484224170132,0.4231751561164856,-9.117119789123535,2.823961019515991
1484224170313,-2.4791958332061768,-10.909778594970703,0.16579847037792206
1484224170493,-2.5300726890563965,-12.318167686462402,0.6739677786827087
1484224170671,-4.4041337966918945,-11.527482986450195,1.9877859354019165
1484224170851,0.8421604633331299,-7.522581577301025,3.4386723041534424
1484224171030,1.1552022695541382,-8.488043785095215,5.86699104309082
1484224171212,-4.07014274597168,-19.608510971069336,6.491279125213623
1484224171393,-2.582146644592285,-13.435661315917969,2.32297420501709
1484224171574,-1.237802267074585,-9.268553733825684,-2.3133974075317383
1484224171754,-2.0057425498962402,-8.306084632873535,-1.9889830350875854
1484224171934,-0.7128735780715942,-9.233837127685547,1.547252893447876
1484224172113,3.8516719341278076,-6.580463409423828,-0.8678981065750122
1484224172292,-0.21128830313682556,-9.84615421295166,-0.7050924301147461
1484224172473,-0.8194155097007751,-7.00124454498291,4.144961833953857
1484224172654,4.219182014465332,-7.164050102233887,2.8790276050567627
1484224172834,-2.3086090087890625,-11.716026306152344,-2.8137855529785156
1484224173016,-0.8559271097183228,-7.891887187957764,-0.30286651849746704
1484224173194,-1.4873977899551392,-9.496002197265625,-0.8271966576576233
1484224173373,-1.4401123523712158,-10.122086524963379,0.40043023228645325
1484224173555,0.7691373229026794,-6.940192222595215,-0.9085995554924011
1484224173735,-2.008136749267578,-9.763554573059082,-0.6506243348121643
1484224173917,-0.3214215636253357,-6.828861713409424,3.2166099548339844
1484224174096,-0.3944447338581085,-6.465541839599609,5.348646640777588
1484224174275,9.328408241271973,-0.2783259451389313,-0.08319851011037827
1484224174455,1.6268600225448608,-10.932523727416992,-1.3605051040649414
1484224174635,0.2693476974964142,-9.603741645812988,0.4297592043876648
1484224174816,-0.7350199222564697,-10.65479564666748,-0.21607670187950134
1484224174997,-2.1966800689697266,-11.701062202453613,-0.7924807667732239
1484224175188,2.212841033935547,-13.26866626739502,2.12485408782959
1484224175357,1.0336965322494507,-6.491878032684326,0.5105634927749634
1484224175537,-0.15921440720558167,-8.685564994812012,3.1238346099853516
1484224175717,0.2232593148946762,-9.162610054016113,5.8442463874816895
1484224175897,-5.040393352508545,-11.713033676147461,4.153939723968506
1484224176078,-0.6769605278968811,-6.603806972503662,-0.838569164276123
1484224176258,-1.7860745191574097,-9.044695854187012,-0.6009446382522583
1484224176439,-2.848501443862915,-10.72841739654541,-0.8954314589500427
1484224176617,2.143409013748169,-8.287528991699219,-0.061052143573760986
1484224176797,0.15921440720558167,-8.033743858337402,0.9062053561210632
1484224176978,-1.3251906633377075,-7.818864345550537,5.5329999923706055
1484224177159,-0.08918401598930359,-14.637550354003906,3.6571431159973145
1484224177339,-1.314416766166687,-9.725247383117676,-0.7990648150444031
1484224177519,-1.5221136808395386,-9.766547203063965,1.1905168294906616
1484224177699,-0.9062053561210632,-9.899425506591797,-0.5734112858772278
1484224177878,-3.1705214977264404,-11.659762382507324,0.8475474119186401
1484224178059,3.7439329624176025,-11.433509826660156,0.6889315247535706
1484224178246,1.5209165811538696,-5.620388507843018,1.7753005027770996
1484224178421,-1.723825216293335,-10.554239273071289,6.197391033172607
1484224178600,-10.67634391784668,-19.608510971069336,9.335591316223145
1484224178781,-6.247070789337158,-12.725181579589844,-0.9487023949623108
1484224178959,-2.5127146244049072,-9.903017044067383,0.05686229094862938
1484224179140,-1.8555063009262085,-9.047089576721191,-0.17058686912059784
1484224179321,0.3687070608139038,-8.36953067779541,1.2599486112594604
1484224179502,-2.4827871322631836,-10.245985984802246,-3.2423477172851563
1484224179683,-0.09038111567497253,-7.662642478942871,3.8935704231262207
1484224179861,0.646434485912323,-7.789535045623779,3.934272050857544
1484224180039,-1.0761936902999878,-9.692925453186035,6.858190536499023
1484224180221,1.7028759717941284,-6.782175064086914,-0.8942343592643738
1484224180403,-0.9217676520347595,-9.838373184204102,1.3910311460494995
1484224180583,-2.0877439975738525,-9.130887031555176,-1.3024457693099976
1484224180758,-2.4845829010009766,-12.291831970214844,-0.46507367491722107
1484224180938,2.115875720977783,-13.341090202331543,1.985990285873413
1484224181118,0.4537012279033661,-5.530605792999268,1.1540051698684692
1484224181302,-2.919130325317383,-16.909648895263672,7.782352447509766
1484224181483,8.912415504455566,-1.611896276473999,0.882861852645874
1484224181664,-0.4141969084739685,-10.805032730102539,1.0133458375930786
1484224181843,-0.8212111592292786,-9.472060203552246,0.5315127968788147
1484224182019,-2.1314380168914795,-10.448894500732422,-0.395043283700943
1484224182199,0.23044191300868988,-9.45410442352295,0.262763649225235
1484224182382,-2.633023262023926,-8.89565658569336,3.2345664501190186
1484224182564,-0.4985924959182739,-7.942165374755859,4.423886299133301
1484224182743,1.20368492603302,-6.327276706695557,7.128735542297363
1484224182921,3.0974984169006348,-1.1085153818130493,-3.0160956382751465
1484224183104,-1.346139907836914,-10.735001564025879,-0.10055647045373917
1484224183282,-2.5462334156036377,-10.062829971313477,-0.5973533391952515
1484224183463,-0.314238965511322,-10.220248222351074,-0.8349778652191162
1484224183644,-3.825335741043091,-12.449849128723145,-0.22026655077934265
1484224183824,2.5941176414489746,-13.301586151123047,-0.1454477459192276
1484224184006,0.9313444495201111,-5.529408931732178,1.3407529592514038
1484224184185,-1.1210849285125732,-9.810839653015137,6.287772178649902
1484224184363,-0.8391677141189575,-2.0901381969451904,-0.20949265360832214
1484224184544,-2.778470993041992,-12.288240432739258,-1.6496049165725708
1484224184725,-1.899200439453125,-10.14782428741455,1.0199298858642578
1484224184902,-0.7559691667556763,-8.67479133605957,-0.37229835987091064
1484224185087,-3.575740337371826,-11.957242012023926,-0.6015431880950928
1484224185267,2.2834699153900146,-11.39400577545166,-0.6093243360519409
1484224185445,1.080383539199829,-7.379528045654297,1.2617442607879639
1484224185625,-1.6777368783950806,-9.407417297363281,6.884527206420898
1484224185803,-1.459265947341919,-7.049128532409668,2.139817714691162
1484224185989,-7.992444038391113,-15.889119148254395,-7.717709064483643
1484224186167,-0.3734954595565796,-7.7631988525390625,0.40222588181495667
1484224186347,-0.7015010714530945,-9.642647743225098,-0.7643488645553589
1484224186526,-1.6196774244308472,-10.404003143310547,0.05506663769483566
1484224186706,1.0444705486297607,-7.805097579956055,0.547075092792511
1484224186888,-0.4902127981185913,-8.00561237335205,0.2346317619085312
1484224187068,-0.6590040326118469,-6.423044681549072,3.558382272720337
1484224187249,3.207033157348633,-3.7199909687042236,2.692279815673828
1484224187429,-5.456984043121338,-14.780604362487793,-3.671508312225342
1484224187607,-1.0977414846420288,-7.693767070770264,-0.5614402890205383
1484224187788,-0.6147112846374512,-9.645041465759277,-0.3866635859012604
1484224187968,-1.6675615310668945,-10.102932929992676,-1.7160440683364868
1484224188149,0.6386532783508301,-10.133459091186523,0.8672995567321777
1484224188329,-3.4165258407592773,-10.955866813659668,2.05123233795166
1484224188509,-0.4165911078453064,-5.834071159362793,2.346317768096924
1484224188689,3.3901896476745605,-2.322375535964966,5.293580055236816
1484224188869,-4.574720859527588,-13.396157264709473,-3.800196647644043
1484224189050,-0.4704606235027313,-8.117541313171387,-0.7493851184844971
1484224189230,-0.13946224749088287,-9.48882007598877,0.25019407272338867
1484224189408,-1.3946224451065063,-9.766547203063965,-0.6033388376235962
1484224189591,1.1222820281982422,-8.29471206665039,0.0071826050989329815
1484224189771,-0.9774328470230103,-7.557896137237549,-0.3447650372982025
1484224189947,-1.0103530883789063,-6.706757545471191,4.1641154289245605
1484224190130,4.789600372314453,-1.821987509727478,3.6308069229125977
1484224190311,-7.289745807647705,-16.378734588623047,-3.928286552429199
1484224190492,0.9816226959228516,-8.106168746948242,0.24480712413787842
1484224190670,-0.18315643072128296,-9.532513618469238,1.4616601467132568
1484224190852,-2.831143617630005,-12.500725746154785,-1.2012907266616821
1484224191030,2.9724013805389404,-10.269330024719238,-0.09457096457481384
1484224191212,0.3124433159828186,-7.632116317749023,0.44173020124435425
1484224191392,-1.0989385843276978,-8.529942512512207,5.185242176055908
1484224191573,-1.2779051065444946,-7.494450092315674,0.43754035234451294
1484224191753,-5.8873419761657715,-16.03636360168457,-12.522871971130371
1484224191932,-0.5877765417098999,-7.355586051940918,-1.4449007511138916
1484224192110,-1.1917139291763306,-9.153631210327148,0.002992752008140087
1484224192292,-6.066308498382568,-14.695011138916016,-2.0422539710998535
1484224192472,0.11911153793334961,-12.67550277709961,0.36990416049957275
1484224192654,0.304063618183136,-7.994239330291748,2.298433542251587
1484224192834,-0.5249287486076355,-8.292317390441895,3.931877851486206
1484224193011,-0.9289502501487732,-19.34455108642578,4.699818134307861
1484224193191,-3.4338839054107666,-9.911994934082031,1.304241418838501
1484224193372,-0.5398924946784973,-6.709750175476074,-1.5394717454910278
1484224193551,-1.0863690376281738,-8.303091049194336,-1.4838064908981323
1484224193738,-3.7816414833068848,-11.796830177307129,-0.6607996821403503
1484224193914,2.3331496715545654,-11.149797439575195,0.3363853394985199
1484224194094,0.061052143573760986,-7.537545680999756,0.4991910457611084
1484224194274,-1.3395558595657349,-8.116942405700684,7.043142795562744
1484224194452,0.5776011347770691,-17.684171676635742,4.8033671379089355
1484224194633,-6.879738807678223,-15.91425895690918,-3.030460834503174
1484224194815,-2.4235305786132813,-8.898050308227539,0.52552729845047
1484224195008,-2.1583728790283203,-8.792705535888672,-0.9816226959228516
1484224195177,-1.4227544069290161,-10.51174259185791,0.9882067441940308
1484224195355,0.9169792532920837,-9.46607494354248,-1.3090298175811768
1484224195533,-0.8122329115867615,-7.020996570587158,0.15083470940589905
1484224195715,-0.12988543510437012,-7.769184589385986,6.404489517211914
1484224195896,3.026270866394043,-6.710947513580322,2.6623523235321045
1484224196077,-7.159860134124756,-18.196531295776367,-6.84981107711792
1484224196257,-1.6687586307525635,-8.735843658447266,-0.08259996026754379
1484224196436,-1.0965443849563599,-9.012971878051758,-0.14664486050605774
1484224196615,-0.900818407535553,-10.017339706420898,0.20231004059314728
1484224196796,-0.23942017555236816,-8.146271705627441,-0.004189853090792894
1484224196978,-1.591545581817627,-8.71489429473877,0.8451532125473022
1484224197158,-0.39863458275794983,-8.013991355895996,3.4356794357299805
1484224197338,0.3998316824436188,-3.4638113975524902,5.925649166107178
1484224197518,8.930971145629883,-3.664924144744873,4.760869979858398
1484224197696,-2.250549554824829,-12.548609733581543,2.6156654357910156
1484224197878,-0.41718965768814087,-9.552865028381348,1.7896658182144165
1484224198058,-0.4620809257030487,-9.873687744140625,-0.2968810200691223
1484224198239,-1.9853917360305786,-12.40735149383545,1.3724761009216309
1484224198418,1.6687586307525635,-12.938265800476074,2.2403743267059326
1484224198598,0.9014169573783875,-5.746682643890381,2.609081268310547
1484224198776,-0.29628247022628784,-9.913790702819824,3.5667619705200195
1484224198958,-1.1659762859344482,-19.608510971069336,7.101800918579102
1484224199137,-0.8984242081642151,-9.015965461730957,-0.8756792545318604
1484224199319,-2.2002713680267334,-9.568427085876465,-0.17477671802043915
1484224199499,-2.058414936065674,-9.461286544799805,-2.0248961448669434
1484224199678,-3.88818359375,-13.207015037536621,-1.184531331062317
1484224199858,2.1799206733703613,-13.393762588500977,1.6873136758804321
1484224200038,0.8355764150619507,-4.415506362915039,0.6757634282112122
1484224200221,-0.7763199210166931,-9.836577415466309,3.41951847076416
1484224200400,-3.5631706714630127,-19.50316619873047,10.035895347595215
1484224200581,-3.1962592601776123,-9.386467933654785,-0.07003039866685867
1484224200761,-1.5065513849258423,-7.250241279602051,-1.5071499347686768
1484224200941,-2.029684543609619,-9.264962196350098,-0.1777694821357727
1484224201119,-4.148552894592285,-13.42668342590332,0.2777273952960968
1484224201301,2.23199462890625,-13.700221061706543,0.5273229479789734
1484224201482,1.1797429323196411,-5.185841083526611,1.4730325937271118
1484224201663,-2.3032219409942627,-14.859612464904785,7.083844184875488
1484224201842,-12.817956924438477,-19.608510971069336,5.245696067810059
1484224202021,-2.8353333473205566,-10.740987777709961,-0.8846575021743774
1484224202199,-3.4811692237854004,-9.847949981689453,-0.6745663285255432
1484224202382,-1.7202339172363281,-9.134477615356445,-1.614290475845337
1484224202570,-4.32871675491333,-13.216591835021973,-1.6023194789886475
1484224202742,0.9894038438796997,-11.7046537399292,0.5662286877632141
1484224202922,-0.1843535304069519,-7.161655902862549,0.5093663930892944
1484224203102,-1.9333178997039795,-8.232462882995605,4.431667327880859
1484224203283,1.224035620689392,-7.997232437133789,3.7451300621032715
1484224203464,-8.300697326660156,-13.317747116088867,-3.139995574951172
1484224203643,-1.2180501222610474,-7.428609371185303,-0.535702645778656
1484224203822,-1.1941081285476685,-9.410409927368164,-0.7841010689735413
1484224204003,-2.315791606903076,-9.922768592834473,-1.3623007535934448
1484224204184,-1.4460978507995605,-9.477447509765625,-2.1272482872009277
1484224204363,-0.3495534360408783,-7.7631988525390625,-0.9403226971626282
1484224204542,-1.9051860570907593,-9.39784049987793,8.465298652648926
1484224204722,3.418321371078491,-16.079458236694336,2.8401217460632324
1484224204919,-1.8770540952682495,-8.464699745178223,-1.1546037197113037
1484224205081,-1.4520833492279053,-7.637503623962402,-1.8860323429107666
1484224205263,-1.4131776094436646,-8.763975143432617,-1.5412673950195313
1484224205442,-3.2166099548339844,-12.31637191772461,-0.3208230137825012
1484224205624,1.4778209924697876,-11.083956718444824,-1.460463047027588
1484224205803,-0.629675030708313,-7.944559574127197,1.125873327255249
1484224205987,-0.7044938206672668,-7.81108283996582,6.0435638427734375
1484224206163,1.20368492603302,-16.78514862060547,3.600879430770874
1484224206344,-3.0807390213012695,-8.387487411499023,-1.138442873954773
1484224206527,-0.6506243348121643,-7.8080902099609375,0.5548562407493591
1484224206707,-1.6208745241165161,-9.188347816467285,-0.9923965930938721
1484224206885,-2.8598740100860596,-12.191873550415039,-0.0999579206109047
1484224207066,0.8176198601722717,-11.425130844116211,-0.3842693865299225
1484224207247,0.6446388363838196,-6.522404193878174,1.0295066833496094
1484224207427,-1.5819687843322754,-8.431180953979492,5.901108741760254
1484224207606,2.5546131134033203,-12.541426658630371,3.954622745513916
1484224207787,-4.761468410491943,-10.030508041381836,-0.4423287510871887
1484224207968,-1.3533225059509277,-7.466916561126709,-0.7134721279144287
1484224208147,-1.0001777410507202,-8.94533634185791,-0.16220717132091522
1484224208327,-3.4757823944091797,-12.771868705749512,-0.5021837949752808
1484224208507,2.6348190307617188,-10.909778594970703,0.1801636815071106
1484224208687,0.7942764163017273,-6.208165168762207,1.5646108388900757
1484224208868,-0.5734112858772278,-7.2113356590271,5.472546577453613
1484224209047,0.0017956512747332454,-19.203292846679688,4.657320976257324
1484224209227,-0.9612720012664795,-8.393472671508789,-0.6596025824546814
1484224209407,-1.1336544752120972,-8.728660583496094,-1.0582371950149536
1484224209589,-1.3251906633377075,-8.638279914855957,-0.11851298063993454
1484224209769,-1.6603789329528809,-9.639056205749512,1.4449007511138916
1484224209991,0.008379706181585789,-9.93474006652832,-0.5015852451324463
1484224210128,-0.11671733111143112,-7.457938194274902,0.15562310814857483
1484224210310,-1.9650410413742065,-8.637083053588867,8.255207061767578
1484224210489,3.4590229988098145,-12.831125259399414,4.013280391693115
1484224210669,-4.596867084503174,-9.54209041595459,-0.27234044671058655
1484224210849,-0.42018240690231323,-7.560888767242432,0.383670836687088
1484224211030,-0.7164648771286011,-8.969278335571289,-1.3150153160095215
1484224211211,-3.3069911003112793,-11.866262435913086,-1.6478092670440674
1484224211391,2.5977089405059814,-10.957662582397461,0.1951274424791336
1484224211568,0.48063600063323975,-6.221333026885986,0.47824180126190186
1484224211750,0.5009866952896118,-7.453149795532227,6.200982570648193
1484224211931,-0.2783259451389313,-11.954249382019043,7.596203327178955
1484224212111,-7.436390399932861,-12.182296752929688,0.04369417950510979
1484224212289,-1.7375918626785278,-7.387309551239014,-1.4012064933776855
1484224212471,-0.8972271084785461,-9.426570892333984,-0.4884171485900879
1484224212652,-2.6186580657958984,-10.903793334960938,-0.5261258482933044
1484224212834,2.278681516647339,-11.310209274291992,-0.6260837316513062
1484224213012,1.1312602758407593,-7.433996200561523,-0.12210428714752197
1484224213191,-0.5596446394920349,-6.703764915466309,5.12000036239624
1484224213372,0.9810241460800171,-5.6634840965271,3.73016619682312
1484224213553,-3.7606923580169678,-17.323246002197266,-3.1286230087280273
1484224213733,-0.49978959560394287,-8.790311813354492,1.5233107805252075
1484224213910,-1.0576386451721191,-9.543288230895996,0.20889410376548767
1484224214092,-1.260547161102295,-9.827000617980957,-0.3974374830722809
1484224214274,-0.8553285598754883,-11.091139793395996,2.5079262256622314
1484224214454,-0.7751228213310242,-12.53065299987793,-2.254140853881836
1484224214632,2.44747257232666,-6.9461774826049805,1.820790410041809
1484224214812,-0.5620388388633728,-9.615114212036133,3.8295257091522217
1484224214993,-4.598064422607422,-19.608510971069336,6.889914035797119
1484224215174,-0.6482301354408264,-9.065644264221191,-1.1994950771331787
1484224215353,-1.5322890281677246,-8.812458038330078,-1.8351556062698364
1484224215532,-1.669357180595398,-8.903437614440918,-1.4131776094436646
1484224215713,-5.067327976226807,-13.65951919555664,-0.9421183466911316
1484224215893,-0.04189852997660637,-13.892354965209961,0.08379705995321274
1484224216076,1.723825216293335,-5.789778232574463,1.1546037197113037
1484224216253,0.13347674906253815,-8.3306245803833,4.210203647613525
1484224216434,-4.392761707305908,-19.608510971069336,6.127959251403809
1484224216614,-1.1725603342056274,-9.4822359085083,-1.8076223134994507
1484224216796,-1.902193307876587,-9.594164848327637,0.4967968463897705
1484224216974,-1.1917139291763306,-9.221267700195313,-0.8517372608184814
1484224217154,-2.7467479705810547,-10.120290756225586,-0.24899697303771973
1484224217335,0.9080010056495667,-8.869918823242188,-0.8990227580070496
1484224217517,0.13587094843387604,-7.7631988525390625,0.15682020783424377
1484224217697,-1.7782933712005615,-8.11514663696289,6.709151744842529
1484224217873,0.9409212470054626,-3.824737310409546,1.0187327861785889
1484224218054,-2.386420488357544,-12.814964294433594,0.46088382601737976
1484224218237,0.14664486050605774,-9.740809440612793,0.15562310814857483
1484224218417,-0.3357867896556854,-9.846753120422363,1.7711106538772583
1484224218596,-1.0582371950149536,-10.155006408691406,0.33279404044151306
1484224218776,1.9003976583480835,-9.39784049987793,0.5662286877632141
1484224218958,-2.5695769786834717,-8.452729225158691,0.4465186297893524
1484224219137,-0.9798270463943481,-8.620323181152344,3.247734546661377
1484224219317,-0.32620999217033386,-7.644087314605713,6.86716890335083
1484224219497,9.559449195861816,4.197035789489746,-4.415506362915039
1484224219678,-0.9684545993804932,-11.202469825744629,0.823006808757782
1484224219858,-1.446696400642395,-9.53849983215332,-0.053270988166332245
1484224220038,-2.5534160137176514,-11.064803123474121,-0.7428010702133179
1484224220217,-1.3527239561080933,-12.176311492919922,1.113303780555725
1484224220399,-3.377619981765747,-10.854711532592773,-1.7196353673934937
1484224220578,0.4578910768032074,-8.813055992126465,3.599083662033081
1484224220758,-1.316810965538025,-7.982867240905762,5.566518783569336
1484224220938,2.161365509033203,-5.2672438621521,2.737769603729248
1484224221119,-3.3189620971679688,-11.764508247375488,0.41958385705947876
1484224221300,-2.6426000595092773,-9.68933391571045,0.07541735470294952
1484224221481,-0.07541735470294952,-9.519944190979004,-0.7745242714881897
1484224221657,-3.026270866394043,-12.904149055480957,-0.5273229479789734
1484224221840,-0.39564183354377747,-13.707403182983398,1.9818004369735718
1484224222020,1.1558008193969727,-6.444592475891113,1.2892776727676392
1484224222201,-1.1318588256835938,-9.496601104736328,3.4596214294433594
1484224222381,-0.7613561153411865,-15.078681945800781,5.564723491668701
1484224222559,-2.824559450149536,-10.116100311279297,-1.5622166395187378
1484224222741,-1.1426327228546143,-7.12693977355957,0.3968389332294464
1484224222923,-1.701080322265625,-9.024943351745605,0.1909375786781311
1484224223101,-2.160168409347534,-10.080187797546387,-2.050633668899536
1484224223280,-1.2449848651885986,-10.38305377960205,0.33698388934135437
1484224223462,-1.9596540927886963,-8.564658164978027,-1.6651673316955566
1484224223643,-0.08439560979604721,-6.6379241943359375,3.9636008739471436
1484224223822,0.6045359373092651,-6.673238754272461,5.996278285980225
1484224224000,5.507262229919434,3.9223008155822754,-7.344213485717773
1484224224182,-2.934094190597534,-9.349357604980469,1.083974838256836
1484224224363,-1.5466543436050415,-10.421361923217773,0.04728548228740692
1484224224543,-1.945288896560669,-9.693524360656738,0.33099839091300964
1484224224722,-4.990713596343994,-12.682684898376465,0.6997054219245911
1484224224902,-4.824316501617432,-13.341689109802246,2.3953988552093506
1484224225083,2.83174204826355,-5.998073577880859,1.3766659498214722
1484224225264,-2.0685901641845703,-9.773131370544434,3.886387825012207
1484224225443,-5.3576250076293945,-19.211074829101563,7.419631004333496
1484224225622,-5.03021764755249,-10.650606155395508,2.208052635192871
1484224225803,-1.7782933712005615,-9.955090522766113,1.731606364250183
1484224225984,-0.7876923680305481,-9.297284126281738,-1.4544775485992432
1484224226163,-4.125808238983154,-12.443264961242676,-2.2445640563964844
1484224226342,1.7824832201004028,-11.55980396270752,0.5404910445213318
1484224226522,0.1041477769613266,-6.753444671630859,0.004189853090792894
1484224226704,-1.9889830350875854,-10.730213165283203,4.134786128997803
1484224226883,-3.1286230087280273,-18.034324645996094,8.425195693969727
1484224227064,-3.0597896575927734,-10.532093048095703,0.2519897222518921
1484224227242,-1.7735048532485962,-8.391077995300293,-2.0225019454956055
1484224227424,-1.9159599542617798,-8.99621295928955,-1.5059528350830078
1484224227606,-4.469974517822266,-12.880805015563965,-2.050633668899536
1484224227787,1.4347254037857056,-12.09311294555664,1.2892776727676392
1484224227963,0.37409400939941406,-6.436811447143555,-0.25258827209472656
1484224228144,0.22864626348018646,-6.24467658996582,4.239532470703125
1484224228328,1.9800047874450684,-9.716269493103027,4.822520732879639
1484224228507,-4.55616569519043,-13.238738059997559,-1.9788076877593994
1484224228685,-0.6105214357376099,-7.983465671539307,-1.5442601442337036
1484224228868,-0.9534908533096313,-9.105149269104004,0.05686229094862938
1484224229047,-2.848501443862915,-10.78468132019043,-0.35015198588371277
1484224229227,-1.013944387435913,-8.277952194213867,-1.3096283674240112
1484224229407,-1.2521674633026123,-8.528146743774414,0.23044191300868988
1484224229587,-2.076371431350708,-9.07222843170166,6.0190229415893555
1484224229768,0.37469255924224854,-4.777629375457764,4.9619832038879395
1484224229949,1.062427043914795,-10.745776176452637,-3.180696964263916
1484224230128,-0.2621650993824005,-8.40185260772705,0.26336219906806946
1484224230306,-1.2988544702529907,-9.026140213012695,-0.6727706789970398
1484224230488,-2.43011474609375,-9.908403396606445,0.4537012279033661
1484224230668,1.3832499980926514,-9.133280754089355,0.08140286058187485
1484224230848,-0.9900023937225342,-8.138489723205566,-1.6280571222305298
1484224231028,-0.6572083830833435,-7.555501937866211,3.4799721240997314
1484224231208,1.8567034006118774,-3.907337188720703,4.901529312133789
1484224231389,4.028244495391846,-5.768230438232422,2.3068132400512695
1484224231569,-1.0696096420288086,-9.860519409179688,-0.5770025849342346
1484224231748,-0.39564183354377747,-9.667187690734863,1.146224021911621
1484224231929,-1.5825673341751099,-10.050260543823242,-0.5129576921463013
1484224232110,-3.6086604595184326,-12.773066520690918,1.3299790620803833
1484224232289,-1.702277421951294,-13.178284645080566,-4.1874589920043945
1484224232469,1.9345149993896484,-7.247847080230713,2.871845006942749
1484224232649,-2.52109432220459,-9.98681354522705,3.77565598487854
1484224232830,0.8086416125297546,-10.691905975341797,6.114790916442871
1484224233008,-2.449866771697998,-11.051634788513184,0.8702923059463501
1484224233191,-1.3539210557937622,-8.418013572692871,-2.31758713722229
1484224233368,-1.5304933786392212,-8.951920509338379,-2.810194253921509
1484224233550,-1.9309237003326416,-9.652822494506836,0.4381389021873474
1484224233732,2.3989901542663574,-10.119691848754883,0.7475894689559937
1484224233911,-0.4513070285320282,-7.753023624420166,0.3824737071990967
1484224234089,-0.9762357473373413,-6.774393558502197,5.045780181884766
1484224234271,3.158550500869751,-8.738836288452148,3.400364875793457
1484224234452,-2.36188006401062,-11.468226432800293,-2.0877439975738525
1484224234634,-0.7248445749282837,-7.952939510345459,-1.43532395362854
1484224234811,-1.5693992376327515,-8.712499618530273,-0.6763619780540466
1484224234988,-3.089717388153076,-10.440515518188477,-0.30466216802597046
1484224235172,0.9528923034667969,-7.4555439949035645,-1.173158884048462
1484224235353,-1.2425906658172607,-8.015189170837402,-1.8363527059555054
1484224235533,-0.25498247146606445,-8.6089506149292,5.099050998687744
1484224235710,0.14844051003456116,-7.647080421447754,5.846042156219482
1484224235892,4.7818193435668945,-5.598840713500977,0.9271546006202698
1484224236073,-0.6613982319831848,-10.526107788085938,-0.7134721279144287
1484224236253,-0.49799394607543945,-9.836577415466309,0.35673606395721436
1484224236432,-1.7058687210083008,-10.177152633666992,-0.45848962664604187
1484224236612,-4.914099216461182,-12.550405502319336,-0.090979665517807
1484224236793,-2.3756465911865234,-15.070900917053223,-5.5778913497924805
1484224236974,1.6047136783599854,-7.223306655883789,1.1875240802764893
1484224237153,-0.7817068696022034,-8.23006820678711,4.765658378601074
1484224237332,-6.889315605163574,-19.60671615600586,7.246650218963623
1484224237513,-3.140594005584717,-14.070723533630371,-4.098873138427734
1484224237693,-1.6400281190872192,-9.555258750915527,0.2454056739807129
1484224237876,-1.0552444458007813,-8.970475196838379,-1.7585411071777344
1484224238053,-2.4432828426361084,-12.541426658630371,0.5380968451499939
1484224238232,1.3060370683670044,-13.35425853729248,4.686051368713379
1484224238414,1.602918028831482,-6.49906063079834,0.5135562419891357
1484224238596,-1.2527660131454468,-8.769960403442383,3.8821980953216553
1484224238774,-2.7533318996429443,-15.402498245239258,6.229114055633545
1484224238954,0.5321113467216492,-8.37192440032959,-0.9900023937225342
1484224239135,-1.5867571830749512,-9.768941879272461,-0.1256955862045288
1484224239317,-1.1755530834197998,-8.687360763549805,-1.9458874464035034
1484224239496,-3.5386300086975098,-12.995128631591797,-0.48243165016174316
1484224239674,0.667982280254364,-12.137405395507813,1.1558008193969727
1484224239856,0.14006079733371735,-5.990890979766846,0.9235633015632629
1484224240034,-2.738966703414917,-10.932523727416992,5.770026206970215
1484224240216,-4.263474464416504,-14.784195899963379,5.600037574768066
1484224240394,-1.6190788745880127,-11.889605522155762,-1.6484078168869019
1484224240576,-1.677138328552246,-10.092757225036621,0.0071826050989329815
1484224240758,-1.6867151260375977,-8.971074104309082,-0.5829881429672241
1484224240938,-1.3694833517074585,-12.679093360900879,-1.382651448249817
1484224241117,0.4231751561164856,-10.782885551452637,-0.7870938181877136
1484224241297,0.30885201692581177,-7.161057472229004,1.080383539199829
1484224241478,-2.1996726989746094,-8.326435089111328,4.705204963684082
1484224241658,1.8327614068984985,-6.055534839630127,3.3913867473602295
1484224241838,-7.644686222076416,-14.436437606811523,-4.073135852813721
1484224242017,-1.4856021404266357,-8.216899871826172,-0.5021837949752808
1484224242195,-1.324592113494873,-9.643844604492188,-0.3477577865123749
1484224242375,-2.013523578643799,-10.164583206176758,0.17836803197860718
1484224242558,2.2014684677124023,-7.819462776184082,-0.1496376097202301
1484224242738,-0.28311434388160706,-8.20612621307373,-0.23343466222286224
1484224242919,-1.856104850769043,-8.837596893310547,6.608595371246338
1484224243099,-0.01975216343998909,-3.6816837787628174,2.2224178314208984
1484224243276,7.681796073913574,2.09672212600708,0.46148237586021423
1484224243459,1.5101426839828491,-11.479598999023438,0.5871779918670654
1484224243638,-0.4231751561164856,-9.847949981689453,0.6572083830833435
1484224243820,-1.3664906024932861,-10.573991775512695,0.05147533491253853
1484224244002,-4.5854949951171875,-12.312182426452637,0.03651157766580582
1484224244181,-0.8242039084434509,-14.881759643554688,-7.422623634338379
1484224244358,1.4383167028427124,-6.100425720214844,1.1061211824417114
1484224244541,-0.497395396232605,-9.555258750915527,5.187037944793701
1484224244722,-4.284423828125,-19.607913970947266,7.06528902053833
1484224244902,-2.184709072113037,-10.918158531188965,-2.015319347381592
1484224245079,-0.7565677165985107,-9.630077362060547,0.05267243832349777
1484224245261,-1.725022315979004,-9.123703956604004,-0.8864531517028809
1484224245441,-5.279813289642334,-11.760917663574219,-2.1272482872009277
1484224245622,2.3331496715545654,-13.50269889831543,0.9241618514060974
1484224245801,1.6352397203445435,-5.075109004974365,1.2437877655029297
1484224245982,-0.6320692300796509,-9.534309387207031,3.936666250228882
1484224246163,-0.30466216802597046,-10.969035148620605,6.076483726501465
1484224246340,-4.123414039611816,-12.324152946472168,1.513733983039856
1484224246523,-0.730231523513794,-9.264962196350098,-0.9097966551780701
1484224246703,-2.0488381385803223,-10.512939453125,-0.3968389332294464
1484224246880,-2.873640537261963,-12.007519721984863,0.6314706802368164
1484224247061,0.23403321206569672,-11.007941246032715,2.431910276412964
1484224247243,1.0031704902648926,-5.847837448120117,0.6757634282112122
1484224247424,-0.32680854201316833,-8.844181060791016,3.6721067428588867
1484224247603,-1.5029600858688354,-17.052701950073242,6.298546314239502
1484224247782,-3.4326868057250977,-9.747992515563965,1.290474772453308
1484224247963,-0.12689268589019775,-7.003039836883545,-0.8523358106613159
1484224248143,-1.0660183429718018,-9.30925464630127,-0.09696517139673233
1484224248323,-3.4159271717071533,-10.283695220947266,-1.5143325328826904
1484224248504,-1.5047557353973389,-9.62947940826416,0.6805518269538879
1484224248683,-1.003769040107727,-8.503006935119629,-0.8313865661621094
1484224248863,-1.092953085899353,-7.890091896057129,4.720767021179199
1484224249045,1.6160861253738403,-4.6489410400390625,5.727529048919678
1484224249227,-3.646967649459839,-12.525266647338867,-5.308543682098389
1484224249404,0.1496376097202301,-7.234679222106934,0.8050503134727478
1484224249583,0.20709845423698425,-9.384672164916992,0.39624038338661194
1484224249765,-2.3517045974731445,-9.086593627929688,-1.9578584432601929
1484224249947,0.03651157766580582,-8.079233169555664,0.4967968463897705
1484224250127,-0.3687070608139038,-8.620323181152344,-0.16400282084941864
1484224250307,-0.5644330382347107,-5.565321922302246,3.356072187423706
1484224250485,4.041412353515625,-4.802170276641846,5.006874084472656
1484224250667,-2.9023709297180176,-10.617087364196777,-3.595492362976074
1484224250847,-0.1041477769613266,-8.130110740661621,-1.3066356182098389
1484224251025,-1.083974838256836,-10.074800491333008,0.3621230125427246
1484224251210,-2.366069793701172,-10.424354553222656,-0.7978677153587341
1484224251387,0.020350715145468712,-11.176732063293457,1.2234370708465576
1484224251567,-3.5021185874938965,-10.31242561340332,0.5554547905921936
1484224251747,0.6554127335548401,-6.21115779876709,3.267486810684204
1484224251926,0.750582218170166,-5.901108741760254,5.198410511016846
1484224252107,1.3150153160095215,-11.477803230285645,-2.0404584407806396
1484224252289,-2.126051187515259,-8.692748069763184,-1.0720038414001465
1484224252468,-1.0809820890426636,-9.720458984375,-0.7134721279144287
1484224252648,-1.468244194984436,-9.758167266845703,-0.8110358119010925
1484224252826,1.224035620689392,-9.966463088989258,2.2487540245056152
1484224253008,-2.0937294960021973,-10.666767120361328,1.8716671466827393
1484224253185,0.13706804811954498,-4.99550199508667,2.214038133621216
1484224253369,3.7654807567596436,-3.1214404106140137,5.587468147277832
1484224253548,-4.973954200744629,-11.376049041748047,-4.219780445098877
1484224253728,-0.07721300423145294,-7.775169849395752,-0.06404489278793335
1484224253909,-1.3557167053222656,-9.86770248413086,0.645237386226654
1484224254095,-2.1505916118621826,-10.104728698730469,-0.8391677141189575
1484224254268,-2.0195090770721436,-9.747393608093262,-0.4842272996902466
1484224254448,-2.0057425498962402,-8.636484146118164,-0.7769184708595276
1484224254630,-0.5656301379203796,-8.750208854675293,4.835090160369873
1484224254811,0.518943190574646,-7.550713539123535,7.6075758934021
1484224254991,7.404068946838379,-1.9823989868164063,-1.1641805171966553
1484224255171,0.061052143573760986,-10.957063674926758,0.5770025849342346
1484224255349,-1.7836803197860718,-9.605537414550781,-0.18794482946395874
1484224255531,-1.3605051040649414,-9.965864181518555,-0.9804255962371826
1484224255712,-2.005143880844116,-11.459247589111328,2.6641478538513184
1484224255892,-3.4829649925231934,-12.839505195617676,1.514931082725525
1484224256071,1.3640964031219482,-4.346673011779785,2.2379801273345947
1484224256250,0.829590916633606,-8.826224327087402,5.503072738647461
1484224256432,4.917690277099609,-6.722918510437012,2.4618380069732666
1484224256613,-0.5716156363487244,-10.354323387145996,-0.882861852645874
1484224256792,-0.6189011335372925,-9.93474006652832,0.3561375141143799
1484224256971,-1.8680758476257324,-10.217255592346191,-1.037886381149292
1484224257152,-0.6087257862091064,-10.548852920532227,2.3535003662109375
1484224257332,-4.144961833953857,-10.80203914642334,3.7056257724761963
1484224257513,1.9039889574050903,-5.585073947906494,2.868852138519287
1484224257692,-0.06643909960985184,-10.887632369995117,7.768586158752441
1484224257870,6.099827289581299,0.760757565498352,-1.7519570589065552
1484224258052,-3.9246952533721924,-9.004592895507813,0.4489128291606903
1484224258233,-1.1139023303985596,-9.512163162231445,0.6320692300796509
1484224258414,-0.8541314601898193,-10.803236961364746,-0.10893617570400238
1484224258593,-1.6609774827957153,-10.244190216064453,1.809417963027954
1484224258772,-3.624222755432129,-9.457695007324219,2.16495680809021
1484224258953,0.1430535465478897,-9.467870712280273,3.8762125968933105
1484224259134,0.01735796220600605,-8.215105056762695,6.729502201080322
1484224259315,2.0883424282073975,0.5147533416748047,-1.7477672100067139
