,timestamp,ax,ay,az
0,7000.0,-8.086416244506836,0.17477671802043915,5.140350818634033
1,7100.0,-8.086416244506836,0.17477671802043915,5.140350818634033
2,7200.0,-8.086416244506836,0.17477671802043915,5.140350818634033
3,7300.0,-8.073247909545897,0.19871874153614044,5.184643745422363
4,7400.0,-8.221688270568848,0.2406172752380371,5.061941146850586
5,7500.0,-8.221688270568848,0.2406172752380371,5.061941146850586
6,7600.0,-8.121730804443361,0.1933317929506302,5.073313236236572
7,7700.0,-8.121730804443361,0.1933317929506302,5.073313236236572
8,7800.0,-8.191162109375,-0.02753331884741783,4.976348400115967
9,7900.0,-8.191162109375,-0.02753331884741783,4.976348400115967
10,8000.0,-8.276755332946777,0.013766659423708916,4.8722004890441895
11,8100.0,-8.276755332946777,0.013766659423708916,4.8722004890441895
12,8200.0,-8.213907241821289,-0.002394201699644327,4.960785865783691
13,8300.0,-8.234258651733397,0.12928688526153564,5.01285982131958
14,8400.0,-8.234258651733397,0.12928688526153564,5.01285982131958
15,8500.0,-8.161833763122559,0.17836803197860718,5.084087371826172
16,8600.0,-8.161833763122559,0.17836803197860718,5.084087371826172
17,8700.0,-8.206725120544434,0.07481880486011505,5.049371242523193
18,8800.0,-8.206725120544434,0.07481880486011505,5.049371242523193
19,8900.0,-8.220491409301758,0.05506663769483566,5.056553840637207
20,8000.0,-8.276755332946777,0.013766659423708916,4.8722004890441895
21,8100.0,-8.276755332946777,0.013766659423708916,4.8722004890441895
22,8200.0,-8.213907241821289,-0.002394201699644327,4.960785865783691
23,8300.0,-8.234258651733397,0.12928688526153564,5.01285982131958
24,8400.0,-8.234258651733397,0.12928688526153564,5.01285982131958
25,8500.0,-8.161833763122559,0.17836803197860718,5.084087371826172
26,8600.0,-8.161833763122559,0.17836803197860718,5.084087371826172
27,8700.0,-8.206725120544434,0.07481880486011505,5.049371242523193
28,8800.0,-8.206725120544434,0.07481880486011505,5.049371242523193
29,8900.0,-8.220491409301758,0.05506663769483566,5.056553840637207
30,9000.0,-8.220491409301758,0.05506663769483566,5.056553840637207
31,9100.0,-8.20612621307373,0.04189852997660637,4.993107795715332
32,9200.0,-8.18757152557373,0.06823474913835527,5.0272250175476065
33,9300.0,-8.18757152557373,0.06823474913835527,5.0272250175476065
34,9400.0,-8.22887134552002,0.03651157766580582,4.998494625091553
35,9500.0,-8.22887134552002,0.03651157766580582,4.998494625091553
36,9600.0,-8.095394134521483,0.17956513166427612,5.13316822052002
37,9700.0,-8.095394134521483,0.17956513166427612,5.13316822052002
38,9800.0,-8.092401504516603,0.36391866207122797,5.1792569160461435
39,9900.0,-8.092401504516603,0.36391866207122797,5.1792569160461435
40,9000.0,-8.220491409301758,0.05506663769483566,5.056553840637207
41,9100.0,-8.20612621307373,0.04189852997660637,4.993107795715332
42,9200.0,-8.18757152557373,0.06823474913835527,5.0272250175476065
43,9300.0,-8.18757152557373,0.06823474913835527,5.0272250175476065
44,9400.0,-8.22887134552002,0.03651157766580582,4.998494625091553
45,9500.0,-8.22887134552002,0.03651157766580582,4.998494625091553
46,9600.0,-8.095394134521483,0.17956513166427612,5.13316822052002
47,9700.0,-8.095394134521483,0.17956513166427612,5.13316822052002
48,9800.0,-8.092401504516603,0.36391866207122797,5.1792569160461435
49,9900.0,-8.092401504516603,0.36391866207122797,5.1792569160461435
50,10000.0,-8.295310020446777,0.34416648745536804,4.918288707733153
51,10100.0,-8.089408874511719,0.284311443567276,5.197213172912598
52,10200.0,-8.089408874511719,0.284311443567276,5.197213172912598
53,10300.0,-8.058882713317871,0.3483563363552093,5.098452568054199
54,10400.0,-8.058882713317871,0.3483563363552093,5.098452568054199
55,10500.0,-8.130110740661621,0.34416648745536804,5.110423564910889
56,10600.0,-8.130110740661621,0.34416648745536804,5.110423564910889
57,10700.0,-8.138489723205566,0.3082534670829773,5.094262599945068
58,10800.0,-8.138489723205566,0.3082534670829773,5.094262599945068
59,10900.0,-8.115745544433594,0.436343252658844,5.1343655586242685
60,10000.0,-8.295310020446777,0.34416648745536804,4.918288707733153
61,10100.0,-8.089408874511719,0.284311443567276,5.197213172912598
62,10200.0,-8.089408874511719,0.284311443567276,5.197213172912598
63,10300.0,-8.058882713317871,0.3483563363552093,5.098452568054199
64,10400.0,-8.058882713317871,0.3483563363552093,5.098452568054199
65,10500.0,-8.130110740661621,0.34416648745536804,5.110423564910889
66,10600.0,-8.130110740661621,0.34416648745536804,5.110423564910889
67,10700.0,-8.138489723205566,0.3082534670829773,5.094262599945068
68,10800.0,-8.138489723205566,0.3082534670829773,5.094262599945068
69,10900.0,-8.115745544433594,0.436343252658844,5.1343655586242685
70,11000.0,-8.17380428314209,0.3986345827579498,5.066729545593262
71,11100.0,-8.17380428314209,0.3986345827579498,5.066729545593262
72,11200.0,-8.099584579467772,0.2855085432529449,5.197213172912598
73,11300.0,-8.099584579467772,0.2855085432529449,5.197213172912598
74,11400.0,-8.166622161865233,0.4118026793003082,5.066130638122559
75,11500.0,-8.166622161865233,0.4118026793003082,5.066130638122559
76,11600.0,-8.122329711914062,0.3884592354297638,5.140949726104736
77,11700.0,-8.122329711914062,0.3884592354297638,5.140949726104736
78,11800.0,-8.138489723205566,0.3687070608139038,5.081693172454834
79,11900.0,-8.165425300598145,0.30885201692581177,5.111021995544434
80,11000.0,-8.17380428314209,0.3986345827579498,5.066729545593262
81,11100.0,-8.17380428314209,0.3986345827579498,5.066729545593262
82,11200.0,-8.099584579467772,0.2855085432529449,5.197213172912598
83,11300.0,-8.099584579467772,0.2855085432529449,5.197213172912598
84,11400.0,-8.166622161865233,0.4118026793003082,5.066130638122559
85,11500.0,-8.166622161865233,0.4118026793003082,5.066130638122559
86,11600.0,-8.122329711914062,0.3884592354297638,5.140949726104736
87,11700.0,-8.122329711914062,0.3884592354297638,5.140949726104736
88,11800.0,-8.138489723205566,0.3687070608139038,5.081693172454834
89,11900.0,-8.165425300598145,0.30885201692581177,5.111021995544434
90,12000.0,-8.165425300598145,0.30885201692581177,5.111021995544434
91,12100.0,-8.107964515686035,0.4584896266460418,5.07451057434082
92,12200.0,-8.107964515686035,0.4584896266460418,5.07451057434082
93,12300.0,-8.106766700744629,0.35075053572654724,5.12119722366333
94,12400.0,-8.106766700744629,0.35075053572654724,5.12119722366333
95,12500.0,-8.153453826904299,0.304063618183136,5.119401931762695
96,12600.0,-8.153453826904299,0.304063618183136,5.119401931762695
97,12700.0,-8.240243911743164,0.4890156984329224,5.010465621948242
98,12800.0,-8.118738174438478,0.30945056676864624,5.196614742279053
99,12900.0,-8.118738174438478,0.30945056676864624,5.196614742279053
100,12000.0,-8.165425300598145,0.30885201692581177,5.111021995544434
101,12100.0,-8.107964515686035,0.4584896266460418,5.07451057434082
102,12200.0,-8.107964515686035,0.4584896266460418,5.07451057434082
103,12300.0,-8.106766700744629,0.35075053572654724,5.12119722366333
104,12400.0,-8.106766700744629,0.35075053572654724,5.12119722366333
105,12500.0,-8.153453826904299,0.304063618183136,5.119401931762695
106,12600.0,-8.153453826904299,0.304063618183136,5.119401931762695
107,12700.0,-8.240243911743164,0.4890156984329224,5.010465621948242
108,12800.0,-8.118738174438478,0.30945056676864624,5.196614742279053
109,12900.0,-8.118738174438478,0.30945056676864624,5.196614742279053
110,13000.0,-8.235455513000487,0.456095427274704,4.988319396972656
111,13100.0,-8.235455513000487,0.456095427274704,4.988319396972656
112,13200.0,-8.045714378356934,0.2358288615942001,5.2055931091308585
113,13300.0,-8.045714378356934,0.2358288615942001,5.2055931091308585
114,13400.0,-8.236652374267576,0.4519055783748626,5.031414985656738
115,13500.0,-8.236652374267576,0.4519055783748626,5.031414985656738
116,13600.0,-8.06307315826416,0.2885012924671173,5.193023681640625
117,13700.0,-8.216899871826174,0.39145198464393616,5.04218864440918
118,13800.0,-8.216899871826174,0.39145198464393616,5.04218864440918
119,13900.0,-8.045714378356934,0.3256114423274994,5.194220542907715
120,13000.0,-8.235455513000487,0.456095427274704,4.988319396972656
121,13100.0,-8.235455513000487,0.456095427274704,4.988319396972656
122,13200.0,-8.045714378356934,0.2358288615942001,5.2055931091308585
123,13300.0,-8.045714378356934,0.2358288615942001,5.2055931091308585
124,13400.0,-8.236652374267576,0.4519055783748626,5.031414985656738
125,13500.0,-8.236652374267576,0.4519055783748626,5.031414985656738
126,13600.0,-8.06307315826416,0.2885012924671173,5.193023681640625
127,13700.0,-8.216899871826174,0.39145198464393616,5.04218864440918
128,13800.0,-8.216899871826174,0.39145198464393616,5.04218864440918
129,13900.0,-8.045714378356934,0.3256114423274994,5.194220542907715
130,14000.0,-8.045714378356934,0.3256114423274994,5.194220542907715
131,14100.0,-8.198944091796875,0.3734954595565796,5.065532207489014
132,14200.0,-8.198944091796875,0.3734954595565796,5.065532207489014
133,14300.0,-8.123526573181152,0.3693056106567383,5.1355624198913565
134,14400.0,-8.123526573181152,0.3693056106567383,5.1355624198913565
135,14500.0,-8.131307601928711,0.3687070608139038,5.083488941192627
136,14600.0,-8.178592681884767,0.3794809579849243,5.079897403717041
137,14700.0,-8.178592681884767,0.3794809579849243,5.079897403717041
138,14800.0,-8.176198959350586,0.36391866207122797,5.101445198059082
139,14900.0,-8.176198959350586,0.36391866207122797,5.101445198059082
140,14000.0,-8.045714378356934,0.3256114423274994,5.194220542907715
141,14100.0,-8.198944091796875,0.3734954595565796,5.065532207489014
142,14200.0,-8.198944091796875,0.3734954595565796,5.065532207489014
143,14300.0,-8.123526573181152,0.3693056106567383,5.1355624198913565
144,14400.0,-8.123526573181152,0.3693056106567383,5.1355624198913565
145,14500.0,-8.131307601928711,0.3687070608139038,5.083488941192627
146,14600.0,-8.178592681884767,0.3794809579849243,5.079897403717041
147,14700.0,-8.178592681884767,0.3794809579849243,5.079897403717041
148,14800.0,-8.176198959350586,0.36391866207122797,5.101445198059082
149,14900.0,-8.176198959350586,0.36391866207122797,5.101445198059082
150,15000.0,-8.104970932006836,0.3734954595565796,5.058349609375
151,15100.0,-8.104970932006836,0.3734954595565796,5.058349609375
152,15200.0,-8.196549415588379,0.3896563351154328,5.078700542449951
153,15300.0,-8.196549415588379,0.3896563351154328,5.078700542449951
154,15400.0,-8.119336128234862,0.3842693865299225,5.140350818634033
155,15500.0,-8.119336128234862,0.3842693865299225,5.140350818634033
156,15600.0,-8.151658058166504,0.3926490843296051,5.07570743560791
157,15700.0,-8.147468566894531,0.36571431159973145,5.081693172454834
158,15800.0,-8.147468566894531,0.36571431159973145,5.081693172454834
159,15900.0,-8.06427001953125,0.3806780576705933,5.157709121704102
160,15000.0,-8.104970932006836,0.3734954595565796,5.058349609375
161,15100.0,-8.104970932006836,0.3734954595565796,5.058349609375
162,15200.0,-8.196549415588379,0.3896563351154328,5.078700542449951
163,15300.0,-8.196549415588379,0.3896563351154328,5.078700542449951
164,15400.0,-8.119336128234862,0.3842693865299225,5.140350818634033
165,15500.0,-8.119336128234862,0.3842693865299225,5.140350818634033
166,15600.0,-8.151658058166504,0.3926490843296051,5.07570743560791
167,15700.0,-8.147468566894531,0.36571431159973145,5.081693172454834
168,15800.0,-8.147468566894531,0.36571431159973145,5.081693172454834
169,15900.0,-8.06427001953125,0.3806780576705933,5.157709121704102
170,16000.0,-8.06427001953125,0.3806780576705933,5.157709121704102
171,16100.0,-8.255805969238281,0.15083470940589905,4.996100425720215
172,16200.0,-8.255805969238281,0.15083470940589905,4.996100425720215
173,16300.0,-8.277952194213867,-0.01975216343998909,4.92307710647583
174,16400.0,-8.277952194213867,-0.01975216343998909,4.92307710647583
175,16500.0,-8.185176849365233,0.015562310814857485,4.9823336601257315
176,16600.0,-8.236053466796875,-0.011372458189725876,4.9368438720703125
177,16700.0,-8.236053466796875,-0.011372458189725876,4.9368438720703125
178,16800.0,-8.329427719116211,0.062249243259429925,4.96198320388794
179,16900.0,-8.329427719116211,0.062249243259429925,4.96198320388794
180,16000.0,-8.06427001953125,0.3806780576705933,5.157709121704102
181,16100.0,-8.255805969238281,0.15083470940589905,4.996100425720215
182,16200.0,-8.255805969238281,0.15083470940589905,4.996100425720215
183,16300.0,-8.277952194213867,-0.01975216343998909,4.92307710647583
184,16400.0,-8.277952194213867,-0.01975216343998909,4.92307710647583
185,16500.0,-8.185176849365233,0.015562310814857485,4.9823336601257315
186,16600.0,-8.236053466796875,-0.011372458189725876,4.9368438720703125
187,16700.0,-8.236053466796875,-0.011372458189725876,4.9368438720703125
188,16800.0,-8.329427719116211,0.062249243259429925,4.96198320388794
189,16900.0,-8.329427719116211,0.062249243259429925,4.96198320388794
190,17000.0,-8.201936721801758,0.03651157766580582,5.050568580627441
191,17100.0,-8.201936721801758,0.03651157766580582,5.050568580627441
192,17200.0,-8.351573944091799,0.4141969084739685,4.99669885635376
193,17300.0,-8.261791229248049,0.3250128924846649,5.039196014404297
194,17400.0,-8.261791229248049,0.3250128924846649,5.039196014404297
195,17500.0,-8.202534675598145,0.3908534348011017,4.973954200744629
196,17600.0,-8.202534675598145,0.3908534348011017,4.973954200744629
197,17700.0,-8.213907241821289,0.426167905330658,4.9601874351501465
198,17800.0,-8.213907241821289,0.426167905330658,4.9601874351501465
199,17900.0,-8.150461196899414,0.3495534360408783,5.0697221755981445
200,17000.0,-8.201936721801758,0.03651157766580582,5.050568580627441
201,17100.0,-8.201936721801758,0.03651157766580582,5.050568580627441
202,17200.0,-8.351573944091799,0.4141969084739685,4.99669885635376
203,17300.0,-8.261791229248049,0.3250128924846649,5.039196014404297
204,17400.0,-8.261791229248049,0.3250128924846649,5.039196014404297
205,17500.0,-8.202534675598145,0.3908534348011017,4.973954200744629
206,17600.0,-8.202534675598145,0.3908534348011017,4.973954200744629
207,17700.0,-8.213907241821289,0.426167905330658,4.9601874351501465
208,17800.0,-8.213907241821289,0.426167905330658,4.9601874351501465
209,17900.0,-8.150461196899414,0.3495534360408783,5.0697221755981445
210,18000.0,-8.150461196899414,0.3495534360408783,5.0697221755981445
211,18100.0,-8.26239013671875,0.4668693244457245,5.004479885101318
212,18200.0,-8.174403190612793,0.4201824069023132,5.085284233093262
213,18300.0,-8.174403190612793,0.4201824069023132,5.085284233093262
214,18400.0,-8.101380348205566,0.4153940081596375,5.098452568054199
215,18500.0,-8.101380348205566,0.4153940081596375,5.098452568054199
216,18600.0,-8.167819023132324,0.2867056429386139,5.053561210632324
217,18700.0,-8.167819023132324,0.2867056429386139,5.053561210632324
218,18800.0,-8.143278121948242,0.11791443079710008,4.99550199508667
219,18900.0,-8.143278121948242,0.11791443079710008,4.99550199508667
220,18000.0,-8.150461196899414,0.3495534360408783,5.0697221755981445
221,18100.0,-8.26239013671875,0.4668693244457245,5.004479885101318
222,18200.0,-8.174403190612793,0.4201824069023132,5.085284233093262
223,18300.0,-8.174403190612793,0.4201824069023132,5.085284233093262
224,18400.0,-8.101380348205566,0.4153940081596375,5.098452568054199
225,18500.0,-8.101380348205566,0.4153940081596375,5.098452568054199
226,18600.0,-8.167819023132324,0.2867056429386139,5.053561210632324
227,18700.0,-8.167819023132324,0.2867056429386139,5.053561210632324
228,18800.0,-8.143278121948242,0.11791443079710008,4.99550199508667
229,18900.0,-8.143278121948242,0.11791443079710008,4.99550199508667
230,19000.0,-8.209118843078612,0.19213469326496124,5.033809185028076
231,19100.0,-8.209118843078612,0.19213469326496124,5.033809185028076
232,19200.0,-8.183979988098145,0.20709845423698425,4.972158432006836
233,19300.0,-8.304288864135742,0.12509703636169436,4.989516258239746
234,19400.0,-8.304288864135742,0.12509703636169436,4.989516258239746
235,19500.0,-8.102577209472656,0.3190273642539978,5.095459938049316
236,19600.0,-8.102577209472656,0.3190273642539978,5.095459938049316
237,19700.0,-8.225279808044434,0.2364274114370346,5.049371242523193
238,19800.0,-8.225279808044434,0.2364274114370346,5.049371242523193
239,19900.0,-8.179790496826174,0.3800795078277588,5.042787551879883
240,19000.0,-8.209118843078612,0.19213469326496124,5.033809185028076
241,19100.0,-8.209118843078612,0.19213469326496124,5.033809185028076
242,19200.0,-8.183979988098145,0.20709845423698425,4.972158432006836
243,19300.0,-8.304288864135742,0.12509703636169436,4.989516258239746
244,19400.0,-8.304288864135742,0.12509703636169436,4.989516258239746
245,19500.0,-8.102577209472656,0.3190273642539978,5.095459938049316
246,19600.0,-8.102577209472656,0.3190273642539978,5.095459938049316
247,19700.0,-8.225279808044434,0.2364274114370346,5.049371242523193
248,19800.0,-8.225279808044434,0.2364274114370346,5.049371242523193
249,19900.0,-8.179790496826174,0.3800795078277588,5.042787551879883
250,20000.0,-8.179790496826174,0.3800795078277588,5.042787551879883
251,20100.0,-8.212111473083496,0.24181437492370605,5.0912699699401855
252,20200.0,-8.145073890686035,0.2974795699119568,5.046977043151856
253,20300.0,-8.145073890686035,0.2974795699119568,5.046977043151856
254,20400.0,-8.091204643249513,0.2711433470249176,5.1355624198913565
255,20500.0,-8.091204643249513,0.2711433470249176,5.1355624198913565
256,20600.0,-8.140884399414062,0.2753331959247589,5.083488941192627
257,20700.0,-8.140884399414062,0.2753331959247589,5.083488941192627
258,20800.0,-8.142081260681152,0.3064578175544739,5.042787551879883
259,20900.0,-8.142081260681152,0.3064578175544739,5.042787551879883
260,20000.0,-8.179790496826174,0.3800795078277588,5.042787551879883
261,20100.0,-8.212111473083496,0.24181437492370605,5.0912699699401855
262,20200.0,-8.145073890686035,0.2974795699119568,5.046977043151856
263,20300.0,-8.145073890686035,0.2974795699119568,5.046977043151856
264,20400.0,-8.091204643249513,0.2711433470249176,5.1355624198913565
265,20500.0,-8.091204643249513,0.2711433470249176,5.1355624198913565
266,20600.0,-8.140884399414062,0.2753331959247589,5.083488941192627
267,20700.0,-8.140884399414062,0.2753331959247589,5.083488941192627
268,20800.0,-8.142081260681152,0.3064578175544739,5.042787551879883
269,20900.0,-8.142081260681152,0.3064578175544739,5.042787551879883
270,21000.0,-8.167220115661621,0.2992752194404602,5.1116204261779785
271,21100.0,-8.101978302001951,0.30705636739730835,5.125387191772461
272,21200.0,-8.101978302001951,0.30705636739730835,5.125387191772461
273,21300.0,-8.162431716918945,0.2657563984394073,5.082291603088379
274,21400.0,-8.162431716918945,0.2657563984394073,5.082291603088379
275,21500.0,-8.154650688171388,0.3076549172401428,5.092466831207275
276,21600.0,-8.154650688171388,0.3076549172401428,5.092466831207275
277,21700.0,-8.140285491943361,0.28311434388160706,5.112817764282227
278,21800.0,-8.140285491943361,0.28311434388160706,5.112817764282227
279,21900.0,-8.132504463195799,0.3148375153541565,5.120598793029785
280,21000.0,-8.167220115661621,0.2992752194404602,5.1116204261779785
281,21100.0,-8.101978302001951,0.30705636739730835,5.125387191772461
282,21200.0,-8.101978302001951,0.30705636739730835,5.125387191772461
283,21300.0,-8.162431716918945,0.2657563984394073,5.082291603088379
284,21400.0,-8.162431716918945,0.2657563984394073,5.082291603088379
285,21500.0,-8.154650688171388,0.3076549172401428,5.092466831207275
286,21600.0,-8.154650688171388,0.3076549172401428,5.092466831207275
287,21700.0,-8.140285491943361,0.28311434388160706,5.112817764282227
288,21800.0,-8.140285491943361,0.28311434388160706,5.112817764282227
289,21900.0,-8.132504463195799,0.3148375153541565,5.120598793029785
290,22000.0,-8.152256965637207,0.3992331326007843,5.055955410003662
291,22100.0,-8.152256965637207,0.3992331326007843,5.055955410003662
292,22200.0,-8.153453826904299,0.2885012924671173,5.05715274810791
293,22300.0,-8.153453826904299,0.2885012924671173,5.05715274810791
294,22400.0,-8.223484039306639,0.3675099611282349,5.020640850067139
295,22500.0,-8.223484039306639,0.3675099611282349,5.020640850067139
296,22600.0,-8.180388450622559,0.3483563363552093,5.054159641265869
297,22700.0,-8.180388450622559,0.3483563363552093,5.054159641265869
298,22800.0,-8.118139266967772,0.3770867586135864,5.076904773712158
299,22900.0,-8.119336128234862,0.37888240814208973,5.1152119636535645
300,22000.0,-8.152256965637207,0.3992331326007843,5.055955410003662
301,22100.0,-8.152256965637207,0.3992331326007843,5.055955410003662
302,22200.0,-8.153453826904299,0.2885012924671173,5.05715274810791
303,22300.0,-8.153453826904299,0.2885012924671173,5.05715274810791
304,22400.0,-8.223484039306639,0.3675099611282349,5.020640850067139
305,22500.0,-8.223484039306639,0.3675099611282349,5.020640850067139
306,22600.0,-8.180388450622559,0.3483563363552093,5.054159641265869
307,22700.0,-8.180388450622559,0.3483563363552093,5.054159641265869
308,22800.0,-8.118139266967772,0.3770867586135864,5.076904773712158
309,22900.0,-8.119336128234862,0.37888240814208973,5.1152119636535645
310,23000.0,-8.119336128234862,0.37888240814208973,5.1152119636535645
311,23100.0,-8.229470252990723,0.3860650360584259,4.993706226348877
312,23200.0,-8.229470252990723,0.3860650360584259,4.993706226348877
313,23300.0,-8.132504463195799,0.3429693877696991,5.096656799316406
314,23400.0,-8.132504463195799,0.3429693877696991,5.096656799316406
315,23500.0,-8.091204643249513,0.3615244626998901,5.1343655586242685
316,23600.0,-8.091204643249513,0.3615244626998901,5.1343655586242685
317,23700.0,-8.200140953063965,0.35733461380004883,5.027823448181152
318,23800.0,-8.153453826904299,0.38486793637275696,5.064335346221924
319,23900.0,-8.153453826904299,0.38486793637275696,5.064335346221924
320,23000.0,-8.119336128234862,0.37888240814208973,5.1152119636535645
321,23100.0,-8.229470252990723,0.3860650360584259,4.993706226348877
322,23200.0,-8.229470252990723,0.3860650360584259,4.993706226348877
323,23300.0,-8.132504463195799,0.3429693877696991,5.096656799316406
324,23400.0,-8.132504463195799,0.3429693877696991,5.096656799316406
325,23500.0,-8.091204643249513,0.3615244626998901,5.1343655586242685
326,23600.0,-8.091204643249513,0.3615244626998901,5.1343655586242685
327,23700.0,-8.200140953063965,0.35733461380004883,5.027823448181152
328,23800.0,-8.153453826904299,0.38486793637275696,5.064335346221924
329,23900.0,-8.153453826904299,0.38486793637275696,5.064335346221924
330,24000.0,-8.089408874511719,0.4710591733455658,5.093664169311523
331,24100.0,-8.089408874511719,0.4710591733455658,5.093664169311523
332,24200.0,-8.196549415588379,0.1759738177061081,5.042787551879883
333,24300.0,-8.196549415588379,0.1759738177061081,5.042787551879883
334,24400.0,-8.218695640563965,0.008379706181585789,4.887164115905762
335,24500.0,-8.218695640563965,0.008379706181585789,4.887164115905762
336,24600.0,-8.321646690368652,-0.0586579404771328,4.834491729736328
337,24700.0,-8.231265068054201,0.02753331884741783,4.887164115905762
338,24800.0,-8.231265068054201,0.02753331884741783,4.887164115905762
339,24900.0,-8.307281494140625,-0.0802057534456253,4.87639045715332
340,24000.0,-8.089408874511719,0.4710591733455658,5.093664169311523
341,24100.0,-8.089408874511719,0.4710591733455658,5.093664169311523
342,24200.0,-8.196549415588379,0.1759738177061081,5.042787551879883
343,24300.0,-8.196549415588379,0.1759738177061081,5.042787551879883
344,24400.0,-8.218695640563965,0.008379706181585789,4.887164115905762
345,24500.0,-8.218695640563965,0.008379706181585789,4.887164115905762
346,24600.0,-8.321646690368652,-0.0586579404771328,4.834491729736328
347,24700.0,-8.231265068054201,0.02753331884741783,4.887164115905762
348,24800.0,-8.231265068054201,0.02753331884741783,4.887164115905762
349,24900.0,-8.307281494140625,-0.0802057534456253,4.87639045715332
350,25000.0,-8.307281494140625,-0.0802057534456253,4.87639045715332
351,25100.0,-8.199542045593263,0.1364694982767105,4.972756862640381
352,25200.0,-8.199542045593263,0.1364694982767105,4.972756862640381
353,25300.0,-8.164826393127441,0.1238999366760254,5.054758548736572
354,25400.0,-8.164826393127441,0.1238999366760254,5.054758548736572
355,25500.0,-8.169015884399414,0.5063736438751221,5.021239280700684
356,25600.0,-8.137292861938478,0.4698620736598969,5.020042419433594
357,25700.0,-8.137292861938478,0.4698620736598969,5.020042419433594
358,25800.0,-8.182184219360353,0.3477577865123749,5.036203384399414
359,25900.0,-8.182184219360353,0.3477577865123749,5.036203384399414
360,25000.0,-8.307281494140625,-0.0802057534456253,4.87639045715332
361,25100.0,-8.199542045593263,0.1364694982767105,4.972756862640381
362,25200.0,-8.199542045593263,0.1364694982767105,4.972756862640381
363,25300.0,-8.164826393127441,0.1238999366760254,5.054758548736572
364,25400.0,-8.164826393127441,0.1238999366760254,5.054758548736572
365,25500.0,-8.169015884399414,0.5063736438751221,5.021239280700684
366,25600.0,-8.137292861938478,0.4698620736598969,5.020042419433594
367,25700.0,-8.137292861938478,0.4698620736598969,5.020042419433594
368,25800.0,-8.182184219360353,0.3477577865123749,5.036203384399414
369,25900.0,-8.182184219360353,0.3477577865123749,5.036203384399414
370,26000.0,-8.242039680480957,0.4333505034446716,4.95001220703125
371,26100.0,-8.242039680480957,0.4333505034446716,4.95001220703125
372,26200.0,-8.27974796295166,0.3926490843296051,4.8901567459106445
373,26300.0,-8.27974796295166,0.3926490843296051,4.8901567459106445
374,26400.0,-8.224681854248049,0.3699041604995728,4.981735229492188
375,26500.0,-8.259397506713867,0.3896563351154328,4.93923807144165
376,26600.0,-8.259397506713867,0.3896563351154328,4.93923807144165
377,26700.0,-8.221090316772461,0.4237737059593201,4.929661273956299
378,26800.0,-8.221090316772461,0.4237737059593201,4.929661273956299
379,26900.0,-8.240841865539549,0.4171896576881409,4.978143692016602
380,26000.0,-8.242039680480957,0.4333505034446716,4.95001220703125
381,26100.0,-8.242039680480957,0.4333505034446716,4.95001220703125
382,26200.0,-8.27974796295166,0.3926490843296051,4.8901567459106445
383,26300.0,-8.27974796295166,0.3926490843296051,4.8901567459106445
384,26400.0,-8.224681854248049,0.3699041604995728,4.981735229492188
385,26500.0,-8.259397506713867,0.3896563351154328,4.93923807144165
386,26600.0,-8.259397506713867,0.3896563351154328,4.93923807144165
387,26700.0,-8.221090316772461,0.4237737059593201,4.929661273956299
388,26800.0,-8.221090316772461,0.4237737059593201,4.929661273956299
389,26900.0,-8.240841865539549,0.4171896576881409,4.978143692016602
390,27000.0,-8.240841865539549,0.4171896576881409,4.978143692016602
391,27100.0,-8.24622917175293,0.3794809579849243,4.953004837036133
392,27200.0,-8.24622917175293,0.3794809579849243,4.953004837036133
393,27300.0,-8.254609107971191,0.3699041604995728,4.929661273956299
394,27400.0,-8.222886085510254,0.3758896589279175,5.029619216918945
395,27500.0,-8.222886085510254,0.3758896589279175,5.029619216918945
396,27600.0,-8.225279808044434,0.4058171808719635,4.895544052124023
397,27700.0,-8.225279808044434,0.4058171808719635,4.895544052124023
398,27800.0,-8.161833763122559,0.4106055796146393,5.017049789428711
399,27900.0,-8.161833763122559,0.4106055796146393,5.017049789428711
400,27000.0,-8.240841865539549,0.4171896576881409,4.978143692016602
401,27100.0,-8.24622917175293,0.3794809579849243,4.953004837036133
402,27200.0,-8.24622917175293,0.3794809579849243,4.953004837036133
403,27300.0,-8.254609107971191,0.3699041604995728,4.929661273956299
404,27400.0,-8.222886085510254,0.3758896589279175,5.029619216918945
405,27500.0,-8.222886085510254,0.3758896589279175,5.029619216918945
406,27600.0,-8.225279808044434,0.4058171808719635,4.895544052124023
407,27700.0,-8.225279808044434,0.4058171808719635,4.895544052124023
408,27800.0,-8.161833763122559,0.4106055796146393,5.017049789428711
409,27900.0,-8.161833763122559,0.4106055796146393,5.017049789428711
410,28000.0,-8.18996524810791,0.34596213698387146,4.96737003326416
411,28100.0,-8.18996524810791,0.34596213698387146,4.96737003326416
412,28200.0,-8.195950508117676,0.3489548861980438,4.991910457611084
413,28300.0,-8.345588684082031,0.4171896576881409,4.859032154083252
414,28400.0,-8.345588684082031,0.4171896576881409,4.859032154083252
415,28500.0,-8.121131896972656,0.3633201122283936,5.042787551879883
416,28600.0,-8.121131896972656,0.3633201122283936,5.042787551879883
417,28700.0,-8.331223487854004,0.4387374520301819,4.8309006690979
418,28800.0,-8.331223487854004,0.4387374520301819,4.8309006690979
419,28900.0,-8.253412246704103,0.3920505344867706,4.978143692016602
420,28000.0,-8.18996524810791,0.34596213698387146,4.96737003326416
421,28100.0,-8.18996524810791,0.34596213698387146,4.96737003326416
422,28200.0,-8.195950508117676,0.3489548861980438,4.991910457611084
423,28300.0,-8.345588684082031,0.4171896576881409,4.859032154083252
424,28400.0,-8.345588684082031,0.4171896576881409,4.859032154083252
425,28500.0,-8.121131896972656,0.3633201122283936,5.042787551879883
426,28600.0,-8.121131896972656,0.3633201122283936,5.042787551879883
427,28700.0,-8.331223487854004,0.4387374520301819,4.8309006690979
428,28800.0,-8.331223487854004,0.4387374520301819,4.8309006690979
429,28900.0,-8.253412246704103,0.3920505344867706,4.978143692016602
430,29000.0,-8.253412246704103,0.3920505344867706,4.978143692016602
431,29100.0,-8.216301918029785,0.3944447338581085,4.944624900817871
432,29200.0,-8.275558471679688,0.4435258507728577,4.897339344024658
433,29300.0,-8.275558471679688,0.4435258507728577,4.897339344024658
434,29400.0,-8.210315704345701,0.4321534037590027,5.012261390686035
435,29500.0,-8.210315704345701,0.4321534037590027,5.012261390686035
436,29600.0,-8.289923667907715,0.4129997789859772,4.925471305847168
437,29700.0,-8.289923667907715,0.4129997789859772,4.925471305847168
438,29800.0,-8.218695640563965,0.3854664862155914,4.967968463897705
439,29900.0,-8.218695640563965,0.3854664862155914,4.967968463897705
440,29000.0,-8.253412246704103,0.3920505344867706,4.978143692016602
441,29100.0,-8.216301918029785,0.3944447338581085,4.944624900817871
442,29200.0,-8.275558471679688,0.4435258507728577,4.897339344024658
443,29300.0,-8.275558471679688,0.4435258507728577,4.897339344024658
444,29400.0,-8.210315704345701,0.4321534037590027,5.012261390686035
445,29500.0,-8.210315704345701,0.4321534037590027,5.012261390686035
446,29600.0,-8.289923667907715,0.4129997789859772,4.925471305847168
447,29700.0,-8.289923667907715,0.4129997789859772,4.925471305847168
448,29800.0,-8.218695640563965,0.3854664862155914,4.967968463897705
449,29900.0,-8.218695640563965,0.3854664862155914,4.967968463897705
450,30000.0,-8.24503231048584,0.4315548539161682,4.953603267669678
451,30100.0,-8.219294548034668,0.3699041604995728,5.003881454467773
452,30200.0,-8.219294548034668,0.3699041604995728,5.003881454467773
453,30300.0,-8.26478385925293,0.4291606545448303,4.902127742767334
454,30400.0,-8.26478385925293,0.4291606545448303,4.902127742767334
455,30500.0,-8.18757152557373,0.4040215313434601,4.976946830749512
456,30600.0,-8.18757152557373,0.4040215313434601,4.976946830749512
457,30700.0,-8.271966934204103,0.4129997789859772,4.928464412689209
458,30800.0,-8.271966934204103,0.4129997789859772,4.928464412689209
459,30900.0,-8.262989044189451,0.37169981002807617,4.9386396408081055
460,30000.0,-8.24503231048584,0.4315548539161682,4.953603267669678
461,30100.0,-8.219294548034668,0.3699041604995728,5.003881454467773
462,30200.0,-8.219294548034668,0.3699041604995728,5.003881454467773
463,30300.0,-8.26478385925293,0.4291606545448303,4.902127742767334
464,30400.0,-8.26478385925293,0.4291606545448303,4.902127742767334
465,30500.0,-8.18757152557373,0.4040215313434601,4.976946830749512
466,30600.0,-8.18757152557373,0.4040215313434601,4.976946830749512
467,30700.0,-8.271966934204103,0.4129997789859772,4.928464412689209
468,30800.0,-8.271966934204103,0.4129997789859772,4.928464412689209
469,30900.0,-8.262989044189451,0.37169981002807617,4.9386396408081055
470,31000.0,-8.223484039306639,0.3806780576705933,4.98053789138794
471,31100.0,-8.223484039306639,0.3806780576705933,4.98053789138794
472,31200.0,-8.251017570495605,0.4159925580024719,4.929062843322754
473,31300.0,-8.251017570495605,0.4159925580024719,4.929062843322754
474,31400.0,-8.290521621704103,0.4405331015586853,4.965574264526367
475,31500.0,-8.290521621704103,0.4405331015586853,4.965574264526367
476,31600.0,-8.303689956665039,0.3890577852725983,4.9625816345214835
477,31700.0,-8.303689956665039,0.3890577852725983,4.9625816345214835
478,31800.0,-8.208520889282228,0.4189853072166443,4.957793235778809
479,31900.0,-8.237251281738281,0.3477577865123749,4.973954200744629
480,31000.0,-8.223484039306639,0.3806780576705933,4.98053789138794
481,31100.0,-8.223484039306639,0.3806780576705933,4.98053789138794
482,31200.0,-8.251017570495605,0.4159925580024719,4.929062843322754
483,31300.0,-8.251017570495605,0.4159925580024719,4.929062843322754
484,31400.0,-8.290521621704103,0.4405331015586853,4.965574264526367
485,31500.0,-8.290521621704103,0.4405331015586853,4.965574264526367
486,31600.0,-8.303689956665039,0.3890577852725983,4.9625816345214835
487,31700.0,-8.303689956665039,0.3890577852725983,4.9625816345214835
488,31800.0,-8.208520889282228,0.4189853072166443,4.957793235778809
489,31900.0,-8.237251281738281,0.3477577865123749,4.973954200744629
490,32000.0,-8.237251281738281,0.3477577865123749,4.973954200744629
491,32100.0,-8.233060836791992,0.4590881764888763,4.897938251495361
492,32200.0,-8.233060836791992,0.4590881764888763,4.897938251495361
493,32300.0,-8.208520889282228,0.4171896576881409,4.976348400115967
494,32400.0,-8.208520889282228,0.4171896576881409,4.976348400115967
495,32500.0,-8.24622917175293,0.37529110908508295,4.943428039550781
496,32600.0,-8.24622917175293,0.37529110908508295,4.943428039550781
497,32700.0,-8.248623847961426,0.3974374830722809,4.955399036407472
498,32800.0,-8.202534675598145,0.37229835987091053,4.981735229492188
499,32900.0,-8.202534675598145,0.37229835987091053,4.981735229492188
500,32000.0,-8.237251281738281,0.3477577865123749,4.973954200744629
501,32100.0,-8.233060836791992,0.4590881764888763,4.897938251495361
502,32200.0,-8.233060836791992,0.4590881764888763,4.897938251495361
503,32300.0,-8.208520889282228,0.4171896576881409,4.976348400115967
504,32400.0,-8.208520889282228,0.4171896576881409,4.976348400115967
505,32500.0,-8.24622917175293,0.37529110908508295,4.943428039550781
506,32600.0,-8.24622917175293,0.37529110908508295,4.943428039550781
507,32700.0,-8.248623847961426,0.3974374830722809,4.955399036407472
508,32800.0,-8.202534675598145,0.37229835987091053,4.981735229492188
509,32900.0,-8.202534675598145,0.37229835987091053,4.981735229492188
510,33000.0,-8.261791229248049,0.3974374830722809,4.929062843322754
511,33100.0,-8.261791229248049,0.3974374830722809,4.929062843322754
512,33200.0,-8.213907241821289,0.3818751573562622,4.974552631378174
513,33300.0,-8.213907241821289,0.3818751573562622,4.974552631378174
514,33400.0,-8.240243911743164,0.4255693554878235,4.944026470184326
515,33500.0,-8.240243911743164,0.4255693554878235,4.944026470184326
516,33600.0,-8.236053466796875,0.4207809567451477,4.964975833892822
517,33700.0,-8.231863975524902,0.3896563351154328,4.988319396972656
518,33800.0,-8.231863975524902,0.3896563351154328,4.988319396972656
519,33900.0,-8.195352554321289,0.3956418335437775,4.9799394607543945
520,33000.0,-8.261791229248049,0.3974374830722809,4.929062843322754
521,33100.0,-8.261791229248049,0.3974374830722809,4.929062843322754
522,33200.0,-8.213907241821289,0.3818751573562622,4.974552631378174
523,33300.0,-8.213907241821289,0.3818751573562622,4.974552631378174
524,33400.0,-8.240243911743164,0.4255693554878235,4.944026470184326
525,33500.0,-8.240243911743164,0.4255693554878235,4.944026470184326
526,33600.0,-8.236053466796875,0.4207809567451477,4.964975833892822
527,33700.0,-8.231863975524902,0.3896563351154328,4.988319396972656
528,33800.0,-8.231863975524902,0.3896563351154328,4.988319396972656
529,33900.0,-8.195352554321289,0.3956418335437775,4.9799394607543945
530,34000.0,-8.195352554321289,0.3956418335437775,4.9799394607543945
531,34100.0,-8.244433403015138,0.3513490855693817,5.008669853210449
532,34200.0,-8.244433403015138,0.3513490855693817,5.008669853210449
533,34300.0,-8.159439086914062,0.4369418025016785,5.024232387542725
534,34400.0,-8.159439086914062,0.4369418025016785,5.024232387542725
535,34500.0,-8.158841133117676,0.4345476031303406,5.05715274810791
536,34600.0,-8.245630264282228,0.4022258818149567,5.019443988800049
537,34700.0,-8.245630264282228,0.4022258818149567,5.019443988800049
538,34800.0,-8.203133583068848,0.11851298063993455,4.907515048980713
539,34900.0,-8.203133583068848,0.11851298063993455,4.907515048980713
540,34000.0,-8.195352554321289,0.3956418335437775,4.9799394607543945
541,34100.0,-8.244433403015138,0.3513490855693817,5.008669853210449
542,34200.0,-8.244433403015138,0.3513490855693817,5.008669853210449
543,34300.0,-8.159439086914062,0.4369418025016785,5.024232387542725
544,34400.0,-8.159439086914062,0.4369418025016785,5.024232387542725
545,34500.0,-8.158841133117676,0.4345476031303406,5.05715274810791
546,34600.0,-8.245630264282228,0.4022258818149567,5.019443988800049
547,34700.0,-8.245630264282228,0.4022258818149567,5.019443988800049
548,34800.0,-8.203133583068848,0.11851298063993455,4.907515048980713
549,34900.0,-8.203133583068848,0.11851298063993455,4.907515048980713
550,35000.0,-8.355165481567383,-0.0802057534456253,4.765059947967528
551,35100.0,-8.355165481567383,-0.0802057534456253,4.765059947967528
552,35200.0,-8.271966934204103,0.13527239859104154,4.907515048980713
553,35300.0,-8.271966934204103,0.13527239859104154,4.907515048980713
554,35400.0,-8.24383544921875,0.076015904545784,4.928464412689209
555,35500.0,-8.179790496826174,0.11971008777618407,5.0272250175476065
556,35600.0,-8.179790496826174,0.11971008777618407,5.0272250175476065
557,35700.0,-8.226476669311522,0.22026655077934265,4.958990097045898
558,35800.0,-8.226476669311522,0.22026655077934265,4.958990097045898
559,35900.0,-8.214506149291992,0.32620999217033386,5.077503204345703
560,35000.0,-8.355165481567383,-0.0802057534456253,4.765059947967528
561,35100.0,-8.355165481567383,-0.0802057534456253,4.765059947967528
562,35200.0,-8.271966934204103,0.13527239859104154,4.907515048980713
563,35300.0,-8.271966934204103,0.13527239859104154,4.907515048980713
564,35400.0,-8.24383544921875,0.076015904545784,4.928464412689209
565,35500.0,-8.179790496826174,0.11971008777618407,5.0272250175476065
566,35600.0,-8.179790496826174,0.11971008777618407,5.0272250175476065
567,35700.0,-8.226476669311522,0.22026655077934265,4.958990097045898
568,35800.0,-8.226476669311522,0.22026655077934265,4.958990097045898
569,35900.0,-8.214506149291992,0.32620999217033386,5.077503204345703
570,36000.0,-8.214506149291992,0.32620999217033386,5.077503204345703
571,36100.0,-8.082226753234862,0.4387374520301819,5.085883140563965
572,36200.0,-8.082226753234862,0.4387374520301819,5.085883140563965
573,36300.0,-8.18757152557373,0.3812766075134277,5.084087371826172
574,36400.0,-8.183979988098145,0.4100070297718048,5.08648157119751
575,36500.0,-8.183979988098145,0.4100070297718048,5.08648157119751
576,36600.0,-8.130708694458008,0.3776853084564209,5.157110691070557
577,36700.0,-8.130708694458008,0.3776853084564209,5.157110691070557
578,36800.0,-8.249221801757812,0.4854243993759155,4.976946830749512
579,36900.0,-8.249221801757812,0.4854243993759155,4.976946830749512
580,36000.0,-8.214506149291992,0.32620999217033386,5.077503204345703
581,36100.0,-8.082226753234862,0.4387374520301819,5.085883140563965
582,36200.0,-8.082226753234862,0.4387374520301819,5.085883140563965
583,36300.0,-8.18757152557373,0.3812766075134277,5.084087371826172
584,36400.0,-8.183979988098145,0.4100070297718048,5.08648157119751
585,36500.0,-8.183979988098145,0.4100070297718048,5.08648157119751
586,36600.0,-8.130708694458008,0.3776853084564209,5.157110691070557
587,36700.0,-8.130708694458008,0.3776853084564209,5.157110691070557
588,36800.0,-8.249221801757812,0.4854243993759155,4.976946830749512
589,36900.0,-8.249221801757812,0.4854243993759155,4.976946830749512
590,37000.0,-8.160037994384767,0.3298012912273407,5.099649429321289
591,37100.0,-8.160037994384767,0.3298012912273407,5.099649429321289
592,37200.0,-8.22767448425293,0.36511576175689703,5.0074729919433585
593,37300.0,-8.22767448425293,0.36511576175689703,5.0074729919433585
594,37400.0,-8.13908863067627,0.28131869435310364,5.099649429321289
595,37500.0,-8.274959564208983,0.4459200799465179,4.929661273956299
596,37600.0,-8.274959564208983,0.4459200799465179,4.929661273956299
597,37700.0,-8.183381080627441,0.34656068682670593,5.076306343078613
598,37800.0,-8.183381080627441,0.34656068682670593,5.076306343078613
599,37900.0,-8.244433403015138,0.3842693865299225,5.000290393829347
600,37000.0,-8.160037994384767,0.3298012912273407,5.099649429321289
601,37100.0,-8.160037994384767,0.3298012912273407,5.099649429321289
602,37200.0,-8.22767448425293,0.36511576175689703,5.0074729919433585
603,37300.0,-8.22767448425293,0.36511576175689703,5.0074729919433585
604,37400.0,-8.13908863067627,0.28131869435310364,5.099649429321289
605,37500.0,-8.274959564208983,0.4459200799465179,4.929661273956299
606,37600.0,-8.274959564208983,0.4459200799465179,4.929661273956299
607,37700.0,-8.183381080627441,0.34656068682670593,5.076306343078613
608,37800.0,-8.183381080627441,0.34656068682670593,5.076306343078613
609,37900.0,-8.244433403015138,0.3842693865299225,5.000290393829347
610,38000.0,-8.244433403015138,0.3842693865299225,5.000290393829347
611,38100.0,-8.095993041992188,0.3483563363552093,5.1092262268066415
612,38200.0,-8.310873031616211,0.3938461840152741,4.9170918464660645
613,38300.0,-8.310873031616211,0.3938461840152741,4.9170918464660645
614,38400.0,-8.146869659423826,0.4345476031303406,5.11461353302002
615,38500.0,-8.146869659423826,0.4345476031303406,5.11461353302002
616,38600.0,-8.197148323059082,0.4171896576881409,5.0290207862854
617,38700.0,-8.197148323059082,0.4171896576881409,5.0290207862854
618,38800.0,-8.182184219360353,0.4141969084739685,5.052962779998778
619,38900.0,-8.182184219360353,0.4141969084739685,5.052962779998778
620,38000.0,-8.244433403015138,0.3842693865299225,5.000290393829347
621,38100.0,-8.095993041992188,0.3483563363552093,5.1092262268066415
622,38200.0,-8.310873031616211,0.3938461840152741,4.9170918464660645
623,38300.0,-8.310873031616211,0.3938461840152741,4.9170918464660645
624,38400.0,-8.146869659423826,0.4345476031303406,5.11461353302002
625,38500.0,-8.146869659423826,0.4345476031303406,5.11461353302002
626,38600.0,-8.197148323059082,0.4171896576881409,5.0290207862854
627,38700.0,-8.197148323059082,0.4171896576881409,5.0290207862854
628,38800.0,-8.182184219360353,0.4141969084739685,5.052962779998778
629,38900.0,-8.182184219360353,0.4141969084739685,5.052962779998778
630,39000.0,-8.203133583068848,0.3627215623855591,5.014655590057373
631,39100.0,-8.203133583068848,0.3627215623855591,5.014655590057373
632,39200.0,-8.182184219360353,0.44831427931785583,5.025429248809815
633,39300.0,-8.125920295715332,0.3549404144287109,5.143343925476074
634,39400.0,-8.125920295715332,0.3549404144287109,5.143343925476074
635,39500.0,-8.257601737976074,0.3998316824436188,4.920682907104492
636,39600.0,-8.257601737976074,0.3998316824436188,4.920682907104492
637,39700.0,-8.122927665710451,0.3369838893413544,5.145139217376709
638,39800.0,-8.122927665710451,0.3369838893413544,5.145139217376709
639,39900.0,-8.233659744262695,0.4118026793003082,4.943428039550781
640,39000.0,-8.203133583068848,0.3627215623855591,5.014655590057373
641,39100.0,-8.203133583068848,0.3627215623855591,5.014655590057373
642,39200.0,-8.182184219360353,0.44831427931785583,5.025429248809815
643,39300.0,-8.125920295715332,0.3549404144287109,5.143343925476074
644,39400.0,-8.125920295715332,0.3549404144287109,5.143343925476074
645,39500.0,-8.257601737976074,0.3998316824436188,4.920682907104492
646,39600.0,-8.257601737976074,0.3998316824436188,4.920682907104492
647,39700.0,-8.122927665710451,0.3369838893413544,5.145139217376709
648,39800.0,-8.122927665710451,0.3369838893413544,5.145139217376709
649,39900.0,-8.233659744262695,0.4118026793003082,4.943428039550781
650,40000.0,-8.233659744262695,0.4118026793003082,4.943428039550781
651,40100.0,-8.137292861938478,0.3519476354122162,5.153519153594972
652,40200.0,-8.26478385925293,0.4513070285320282,4.93923807144165
653,40300.0,-8.26478385925293,0.4513070285320282,4.93923807144165
654,40400.0,-8.112154006958008,0.3292027413845062,5.132569789886475
655,40500.0,-8.112154006958008,0.3292027413845062,5.132569789886475
656,40600.0,-8.223484039306639,0.424970805644989,4.97934103012085
657,40700.0,-8.223484039306639,0.424970805644989,4.97934103012085
658,40800.0,-8.153453826904299,0.3256114423274994,5.039196014404297
659,40900.0,-8.153453826904299,0.3256114423274994,5.039196014404297
660,40000.0,-8.233659744262695,0.4118026793003082,4.943428039550781
661,40100.0,-8.137292861938478,0.3519476354122162,5.153519153594972
662,40200.0,-8.26478385925293,0.4513070285320282,4.93923807144165
663,40300.0,-8.26478385925293,0.4513070285320282,4.93923807144165
664,40400.0,-8.112154006958008,0.3292027413845062,5.132569789886475
665,40500.0,-8.112154006958008,0.3292027413845062,5.132569789886475
666,40600.0,-8.223484039306639,0.424970805644989,4.97934103012085
667,40700.0,-8.223484039306639,0.424970805644989,4.97934103012085
668,40800.0,-8.153453826904299,0.3256114423274994,5.039196014404297
669,40900.0,-8.153453826904299,0.3256114423274994,5.039196014404297
670,41000.0,-8.162431716918945,0.4070142805576325,5.037999153137207
671,41100.0,-8.20732307434082,0.4255693554878235,4.993706226348877
672,41200.0,-8.20732307434082,0.4255693554878235,4.993706226348877
673,41300.0,-8.167220115661621,0.376488208770752,5.039196014404297
674,41400.0,-8.167220115661621,0.376488208770752,5.039196014404297
675,41500.0,-8.210315704345701,0.4303577542304993,4.993706226348877
676,41600.0,-8.210315704345701,0.4303577542304993,4.993706226348877
677,41700.0,-8.158841133117676,0.39145198464393616,5.0685248374938965
678,41800.0,-8.158841133117676,0.39145198464393616,5.0685248374938965
679,41900.0,-8.149862289428711,0.4159925580024719,5.035604953765869
680,41000.0,-8.162431716918945,0.4070142805576325,5.037999153137207
681,41100.0,-8.20732307434082,0.4255693554878235,4.993706226348877
682,41200.0,-8.20732307434082,0.4255693554878235,4.993706226348877
683,41300.0,-8.167220115661621,0.376488208770752,5.039196014404297
684,41400.0,-8.167220115661621,0.376488208770752,5.039196014404297
685,41500.0,-8.210315704345701,0.4303577542304993,4.993706226348877
686,41600.0,-8.210315704345701,0.4303577542304993,4.993706226348877
687,41700.0,-8.158841133117676,0.39145198464393616,5.0685248374938965
688,41800.0,-8.158841133117676,0.39145198464393616,5.0685248374938965
689,41900.0,-8.149862289428711,0.4159925580024719,5.035604953765869
690,42000.0,-8.164227485656737,0.3770867586135864,5.058948040008545
691,42100.0,-8.164227485656737,0.3770867586135864,5.058948040008545
692,42200.0,-8.163629531860353,0.3944447338581085,5.064335346221924
693,42300.0,-8.163629531860353,0.3944447338581085,5.064335346221924
694,42400.0,-8.185176849365233,0.333991140127182,5.063138008117676
695,42500.0,-8.185176849365233,0.333991140127182,5.063138008117676
696,42600.0,-8.18757152557373,0.3232172429561615,5.04099178314209
697,42700.0,-8.18757152557373,0.3232172429561615,5.04099178314209
698,42800.0,-8.154650688171388,0.24839842319488525,5.1152119636535645
699,42900.0,-8.09778881072998,0.2717418968677521,5.195417881011963
700,42000.0,-8.164227485656737,0.3770867586135864,5.058948040008545
701,42100.0,-8.164227485656737,0.3770867586135864,5.058948040008545
702,42200.0,-8.163629531860353,0.3944447338581085,5.064335346221924
703,42300.0,-8.163629531860353,0.3944447338581085,5.064335346221924
704,42400.0,-8.185176849365233,0.333991140127182,5.063138008117676
705,42500.0,-8.185176849365233,0.333991140127182,5.063138008117676
706,42600.0,-8.18757152557373,0.3232172429561615,5.04099178314209
707,42700.0,-8.18757152557373,0.3232172429561615,5.04099178314209
708,42800.0,-8.154650688171388,0.24839842319488525,5.1152119636535645
709,42900.0,-8.09778881072998,0.2717418968677521,5.195417881011963
710,43000.0,-8.09778881072998,0.2717418968677521,5.195417881011963
711,43100.0,-8.06307315826416,0.304063618183136,5.174468517303467
712,43200.0,-8.06307315826416,0.304063618183136,5.174468517303467
713,43300.0,-8.074444770812987,0.23163901269435885,5.176862716674805
714,43400.0,-8.074444770812987,0.23163901269435885,5.176862716674805
715,43500.0,-8.084620475769043,0.23163901269435885,5.195417881011963
716,43600.0,-8.084620475769043,0.23163901269435885,5.195417881011963
717,43700.0,-8.037933349609375,-0.09696517139673233,5.230731964111328
718,43800.0,-8.304288864135742,0.059855043888092034,4.9111061096191415
719,43900.0,-8.304288864135742,0.059855043888092034,4.9111061096191415
720,43000.0,-8.09778881072998,0.2717418968677521,5.195417881011963
721,43100.0,-8.06307315826416,0.304063618183136,5.174468517303467
722,43200.0,-8.06307315826416,0.304063618183136,5.174468517303467
723,43300.0,-8.074444770812987,0.23163901269435885,5.176862716674805
724,43400.0,-8.074444770812987,0.23163901269435885,5.176862716674805
725,43500.0,-8.084620475769043,0.23163901269435885,5.195417881011963
726,43600.0,-8.084620475769043,0.23163901269435885,5.195417881011963
727,43700.0,-8.037933349609375,-0.09696517139673233,5.230731964111328
728,43800.0,-8.304288864135742,0.059855043888092034,4.9111061096191415
729,43900.0,-8.304288864135742,0.059855043888092034,4.9111061096191415
730,44000.0,-8.158841133117676,0.041299980133771896,5.207388877868652
731,44100.0,-8.158841133117676,0.041299980133771896,5.207388877868652
732,44200.0,-8.215105056762695,-0.013766659423708916,5.128379821777344
733,44300.0,-8.215105056762695,-0.013766659423708916,5.128379821777344
734,44400.0,-7.996035099029541,0.03711012750864029,5.312135219573975
735,44500.0,-7.996035099029541,0.03711012750864029,5.312135219573975
736,44600.0,-8.148066520690918,0.011372458189725876,5.140350818634033
737,44700.0,-8.019977569580076,-0.10714052617549896,5.078700542449951
738,44800.0,-8.019977569580076,-0.10714052617549896,5.078700542449951
739,44900.0,-8.100781440734862,-0.007781155407428741,5.147533416748047
740,44000.0,-8.158841133117676,0.041299980133771896,5.207388877868652
741,44100.0,-8.158841133117676,0.041299980133771896,5.207388877868652
742,44200.0,-8.215105056762695,-0.013766659423708916,5.128379821777344
743,44300.0,-8.215105056762695,-0.013766659423708916,5.128379821777344
744,44400.0,-7.996035099029541,0.03711012750864029,5.312135219573975
745,44500.0,-7.996035099029541,0.03711012750864029,5.312135219573975
746,44600.0,-8.148066520690918,0.011372458189725876,5.140350818634033
747,44700.0,-8.019977569580076,-0.10714052617549896,5.078700542449951
748,44800.0,-8.019977569580076,-0.10714052617549896,5.078700542449951
749,44900.0,-8.100781440734862,-0.007781155407428741,5.147533416748047
750,45000.0,-8.100781440734862,-0.007781155407428741,5.147533416748047
751,45100.0,-8.090007781982424,0.04369417950510979,5.207388877868652
752,45200.0,-8.090007781982424,0.04369417950510979,5.207388877868652
753,45300.0,-8.04810905456543,-0.013766659423708916,5.213374137878418
754,45400.0,-8.04810905456543,-0.013766659423708916,5.213374137878418
755,45500.0,-8.104372978210451,0.1472434103488922,5.13197135925293
756,45600.0,-8.149862289428711,0.08200141042470932,5.206789970397949
757,45700.0,-8.149862289428711,0.08200141042470932,5.206789970397949
758,45800.0,-8.04691219329834,0.08619125932455063,5.199607372283936
759,45900.0,-8.04691219329834,0.08619125932455063,5.199607372283936
760,45000.0,-8.100781440734862,-0.007781155407428741,5.147533416748047
761,45100.0,-8.090007781982424,0.04369417950510979,5.207388877868652
762,45200.0,-8.090007781982424,0.04369417950510979,5.207388877868652
763,45300.0,-8.04810905456543,-0.013766659423708916,5.213374137878418
764,45400.0,-8.04810905456543,-0.013766659423708916,5.213374137878418
765,45500.0,-8.104372978210451,0.1472434103488922,5.13197135925293
766,45600.0,-8.149862289428711,0.08200141042470932,5.206789970397949
767,45700.0,-8.149862289428711,0.08200141042470932,5.206789970397949
768,45800.0,-8.04691219329834,0.08619125932455063,5.199607372283936
769,45900.0,-8.04691219329834,0.08619125932455063,5.199607372283936
770,46000.0,-8.075043678283691,0.15442600846290588,5.181052684783936
771,46100.0,-8.075043678283691,0.15442600846290588,5.181052684783936
772,46200.0,-8.04691219329834,0.12509703636169436,5.245097160339356
773,46300.0,-8.04691219329834,0.12509703636169436,5.245097160339356
774,46400.0,-8.101978302001951,0.20530278980731964,5.170876979827881
775,46500.0,-8.027758598327638,0.2495955228805542,5.3151278495788565
776,46600.0,-8.027758598327638,0.2495955228805542,5.3151278495788565
777,46700.0,-8.10018253326416,0.1777694821357727,5.279813289642334
778,46800.0,-8.10018253326416,0.1777694821357727,5.279813289642334
779,46900.0,-8.099584579467772,0.2537853717803955,5.186439514160156
780,46000.0,-8.075043678283691,0.15442600846290588,5.181052684783936
781,46100.0,-8.075043678283691,0.15442600846290588,5.181052684783936
782,46200.0,-8.04691219329834,0.12509703636169436,5.245097160339356
783,46300.0,-8.04691219329834,0.12509703636169436,5.245097160339356
784,46400.0,-8.101978302001951,0.20530278980731964,5.170876979827881
785,46500.0,-8.027758598327638,0.2495955228805542,5.3151278495788565
786,46600.0,-8.027758598327638,0.2495955228805542,5.3151278495788565
787,46700.0,-8.10018253326416,0.1777694821357727,5.279813289642334
788,46800.0,-8.10018253326416,0.1777694821357727,5.279813289642334
789,46900.0,-8.099584579467772,0.2537853717803955,5.186439514160156
790,47000.0,-8.099584579467772,0.2537853717803955,5.186439514160156
791,47100.0,-8.030152320861816,0.22445641458034515,5.245696067810059
792,47200.0,-8.030152320861816,0.22445641458034515,5.245696067810059
793,47300.0,-8.08282470703125,0.25498247146606445,5.16010332107544
794,47400.0,-8.057086944580076,0.1843535304069519,5.2427029609680185
795,47500.0,-8.057086944580076,0.1843535304069519,5.2427029609680185
796,47600.0,-8.06666374206543,0.2382230758666992,5.231929302215576
797,47700.0,-8.06666374206543,0.2382230758666992,5.231929302215576
798,47800.0,-8.076839447021483,0.23163901269435885,5.245097160339356
799,47900.0,-8.076839447021483,0.23163901269435885,5.245097160339356
800,47000.0,-8.099584579467772,0.2537853717803955,5.186439514160156
801,47100.0,-8.030152320861816,0.22445641458034515,5.245696067810059
802,47200.0,-8.030152320861816,0.22445641458034515,5.245696067810059
803,47300.0,-8.08282470703125,0.25498247146606445,5.16010332107544
804,47400.0,-8.057086944580076,0.1843535304069519,5.2427029609680185
805,47500.0,-8.057086944580076,0.1843535304069519,5.2427029609680185
806,47600.0,-8.06666374206543,0.2382230758666992,5.231929302215576
807,47700.0,-8.06666374206543,0.2382230758666992,5.231929302215576
808,47800.0,-8.076839447021483,0.23163901269435885,5.245097160339356
809,47900.0,-8.076839447021483,0.23163901269435885,5.245097160339356
810,48000.0,-8.130110740661621,0.2304419130086899,5.187037944793701
811,48100.0,-8.130110740661621,0.2304419130086899,5.187037944793701
812,48200.0,-8.11634349822998,0.3292027413845062,5.169081687927246
813,48300.0,-8.08402156829834,0.228047713637352,5.2241482734680185
814,48400.0,-8.08402156829834,0.228047713637352,5.2241482734680185
815,48500.0,-8.104970932006836,0.2801215946674347,5.178658485412598
816,48600.0,-8.104970932006836,0.2801215946674347,5.178658485412598
817,48700.0,-8.058284759521483,0.22385786473751068,5.19362211227417
818,48800.0,-8.058284759521483,0.22385786473751068,5.19362211227417
819,48900.0,-8.106168746948242,0.3130418658256531,5.2014031410217285
820,48000.0,-8.130110740661621,0.2304419130086899,5.187037944793701
821,48100.0,-8.130110740661621,0.2304419130086899,5.187037944793701
822,48200.0,-8.11634349822998,0.3292027413845062,5.169081687927246
823,48300.0,-8.08402156829834,0.228047713637352,5.2241482734680185
824,48400.0,-8.08402156829834,0.228047713637352,5.2241482734680185
825,48500.0,-8.104970932006836,0.2801215946674347,5.178658485412598
826,48600.0,-8.104970932006836,0.2801215946674347,5.178658485412598
827,48700.0,-8.058284759521483,0.22385786473751068,5.19362211227417
828,48800.0,-8.058284759521483,0.22385786473751068,5.19362211227417
829,48900.0,-8.106168746948242,0.3130418658256531,5.2014031410217285
830,49000.0,-8.106168746948242,0.3130418658256531,5.2014031410217285
831,49100.0,-8.08282470703125,0.2711433470249176,5.183446884155273
832,49200.0,-8.09898567199707,0.2908954918384552,5.1355624198913565
833,49300.0,-8.09898567199707,0.2908954918384552,5.1355624198913565
834,49400.0,-8.008605003356934,0.23104046285152435,5.279214859008789
835,49500.0,-8.008605003356934,0.23104046285152435,5.279214859008789
836,49600.0,-8.112154006958008,0.29628247022628784,5.153519153594972
837,49700.0,-8.112154006958008,0.29628247022628784,5.153519153594972
838,49800.0,-8.048707962036133,0.2358288615942001,5.291784286499023
839,49900.0,-8.048707962036133,0.2358288615942001,5.291784286499023
840,49000.0,-8.106168746948242,0.3130418658256531,5.2014031410217285
841,49100.0,-8.08282470703125,0.2711433470249176,5.183446884155273
842,49200.0,-8.09898567199707,0.2908954918384552,5.1355624198913565
843,49300.0,-8.09898567199707,0.2908954918384552,5.1355624198913565
844,49400.0,-8.008605003356934,0.23104046285152435,5.279214859008789
845,49500.0,-8.008605003356934,0.23104046285152435,5.279214859008789
846,49600.0,-8.112154006958008,0.29628247022628784,5.153519153594972
847,49700.0,-8.112154006958008,0.29628247022628784,5.153519153594972
848,49800.0,-8.048707962036133,0.2358288615942001,5.291784286499023
849,49900.0,-8.048707962036133,0.2358288615942001,5.291784286499023
850,50000.0,-8.070255279541017,0.3363853394985199,5.169680118560791
851,50100.0,-8.055890083312987,0.24839842319488525,5.2444987297058105
852,50200.0,-8.055890083312987,0.24839842319488525,5.2444987297058105
853,50300.0,-8.033743858337402,0.3082534670829773,5.20978307723999
854,50400.0,-8.033743858337402,0.3082534670829773,5.20978307723999
855,50500.0,-8.04691219329834,0.24839842319488525,5.232527732849121
856,50600.0,-8.04691219329834,0.24839842319488525,5.232527732849121
857,50700.0,-8.053496360778809,0.3184288144111633,5.24030876159668
858,50800.0,-8.053496360778809,0.3184288144111633,5.24030876159668
859,50900.0,-8.105569839477539,0.2998737692832947,5.1990089416503915
860,50000.0,-8.070255279541017,0.3363853394985199,5.169680118560791
861,50100.0,-8.055890083312987,0.24839842319488525,5.2444987297058105
862,50200.0,-8.055890083312987,0.24839842319488525,5.2444987297058105
863,50300.0,-8.033743858337402,0.3082534670829773,5.20978307723999
864,50400.0,-8.033743858337402,0.3082534670829773,5.20978307723999
865,50500.0,-8.04691219329834,0.24839842319488525,5.232527732849121
866,50600.0,-8.04691219329834,0.24839842319488525,5.232527732849121
867,50700.0,-8.053496360778809,0.3184288144111633,5.24030876159668
868,50800.0,-8.053496360778809,0.3184288144111633,5.24030876159668
869,50900.0,-8.105569839477539,0.2998737692832947,5.1990089416503915
870,51000.0,-8.068459510803223,0.2723404467105865,5.247491359710693
871,51100.0,-8.068459510803223,0.2723404467105865,5.247491359710693
872,51200.0,-8.045714378356934,0.3166331648826599,5.252279758453369
873,51300.0,-8.045714378356934,0.3166331648826599,5.252279758453369
874,51400.0,-8.08043098449707,0.2567781209945679,5.222352504730225
875,51500.0,-8.08043098449707,0.2567781209945679,5.222352504730225
876,51600.0,-8.081028938293457,0.2932897210121155,5.186439514160156
877,51700.0,-8.081028938293457,0.2932897210121155,5.186439514160156
878,51800.0,-8.050502777099611,0.3112462162971497,5.206191539764403
879,51900.0,-8.069656372070312,0.25318682193756104,5.261258125305176
880,51000.0,-8.068459510803223,0.2723404467105865,5.247491359710693
881,51100.0,-8.068459510803223,0.2723404467105865,5.247491359710693
882,51200.0,-8.045714378356934,0.3166331648826599,5.252279758453369
883,51300.0,-8.045714378356934,0.3166331648826599,5.252279758453369
884,51400.0,-8.08043098449707,0.2567781209945679,5.222352504730225
885,51500.0,-8.08043098449707,0.2567781209945679,5.222352504730225
886,51600.0,-8.081028938293457,0.2932897210121155,5.186439514160156
887,51700.0,-8.081028938293457,0.2932897210121155,5.186439514160156
888,51800.0,-8.050502777099611,0.3112462162971497,5.206191539764403
889,51900.0,-8.069656372070312,0.25318682193756104,5.261258125305176
890,52000.0,-8.069656372070312,0.25318682193756104,5.261258125305176
891,52100.0,-8.091803550720215,0.3315969407558441,5.184045314788818
892,52200.0,-8.091803550720215,0.3315969407558441,5.184045314788818
893,52300.0,-8.051700592041017,0.2825157940387726,5.2247467041015625
894,52400.0,-8.051700592041017,0.2825157940387726,5.2247467041015625
895,52500.0,-8.093000411987305,0.1975216418504715,5.193023681640625
896,52600.0,-8.093000411987305,0.1975216418504715,5.193023681640625
897,52700.0,-8.08402156829834,0.28790274262428284,5.196614742279053
898,52800.0,-8.061277389526367,0.27473464608192444,5.206789970397949
899,52900.0,-8.061277389526367,0.27473464608192444,5.206789970397949
900,52000.0,-8.069656372070312,0.25318682193756104,5.261258125305176
901,52100.0,-8.091803550720215,0.3315969407558441,5.184045314788818
902,52200.0,-8.091803550720215,0.3315969407558441,5.184045314788818
903,52300.0,-8.051700592041017,0.2825157940387726,5.2247467041015625
904,52400.0,-8.051700592041017,0.2825157940387726,5.2247467041015625
905,52500.0,-8.093000411987305,0.1975216418504715,5.193023681640625
906,52600.0,-8.093000411987305,0.1975216418504715,5.193023681640625
907,52700.0,-8.08402156829834,0.28790274262428284,5.196614742279053
908,52800.0,-8.061277389526367,0.27473464608192444,5.206789970397949
909,52900.0,-8.061277389526367,0.27473464608192444,5.206789970397949
910,53000.0,-8.093599319458008,0.25079262256622314,5.196614742279053
911,53100.0,-8.093599319458008,0.25079262256622314,5.196614742279053
912,53200.0,-8.044517517089844,0.3220201432704925,5.22175407409668
913,53300.0,-8.044517517089844,0.3220201432704925,5.22175407409668
914,53400.0,-8.023568153381348,0.2992752194404602,5.22833776473999
915,53500.0,-8.023568153381348,0.2992752194404602,5.22833776473999
916,53600.0,-8.095993041992188,0.34416648745536804,5.2235493659973145
917,53700.0,-8.051700592041017,0.2448071241378784,5.146934986114502
918,53800.0,-8.051700592041017,0.2448071241378784,5.146934986114502
919,53900.0,-8.027758598327638,0.35254621505737305,5.206789970397949
920,53000.0,-8.093599319458008,0.25079262256622314,5.196614742279053
921,53100.0,-8.093599319458008,0.25079262256622314,5.196614742279053
922,53200.0,-8.044517517089844,0.3220201432704925,5.22175407409668
923,53300.0,-8.044517517089844,0.3220201432704925,5.22175407409668
924,53400.0,-8.023568153381348,0.2992752194404602,5.22833776473999
925,53500.0,-8.023568153381348,0.2992752194404602,5.22833776473999
926,53600.0,-8.095993041992188,0.34416648745536804,5.2235493659973145
927,53700.0,-8.051700592041017,0.2448071241378784,5.146934986114502
928,53800.0,-8.051700592041017,0.2448071241378784,5.146934986114502
929,53900.0,-8.027758598327638,0.35254621505737305,5.206789970397949
930,54000.0,-8.027758598327638,0.35254621505737305,5.206789970397949
931,54100.0,-8.060079574584961,0.4399345517158508,5.100248336791992
932,54200.0,-8.060079574584961,0.4399345517158508,5.100248336791992
933,54300.0,-8.140884399414062,0.2890998423099518,5.175665378570557
934,54400.0,-8.140884399414062,0.2890998423099518,5.175665378570557
935,54500.0,-8.074444770812987,0.3303998410701752,5.173870086669922
936,54600.0,-8.177395820617676,0.3806780576705933,5.05715274810791
937,54700.0,-8.177395820617676,0.3806780576705933,5.05715274810791
938,54800.0,-8.109161376953125,0.39803603291511536,5.117606163024902
939,54900.0,-8.109161376953125,0.39803603291511536,5.117606163024902
940,54000.0,-8.027758598327638,0.35254621505737305,5.206789970397949
941,54100.0,-8.060079574584961,0.4399345517158508,5.100248336791992
942,54200.0,-8.060079574584961,0.4399345517158508,5.100248336791992
943,54300.0,-8.140884399414062,0.2890998423099518,5.175665378570557
944,54400.0,-8.140884399414062,0.2890998423099518,5.175665378570557
945,54500.0,-8.074444770812987,0.3303998410701752,5.173870086669922
946,54600.0,-8.177395820617676,0.3806780576705933,5.05715274810791
947,54700.0,-8.177395820617676,0.3806780576705933,5.05715274810791
948,54800.0,-8.109161376953125,0.39803603291511536,5.117606163024902
949,54900.0,-8.109161376953125,0.39803603291511536,5.117606163024902
950,55000.0,-8.092401504516603,0.3345896899700165,5.14813232421875
951,55100.0,-8.092401504516603,0.3345896899700165,5.14813232421875
952,55200.0,-8.059481620788574,0.3579331636428833,5.149928092956543
953,55300.0,-8.059481620788574,0.3579331636428833,5.149928092956543
954,55400.0,-8.136096000671388,0.3633201122283936,5.153519153594972
955,55500.0,-8.075043678283691,0.3315969407558441,5.173870086669922
956,55600.0,-8.075043678283691,0.3315969407558441,5.173870086669922
957,55700.0,-8.181585311889647,0.4171896576881409,5.072714805603027
958,55800.0,-8.181585311889647,0.4171896576881409,5.072714805603027
959,55900.0,-8.106766700744629,0.3615244626998901,5.122992992401123
960,55000.0,-8.092401504516603,0.3345896899700165,5.14813232421875
961,55100.0,-8.092401504516603,0.3345896899700165,5.14813232421875
962,55200.0,-8.059481620788574,0.3579331636428833,5.149928092956543
963,55300.0,-8.059481620788574,0.3579331636428833,5.149928092956543
964,55400.0,-8.136096000671388,0.3633201122283936,5.153519153594972
965,55500.0,-8.075043678283691,0.3315969407558441,5.173870086669922
966,55600.0,-8.075043678283691,0.3315969407558441,5.173870086669922
967,55700.0,-8.181585311889647,0.4171896576881409,5.072714805603027
968,55800.0,-8.181585311889647,0.4171896576881409,5.072714805603027
969,55900.0,-8.106766700744629,0.3615244626998901,5.122992992401123
970,56000.0,-8.106766700744629,0.3615244626998901,5.122992992401123
971,56100.0,-8.177994728088379,0.30047231912612915,5.057751178741455
972,56200.0,-8.177994728088379,0.30047231912612915,5.057751178741455
973,56300.0,-8.115745544433594,0.20290859043598172,5.14932918548584
974,56400.0,-8.161833763122559,0.13826514780521393,5.026626586914063
975,56500.0,-8.161833763122559,0.13826514780521393,5.026626586914063
976,56600.0,-8.249820709228517,0.10115502029657364,5.04218864440918
977,56700.0,-8.249820709228517,0.10115502029657364,5.04218864440918
978,56800.0,-8.155848503112793,0.15741875767707825,5.056553840637207
979,56900.0,-8.155848503112793,0.15741875767707825,5.056553840637207
980,56000.0,-8.106766700744629,0.3615244626998901,5.122992992401123
981,56100.0,-8.177994728088379,0.30047231912612915,5.057751178741455
982,56200.0,-8.177994728088379,0.30047231912612915,5.057751178741455
983,56300.0,-8.115745544433594,0.20290859043598172,5.14932918548584
984,56400.0,-8.161833763122559,0.13826514780521393,5.026626586914063
985,56500.0,-8.161833763122559,0.13826514780521393,5.026626586914063
986,56600.0,-8.249820709228517,0.10115502029657364,5.04218864440918
987,56700.0,-8.249820709228517,0.10115502029657364,5.04218864440918
988,56800.0,-8.155848503112793,0.15741875767707825,5.056553840637207
989,56900.0,-8.155848503112793,0.15741875767707825,5.056553840637207
990,57000.0,-8.239645004272461,0.1256955862045288,5.008071422576903
991,57100.0,-8.239645004272461,0.1256955862045288,5.008071422576903
992,57200.0,-8.095394134521483,0.4782418012619018,5.05715274810791
993,57300.0,-8.094197273254395,0.4806360006332398,5.163095951080322
994,57400.0,-8.094197273254395,0.4806360006332398,5.163095951080322
995,57500.0,-8.233659744262695,0.4704606235027313,5.008071422576903
996,57600.0,-8.233659744262695,0.4704606235027313,5.008071422576903
997,57700.0,-8.13789176940918,0.345363587141037,5.050568580627441
998,57800.0,-8.13789176940918,0.345363587141037,5.050568580627441
999,57900.0,-8.246828079223633,0.4501099288463593,4.966172695159912
1000,57000.0,-8.239645004272461,0.1256955862045288,5.008071422576903
1001,57100.0,-8.239645004272461,0.1256955862045288,5.008071422576903
1002,57200.0,-8.095394134521483,0.4782418012619018,5.05715274810791
1003,57300.0,-8.094197273254395,0.4806360006332398,5.163095951080322
1004,57400.0,-8.094197273254395,0.4806360006332398,5.163095951080322
1005,57500.0,-8.233659744262695,0.4704606235027313,5.008071422576903
1006,57600.0,-8.233659744262695,0.4704606235027313,5.008071422576903
1007,57700.0,-8.13789176940918,0.345363587141037,5.050568580627441
1008,57800.0,-8.13789176940918,0.345363587141037,5.050568580627441
1009,57900.0,-8.246828079223633,0.4501099288463593,4.966172695159912
1010,58000.0,-8.246828079223633,0.4501099288463593,4.966172695159912
1011,58100.0,-8.121131896972656,0.3800795078277588,5.088277339935303
1012,58200.0,-8.209717750549316,0.3896563351154328,4.970362663269043
1013,58300.0,-8.209717750549316,0.3896563351154328,4.970362663269043
1014,58400.0,-8.181585311889647,0.3148375153541565,5.07570743560791
1015,58500.0,-8.181585311889647,0.3148375153541565,5.07570743560791
1016,58600.0,-8.183979988098145,0.3986345827579498,4.992508888244629
1017,58700.0,-8.183979988098145,0.3986345827579498,4.992508888244629
1018,58800.0,-8.229470252990723,0.4082113802433014,5.0260281562805185
1019,58900.0,-8.229470252990723,0.4082113802433014,5.0260281562805185
1020,58000.0,-8.246828079223633,0.4501099288463593,4.966172695159912
1021,58100.0,-8.121131896972656,0.3800795078277588,5.088277339935303
1022,58200.0,-8.209717750549316,0.3896563351154328,4.970362663269043
1023,58300.0,-8.209717750549316,0.3896563351154328,4.970362663269043
1024,58400.0,-8.181585311889647,0.3148375153541565,5.07570743560791
1025,58500.0,-8.181585311889647,0.3148375153541565,5.07570743560791
1026,58600.0,-8.183979988098145,0.3986345827579498,4.992508888244629
1027,58700.0,-8.183979988098145,0.3986345827579498,4.992508888244629
1028,58800.0,-8.229470252990723,0.4082113802433014,5.0260281562805185
1029,58900.0,-8.229470252990723,0.4082113802433014,5.0260281562805185
1030,59000.0,-8.199542045593263,0.3944447338581085,5.011662483215332
1031,59100.0,-8.182184219360353,0.4076128304004669,5.008071422576903
1032,59200.0,-8.182184219360353,0.4076128304004669,5.008071422576903
1033,59300.0,-8.140285491943361,0.4237737059593201,5.046378612518311
1034,59400.0,-8.140285491943361,0.4237737059593201,5.046378612518311
1035,59500.0,-8.174403190612793,0.3794809579849243,5.0900726318359375
1036,59600.0,-8.174403190612793,0.3794809579849243,5.0900726318359375
1037,59700.0,-8.146869659423826,0.36571431159973145,5.0703206062316895
1038,59800.0,-8.146869659423826,0.36571431159973145,5.0703206062316895
1039,59900.0,-8.180987358093263,0.3615244626998901,5.043385982513428
1040,59000.0,-8.199542045593263,0.3944447338581085,5.011662483215332
1041,59100.0,-8.182184219360353,0.4076128304004669,5.008071422576903
1042,59200.0,-8.182184219360353,0.4076128304004669,5.008071422576903
1043,59300.0,-8.140285491943361,0.4237737059593201,5.046378612518311
1044,59400.0,-8.140285491943361,0.4237737059593201,5.046378612518311
1045,59500.0,-8.174403190612793,0.3794809579849243,5.0900726318359375
1046,59600.0,-8.174403190612793,0.3794809579849243,5.0900726318359375
1047,59700.0,-8.146869659423826,0.36571431159973145,5.0703206062316895
1048,59800.0,-8.146869659423826,0.36571431159973145,5.0703206062316895
1049,59900.0,-8.180987358093263,0.3615244626998901,5.043385982513428
1050,60000.0,-8.180987358093263,0.3615244626998901,5.043385982513428
1051,60100.0,-8.119336128234862,0.3495534360408783,5.108627796173097
1052,60200.0,-8.148665428161621,0.2867056429386139,5.085284233093262
1053,60300.0,-8.148665428161621,0.2867056429386139,5.085284233093262
1054,60400.0,-8.146271705627441,0.2472013235092163,5.078700542449951
1055,60500.0,-8.146271705627441,0.2472013235092163,5.078700542449951
1056,60600.0,-8.163629531860353,0.2477998733520508,5.099050998687744
1057,60700.0,-8.163629531860353,0.2477998733520508,5.099050998687744
1058,60800.0,-8.163030624389647,0.25737667083740234,5.084087371826172
1059,60900.0,-8.163030624389647,0.25737667083740234,5.084087371826172
1060,60000.0,-8.180987358093263,0.3615244626998901,5.043385982513428
1061,60100.0,-8.119336128234862,0.3495534360408783,5.108627796173097
1062,60200.0,-8.148665428161621,0.2867056429386139,5.085284233093262
1063,60300.0,-8.148665428161621,0.2867056429386139,5.085284233093262
1064,60400.0,-8.146271705627441,0.2472013235092163,5.078700542449951
1065,60500.0,-8.146271705627441,0.2472013235092163,5.078700542449951
1066,60600.0,-8.163629531860353,0.2477998733520508,5.099050998687744
1067,60700.0,-8.163629531860353,0.2477998733520508,5.099050998687744
1068,60800.0,-8.163030624389647,0.25737667083740234,5.084087371826172
1069,60900.0,-8.163030624389647,0.25737667083740234,5.084087371826172
1070,61000.0,-8.18757152557373,0.23163901269435885,5.048174381256104
1071,61100.0,-8.192359924316406,0.1759738177061081,5.048772811889648
1072,61200.0,-8.192359924316406,0.1759738177061081,5.048772811889648
1073,61300.0,-8.158242225646973,0.11611878126859665,5.043385982513428
1074,61400.0,-8.158242225646973,0.11611878126859665,5.043385982513428
1075,61500.0,-8.170811653137207,0.1430535465478897,5.08648157119751
1076,61600.0,-8.170811653137207,0.1430535465478897,5.08648157119751
1077,61700.0,-8.162431716918945,0.15682020783424375,5.056553840637207
1078,61800.0,-8.151658058166504,0.2346317619085312,5.082890033721924
1079,61900.0,-8.151658058166504,0.2346317619085312,5.082890033721924
1080,61000.0,-8.18757152557373,0.23163901269435885,5.048174381256104
1081,61100.0,-8.192359924316406,0.1759738177061081,5.048772811889648
1082,61200.0,-8.192359924316406,0.1759738177061081,5.048772811889648
1083,61300.0,-8.158242225646973,0.11611878126859665,5.043385982513428
1084,61400.0,-8.158242225646973,0.11611878126859665,5.043385982513428
1085,61500.0,-8.170811653137207,0.1430535465478897,5.08648157119751
1086,61600.0,-8.170811653137207,0.1430535465478897,5.08648157119751
1087,61700.0,-8.162431716918945,0.15682020783424375,5.056553840637207
1088,61800.0,-8.151658058166504,0.2346317619085312,5.082890033721924
1089,61900.0,-8.151658058166504,0.2346317619085312,5.082890033721924
1090,62000.0,-8.197148323059082,0.1849520802497864,5.07451057434082
1091,62100.0,-8.197148323059082,0.1849520802497864,5.07451057434082
1092,62200.0,-8.151060104370117,0.2304419130086899,5.098452568054199
1093,62300.0,-8.151060104370117,0.2304419130086899,5.098452568054199
1094,62400.0,-8.198345184326174,0.1711854189634323,5.10264253616333
1095,62500.0,-8.198345184326174,0.1711854189634323,5.10264253616333
1096,62600.0,-8.15524959564209,0.16998831927776334,5.050568580627441
1097,62700.0,-8.15524959564209,0.16998831927776334,5.050568580627441
1098,62800.0,-8.136096000671388,0.2753331959247589,5.085883140563965
1099,62900.0,-8.154650688171388,0.2178723514080048,5.112817764282227
1100,62000.0,-8.197148323059082,0.1849520802497864,5.07451057434082
1101,62100.0,-8.197148323059082,0.1849520802497864,5.07451057434082
1102,62200.0,-8.151060104370117,0.2304419130086899,5.098452568054199
1103,62300.0,-8.151060104370117,0.2304419130086899,5.098452568054199
1104,62400.0,-8.198345184326174,0.1711854189634323,5.10264253616333
1105,62500.0,-8.198345184326174,0.1711854189634323,5.10264253616333
1106,62600.0,-8.15524959564209,0.16998831927776334,5.050568580627441
1107,62700.0,-8.15524959564209,0.16998831927776334,5.050568580627441
1108,62800.0,-8.136096000671388,0.2753331959247589,5.085883140563965
1109,62900.0,-8.154650688171388,0.2178723514080048,5.112817764282227
1110,63000.0,-8.154650688171388,0.2178723514080048,5.112817764282227
1111,63100.0,-8.138489723205566,0.4531026780605316,5.037400245666504
1112,63200.0,-8.138489723205566,0.4531026780605316,5.037400245666504
1113,63300.0,-8.20612621307373,0.32680854201316833,5.048174381256104
1114,63400.0,-8.20612621307373,0.32680854201316833,5.048174381256104
1115,63500.0,-8.27855110168457,0.3495534360408783,4.966172695159912
1116,63600.0,-8.27855110168457,0.3495534360408783,4.966172695159912
1117,63700.0,-8.197746276855469,0.4255693554878235,5.027823448181152
1118,63800.0,-8.188169479370117,0.4028244316577912,5.021838188171387
1119,63900.0,-8.188169479370117,0.4028244316577912,5.021838188171387
1120,63000.0,-8.154650688171388,0.2178723514080048,5.112817764282227
1121,63100.0,-8.138489723205566,0.4531026780605316,5.037400245666504
1122,63200.0,-8.138489723205566,0.4531026780605316,5.037400245666504
1123,63300.0,-8.20612621307373,0.32680854201316833,5.048174381256104
1124,63400.0,-8.20612621307373,0.32680854201316833,5.048174381256104
1125,63500.0,-8.27855110168457,0.3495534360408783,4.966172695159912
1126,63600.0,-8.27855110168457,0.3495534360408783,4.966172695159912
1127,63700.0,-8.197746276855469,0.4255693554878235,5.027823448181152
1128,63800.0,-8.188169479370117,0.4028244316577912,5.021838188171387
1129,63900.0,-8.188169479370117,0.4028244316577912,5.021838188171387
1130,64000.0,-8.142680168151855,0.3812766075134277,5.075109004974365
1131,64100.0,-8.142680168151855,0.3812766075134277,5.075109004974365
1132,64200.0,-8.135497093200684,0.3770867586135864,5.062539577484131
1133,64300.0,-8.135497093200684,0.3770867586135864,5.062539577484131
1134,64400.0,-8.167220115661621,0.3824737071990967,5.051167011260986
1135,64500.0,-8.167220115661621,0.3824737071990967,5.051167011260986
1136,64600.0,-8.225878715515138,0.3986345827579498,5.009268283843994
1137,64700.0,-8.143278121948242,0.3417722880840301,5.058349609375
1138,64800.0,-8.143278121948242,0.3417722880840301,5.058349609375
1139,64900.0,-8.246828079223633,0.4016273319721222,4.954201698303223
1140,64000.0,-8.142680168151855,0.3812766075134277,5.075109004974365
1141,64100.0,-8.142680168151855,0.3812766075134277,5.075109004974365
1142,64200.0,-8.135497093200684,0.3770867586135864,5.062539577484131
1143,64300.0,-8.135497093200684,0.3770867586135864,5.062539577484131
1144,64400.0,-8.167220115661621,0.3824737071990967,5.051167011260986
1145,64500.0,-8.167220115661621,0.3824737071990967,5.051167011260986
1146,64600.0,-8.225878715515138,0.3986345827579498,5.009268283843994
1147,64700.0,-8.143278121948242,0.3417722880840301,5.058349609375
1148,64800.0,-8.143278121948242,0.3417722880840301,5.058349609375
1149,64900.0,-8.246828079223633,0.4016273319721222,4.954201698303223
1150,65000.0,-8.246828079223633,0.4016273319721222,4.954201698303223
1151,65100.0,-8.176796913146973,0.3728969097137451,5.050568580627441
1152,65200.0,-8.176796913146973,0.3728969097137451,5.050568580627441
1153,65300.0,-8.220491409301758,0.4429273009300232,4.964975833892822
1154,65400.0,-8.220491409301758,0.4429273009300232,4.964975833892822
1155,65500.0,-8.183979988098145,0.3405751883983612,5.067327976226807
1156,65600.0,-8.209717750549316,0.4435258507728577,5.0260281562805185
1157,65700.0,-8.209717750549316,0.4435258507728577,5.0260281562805185
1158,65800.0,-8.136096000671388,0.4010287821292877,5.066130638122559
1159,65900.0,-8.136096000671388,0.4010287821292877,5.066130638122559
1160,65000.0,-8.246828079223633,0.4016273319721222,4.954201698303223
1161,65100.0,-8.176796913146973,0.3728969097137451,5.050568580627441
1162,65200.0,-8.176796913146973,0.3728969097137451,5.050568580627441
1163,65300.0,-8.220491409301758,0.4429273009300232,4.964975833892822
1164,65400.0,-8.220491409301758,0.4429273009300232,4.964975833892822
1165,65500.0,-8.183979988098145,0.3405751883983612,5.067327976226807
1166,65600.0,-8.209717750549316,0.4435258507728577,5.0260281562805185
1167,65700.0,-8.209717750549316,0.4435258507728577,5.0260281562805185
1168,65800.0,-8.136096000671388,0.4010287821292877,5.066130638122559
1169,65900.0,-8.136096000671388,0.4010287821292877,5.066130638122559
1170,66000.0,-8.18876838684082,0.4237737059593201,4.992508888244629
1171,66100.0,-8.18876838684082,0.4237737059593201,4.992508888244629
1172,66200.0,-8.162431716918945,0.424970805644989,5.095459938049316
1173,66300.0,-8.162431716918945,0.424970805644989,5.095459938049316
1174,66400.0,-8.161833763122559,0.454898327589035,4.990114688873291
1175,66500.0,-8.216899871826174,0.3812766075134277,5.033809185028076
1176,66600.0,-8.216899871826174,0.3812766075134277,5.033809185028076
1177,66700.0,-8.192359924316406,0.4590881764888763,5.017049789428711
1178,66800.0,-8.192359924316406,0.4590881764888763,5.017049789428711
1179,66900.0,-8.177395820617676,0.3902548849582672,5.046977043151856
1180,66000.0,-8.18876838684082,0.4237737059593201,4.992508888244629
1181,66100.0,-8.18876838684082,0.4237737059593201,4.992508888244629
1182,66200.0,-8.162431716918945,0.424970805644989,5.095459938049316
1183,66300.0,-8.162431716918945,0.424970805644989,5.095459938049316
1184,66400.0,-8.161833763122559,0.454898327589035,4.990114688873291
1185,66500.0,-8.216899871826174,0.3812766075134277,5.033809185028076
1186,66600.0,-8.216899871826174,0.3812766075134277,5.033809185028076
1187,66700.0,-8.192359924316406,0.4590881764888763,5.017049789428711
1188,66800.0,-8.192359924316406,0.4590881764888763,5.017049789428711
1189,66900.0,-8.177395820617676,0.3902548849582672,5.046977043151856
1190,67000.0,-8.177395820617676,0.3902548849582672,5.046977043151856
1191,67100.0,-8.15764331817627,0.3866635859012604,5.046977043151856
1192,67200.0,-8.15764331817627,0.3866635859012604,5.046977043151856
1193,67300.0,-8.170811653137207,0.4435258507728577,5.061941146850586
1194,67400.0,-8.176198959350586,0.39145198464393616,5.01285982131958
1195,67500.0,-8.176198959350586,0.39145198464393616,5.01285982131958
1196,67600.0,-8.148066520690918,0.3890577852725983,5.077503204345703
1197,67700.0,-8.148066520690918,0.3890577852725983,5.077503204345703
1198,67800.0,-8.240841865539549,0.4255693554878235,4.975749492645264
1199,67900.0,-8.240841865539549,0.4255693554878235,4.975749492645264
1200,67000.0,-8.177395820617676,0.3902548849582672,5.046977043151856
1201,67100.0,-8.15764331817627,0.3866635859012604,5.046977043151856
1202,67200.0,-8.15764331817627,0.3866635859012604,5.046977043151856
1203,67300.0,-8.170811653137207,0.4435258507728577,5.061941146850586
1204,67400.0,-8.176198959350586,0.39145198464393616,5.01285982131958
1205,67500.0,-8.176198959350586,0.39145198464393616,5.01285982131958
1206,67600.0,-8.148066520690918,0.3890577852725983,5.077503204345703
1207,67700.0,-8.148066520690918,0.3890577852725983,5.077503204345703
1208,67800.0,-8.240841865539549,0.4255693554878235,4.975749492645264
1209,67900.0,-8.240841865539549,0.4255693554878235,4.975749492645264
1210,68000.0,-8.161234855651855,0.405218631029129,5.067926406860352
1211,68100.0,-8.161234855651855,0.405218631029129,5.067926406860352
1212,68200.0,-8.20612621307373,0.4201824069023132,5.037400245666504
1213,68300.0,-8.200140953063965,0.4231751561164856,5.046977043151856
1214,68400.0,-8.200140953063965,0.4231751561164856,5.046977043151856
1215,68500.0,-8.180987358093263,0.40462008118629456,5.040393352508545
1216,68600.0,-8.180987358093263,0.40462008118629456,5.040393352508545
1217,68700.0,-8.15524959564209,0.3938461840152741,5.062539577484131
1218,68800.0,-8.15524959564209,0.3938461840152741,5.062539577484131
1219,68900.0,-8.175002098083496,0.405218631029129,5.0703206062316895
1220,68000.0,-8.161234855651855,0.405218631029129,5.067926406860352
1221,68100.0,-8.161234855651855,0.405218631029129,5.067926406860352
1222,68200.0,-8.20612621307373,0.4201824069023132,5.037400245666504
1223,68300.0,-8.200140953063965,0.4231751561164856,5.046977043151856
1224,68400.0,-8.200140953063965,0.4231751561164856,5.046977043151856
1225,68500.0,-8.180987358093263,0.40462008118629456,5.040393352508545
1226,68600.0,-8.180987358093263,0.40462008118629456,5.040393352508545
1227,68700.0,-8.15524959564209,0.3938461840152741,5.062539577484131
1228,68800.0,-8.15524959564209,0.3938461840152741,5.062539577484131
1229,68900.0,-8.175002098083496,0.405218631029129,5.0703206062316895
1230,69000.0,-8.175002098083496,0.405218631029129,5.0703206062316895
1231,69100.0,-8.218695640563965,0.4094084799289704,4.990713596343994
1232,69200.0,-8.148066520690918,0.3956418335437775,5.072714805603027
1233,69300.0,-8.148066520690918,0.3956418335437775,5.072714805603027
1234,69400.0,-8.217498779296875,0.4106055796146393,4.988319396972656
1235,69500.0,-8.217498779296875,0.4106055796146393,4.988319396972656
1236,69600.0,-8.161833763122559,0.3932476341724396,5.052962779998778
1237,69700.0,-8.161833763122559,0.3932476341724396,5.052962779998778
1238,69800.0,-8.15524959564209,0.376488208770752,5.084685802459717
1239,69900.0,-8.15524959564209,0.376488208770752,5.084685802459717
1240,69000.0,-8.175002098083496,0.405218631029129,5.0703206062316895
1241,69100.0,-8.218695640563965,0.4094084799289704,4.990713596343994
1242,69200.0,-8.148066520690918,0.3956418335437775,5.072714805603027
1243,69300.0,-8.148066520690918,0.3956418335437775,5.072714805603027
1244,69400.0,-8.217498779296875,0.4106055796146393,4.988319396972656
1245,69500.0,-8.217498779296875,0.4106055796146393,4.988319396972656
1246,69600.0,-8.161833763122559,0.3932476341724396,5.052962779998778
1247,69700.0,-8.161833763122559,0.3932476341724396,5.052962779998778
1248,69800.0,-8.15524959564209,0.376488208770752,5.084685802459717
1249,69900.0,-8.15524959564209,0.376488208770752,5.084685802459717
1250,70000.0,-8.191162109375,0.4830302000045776,5.002684593200684
1251,70100.0,-8.127716064453125,0.3866635859012604,5.088875770568848
1252,70200.0,-8.127716064453125,0.3866635859012604,5.088875770568848
1253,70300.0,-8.269572257995605,0.4417302012443543,4.953004837036133
1254,70400.0,-8.269572257995605,0.4417302012443543,4.953004837036133
1255,70500.0,-8.163629531860353,0.37229835987091053,5.018845081329347
1256,70600.0,-8.163629531860353,0.37229835987091053,5.018845081329347
1257,70700.0,-8.169015884399414,0.3908534348011017,5.021838188171387
1258,70800.0,-8.169015884399414,0.3908534348011017,5.021838188171387
1259,70900.0,-8.204330444335938,0.3938461840152741,5.1158103942871085
1260,70000.0,-8.191162109375,0.4830302000045776,5.002684593200684
1261,70100.0,-8.127716064453125,0.3866635859012604,5.088875770568848
1262,70200.0,-8.127716064453125,0.3866635859012604,5.088875770568848
1263,70300.0,-8.269572257995605,0.4417302012443543,4.953004837036133
1264,70400.0,-8.269572257995605,0.4417302012443543,4.953004837036133
1265,70500.0,-8.163629531860353,0.37229835987091053,5.018845081329347
1266,70600.0,-8.163629531860353,0.37229835987091053,5.018845081329347
1267,70700.0,-8.169015884399414,0.3908534348011017,5.021838188171387
1268,70800.0,-8.169015884399414,0.3908534348011017,5.021838188171387
1269,70900.0,-8.204330444335938,0.3938461840152741,5.1158103942871085
1270,71000.0,-8.094796180725098,0.4327519536018372,5.157110691070557
1271,71100.0,-8.094796180725098,0.4327519536018372,5.157110691070557
1272,71200.0,-8.188169479370117,0.2944868206977844,5.101445198059082
1273,71300.0,-8.188169479370117,0.2944868206977844,5.101445198059082
1274,71400.0,-8.158841133117676,0.11552023142576218,5.061941146850586
1275,71500.0,-8.158841133117676,0.11552023142576218,5.061941146850586
1276,71600.0,-8.136096000671388,0.3106476664543152,5.021838188171387
1277,71700.0,-8.136096000671388,0.3106476664543152,5.021838188171387
1278,71800.0,-8.106168746948242,0.2106897532939911,5.14932918548584
1279,71900.0,-8.122329711914062,0.30945056676864624,5.07451057434082
1280,71000.0,-8.094796180725098,0.4327519536018372,5.157110691070557
1281,71100.0,-8.094796180725098,0.4327519536018372,5.157110691070557
1282,71200.0,-8.188169479370117,0.2944868206977844,5.101445198059082
1283,71300.0,-8.188169479370117,0.2944868206977844,5.101445198059082
1284,71400.0,-8.158841133117676,0.11552023142576218,5.061941146850586
1285,71500.0,-8.158841133117676,0.11552023142576218,5.061941146850586
1286,71600.0,-8.136096000671388,0.3106476664543152,5.021838188171387
1287,71700.0,-8.136096000671388,0.3106476664543152,5.021838188171387
1288,71800.0,-8.106168746948242,0.2106897532939911,5.14932918548584
1289,71900.0,-8.122329711914062,0.30945056676864624,5.07451057434082
1290,72000.0,-8.122329711914062,0.30945056676864624,5.07451057434082
1291,72100.0,-8.222886085510254,0.37529110908508295,5.0894742012023935
1292,72200.0,-8.222886085510254,0.37529110908508295,5.0894742012023935
1293,72300.0,-8.159439086914062,0.5823895931243896,5.0703206062316895
1294,72400.0,-8.159439086914062,0.5823895931243896,5.0703206062316895
1295,72500.0,-8.131307601928711,0.3776853084564209,5.096058368682861
1296,72600.0,-8.131307601928711,0.3776853084564209,5.096058368682861
1297,72700.0,-7.896675586700439,0.1646013706922531,5.162497520446777
1298,72800.0,-8.161833763122559,0.5374982953071594,4.888959884643555
1299,72900.0,-8.161833763122559,0.5374982953071594,4.888959884643555
1300,72000.0,-8.122329711914062,0.30945056676864624,5.07451057434082
1301,72100.0,-8.222886085510254,0.37529110908508295,5.0894742012023935
1302,72200.0,-8.222886085510254,0.37529110908508295,5.0894742012023935
1303,72300.0,-8.159439086914062,0.5823895931243896,5.0703206062316895
1304,72400.0,-8.159439086914062,0.5823895931243896,5.0703206062316895
1305,72500.0,-8.131307601928711,0.3776853084564209,5.096058368682861
1306,72600.0,-8.131307601928711,0.3776853084564209,5.096058368682861
1307,72700.0,-7.896675586700439,0.1646013706922531,5.162497520446777
1308,72800.0,-8.161833763122559,0.5374982953071594,4.888959884643555
1309,72900.0,-8.161833763122559,0.5374982953071594,4.888959884643555
1310,73000.0,-8.133103370666504,0.3932476341724396,5.018246650695801
1311,73100.0,-8.133103370666504,0.3932476341724396,5.018246650695801
1312,73200.0,-8.182184219360353,-0.01975216343998909,5.0906715393066415
1313,73300.0,-8.182184219360353,-0.01975216343998909,5.0906715393066415
1314,73400.0,-8.203732490539549,-0.32441434264183044,4.914099216461182
1315,73500.0,-8.203732490539549,-0.32441434264183044,4.914099216461182
1316,73600.0,-8.17021369934082,0.10115502029657364,4.838681697845459
1317,73700.0,-8.357559204101562,0.07541735470294952,4.746504783630371
1318,73800.0,-8.357559204101562,0.07541735470294952,4.746504783630371
1319,73900.0,-8.522160530090332,0.5315127968788147,4.527435302734375
1320,73000.0,-8.133103370666504,0.3932476341724396,5.018246650695801
1321,73100.0,-8.133103370666504,0.3932476341724396,5.018246650695801
1322,73200.0,-8.182184219360353,-0.01975216343998909,5.0906715393066415
1323,73300.0,-8.182184219360353,-0.01975216343998909,5.0906715393066415
1324,73400.0,-8.203732490539549,-0.32441434264183044,4.914099216461182
1325,73500.0,-8.203732490539549,-0.32441434264183044,4.914099216461182
1326,73600.0,-8.17021369934082,0.10115502029657364,4.838681697845459
1327,73700.0,-8.357559204101562,0.07541735470294952,4.746504783630371
1328,73800.0,-8.357559204101562,0.07541735470294952,4.746504783630371
1329,73900.0,-8.522160530090332,0.5315127968788147,4.527435302734375
1330,74000.0,-8.522160530090332,0.5315127968788147,4.527435302734375
1331,74100.0,-8.070255279541017,0.2112883031368256,5.140949726104736
1332,74200.0,-8.070255279541017,0.2112883031368256,5.140949726104736
1333,74300.0,-8.057685852050781,0.10654197633266448,5.118803024291992
1334,74400.0,-8.057685852050781,0.10654197633266448,5.118803024291992
1335,74500.0,-8.034940719604492,0.35913026332855225,5.200206279754639
1336,74600.0,-8.434772491455076,0.39145198464393616,4.961384296417236
1337,74700.0,-8.434772491455076,0.39145198464393616,4.961384296417236
1338,74800.0,-7.981071472167969,0.32441434264183044,5.235520362854004
1339,74900.0,-7.981071472167969,0.32441434264183044,5.235520362854004
1340,74000.0,-8.522160530090332,0.5315127968788147,4.527435302734375
1341,74100.0,-8.070255279541017,0.2112883031368256,5.140949726104736
1342,74200.0,-8.070255279541017,0.2112883031368256,5.140949726104736
1343,74300.0,-8.057685852050781,0.10654197633266448,5.118803024291992
1344,74400.0,-8.057685852050781,0.10654197633266448,5.118803024291992
1345,74500.0,-8.034940719604492,0.35913026332855225,5.200206279754639
1346,74600.0,-8.434772491455076,0.39145198464393616,4.961384296417236
1347,74700.0,-8.434772491455076,0.39145198464393616,4.961384296417236
1348,74800.0,-7.981071472167969,0.32441434264183044,5.235520362854004
1349,74900.0,-7.981071472167969,0.32441434264183044,5.235520362854004
1350,75000.0,-8.313266754150389,0.44831427931785583,5.245696067810059
1351,75100.0,-8.313266754150389,0.44831427931785583,5.245696067810059
1352,75200.0,-8.111555099487305,0.31603461503982544,5.085284233093262
1353,75300.0,-8.111555099487305,0.31603461503982544,5.085284233093262
1354,75400.0,-8.18996524810791,0.23283611238002774,5.077503204345703
1355,75500.0,-8.26239013671875,0.17537526786327362,5.026626586914063
1356,75600.0,-8.26239013671875,0.17537526786327362,5.026626586914063
1357,75700.0,-8.20732307434082,0.27054479718208313,4.991910457611084
1358,75800.0,-8.20732307434082,0.27054479718208313,4.991910457611084
1359,75900.0,-7.999626636505128,0.23762452602386475,4.867412090301514
1360,75000.0,-8.313266754150389,0.44831427931785583,5.245696067810059
1361,75100.0,-8.313266754150389,0.44831427931785583,5.245696067810059
1362,75200.0,-8.111555099487305,0.31603461503982544,5.085284233093262
1363,75300.0,-8.111555099487305,0.31603461503982544,5.085284233093262
1364,75400.0,-8.18996524810791,0.23283611238002774,5.077503204345703
1365,75500.0,-8.26239013671875,0.17537526786327362,5.026626586914063
1366,75600.0,-8.26239013671875,0.17537526786327362,5.026626586914063
1367,75700.0,-8.20732307434082,0.27054479718208313,4.991910457611084
1368,75800.0,-8.20732307434082,0.27054479718208313,4.991910457611084
1369,75900.0,-7.999626636505128,0.23762452602386475,4.867412090301514
1370,76000.0,-7.999626636505128,0.23762452602386475,4.867412090301514
1371,76100.0,-8.248024940490723,0.18734627962112427,5.1158103942871085
1372,76200.0,-8.248024940490723,0.18734627962112427,5.1158103942871085
1373,76300.0,-8.344391822814941,0.15322890877723694,5.001487255096436
1374,76400.0,-8.270770072937013,0.2172738015651703,4.957194805145264
1375,76500.0,-8.270770072937013,0.2172738015651703,4.957194805145264
1376,76600.0,-8.202534675598145,0.15023615956306458,4.9996914863586435
1377,76700.0,-8.202534675598145,0.15023615956306458,4.9996914863586435
1378,76800.0,-8.200140953063965,0.17058686912059784,5.0715179443359375
1379,76900.0,-8.200140953063965,0.17058686912059784,5.0715179443359375
1380,76000.0,-7.999626636505128,0.23762452602386475,4.867412090301514
1381,76100.0,-8.248024940490723,0.18734627962112427,5.1158103942871085
1382,76200.0,-8.248024940490723,0.18734627962112427,5.1158103942871085
1383,76300.0,-8.344391822814941,0.15322890877723694,5.001487255096436
1384,76400.0,-8.270770072937013,0.2172738015651703,4.957194805145264
1385,76500.0,-8.270770072937013,0.2172738015651703,4.957194805145264
1386,76600.0,-8.202534675598145,0.15023615956306458,4.9996914863586435
1387,76700.0,-8.202534675598145,0.15023615956306458,4.9996914863586435
1388,76800.0,-8.200140953063965,0.17058686912059784,5.0715179443359375
1389,76900.0,-8.200140953063965,0.17058686912059784,5.0715179443359375
1390,77000.0,-8.113350868225098,0.028131870552897453,5.196016311645508
1391,77100.0,-8.113350868225098,0.028131870552897453,5.196016311645508
1392,77200.0,-8.18996524810791,0.2890998423099518,5.014655590057373
1393,77300.0,-8.152256965637207,0.19033902883529666,5.179855346679688
1394,77400.0,-8.152256965637207,0.19033902883529666,5.179855346679688
1395,77500.0,-8.107964515686035,0.2759317457675934,5.081693172454834
1396,77600.0,-8.107964515686035,0.2759317457675934,5.081693172454834
1397,77700.0,-8.272565841674805,0.03232172131538391,5.012261390686035
1398,77800.0,-8.272565841674805,0.03232172131538391,5.012261390686035
1399,77900.0,-8.18757152557373,-0.18136078119277954,5.049371242523193
1400,77000.0,-8.113350868225098,0.028131870552897453,5.196016311645508
1401,77100.0,-8.113350868225098,0.028131870552897453,5.196016311645508
1402,77200.0,-8.18996524810791,0.2890998423099518,5.014655590057373
1403,77300.0,-8.152256965637207,0.19033902883529666,5.179855346679688
1404,77400.0,-8.152256965637207,0.19033902883529666,5.179855346679688
1405,77500.0,-8.107964515686035,0.2759317457675934,5.081693172454834
1406,77600.0,-8.107964515686035,0.2759317457675934,5.081693172454834
1407,77700.0,-8.272565841674805,0.03232172131538391,5.012261390686035
1408,77800.0,-8.272565841674805,0.03232172131538391,5.012261390686035
1409,77900.0,-8.18757152557373,-0.18136078119277954,5.049371242523193
1410,78000.0,-8.18757152557373,-0.18136078119277954,5.049371242523193
1411,78100.0,-8.186972618103027,0.023343466222286224,4.988917827606201
1412,78200.0,-8.185176849365233,-0.07003039866685867,5.1092262268066415
1413,78300.0,-8.185176849365233,-0.07003039866685867,5.1092262268066415
1414,78400.0,-8.167819023132324,0.10115502029657364,5.0703206062316895
1415,78500.0,-8.167819023132324,0.10115502029657364,5.0703206062316895
1416,78600.0,-8.195352554321289,0.16819266974925995,5.0709190368652335
1417,78700.0,-8.195352554321289,0.16819266974925995,5.0709190368652335
1418,78800.0,-8.110358238220215,0.1388636976480484,5.124788761138916
1419,78900.0,-8.110358238220215,0.1388636976480484,5.124788761138916
1420,78000.0,-8.18757152557373,-0.18136078119277954,5.049371242523193
1421,78100.0,-8.186972618103027,0.023343466222286224,4.988917827606201
1422,78200.0,-8.185176849365233,-0.07003039866685867,5.1092262268066415
1423,78300.0,-8.185176849365233,-0.07003039866685867,5.1092262268066415
1424,78400.0,-8.167819023132324,0.10115502029657364,5.0703206062316895
1425,78500.0,-8.167819023132324,0.10115502029657364,5.0703206062316895
1426,78600.0,-8.195352554321289,0.16819266974925995,5.0709190368652335
1427,78700.0,-8.195352554321289,0.16819266974925995,5.0709190368652335
1428,78800.0,-8.110358238220215,0.1388636976480484,5.124788761138916
1429,78900.0,-8.110358238220215,0.1388636976480484,5.124788761138916
1430,79000.0,-8.136096000671388,0.3214215636253357,5.066729545593262
1431,79100.0,-8.128912925720215,0.20530278980731964,5.146934986114502
1432,79200.0,-8.128912925720215,0.20530278980731964,5.146934986114502
1433,79300.0,-8.165425300598145,0.2717418968677521,5.067327976226807
1434,79400.0,-8.165425300598145,0.2717418968677521,5.067327976226807
1435,79500.0,-8.053496360778809,0.166995570063591,5.19481897354126
1436,79600.0,-8.053496360778809,0.166995570063591,5.19481897354126
1437,79700.0,-8.141483306884767,0.1999158412218094,5.0685248374938965
1438,79800.0,-8.141483306884767,0.1999158412218094,5.0685248374938965
1439,79900.0,-8.09778881072998,0.2579752206802368,5.152322292327881
1440,79000.0,-8.136096000671388,0.3214215636253357,5.066729545593262
1441,79100.0,-8.128912925720215,0.20530278980731964,5.146934986114502
1442,79200.0,-8.128912925720215,0.20530278980731964,5.146934986114502
1443,79300.0,-8.165425300598145,0.2717418968677521,5.067327976226807
1444,79400.0,-8.165425300598145,0.2717418968677521,5.067327976226807
1445,79500.0,-8.053496360778809,0.166995570063591,5.19481897354126
1446,79600.0,-8.053496360778809,0.166995570063591,5.19481897354126
1447,79700.0,-8.141483306884767,0.1999158412218094,5.0685248374938965
1448,79800.0,-8.141483306884767,0.1999158412218094,5.0685248374938965
1449,79900.0,-8.09778881072998,0.2579752206802368,5.152322292327881
1450,80000.0,-8.134300231933594,0.20051439106464386,5.12119722366333
1451,80100.0,-8.134300231933594,0.20051439106464386,5.12119722366333
1452,80200.0,-8.145073890686035,0.228047713637352,5.125985622406006
1453,80300.0,-8.145073890686035,0.228047713637352,5.125985622406006
1454,80400.0,-8.115146636962889,0.2082955539226532,5.153519153594972
1455,80500.0,-8.115146636962889,0.2082955539226532,5.153519153594972
1456,80600.0,-8.125322341918945,0.2047042399644852,5.095459938049316
1457,80700.0,-8.125322341918945,0.2047042399644852,5.095459938049316
1458,80800.0,-8.146271705627441,0.22445641458034515,5.122394561767578
1459,80900.0,-8.146271705627441,0.22445641458034515,5.122394561767578
1460,80000.0,-8.134300231933594,0.20051439106464386,5.12119722366333
1461,80100.0,-8.134300231933594,0.20051439106464386,5.12119722366333
1462,80200.0,-8.145073890686035,0.228047713637352,5.125985622406006
1463,80300.0,-8.145073890686035,0.228047713637352,5.125985622406006
1464,80400.0,-8.115146636962889,0.2082955539226532,5.153519153594972
1465,80500.0,-8.115146636962889,0.2082955539226532,5.153519153594972
1466,80600.0,-8.125322341918945,0.2047042399644852,5.095459938049316
1467,80700.0,-8.125322341918945,0.2047042399644852,5.095459938049316
1468,80800.0,-8.146271705627441,0.22445641458034515,5.122394561767578
1469,80900.0,-8.146271705627441,0.22445641458034515,5.122394561767578
1470,81000.0,-8.152256965637207,0.2340332120656967,5.124788761138916
1471,81100.0,-8.125322341918945,0.2322375625371933,5.108029365539551
1472,81200.0,-8.125322341918945,0.2322375625371933,5.108029365539551
1473,81300.0,-8.088212013244629,0.1909375786781311,5.1349639892578125
1474,81400.0,-8.088212013244629,0.1909375786781311,5.1349639892578125
1475,81500.0,-8.113949775695799,0.15263035893440247,5.125985622406006
1476,81600.0,-8.113949775695799,0.15263035893440247,5.125985622406006
1477,81700.0,-8.163629531860353,0.2908954918384552,5.016450881958008
1478,81800.0,-8.180388450622559,0.12509703636169436,5.096058368682861
1479,81900.0,-8.180388450622559,0.12509703636169436,5.096058368682861
1480,81000.0,-8.152256965637207,0.2340332120656967,5.124788761138916
1481,81100.0,-8.125322341918945,0.2322375625371933,5.108029365539551
1482,81200.0,-8.125322341918945,0.2322375625371933,5.108029365539551
1483,81300.0,-8.088212013244629,0.1909375786781311,5.1349639892578125
1484,81400.0,-8.088212013244629,0.1909375786781311,5.1349639892578125
1485,81500.0,-8.113949775695799,0.15263035893440247,5.125985622406006
1486,81600.0,-8.113949775695799,0.15263035893440247,5.125985622406006
1487,81700.0,-8.163629531860353,0.2908954918384552,5.016450881958008
1488,81800.0,-8.180388450622559,0.12509703636169436,5.096058368682861
1489,81900.0,-8.180388450622559,0.12509703636169436,5.096058368682861
1490,82000.0,-8.125322341918945,0.2346317619085312,5.085284233093262
1491,82100.0,-8.125322341918945,0.2346317619085312,5.085284233093262
1492,82200.0,-8.151658058166504,0.2735375463962555,5.1170077323913565
1493,82300.0,-8.151658058166504,0.2735375463962555,5.1170077323913565
1494,82400.0,-8.142680168151855,0.25318682193756104,5.084685802459717
1495,82500.0,-8.142680168151855,0.25318682193756104,5.084685802459717
1496,82600.0,-8.197746276855469,0.2358288615942001,5.04218864440918
1497,82700.0,-8.112752914428711,0.18914192914962769,5.143343925476074
1498,82800.0,-8.112752914428711,0.18914192914962769,5.143343925476074
1499,82900.0,-8.164826393127441,0.25258827209472656,5.077503204345703
1500,82000.0,-8.125322341918945,0.2346317619085312,5.085284233093262
1501,82100.0,-8.125322341918945,0.2346317619085312,5.085284233093262
1502,82200.0,-8.151658058166504,0.2735375463962555,5.1170077323913565
1503,82300.0,-8.151658058166504,0.2735375463962555,5.1170077323913565
1504,82400.0,-8.142680168151855,0.25318682193756104,5.084685802459717
1505,82500.0,-8.142680168151855,0.25318682193756104,5.084685802459717
1506,82600.0,-8.197746276855469,0.2358288615942001,5.04218864440918
1507,82700.0,-8.112752914428711,0.18914192914962769,5.143343925476074
1508,82800.0,-8.112752914428711,0.18914192914962769,5.143343925476074
1509,82900.0,-8.164826393127441,0.25258827209472656,5.077503204345703
1510,83000.0,-8.164826393127441,0.25258827209472656,5.077503204345703
1511,83100.0,-8.15764331817627,0.2501940727233887,5.0930657386779785
1512,83200.0,-8.15764331817627,0.2501940727233887,5.0930657386779785
1513,83300.0,-8.153453826904299,0.2214636504650116,5.0930657386779785
1514,83400.0,-8.153453826904299,0.2214636504650116,5.0930657386779785
1515,83500.0,-8.138489723205566,0.19871874153614044,5.117606163024902
1516,83600.0,-8.138489723205566,0.19871874153614044,5.117606163024902
1517,83700.0,-8.146869659423826,0.25977087020874023,5.124190330505371
1518,83800.0,-8.170811653137207,0.28969839215278625,5.077503204345703
1519,83900.0,-8.170811653137207,0.28969839215278625,5.077503204345703
1520,83000.0,-8.164826393127441,0.25258827209472656,5.077503204345703
1521,83100.0,-8.15764331817627,0.2501940727233887,5.0930657386779785
1522,83200.0,-8.15764331817627,0.2501940727233887,5.0930657386779785
1523,83300.0,-8.153453826904299,0.2214636504650116,5.0930657386779785
1524,83400.0,-8.153453826904299,0.2214636504650116,5.0930657386779785
1525,83500.0,-8.138489723205566,0.19871874153614044,5.117606163024902
1526,83600.0,-8.138489723205566,0.19871874153614044,5.117606163024902
1527,83700.0,-8.146869659423826,0.25977087020874023,5.124190330505371
1528,83800.0,-8.170811653137207,0.28969839215278625,5.077503204345703
1529,83900.0,-8.170811653137207,0.28969839215278625,5.077503204345703
1530,84000.0,-8.131906509399414,0.2753331959247589,5.088875770568848
1531,84100.0,-8.131906509399414,0.2753331959247589,5.088875770568848
1532,84200.0,-8.15764331817627,0.2448071241378784,5.079298973083496
1533,84300.0,-8.15764331817627,0.2448071241378784,5.079298973083496
1534,84400.0,-8.179191589355469,0.24420857429504395,5.079298973083496
1535,84500.0,-8.179191589355469,0.24420857429504395,5.079298973083496
1536,84600.0,-8.137292861938478,0.2382230758666992,5.106233596801758
1537,84700.0,-8.149862289428711,0.2519897222518921,5.0930657386779785
1538,84800.0,-8.149862289428711,0.2519897222518921,5.0930657386779785
1539,84900.0,-8.173206329345701,0.2495955228805542,5.0697221755981445
1540,84000.0,-8.131906509399414,0.2753331959247589,5.088875770568848
1541,84100.0,-8.131906509399414,0.2753331959247589,5.088875770568848
1542,84200.0,-8.15764331817627,0.2448071241378784,5.079298973083496
1543,84300.0,-8.15764331817627,0.2448071241378784,5.079298973083496
1544,84400.0,-8.179191589355469,0.24420857429504395,5.079298973083496
1545,84500.0,-8.179191589355469,0.24420857429504395,5.079298973083496
1546,84600.0,-8.137292861938478,0.2382230758666992,5.106233596801758
1547,84700.0,-8.149862289428711,0.2519897222518921,5.0930657386779785
1548,84800.0,-8.149862289428711,0.2519897222518921,5.0930657386779785
1549,84900.0,-8.173206329345701,0.2495955228805542,5.0697221755981445
1550,85000.0,-8.173206329345701,0.2495955228805542,5.0697221755981445
1551,85100.0,-8.144475936889647,0.29568392038345337,5.063736438751222
1552,85200.0,-8.144475936889647,0.29568392038345337,5.063736438751222
1553,85300.0,-8.09898567199707,0.18555063009262085,5.1361613273620605
1554,85400.0,-8.170811653137207,0.2711433470249176,5.082890033721924
1555,85500.0,-8.170811653137207,0.2711433470249176,5.082890033721924
1556,85600.0,-8.150461196899414,0.26156654953956604,5.087080001831055
1557,85700.0,-8.150461196899414,0.26156654953956604,5.087080001831055
1558,85800.0,-8.131307601928711,0.2472013235092163,5.145738124847412
1559,85900.0,-8.131307601928711,0.2472013235092163,5.145738124847412
1560,85000.0,-8.173206329345701,0.2495955228805542,5.0697221755981445
1561,85100.0,-8.144475936889647,0.29568392038345337,5.063736438751222
1562,85200.0,-8.144475936889647,0.29568392038345337,5.063736438751222
1563,85300.0,-8.09898567199707,0.18555063009262085,5.1361613273620605
1564,85400.0,-8.170811653137207,0.2711433470249176,5.082890033721924
1565,85500.0,-8.170811653137207,0.2711433470249176,5.082890033721924
1566,85600.0,-8.150461196899414,0.26156654953956604,5.087080001831055
1567,85700.0,-8.150461196899414,0.26156654953956604,5.087080001831055
1568,85800.0,-8.131307601928711,0.2472013235092163,5.145738124847412
1569,85900.0,-8.131307601928711,0.2472013235092163,5.145738124847412
1570,86000.0,-8.174403190612793,0.25258827209472656,5.08648157119751
1571,86100.0,-8.174403190612793,0.25258827209472656,5.08648157119751
1572,86200.0,-8.119336128234862,0.3046621680259705,5.130175590515137
1573,86300.0,-8.119336128234862,0.3046621680259705,5.130175590515137
1574,86400.0,-8.13908863067627,0.23104046285152435,5.103240966796875
1575,86500.0,-8.186972618103027,0.3405751883983612,5.060743808746338
1576,86600.0,-8.186972618103027,0.3405751883983612,5.060743808746338
1577,86700.0,-8.060079574584961,0.2274491637945175,5.154716491699219
1578,86800.0,-8.060079574584961,0.2274491637945175,5.154716491699219
1579,86900.0,-8.185176849365233,0.26336219906806946,5.045181751251222
1580,86000.0,-8.174403190612793,0.25258827209472656,5.08648157119751
1581,86100.0,-8.174403190612793,0.25258827209472656,5.08648157119751
1582,86200.0,-8.119336128234862,0.3046621680259705,5.130175590515137
1583,86300.0,-8.119336128234862,0.3046621680259705,5.130175590515137
1584,86400.0,-8.13908863067627,0.23104046285152435,5.103240966796875
1585,86500.0,-8.186972618103027,0.3405751883983612,5.060743808746338
1586,86600.0,-8.186972618103027,0.3405751883983612,5.060743808746338
1587,86700.0,-8.060079574584961,0.2274491637945175,5.154716491699219
1588,86800.0,-8.060079574584961,0.2274491637945175,5.154716491699219
1589,86900.0,-8.185176849365233,0.26336219906806946,5.045181751251222
1590,87000.0,-8.185176849365233,0.26336219906806946,5.045181751251222
1591,87100.0,-8.168417930603027,0.2495955228805542,5.109825134277344
1592,87200.0,-8.168417930603027,0.2495955228805542,5.109825134277344
1593,87300.0,-8.060678482055664,0.17417816817760468,5.176862716674805
1594,87400.0,-8.212111473083496,0.30047231912612915,4.976946830749512
1595,87500.0,-8.212111473083496,0.30047231912612915,4.976946830749512
1596,87600.0,-8.104372978210451,0.21009120345115664,5.16429328918457
1597,87700.0,-8.104372978210451,0.21009120345115664,5.16429328918457
1598,87800.0,-8.168417930603027,0.2663549482822418,5.064335346221924
1599,87900.0,-8.168417930603027,0.2663549482822418,5.064335346221924
1600,87000.0,-8.185176849365233,0.26336219906806946,5.045181751251222
1601,87100.0,-8.168417930603027,0.2495955228805542,5.109825134277344
1602,87200.0,-8.168417930603027,0.2495955228805542,5.109825134277344
1603,87300.0,-8.060678482055664,0.17417816817760468,5.176862716674805
1604,87400.0,-8.212111473083496,0.30047231912612915,4.976946830749512
1605,87500.0,-8.212111473083496,0.30047231912612915,4.976946830749512
1606,87600.0,-8.104372978210451,0.21009120345115664,5.16429328918457
1607,87700.0,-8.104372978210451,0.21009120345115664,5.16429328918457
1608,87800.0,-8.168417930603027,0.2663549482822418,5.064335346221924
1609,87900.0,-8.168417930603027,0.2663549482822418,5.064335346221924
1610,88000.0,-8.071452140808105,0.2214636504650116,5.139752388000488
1611,88100.0,-8.071452140808105,0.2214636504650116,5.139752388000488
1612,88200.0,-8.146869659423826,0.3345896899700165,5.142146587371826
1613,88300.0,-8.24383544921875,0.17238251864910126,5.01405668258667
1614,88400.0,-8.24383544921875,0.17238251864910126,5.01405668258667
1615,88500.0,-8.22767448425293,0.08379705995321274,4.952406406402588
1616,88600.0,-8.22767448425293,0.08379705995321274,4.952406406402588
1617,88700.0,-8.214506149291992,0.17717093229293826,4.9380412101745605
1618,88800.0,-8.214506149291992,0.17717093229293826,4.9380412101745605
1619,88900.0,-8.201337814331055,0.10654197633266448,4.970961093902588
1620,88000.0,-8.071452140808105,0.2214636504650116,5.139752388000488
1621,88100.0,-8.071452140808105,0.2214636504650116,5.139752388000488
1622,88200.0,-8.146869659423826,0.3345896899700165,5.142146587371826
1623,88300.0,-8.24383544921875,0.17238251864910126,5.01405668258667
1624,88400.0,-8.24383544921875,0.17238251864910126,5.01405668258667
1625,88500.0,-8.22767448425293,0.08379705995321274,4.952406406402588
1626,88600.0,-8.22767448425293,0.08379705995321274,4.952406406402588
1627,88700.0,-8.214506149291992,0.17717093229293826,4.9380412101745605
1628,88800.0,-8.214506149291992,0.17717093229293826,4.9380412101745605
1629,88900.0,-8.201337814331055,0.10654197633266448,4.970961093902588
1630,89000.0,-8.201337814331055,0.10654197633266448,4.970961093902588
1631,89100.0,-8.276755332946777,0.07661445438861847,4.975749492645264
1632,89200.0,-8.183979988098145,0.6003460884094238,4.997297286987305
1633,89300.0,-8.183979988098145,0.6003460884094238,4.997297286987305
1634,89400.0,-8.185176849365233,0.14664486050605774,5.10383939743042
1635,89500.0,-8.185176849365233,0.14664486050605774,5.10383939743042
1636,89600.0,-8.215703010559082,0.32261869311332697,4.99669885635376
1637,89700.0,-8.215703010559082,0.32261869311332697,4.99669885635376
1638,89800.0,-8.230068206787111,0.33279404044151306,4.9625816345214835
1639,89900.0,-8.230068206787111,0.33279404044151306,4.9625816345214835
1640,89000.0,-8.201337814331055,0.10654197633266448,4.970961093902588
1641,89100.0,-8.276755332946777,0.07661445438861847,4.975749492645264
1642,89200.0,-8.183979988098145,0.6003460884094238,4.997297286987305
1643,89300.0,-8.183979988098145,0.6003460884094238,4.997297286987305
1644,89400.0,-8.185176849365233,0.14664486050605774,5.10383939743042
1645,89500.0,-8.185176849365233,0.14664486050605774,5.10383939743042
1646,89600.0,-8.215703010559082,0.32261869311332697,4.99669885635376
1647,89700.0,-8.215703010559082,0.32261869311332697,4.99669885635376
1648,89800.0,-8.230068206787111,0.33279404044151306,4.9625816345214835
1649,89900.0,-8.230068206787111,0.33279404044151306,4.9625816345214835
1650,90000.0,-8.146271705627441,0.2723404467105865,5.053561210632324
1651,90100.0,-8.29710578918457,0.3417722880840301,4.945223808288574
1652,90200.0,-8.29710578918457,0.3417722880840301,4.945223808288574
1653,90300.0,-8.204330444335938,0.26994624733924866,5.026626586914063
1654,90400.0,-8.204330444335938,0.26994624733924866,5.026626586914063
1655,90500.0,-8.191162109375,0.3286041915416717,4.990114688873291
1656,90600.0,-8.191162109375,0.3286041915416717,4.990114688873291
1657,90700.0,-8.181585311889647,0.30945056676864624,5.031414985656738
1658,90800.0,-8.181585311889647,0.30945056676864624,5.031414985656738
1659,90900.0,-8.210914611816406,0.3381809890270233,5.015254020690918
1660,90000.0,-8.146271705627441,0.2723404467105865,5.053561210632324
1661,90100.0,-8.29710578918457,0.3417722880840301,4.945223808288574
1662,90200.0,-8.29710578918457,0.3417722880840301,4.945223808288574
1663,90300.0,-8.204330444335938,0.26994624733924866,5.026626586914063
1664,90400.0,-8.204330444335938,0.26994624733924866,5.026626586914063
1665,90500.0,-8.191162109375,0.3286041915416717,4.990114688873291
1666,90600.0,-8.191162109375,0.3286041915416717,4.990114688873291
1667,90700.0,-8.181585311889647,0.30945056676864624,5.031414985656738
1668,90800.0,-8.181585311889647,0.30945056676864624,5.031414985656738
1669,90900.0,-8.210914611816406,0.3381809890270233,5.015254020690918
1670,91000.0,-8.17141056060791,0.3561375141143799,5.023035049438477
1671,91100.0,-8.17141056060791,0.3561375141143799,5.023035049438477
1672,91200.0,-8.219893455505371,0.28311434388160706,5.050568580627441
1673,91300.0,-8.219893455505371,0.28311434388160706,5.050568580627441
1674,91400.0,-8.17380428314209,0.2663549482822418,4.9996914863586435
1675,91500.0,-8.17380428314209,0.2663549482822418,4.9996914863586435
1676,91600.0,-8.191162109375,0.2885012924671173,5.047575950622559
1677,91700.0,-8.191162109375,0.2885012924671173,5.047575950622559
1678,91800.0,-8.219294548034668,0.34416648745536804,5.015852451324463
1679,91900.0,-8.221090316772461,0.2759317457675934,5.020042419433594
1680,91000.0,-8.17141056060791,0.3561375141143799,5.023035049438477
1681,91100.0,-8.17141056060791,0.3561375141143799,5.023035049438477
1682,91200.0,-8.219893455505371,0.28311434388160706,5.050568580627441
1683,91300.0,-8.219893455505371,0.28311434388160706,5.050568580627441
1684,91400.0,-8.17380428314209,0.2663549482822418,4.9996914863586435
1685,91500.0,-8.17380428314209,0.2663549482822418,4.9996914863586435
1686,91600.0,-8.191162109375,0.2885012924671173,5.047575950622559
1687,91700.0,-8.191162109375,0.2885012924671173,5.047575950622559
1688,91800.0,-8.219294548034668,0.34416648745536804,5.015852451324463
1689,91900.0,-8.221090316772461,0.2759317457675934,5.020042419433594
1690,92000.0,-8.221090316772461,0.2759317457675934,5.020042419433594
1691,92100.0,-8.206725120544434,0.3531447649002075,4.9799394607543945
1692,92200.0,-8.206725120544434,0.3531447649002075,4.9799394607543945
1693,92300.0,-8.183381080627441,0.3010708689689636,5.029619216918945
1694,92400.0,-8.183381080627441,0.3010708689689636,5.029619216918945
1695,92500.0,-8.209717750549316,0.2807201445102692,5.004479885101318
1696,92600.0,-8.209717750549316,0.2807201445102692,5.004479885101318
1697,92700.0,-8.214506149291992,0.3693056106567383,4.957793235778809
1698,92800.0,-8.141483306884767,0.3082534670829773,5.051167011260986
1699,92900.0,-8.141483306884767,0.3082534670829773,5.051167011260986
1700,92000.0,-8.221090316772461,0.2759317457675934,5.020042419433594
1701,92100.0,-8.206725120544434,0.3531447649002075,4.9799394607543945
1702,92200.0,-8.206725120544434,0.3531447649002075,4.9799394607543945
1703,92300.0,-8.183381080627441,0.3010708689689636,5.029619216918945
1704,92400.0,-8.183381080627441,0.3010708689689636,5.029619216918945
1705,92500.0,-8.209717750549316,0.2807201445102692,5.004479885101318
1706,92600.0,-8.209717750549316,0.2807201445102692,5.004479885101318
1707,92700.0,-8.214506149291992,0.3693056106567383,4.957793235778809
1708,92800.0,-8.141483306884767,0.3082534670829773,5.051167011260986
1709,92900.0,-8.141483306884767,0.3082534670829773,5.051167011260986
1710,93000.0,-8.222287178039549,0.3172317147254944,4.954201698303223
1711,93100.0,-8.222287178039549,0.3172317147254944,4.954201698303223
1712,93200.0,-8.201337814331055,0.2950853705406189,4.9811367988586435
1713,93300.0,-8.201337814331055,0.2950853705406189,4.9811367988586435
1714,93400.0,-8.192359924316406,0.3345896899700165,4.992508888244629
1715,93500.0,-8.192359924316406,0.3345896899700165,4.992508888244629
1716,93600.0,-8.217498779296875,0.2920926213264465,5.000290393829347
1717,93700.0,-8.208520889282228,0.3016694188117981,5.003881454467773
1718,93800.0,-8.208520889282228,0.3016694188117981,5.003881454467773
1719,93900.0,-8.154650688171388,0.2777273952960968,5.033809185028076
1720,93000.0,-8.222287178039549,0.3172317147254944,4.954201698303223
1721,93100.0,-8.222287178039549,0.3172317147254944,4.954201698303223
1722,93200.0,-8.201337814331055,0.2950853705406189,4.9811367988586435
1723,93300.0,-8.201337814331055,0.2950853705406189,4.9811367988586435
1724,93400.0,-8.192359924316406,0.3345896899700165,4.992508888244629
1725,93500.0,-8.192359924316406,0.3345896899700165,4.992508888244629
1726,93600.0,-8.217498779296875,0.2920926213264465,5.000290393829347
1727,93700.0,-8.208520889282228,0.3016694188117981,5.003881454467773
1728,93800.0,-8.208520889282228,0.3016694188117981,5.003881454467773
1729,93900.0,-8.154650688171388,0.2777273952960968,5.033809185028076
1730,94000.0,-8.154650688171388,0.2777273952960968,5.033809185028076
1731,94100.0,-8.228272438049316,0.3363853394985199,4.994304656982422
1732,94200.0,-8.228272438049316,0.3363853394985199,4.994304656982422
1733,94300.0,-8.252214431762695,0.2914940714836121,4.974552631378174
1734,94400.0,-8.252214431762695,0.2914940714836121,4.974552631378174
1735,94500.0,-8.167819023132324,0.30705636739730835,5.051167011260986
1736,94600.0,-8.212111473083496,0.3597288131713867,4.976348400115967
1737,94700.0,-8.212111473083496,0.3597288131713867,4.976348400115967
1738,94800.0,-8.189367294311522,0.32680854201316833,5.048772811889648
1739,94900.0,-8.189367294311522,0.32680854201316833,5.048772811889648
1740,94000.0,-8.154650688171388,0.2777273952960968,5.033809185028076
1741,94100.0,-8.228272438049316,0.3363853394985199,4.994304656982422
1742,94200.0,-8.228272438049316,0.3363853394985199,4.994304656982422
1743,94300.0,-8.252214431762695,0.2914940714836121,4.974552631378174
1744,94400.0,-8.252214431762695,0.2914940714836121,4.974552631378174
1745,94500.0,-8.167819023132324,0.30705636739730835,5.051167011260986
1746,94600.0,-8.212111473083496,0.3597288131713867,4.976348400115967
1747,94700.0,-8.212111473083496,0.3597288131713867,4.976348400115967
1748,94800.0,-8.189367294311522,0.32680854201316833,5.048772811889648
