,Unnamed: 0,timestamp,ax,ay,az
0,0.0,5000.0,-3.268595933914185,4.965107440948486,-7.503891944885254
1,1.0,5100.0,-3.268595933914185,4.965107440948486,-7.503891944885254
2,2.0,5200.0,-3.268595933914185,4.965107440948486,-7.503891944885254
3,3.0,5300.0,-3.268595933914185,4.965107440948486,-7.503891944885254
4,4.0,5400.0,-3.823730707168578,5.9533424377441415,-7.434500217437744
5,5.0,5500.0,-3.823730707168578,5.9533424377441415,-7.434500217437744
6,6.0,5600.0,-3.823730707168578,5.9533424377441415,-7.434500217437744
7,7.0,5700.0,-4.890929222106934,3.9744782447814937,-6.2500529289245605
8,8.0,5800.0,-4.890929222106934,3.9744782447814937,-6.2500529289245605
9,9.0,5900.0,-3.981656789779663,4.3381876945495605,-8.209774017333983
10,10.0,6000.0,-3.981656789779663,4.3381876945495605,-8.209774017333983
11,11.0,6100.0,-3.981656789779663,4.3381876945495605,-8.209774017333983
12,12.0,6200.0,-4.1347975730896005,2.1607186794281006,-8.968299865722656
13,13.0,6300.0,-4.1347975730896005,2.1607186794281006,-8.968299865722656
14,14.0,6400.0,-3.728017807006837,1.4452648162841797,-8.532805442810059
15,15.0,6500.0,-3.728017807006837,1.4452648162841797,-8.532805442810059
16,16.0,6600.0,-2.847458839416504,8.49452018737793,-4.72582483291626
17,17.0,6700.0,-2.847458839416504,8.49452018737793,-4.72582483291626
18,18.0,6800.0,-2.407179594039917,9.257830619812012,-1.8855443000793457
19,19.0,6900.0,-2.407179594039917,9.257830619812012,-1.8855443000793457
20,10.0,6000.0,-3.981656789779663,4.3381876945495605,-8.209774017333983
21,11.0,6100.0,-3.981656789779663,4.3381876945495605,-8.209774017333983
22,12.0,6200.0,-4.1347975730896005,2.1607186794281006,-8.968299865722656
23,13.0,6300.0,-4.1347975730896005,2.1607186794281006,-8.968299865722656
24,14.0,6400.0,-3.728017807006837,1.4452648162841797,-8.532805442810059
25,15.0,6500.0,-3.728017807006837,1.4452648162841797,-8.532805442810059
26,16.0,6600.0,-2.847458839416504,8.49452018737793,-4.72582483291626
27,17.0,6700.0,-2.847458839416504,8.49452018737793,-4.72582483291626
28,18.0,6800.0,-2.407179594039917,9.257830619812012,-1.8855443000793457
29,19.0,6900.0,-2.407179594039917,9.257830619812012,-1.8855443000793457
30,20.0,7000.0,-2.407179594039917,9.257830619812012,-1.8855443000793457
31,21.0,7100.0,-1.641476273536682,9.442078590393066,2.328216552734375
32,22.0,7200.0,-1.641476273536682,9.442078590393066,2.328216552734375
33,23.0,7300.0,-1.65583336353302,9.262616157531738,4.0414772033691415
34,24.0,7400.0,-1.65583336353302,9.262616157531738,4.0414772033691415
35,25.0,7500.0,-1.8089739084243768,8.434700012207031,5.362315654754639
36,26.0,7600.0,-1.8089739084243768,8.434700012207031,5.362315654754639
37,27.0,7700.0,-1.8089739084243768,8.434700012207031,5.362315654754639
38,28.0,7800.0,-1.6893328428268433,8.590232849121094,4.084547996520996
39,29.0,7900.0,-1.6893328428268433,8.590232849121094,4.084547996520996
40,20.0,7000.0,-2.407179594039917,9.257830619812012,-1.8855443000793457
41,21.0,7100.0,-1.641476273536682,9.442078590393066,2.328216552734375
42,22.0,7200.0,-1.641476273536682,9.442078590393066,2.328216552734375
43,23.0,7300.0,-1.65583336353302,9.262616157531738,4.0414772033691415
44,24.0,7400.0,-1.65583336353302,9.262616157531738,4.0414772033691415
45,25.0,7500.0,-1.8089739084243768,8.434700012207031,5.362315654754639
46,26.0,7600.0,-1.8089739084243768,8.434700012207031,5.362315654754639
47,27.0,7700.0,-1.8089739084243768,8.434700012207031,5.362315654754639
48,28.0,7800.0,-1.6893328428268433,8.590232849121094,4.084547996520996
49,29.0,7900.0,-1.6893328428268433,8.590232849121094,4.084547996520996
50,30.0,8000.0,-2.5746772289276123,9.343972206115724,4.969892501831055
51,31.0,8100.0,-2.5746772289276123,9.343972206115724,4.969892501831055
52,32.0,8200.0,-2.6416761875152592,7.929814338684082,5.182853698730469
53,33.0,8300.0,-2.6416761875152592,7.929814338684082,5.182853698730469
54,34.0,8400.0,-2.6416761875152592,7.929814338684082,5.182853698730469
55,35.0,8500.0,-2.995814085006714,7.776673316955566,5.501099109649658
56,36.0,8600.0,-2.995814085006714,7.776673316955566,5.501099109649658
57,37.0,8700.0,-2.9671001434326167,6.963113307952881,4.5367913246154785
58,38.0,8800.0,-2.9671001434326167,6.963113307952881,4.5367913246154785
59,39.0,8900.0,-2.9671001434326167,6.963113307952881,4.5367913246154785
60,30.0,8000.0,-2.5746772289276123,9.343972206115724,4.969892501831055
61,31.0,8100.0,-2.5746772289276123,9.343972206115724,4.969892501831055
62,32.0,8200.0,-2.6416761875152592,7.929814338684082,5.182853698730469
63,33.0,8300.0,-2.6416761875152592,7.929814338684082,5.182853698730469
64,34.0,8400.0,-2.6416761875152592,7.929814338684082,5.182853698730469
65,35.0,8500.0,-2.995814085006714,7.776673316955566,5.501099109649658
66,36.0,8600.0,-2.995814085006714,7.776673316955566,5.501099109649658
67,37.0,8700.0,-2.9671001434326167,6.963113307952881,4.5367913246154785
68,38.0,8800.0,-2.9671001434326167,6.963113307952881,4.5367913246154785
69,39.0,8900.0,-2.9671001434326167,6.963113307952881,4.5367913246154785
70,40.0,9000.0,-2.9240293502807617,6.69990348815918,4.371686935424806
71,41.0,9100.0,-2.9240293502807617,6.69990348815918,4.371686935424806
72,42.0,9200.0,-3.407379388809204,7.446464061737058,4.718646049499512
73,43.0,9300.0,-3.407379388809204,7.446464061737058,4.718646049499512
74,44.0,9400.0,-3.1728827953338623,8.140382766723633,5.508277893066406
75,45.0,9500.0,-3.1728827953338623,8.140382766723633,5.508277893066406
76,46.0,9600.0,-3.445664882659912,8.135597229003906,5.175675392150879
77,47.0,9700.0,-3.445664882659912,8.135597229003906,5.175675392150879
78,48.0,9800.0,-3.704089403152466,7.678568363189697,4.534398555755615
79,49.0,9900.0,-3.704089403152466,7.678568363189697,4.534398555755615
80,40.0,9000.0,-2.9240293502807617,6.69990348815918,4.371686935424806
81,41.0,9100.0,-2.9240293502807617,6.69990348815918,4.371686935424806
82,42.0,9200.0,-3.407379388809204,7.446464061737058,4.718646049499512
83,43.0,9300.0,-3.407379388809204,7.446464061737058,4.718646049499512
84,44.0,9400.0,-3.1728827953338623,8.140382766723633,5.508277893066406
85,45.0,9500.0,-3.1728827953338623,8.140382766723633,5.508277893066406
86,46.0,9600.0,-3.445664882659912,8.135597229003906,5.175675392150879
87,47.0,9700.0,-3.445664882659912,8.135597229003906,5.175675392150879
88,48.0,9800.0,-3.704089403152466,7.678568363189697,4.534398555755615
89,49.0,9900.0,-3.704089403152466,7.678568363189697,4.534398555755615
90,50.0,10000.0,-3.704089403152466,7.678568363189697,4.534398555755615
91,51.0,10100.0,-3.905086755752564,8.508876800537111,4.53200626373291
92,52.0,10200.0,-3.905086755752564,8.508876800537111,4.53200626373291
93,53.0,10300.0,-3.1537401676177983,6.742973804473878,3.926621913909912
94,54.0,10400.0,-3.1537401676177983,6.742973804473878,3.926621913909912
95,55.0,10500.0,-3.029313325881958,8.793622970581055,5.192424774169922
96,56.0,10600.0,-3.029313325881958,8.793622970581055,5.192424774169922
97,57.0,10700.0,-2.225324869155884,8.310273170471191,6.072984218597412
98,58.0,10800.0,-2.225324869155884,8.310273170471191,6.072984218597412
99,59.0,10900.0,-2.225324869155884,8.310273170471191,6.072984218597412
100,50.0,10000.0,-3.704089403152466,7.678568363189697,4.534398555755615
101,51.0,10100.0,-3.905086755752564,8.508876800537111,4.53200626373291
102,52.0,10200.0,-3.905086755752564,8.508876800537111,4.53200626373291
103,53.0,10300.0,-3.1537401676177983,6.742973804473878,3.926621913909912
104,54.0,10400.0,-3.1537401676177983,6.742973804473878,3.926621913909912
105,55.0,10500.0,-3.029313325881958,8.793622970581055,5.192424774169922
106,56.0,10600.0,-3.029313325881958,8.793622970581055,5.192424774169922
107,57.0,10700.0,-2.225324869155884,8.310273170471191,6.072984218597412
108,58.0,10800.0,-2.225324869155884,8.310273170471191,6.072984218597412
109,59.0,10900.0,-2.225324869155884,8.310273170471191,6.072984218597412
110,60.0,11000.0,-2.7182462215423584,7.027719974517822,6.460620880126952
111,61.0,11100.0,-2.7182462215423584,7.027719974517822,6.460620880126952
112,62.0,11200.0,-2.900100946426392,6.226124286651611,6.537191867828369
113,63.0,11300.0,-2.900100946426392,6.226124286651611,6.537191867828369
114,64.0,11400.0,-2.900100946426392,6.226124286651611,6.537191867828369
115,65.0,11500.0,-2.6464619636535645,7.609175682067871,7.747959613800049
116,66.0,11600.0,-2.6464619636535645,7.609175682067871,7.747959613800049
117,67.0,11700.0,-3.2781667709350586,8.992227554321289,5.027320384979248
118,68.0,11800.0,-3.2781667709350586,8.992227554321289,5.027320384979248
119,69.0,11900.0,-4.292723655700684,7.618747234344482,-1.3974084854125977
120,60.0,11000.0,-2.7182462215423584,7.027719974517822,6.460620880126952
121,61.0,11100.0,-2.7182462215423584,7.027719974517822,6.460620880126952
122,62.0,11200.0,-2.900100946426392,6.226124286651611,6.537191867828369
123,63.0,11300.0,-2.900100946426392,6.226124286651611,6.537191867828369
124,64.0,11400.0,-2.900100946426392,6.226124286651611,6.537191867828369
125,65.0,11500.0,-2.6464619636535645,7.609175682067871,7.747959613800049
126,66.0,11600.0,-2.6464619636535645,7.609175682067871,7.747959613800049
127,67.0,11700.0,-3.2781667709350586,8.992227554321289,5.027320384979248
128,68.0,11800.0,-3.2781667709350586,8.992227554321289,5.027320384979248
129,69.0,11900.0,-4.292723655700684,7.618747234344482,-1.3974084854125977
130,70.0,12000.0,-4.292723655700684,7.618747234344482,-1.3974084854125977
131,71.0,12100.0,-4.244867324829103,8.882158279418945,-2.6009981632232666
132,72.0,12200.0,-4.244867324829103,8.882158279418945,-2.6009981632232666
133,73.0,12300.0,-4.244867324829103,8.882158279418945,-2.6009981632232666
134,74.0,12400.0,-4.369294166564941,8.477770805358888,-1.6654045581817627
135,75.0,12500.0,-4.369294166564941,8.477770805358888,-1.6654045581817627
136,76.0,12600.0,-4.4506497383117685,9.05683422088623,-0.14835500717163086
137,77.0,12700.0,-4.4506497383117685,9.05683422088623,-0.14835500717163086
138,78.0,12800.0,-4.570291519165039,8.499305725097656,0.33738797903060913
139,79.0,12900.0,-4.570291519165039,8.499305725097656,0.33738797903060913
140,70.0,12000.0,-4.292723655700684,7.618747234344482,-1.3974084854125977
141,71.0,12100.0,-4.244867324829103,8.882158279418945,-2.6009981632232666
142,72.0,12200.0,-4.244867324829103,8.882158279418945,-2.6009981632232666
143,73.0,12300.0,-4.244867324829103,8.882158279418945,-2.6009981632232666
144,74.0,12400.0,-4.369294166564941,8.477770805358888,-1.6654045581817627
145,75.0,12500.0,-4.369294166564941,8.477770805358888,-1.6654045581817627
146,76.0,12600.0,-4.4506497383117685,9.05683422088623,-0.14835500717163086
147,77.0,12700.0,-4.4506497383117685,9.05683422088623,-0.14835500717163086
148,78.0,12800.0,-4.570291519165039,8.499305725097656,0.33738797903060913
149,79.0,12900.0,-4.570291519165039,8.499305725097656,0.33738797903060913
150,80.0,13000.0,-4.570291519165039,8.499305725097656,0.33738797903060913
151,81.0,13100.0,-4.852644443511963,8.82951545715332,0.2488535493612289
152,82.0,13200.0,-4.852644443511963,8.82951545715332,0.2488535493612289
153,83.0,13300.0,-4.718646049499512,8.707481384277344,-1.2801601886749268
154,84.0,13400.0,-4.718646049499512,8.707481384277344,-1.2801601886749268
155,85.0,13500.0,-4.642076015472412,8.394021987915039,-0.8733802437782288
156,86.0,13600.0,-4.642076015472412,8.394021987915039,-0.8733802437782288
157,87.0,13700.0,-4.498506546020508,8.666803359985353,-0.5168496966362001
158,88.0,13800.0,-4.498506546020508,8.666803359985353,-0.5168496966362001
159,89.0,13900.0,-4.498506546020508,8.666803359985353,-0.5168496966362001
160,80.0,13000.0,-4.570291519165039,8.499305725097656,0.33738797903060913
161,81.0,13100.0,-4.852644443511963,8.82951545715332,0.2488535493612289
162,82.0,13200.0,-4.852644443511963,8.82951545715332,0.2488535493612289
163,83.0,13300.0,-4.718646049499512,8.707481384277344,-1.2801601886749268
164,84.0,13400.0,-4.718646049499512,8.707481384277344,-1.2801601886749268
165,85.0,13500.0,-4.642076015472412,8.394021987915039,-0.8733802437782288
166,86.0,13600.0,-4.642076015472412,8.394021987915039,-0.8733802437782288
167,87.0,13700.0,-4.498506546020508,8.666803359985353,-0.5168496966362001
168,88.0,13800.0,-4.498506546020508,8.666803359985353,-0.5168496966362001
169,89.0,13900.0,-4.498506546020508,8.666803359985353,-0.5168496966362001
170,90.0,14000.0,-4.287938117980957,8.793622970581055,-0.8590233325958252
171,91.0,14100.0,-4.287938117980957,8.793622970581055,-0.8590233325958252
172,92.0,14200.0,-4.929214477539063,8.453842163085938,-0.35892340540885925
173,93.0,14300.0,-4.929214477539063,8.453842163085938,-0.35892340540885925
174,94.0,14400.0,-4.929214477539063,8.453842163085938,-0.35892340540885925
175,95.0,14500.0,-4.426721572875977,8.793622970581055,-0.662811815738678
176,96.0,14600.0,-4.426721572875977,8.793622970581055,-0.662811815738678
177,97.0,14700.0,-3.933800458908081,9.040083885192873,-0.9499505758285522
178,98.0,14800.0,-3.933800458908081,9.040083885192873,-0.9499505758285522
179,99.0,14900.0,-4.25922441482544,8.786444664001465,0.3182453811168671
180,90.0,14000.0,-4.287938117980957,8.793622970581055,-0.8590233325958252
181,91.0,14100.0,-4.287938117980957,8.793622970581055,-0.8590233325958252
182,92.0,14200.0,-4.929214477539063,8.453842163085938,-0.35892340540885925
183,93.0,14300.0,-4.929214477539063,8.453842163085938,-0.35892340540885925
184,94.0,14400.0,-4.929214477539063,8.453842163085938,-0.35892340540885925
185,95.0,14500.0,-4.426721572875977,8.793622970581055,-0.662811815738678
186,96.0,14600.0,-4.426721572875977,8.793622970581055,-0.662811815738678
187,97.0,14700.0,-3.933800458908081,9.040083885192873,-0.9499505758285522
188,98.0,14800.0,-3.933800458908081,9.040083885192873,-0.9499505758285522
189,99.0,14900.0,-4.25922441482544,8.786444664001465,0.3182453811168671
190,100.0,15000.0,-4.25922441482544,8.786444664001465,0.3182453811168671
191,101.0,15100.0,-4.25922441482544,8.786444664001465,0.3182453811168671
192,102.0,15200.0,-4.249652862548828,8.939584732055664,-0.9978070855140686
193,103.0,15300.0,-4.249652862548828,8.939584732055664,-0.9978070855140686
194,104.0,15400.0,-4.153940200805663,8.760124206542969,-0.7082754969596863
195,105.0,15500.0,-4.153940200805663,8.760124206542969,-0.7082754969596863
196,106.0,15600.0,-4.168296813964844,8.97787094116211,-0.9044869542121888
197,107.0,15700.0,-4.168296813964844,8.97787094116211,-0.9044869542121888
198,108.0,15800.0,-4.187439441680908,8.956335067749023,-1.1437692642211914
199,109.0,15900.0,-4.187439441680908,8.956335067749023,-1.1437692642211914
200,100.0,15000.0,-4.25922441482544,8.786444664001465,0.3182453811168671
201,101.0,15100.0,-4.25922441482544,8.786444664001465,0.3182453811168671
202,102.0,15200.0,-4.249652862548828,8.939584732055664,-0.9978070855140686
203,103.0,15300.0,-4.249652862548828,8.939584732055664,-0.9978070855140686
204,104.0,15400.0,-4.153940200805663,8.760124206542969,-0.7082754969596863
205,105.0,15500.0,-4.153940200805663,8.760124206542969,-0.7082754969596863
206,106.0,15600.0,-4.168296813964844,8.97787094116211,-0.9044869542121888
207,107.0,15700.0,-4.168296813964844,8.97787094116211,-0.9044869542121888
208,108.0,15800.0,-4.187439441680908,8.956335067749023,-1.1437692642211914
209,109.0,15900.0,-4.187439441680908,8.956335067749023,-1.1437692642211914
210,110.0,16000.0,-4.627718925476074,8.566305160522461,-0.8733802437782288
211,111.0,16100.0,-4.627718925476074,8.566305160522461,-0.8733802437782288
212,112.0,16200.0,-4.627718925476074,8.566305160522461,-0.8733802437782288
213,113.0,16300.0,-4.498506546020508,8.963513374328613,-0.7776673436164856
214,114.0,16400.0,-4.498506546020508,8.963513374328613,-0.7776673436164856
215,115.0,16500.0,-4.436293125152588,8.908478736877441,-0.4689932465553284
216,116.0,16600.0,-4.436293125152588,8.908478736877441,-0.4689932465553284
217,117.0,16700.0,-4.436293125152588,8.908478736877441,-0.4689932465553284
218,118.0,16800.0,-4.072584152221681,8.925228118896484,0.07657032459974289
219,119.0,16900.0,-4.072584152221681,8.925228118896484,0.07657032459974289
220,110.0,16000.0,-4.627718925476074,8.566305160522461,-0.8733802437782288
221,111.0,16100.0,-4.627718925476074,8.566305160522461,-0.8733802437782288
222,112.0,16200.0,-4.627718925476074,8.566305160522461,-0.8733802437782288
223,113.0,16300.0,-4.498506546020508,8.963513374328613,-0.7776673436164856
224,114.0,16400.0,-4.498506546020508,8.963513374328613,-0.7776673436164856
225,115.0,16500.0,-4.436293125152588,8.908478736877441,-0.4689932465553284
226,116.0,16600.0,-4.436293125152588,8.908478736877441,-0.4689932465553284
227,117.0,16700.0,-4.436293125152588,8.908478736877441,-0.4689932465553284
228,118.0,16800.0,-4.072584152221681,8.925228118896484,0.07657032459974289
229,119.0,16900.0,-4.072584152221681,8.925228118896484,0.07657032459974289
230,120.0,17000.0,-4.053441524505615,9.035298347473145,-0.15074782073497772
231,121.0,17100.0,-4.053441524505615,9.035298347473145,-0.15074782073497772
232,122.0,17200.0,-4.096512317657472,9.12383270263672,-0.07657032459974289
233,123.0,17300.0,-4.096512317657472,9.12383270263672,-0.07657032459974289
234,124.0,17400.0,-4.096512317657472,9.12383270263672,-0.07657032459974289
235,125.0,17500.0,-3.9864425659179688,8.980262756347656,-0.1339980661869049
236,126.0,17600.0,-3.9864425659179688,8.980262756347656,-0.1339980661869049
237,127.0,17700.0,-3.938585996627808,9.008977890014648,-0.12921242415905002
238,128.0,17800.0,-3.938585996627808,9.008977890014648,-0.12921242415905002
239,129.0,17900.0,-3.948157548904419,8.968299865722656,-0.17228324711322784
240,120.0,17000.0,-4.053441524505615,9.035298347473145,-0.15074782073497772
241,121.0,17100.0,-4.053441524505615,9.035298347473145,-0.15074782073497772
242,122.0,17200.0,-4.096512317657472,9.12383270263672,-0.07657032459974289
243,123.0,17300.0,-4.096512317657472,9.12383270263672,-0.07657032459974289
244,124.0,17400.0,-4.096512317657472,9.12383270263672,-0.07657032459974289
245,125.0,17500.0,-3.9864425659179688,8.980262756347656,-0.1339980661869049
246,126.0,17600.0,-3.9864425659179688,8.980262756347656,-0.1339980661869049
247,127.0,17700.0,-3.938585996627808,9.008977890014648,-0.12921242415905002
248,128.0,17800.0,-3.938585996627808,9.008977890014648,-0.12921242415905002
249,129.0,17900.0,-3.948157548904419,8.968299865722656,-0.17228324711322784
250,130.0,18000.0,-3.948157548904419,8.968299865722656,-0.17228324711322784
251,131.0,18100.0,-3.948157548904419,8.968299865722656,-0.17228324711322784
252,132.0,18200.0,-4.02472734451294,9.052047729492188,-0.09571290016174316
253,133.0,18300.0,-4.02472734451294,9.052047729492188,-0.09571290016174316
254,134.0,18400.0,-3.799802303314209,9.054441452026367,-0.6891329884529114
255,135.0,18500.0,-3.799802303314209,9.054441452026367,-0.6891329884529114
256,136.0,18600.0,-5.044069766998291,9.336793899536133,-1.5433706045150757
257,137.0,18700.0,-5.044069766998291,9.336793899536133,-1.5433706045150757
258,138.0,18800.0,-5.044069766998291,9.336793899536133,-1.5433706045150757
259,139.0,18900.0,-5.8337016105651855,7.156932830810548,-2.5292134284973145
260,130.0,18000.0,-3.948157548904419,8.968299865722656,-0.17228324711322784
261,131.0,18100.0,-3.948157548904419,8.968299865722656,-0.17228324711322784
262,132.0,18200.0,-4.02472734451294,9.052047729492188,-0.09571290016174316
263,133.0,18300.0,-4.02472734451294,9.052047729492188,-0.09571290016174316
264,134.0,18400.0,-3.799802303314209,9.054441452026367,-0.6891329884529114
265,135.0,18500.0,-3.799802303314209,9.054441452026367,-0.6891329884529114
266,136.0,18600.0,-5.044069766998291,9.336793899536133,-1.5433706045150757
267,137.0,18700.0,-5.044069766998291,9.336793899536133,-1.5433706045150757
268,138.0,18800.0,-5.044069766998291,9.336793899536133,-1.5433706045150757
269,139.0,18900.0,-5.8337016105651855,7.156932830810548,-2.5292134284973145
270,140.0,19000.0,-5.8337016105651855,7.156932830810548,-2.5292134284973145
271,141.0,19100.0,-3.9912283420562735,7.611568450927733,-4.855037212371826
272,142.0,19200.0,-3.9912283420562735,7.611568450927733,-4.855037212371826
273,143.0,19300.0,-3.9912283420562735,7.611568450927733,-4.855037212371826
274,144.0,19400.0,-3.5461630821228027,6.455835819244385,-5.575276851654053
275,145.0,19500.0,-3.5461630821228027,6.455835819244385,-5.575276851654053
276,146.0,19600.0,-3.3978083133697514,6.965506553649902,-6.228517532348633
277,147.0,19700.0,-3.3978083133697514,6.965506553649902,-6.228517532348633
278,148.0,19800.0,-3.8524444103240967,6.714260101318359,-5.051248073577881
279,149.0,19900.0,-3.8524444103240967,6.714260101318359,-5.051248073577881
280,140.0,19000.0,-5.8337016105651855,7.156932830810548,-2.5292134284973145
281,141.0,19100.0,-3.9912283420562735,7.611568450927733,-4.855037212371826
282,142.0,19200.0,-3.9912283420562735,7.611568450927733,-4.855037212371826
283,143.0,19300.0,-3.9912283420562735,7.611568450927733,-4.855037212371826
284,144.0,19400.0,-3.5461630821228027,6.455835819244385,-5.575276851654053
285,145.0,19500.0,-3.5461630821228027,6.455835819244385,-5.575276851654053
286,146.0,19600.0,-3.3978083133697514,6.965506553649902,-6.228517532348633
287,147.0,19700.0,-3.3978083133697514,6.965506553649902,-6.228517532348633
288,148.0,19800.0,-3.8524444103240967,6.714260101318359,-5.051248073577881
289,149.0,19900.0,-3.8524444103240967,6.714260101318359,-5.051248073577881
290,150.0,20000.0,-3.8524444103240967,6.714260101318359,-5.051248073577881
291,151.0,20100.0,-3.785445213317871,6.702296257019043,-6.656832218170166
292,152.0,20200.0,-3.785445213317871,6.702296257019043,-6.656832218170166
293,153.0,20300.0,-4.689932346343994,5.682953834533691,-4.8095736503601065
294,154.0,20400.0,-4.689932346343994,5.682953834533691,-4.8095736503601065
295,155.0,20500.0,-2.89052963256836,6.003591537475586,-6.874579429626465
296,156.0,20600.0,-2.89052963256836,6.003591537475586,-6.874579429626465
297,157.0,20700.0,-2.89052963256836,6.003591537475586,-6.874579429626465
298,158.0,20800.0,-2.115255117416382,6.891329765319824,-6.525227069854736
299,159.0,20900.0,-2.115255117416382,6.891329765319824,-6.525227069854736
300,150.0,20000.0,-3.8524444103240967,6.714260101318359,-5.051248073577881
301,151.0,20100.0,-3.785445213317871,6.702296257019043,-6.656832218170166
302,152.0,20200.0,-3.785445213317871,6.702296257019043,-6.656832218170166
303,153.0,20300.0,-4.689932346343994,5.682953834533691,-4.8095736503601065
304,154.0,20400.0,-4.689932346343994,5.682953834533691,-4.8095736503601065
305,155.0,20500.0,-2.89052963256836,6.003591537475586,-6.874579429626465
306,156.0,20600.0,-2.89052963256836,6.003591537475586,-6.874579429626465
307,157.0,20700.0,-2.89052963256836,6.003591537475586,-6.874579429626465
308,158.0,20800.0,-2.115255117416382,6.891329765319824,-6.525227069854736
309,159.0,20900.0,-2.115255117416382,6.891329765319824,-6.525227069854736
310,160.0,21000.0,-3.996013641357422,8.145168304443361,-4.053441524505615
311,161.0,21100.0,-3.996013641357422,8.145168304443361,-4.053441524505615
312,162.0,21200.0,-5.288137912750244,9.265008926391602,-4.898108005523682
313,163.0,21300.0,-5.288137912750244,9.265008926391602,-4.898108005523682
314,164.0,21400.0,-5.288137912750244,9.265008926391602,-4.898108005523682
315,165.0,21500.0,-2.00518536567688,4.486542701721191,-6.824329853057861
316,166.0,21600.0,-2.00518536567688,4.486542701721191,-6.824329853057861
317,167.0,21700.0,-5.670989990234375,6.305087566375732,-8.329416275024414
318,168.0,21800.0,-5.670989990234375,6.305087566375732,-8.329416275024414
319,169.0,21900.0,-4.5032920837402335,7.601996898651122,-5.07517671585083
320,160.0,21000.0,-3.996013641357422,8.145168304443361,-4.053441524505615
321,161.0,21100.0,-3.996013641357422,8.145168304443361,-4.053441524505615
322,162.0,21200.0,-5.288137912750244,9.265008926391602,-4.898108005523682
323,163.0,21300.0,-5.288137912750244,9.265008926391602,-4.898108005523682
324,164.0,21400.0,-5.288137912750244,9.265008926391602,-4.898108005523682
325,165.0,21500.0,-2.00518536567688,4.486542701721191,-6.824329853057861
326,166.0,21600.0,-2.00518536567688,4.486542701721191,-6.824329853057861
327,167.0,21700.0,-5.670989990234375,6.305087566375732,-8.329416275024414
328,168.0,21800.0,-5.670989990234375,6.305087566375732,-8.329416275024414
329,169.0,21900.0,-4.5032920837402335,7.601996898651122,-5.07517671585083
330,170.0,22000.0,-4.5032920837402335,7.601996898651122,-5.07517671585083
331,171.0,22100.0,-4.5032920837402335,7.601996898651122,-5.07517671585083
332,172.0,22200.0,-2.833101987838745,7.951349258422852,-5.328815937042236
333,173.0,22300.0,-2.833101987838745,7.951349258422852,-5.328815937042236
334,174.0,22400.0,-4.01037073135376,7.810173511505128,-4.474578380584717
335,175.0,22500.0,-4.01037073135376,7.810173511505128,-4.474578380584717
336,176.0,22600.0,-4.9387855529785165,5.61834716796875,-6.606583118438723
337,177.0,22700.0,-4.9387855529785165,5.61834716796875,-6.606583118438723
338,178.0,22800.0,-3.708875179290772,6.479763507843018,-5.9533424377441415
339,179.0,22900.0,-3.708875179290772,6.479763507843018,-5.9533424377441415
340,170.0,22000.0,-4.5032920837402335,7.601996898651122,-5.07517671585083
341,171.0,22100.0,-4.5032920837402335,7.601996898651122,-5.07517671585083
342,172.0,22200.0,-2.833101987838745,7.951349258422852,-5.328815937042236
343,173.0,22300.0,-2.833101987838745,7.951349258422852,-5.328815937042236
344,174.0,22400.0,-4.01037073135376,7.810173511505128,-4.474578380584717
345,175.0,22500.0,-4.01037073135376,7.810173511505128,-4.474578380584717
346,176.0,22600.0,-4.9387855529785165,5.61834716796875,-6.606583118438723
347,177.0,22700.0,-4.9387855529785165,5.61834716796875,-6.606583118438723
348,178.0,22800.0,-3.708875179290772,6.479763507843018,-5.9533424377441415
349,179.0,22900.0,-3.708875179290772,6.479763507843018,-5.9533424377441415
350,180.0,23000.0,-3.708875179290772,6.479763507843018,-5.9533424377441415
351,181.0,23100.0,-2.541177749633789,7.793423175811768,-6.69990348815918
352,182.0,23200.0,-2.541177749633789,7.793423175811768,-6.69990348815918
353,183.0,23300.0,-5.249853134155273,5.1732821464538565,-6.8721866607666025
354,184.0,23400.0,-5.249853134155273,5.1732821464538565,-6.8721866607666025
355,185.0,23500.0,-6.340980052947997,5.335994720458984,-3.335594892501831
356,186.0,23600.0,-6.340980052947997,5.335994720458984,-3.335594892501831
357,187.0,23700.0,-6.340980052947997,5.335994720458984,-3.335594892501831
358,188.0,23800.0,-2.6703903675079346,7.877171993255615,-5.845665454864503
359,189.0,23900.0,-2.6703903675079346,7.877171993255615,-5.845665454864503
360,180.0,23000.0,-3.708875179290772,6.479763507843018,-5.9533424377441415
361,181.0,23100.0,-2.541177749633789,7.793423175811768,-6.69990348815918
362,182.0,23200.0,-2.541177749633789,7.793423175811768,-6.69990348815918
363,183.0,23300.0,-5.249853134155273,5.1732821464538565,-6.8721866607666025
364,184.0,23400.0,-5.249853134155273,5.1732821464538565,-6.8721866607666025
365,185.0,23500.0,-6.340980052947997,5.335994720458984,-3.335594892501831
366,186.0,23600.0,-6.340980052947997,5.335994720458984,-3.335594892501831
367,187.0,23700.0,-6.340980052947997,5.335994720458984,-3.335594892501831
368,188.0,23800.0,-2.6703903675079346,7.877171993255615,-5.845665454864503
369,189.0,23900.0,-2.6703903675079346,7.877171993255615,-5.845665454864503
370,190.0,24000.0,-3.3068809509277344,7.030113220214844,-5.139782905578613
371,191.0,24100.0,-3.3068809509277344,7.030113220214844,-5.139782905578613
372,192.0,24200.0,-4.077369689941406,7.664210796356201,-5.61834716796875
373,193.0,24300.0,-4.077369689941406,7.664210796356201,-5.61834716796875
374,194.0,24400.0,-4.077369689941406,7.664210796356201,-5.61834716796875
375,195.0,24500.0,-4.5367913246154785,6.496513843536378,-5.54177713394165
376,196.0,24600.0,-4.5367913246154785,6.496513843536378,-5.54177713394165
377,197.0,24700.0,-4.570291519165039,6.0299134254455575,-5.582455158233644
378,198.0,24800.0,-4.570291519165039,6.0299134254455575,-5.582455158233644
379,199.0,24900.0,-4.8095736503601065,6.752545356750487,-5.927021503448486
380,190.0,24000.0,-3.3068809509277344,7.030113220214844,-5.139782905578613
381,191.0,24100.0,-3.3068809509277344,7.030113220214844,-5.139782905578613
382,192.0,24200.0,-4.077369689941406,7.664210796356201,-5.61834716796875
383,193.0,24300.0,-4.077369689941406,7.664210796356201,-5.61834716796875
384,194.0,24400.0,-4.077369689941406,7.664210796356201,-5.61834716796875
385,195.0,24500.0,-4.5367913246154785,6.496513843536378,-5.54177713394165
386,196.0,24600.0,-4.5367913246154785,6.496513843536378,-5.54177713394165
387,197.0,24700.0,-4.570291519165039,6.0299134254455575,-5.582455158233644
388,198.0,24800.0,-4.570291519165039,6.0299134254455575,-5.582455158233644
389,199.0,24900.0,-4.8095736503601065,6.752545356750487,-5.927021503448486
390,200.0,25000.0,-4.8095736503601065,6.752545356750487,-5.927021503448486
391,201.0,25100.0,-4.8095736503601065,6.752545356750487,-5.927021503448486
392,202.0,25200.0,-4.934000015258789,5.97727108001709,-5.139782905578613
393,203.0,25300.0,-4.934000015258789,5.97727108001709,-5.139782905578613
394,204.0,25400.0,-4.776073932647705,6.908078193664551,-5.991628170013428
395,205.0,25500.0,-4.776073932647705,6.908078193664551,-5.991628170013428
396,206.0,25600.0,-4.675575256347656,5.714060306549072,-5.130211353302002
397,207.0,25700.0,-4.675575256347656,5.714060306549072,-5.130211353302002
398,208.0,25800.0,-4.675575256347656,5.714060306549072,-5.130211353302002
399,209.0,25900.0,-4.95792818069458,5.92223596572876,-5.898308277130128
400,200.0,25000.0,-4.8095736503601065,6.752545356750487,-5.927021503448486
401,201.0,25100.0,-4.8095736503601065,6.752545356750487,-5.927021503448486
402,202.0,25200.0,-4.934000015258789,5.97727108001709,-5.139782905578613
403,203.0,25300.0,-4.934000015258789,5.97727108001709,-5.139782905578613
404,204.0,25400.0,-4.776073932647705,6.908078193664551,-5.991628170013428
405,205.0,25500.0,-4.776073932647705,6.908078193664551,-5.991628170013428
406,206.0,25600.0,-4.675575256347656,5.714060306549072,-5.130211353302002
407,207.0,25700.0,-4.675575256347656,5.714060306549072,-5.130211353302002
408,208.0,25800.0,-4.675575256347656,5.714060306549072,-5.130211353302002
409,209.0,25900.0,-4.95792818069458,5.92223596572876,-5.898308277130128
410,210.0,26000.0,-4.95792818069458,5.92223596572876,-5.898308277130128
411,211.0,26100.0,-4.914857387542725,6.147161483764648,-5.891129493713379
412,212.0,26200.0,-4.914857387542725,6.147161483764648,-5.891129493713379
413,213.0,26300.0,-4.804787635803223,5.48674201965332,-5.783452033996582
414,214.0,26400.0,-4.804787635803223,5.48674201965332,-5.783452033996582
415,215.0,26500.0,-5.685347080230713,5.565705299377441,-5.436492443084717
416,216.0,26600.0,-5.685347080230713,5.565705299377441,-5.436492443084717
417,217.0,26700.0,-5.685347080230713,5.565705299377441,-5.436492443084717
418,218.0,26800.0,-4.704289436340332,6.1256256103515625,-6.431907176971436
419,219.0,26900.0,-4.704289436340332,6.1256256103515625,-6.431907176971436
420,210.0,26000.0,-4.95792818069458,5.92223596572876,-5.898308277130128
421,211.0,26100.0,-4.914857387542725,6.147161483764648,-5.891129493713379
422,212.0,26200.0,-4.914857387542725,6.147161483764648,-5.891129493713379
423,213.0,26300.0,-4.804787635803223,5.48674201965332,-5.783452033996582
424,214.0,26400.0,-4.804787635803223,5.48674201965332,-5.783452033996582
425,215.0,26500.0,-5.685347080230713,5.565705299377441,-5.436492443084717
426,216.0,26600.0,-5.685347080230713,5.565705299377441,-5.436492443084717
427,217.0,26700.0,-5.685347080230713,5.565705299377441,-5.436492443084717
428,218.0,26800.0,-4.704289436340332,6.1256256103515625,-6.431907176971436
429,219.0,26900.0,-4.704289436340332,6.1256256103515625,-6.431907176971436
430,220.0,27000.0,-4.823930263519287,5.927021503448486,-6.003591537475586
431,221.0,27100.0,-4.823930263519287,5.927021503448486,-6.003591537475586
432,222.0,27200.0,-4.823930263519287,5.927021503448486,-6.003591537475586
433,223.0,27300.0,-4.9387855529785165,5.532205581665039,-6.477370738983152
434,224.0,27400.0,-4.9387855529785165,5.532205581665039,-6.477370738983152
435,225.0,27500.0,-4.7952165603637695,6.297908782958984,-6.345765590667725
436,226.0,27600.0,-4.7952165603637695,6.297908782958984,-6.345765590667725
437,227.0,27700.0,-5.063212871551514,5.127819538116455,-5.979663372039795
438,228.0,27800.0,-5.063212871551514,5.127819538116455,-5.979663372039795
439,229.0,27900.0,-4.65643310546875,5.982056617736816,-6.317051887512207
440,220.0,27000.0,-4.823930263519287,5.927021503448486,-6.003591537475586
441,221.0,27100.0,-4.823930263519287,5.927021503448486,-6.003591537475586
442,222.0,27200.0,-4.823930263519287,5.927021503448486,-6.003591537475586
443,223.0,27300.0,-4.9387855529785165,5.532205581665039,-6.477370738983152
444,224.0,27400.0,-4.9387855529785165,5.532205581665039,-6.477370738983152
445,225.0,27500.0,-4.7952165603637695,6.297908782958984,-6.345765590667725
446,226.0,27600.0,-4.7952165603637695,6.297908782958984,-6.345765590667725
447,227.0,27700.0,-5.063212871551514,5.127819538116455,-5.979663372039795
448,228.0,27800.0,-5.063212871551514,5.127819538116455,-5.979663372039795
449,229.0,27900.0,-4.65643310546875,5.982056617736816,-6.317051887512207
450,230.0,28000.0,-4.65643310546875,5.982056617736816,-6.317051887512207
451,231.0,28100.0,-4.65643310546875,5.982056617736816,-6.317051887512207
452,232.0,28200.0,-4.766502857208252,5.905486583709718,-6.527620315551758
453,233.0,28300.0,-4.766502857208252,5.905486583709718,-6.527620315551758
454,234.0,28400.0,-4.977071285247803,5.151747226715088,-6.7932233810424805
455,235.0,28500.0,-4.977071285247803,5.151747226715088,-6.7932233810424805
456,236.0,28600.0,-4.977071285247803,5.151747226715088,-6.7932233810424805
457,237.0,28700.0,-5.273780822753906,4.718646049499512,-5.69013261795044
458,238.0,28800.0,-5.273780822753906,4.718646049499512,-5.69013261795044
459,239.0,28900.0,-4.833501815795898,6.056234359741211,-6.9583282470703125
460,230.0,28000.0,-4.65643310546875,5.982056617736816,-6.317051887512207
461,231.0,28100.0,-4.65643310546875,5.982056617736816,-6.317051887512207
462,232.0,28200.0,-4.766502857208252,5.905486583709718,-6.527620315551758
463,233.0,28300.0,-4.766502857208252,5.905486583709718,-6.527620315551758
464,234.0,28400.0,-4.977071285247803,5.151747226715088,-6.7932233810424805
465,235.0,28500.0,-4.977071285247803,5.151747226715088,-6.7932233810424805
466,236.0,28600.0,-4.977071285247803,5.151747226715088,-6.7932233810424805
467,237.0,28700.0,-5.273780822753906,4.718646049499512,-5.69013261795044
468,238.0,28800.0,-5.273780822753906,4.718646049499512,-5.69013261795044
469,239.0,28900.0,-4.833501815795898,6.056234359741211,-6.9583282470703125
470,240.0,29000.0,-4.833501815795898,6.056234359741211,-6.9583282470703125
471,241.0,29100.0,-4.8191447257995605,5.000998973846436,-6.405585765838622
472,242.0,29200.0,-4.8191447257995605,5.000998973846436,-6.405585765838622
473,243.0,29300.0,-4.603790760040283,6.2500529289245605,-6.149554252624513
474,244.0,29400.0,-4.603790760040283,6.2500529289245605,-6.149554252624513
475,245.0,29500.0,-4.603790760040283,6.2500529289245605,-6.149554252624513
476,246.0,29600.0,-5.513063907623291,5.905486583709718,-4.163511276245116
477,247.0,29700.0,-5.513063907623291,5.905486583709718,-4.163511276245116
478,248.0,29800.0,-5.474778175354004,7.905886173248291,-3.658626079559326
479,249.0,29900.0,-5.474778175354004,7.905886173248291,-3.658626079559326
480,240.0,29000.0,-4.833501815795898,6.056234359741211,-6.9583282470703125
481,241.0,29100.0,-4.8191447257995605,5.000998973846436,-6.405585765838622
482,242.0,29200.0,-4.8191447257995605,5.000998973846436,-6.405585765838622
483,243.0,29300.0,-4.603790760040283,6.2500529289245605,-6.149554252624513
484,244.0,29400.0,-4.603790760040283,6.2500529289245605,-6.149554252624513
485,245.0,29500.0,-4.603790760040283,6.2500529289245605,-6.149554252624513
486,246.0,29600.0,-5.513063907623291,5.905486583709718,-4.163511276245116
487,247.0,29700.0,-5.513063907623291,5.905486583709718,-4.163511276245116
488,248.0,29800.0,-5.474778175354004,7.905886173248291,-3.658626079559326
489,249.0,29900.0,-5.474778175354004,7.905886173248291,-3.658626079559326
490,250.0,30000.0,-5.474778175354004,7.905886173248291,-3.658626079559326
491,251.0,30100.0,-5.460421085357666,7.3914289474487305,-3.31166672706604
492,252.0,30200.0,-5.460421085357666,7.3914289474487305,-3.31166672706604
493,253.0,30300.0,-6.10169792175293,7.046862602233888,-2.5746772289276123
494,254.0,30400.0,-6.10169792175293,7.046862602233888,-2.5746772289276123
495,255.0,30500.0,-6.10169792175293,7.046862602233888,-2.5746772289276123
496,256.0,30600.0,-4.201796531677246,8.530412673950195,-2.3880369663238525
497,257.0,30700.0,-4.201796531677246,8.530412673950195,-2.3880369663238525
498,258.0,30800.0,-3.5509488582611084,8.96112060546875,-0.34217363595962524
499,259.0,30900.0,-3.5509488582611084,8.96112060546875,-0.34217363595962524
500,250.0,30000.0,-5.474778175354004,7.905886173248291,-3.658626079559326
501,251.0,30100.0,-5.460421085357666,7.3914289474487305,-3.31166672706604
502,252.0,30200.0,-5.460421085357666,7.3914289474487305,-3.31166672706604
503,253.0,30300.0,-6.10169792175293,7.046862602233888,-2.5746772289276123
504,254.0,30400.0,-6.10169792175293,7.046862602233888,-2.5746772289276123
505,255.0,30500.0,-6.10169792175293,7.046862602233888,-2.5746772289276123
506,256.0,30600.0,-4.201796531677246,8.530412673950195,-2.3880369663238525
507,257.0,30700.0,-4.201796531677246,8.530412673950195,-2.3880369663238525
508,258.0,30800.0,-3.5509488582611084,8.96112060546875,-0.34217363595962524
509,259.0,30900.0,-3.5509488582611084,8.96112060546875,-0.34217363595962524
510,260.0,31000.0,-3.464807271957397,9.016156196594238,1.112662434577942
511,261.0,31100.0,-3.464807271957397,9.016156196594238,1.112662434577942
512,262.0,31200.0,-3.464807271957397,9.016156196594238,1.112662434577942
513,263.0,31300.0,-3.369094133377075,9.018548011779783,1.2753744125366209
514,264.0,31400.0,-3.369094133377075,9.018548011779783,1.2753744125366209
515,265.0,31500.0,-3.646661758422852,9.028119087219238,0.9858429431915284
516,266.0,31600.0,-3.646661758422852,9.028119087219238,0.9858429431915284
517,267.0,31700.0,-3.871586799621582,9.107083320617676,0.7441678047180176
518,268.0,31800.0,-3.871586799621582,9.107083320617676,0.7441678047180176
519,269.0,31900.0,-3.996013641357422,8.956335067749023,0.6771688461303711
520,260.0,31000.0,-3.464807271957397,9.016156196594238,1.112662434577942
521,261.0,31100.0,-3.464807271957397,9.016156196594238,1.112662434577942
522,262.0,31200.0,-3.464807271957397,9.016156196594238,1.112662434577942
523,263.0,31300.0,-3.369094133377075,9.018548011779783,1.2753744125366209
524,264.0,31400.0,-3.369094133377075,9.018548011779783,1.2753744125366209
525,265.0,31500.0,-3.646661758422852,9.028119087219238,0.9858429431915284
526,266.0,31600.0,-3.646661758422852,9.028119087219238,0.9858429431915284
527,267.0,31700.0,-3.871586799621582,9.107083320617676,0.7441678047180176
528,268.0,31800.0,-3.871586799621582,9.107083320617676,0.7441678047180176
529,269.0,31900.0,-3.996013641357422,8.956335067749023,0.6771688461303711
530,270.0,32000.0,-3.996013641357422,8.956335067749023,0.6771688461303711
531,271.0,32100.0,-4.25922441482544,8.903693199157715,0.6747759580612183
532,272.0,32200.0,-4.25922441482544,8.903693199157715,0.6747759580612183
533,273.0,32300.0,-4.25922441482544,8.903693199157715,0.6747759580612183
534,274.0,32400.0,-4.431507587432861,10.320244789123537,-0.5694918036460876
535,275.0,32500.0,-4.431507587432861,10.320244789123537,-0.5694918036460876
536,276.0,32600.0,-5.489135265350342,7.195217609405518,-3.3714869022369385
537,277.0,32700.0,-5.489135265350342,7.195217609405518,-3.3714869022369385
538,278.0,32800.0,-5.929414749145508,2.770888566970825,-4.0390844345092765
539,279.0,32900.0,-5.929414749145508,2.770888566970825,-4.0390844345092765
540,270.0,32000.0,-3.996013641357422,8.956335067749023,0.6771688461303711
541,271.0,32100.0,-4.25922441482544,8.903693199157715,0.6747759580612183
542,272.0,32200.0,-4.25922441482544,8.903693199157715,0.6747759580612183
543,273.0,32300.0,-4.25922441482544,8.903693199157715,0.6747759580612183
544,274.0,32400.0,-4.431507587432861,10.320244789123537,-0.5694918036460876
545,275.0,32500.0,-4.431507587432861,10.320244789123537,-0.5694918036460876
546,276.0,32600.0,-5.489135265350342,7.195217609405518,-3.3714869022369385
547,277.0,32700.0,-5.489135265350342,7.195217609405518,-3.3714869022369385
548,278.0,32800.0,-5.929414749145508,2.770888566970825,-4.0390844345092765
549,279.0,32900.0,-5.929414749145508,2.770888566970825,-4.0390844345092765
550,280.0,33000.0,-5.929414749145508,2.770888566970825,-4.0390844345092765
551,281.0,33100.0,-3.823730707168578,5.838487148284912,-8.135597229003906
552,282.0,33200.0,-3.823730707168578,5.838487148284912,-8.135597229003906
553,283.0,33300.0,-4.393222332000732,5.718846321105957,-7.470392227172852
554,284.0,33400.0,-4.393222332000732,5.718846321105957,-7.470392227172852
555,285.0,33500.0,-6.183053970336914,4.8358941078186035,-4.49132776260376
556,286.0,33600.0,-6.183053970336914,4.8358941078186035,-4.49132776260376
557,287.0,33700.0,-6.183053970336914,4.8358941078186035,-4.49132776260376
558,288.0,33800.0,-4.603790760040283,6.427121639251709,-6.137589931488037
559,289.0,33900.0,-4.603790760040283,6.427121639251709,-6.137589931488037
560,280.0,33000.0,-5.929414749145508,2.770888566970825,-4.0390844345092765
561,281.0,33100.0,-3.823730707168578,5.838487148284912,-8.135597229003906
562,282.0,33200.0,-3.823730707168578,5.838487148284912,-8.135597229003906
563,283.0,33300.0,-4.393222332000732,5.718846321105957,-7.470392227172852
564,284.0,33400.0,-4.393222332000732,5.718846321105957,-7.470392227172852
565,285.0,33500.0,-6.183053970336914,4.8358941078186035,-4.49132776260376
566,286.0,33600.0,-6.183053970336914,4.8358941078186035,-4.49132776260376
567,287.0,33700.0,-6.183053970336914,4.8358941078186035,-4.49132776260376
568,288.0,33800.0,-4.603790760040283,6.427121639251709,-6.137589931488037
569,289.0,33900.0,-4.603790760040283,6.427121639251709,-6.137589931488037
570,290.0,34000.0,-4.8191447257995605,7.144968032836914,-4.706681728363037
571,291.0,34100.0,-4.8191447257995605,7.144968032836914,-4.706681728363037
572,292.0,34200.0,-4.8191447257995605,7.144968032836914,-4.706681728363037
573,293.0,34300.0,-3.8907296657562256,5.962913990020753,-5.029713153839111
574,294.0,34400.0,-3.8907296657562256,5.962913990020753,-5.029713153839111
575,295.0,34500.0,-2.3162522315979004,4.4721856117248535,-6.484549045562744
576,296.0,34600.0,-2.3162522315979004,4.4721856117248535,-6.484549045562744
577,297.0,34700.0,-4.445864677429199,9.635896682739258,-5.08953332901001
578,298.0,34800.0,-4.445864677429199,9.635896682739258,-5.08953332901001
579,299.0,34900.0,-4.369294166564941,8.45862865447998,-4.445864677429199
580,290.0,34000.0,-4.8191447257995605,7.144968032836914,-4.706681728363037
581,291.0,34100.0,-4.8191447257995605,7.144968032836914,-4.706681728363037
582,292.0,34200.0,-4.8191447257995605,7.144968032836914,-4.706681728363037
583,293.0,34300.0,-3.8907296657562256,5.962913990020753,-5.029713153839111
584,294.0,34400.0,-3.8907296657562256,5.962913990020753,-5.029713153839111
585,295.0,34500.0,-2.3162522315979004,4.4721856117248535,-6.484549045562744
586,296.0,34600.0,-2.3162522315979004,4.4721856117248535,-6.484549045562744
587,297.0,34700.0,-4.445864677429199,9.635896682739258,-5.08953332901001
588,298.0,34800.0,-4.445864677429199,9.635896682739258,-5.08953332901001
589,299.0,34900.0,-4.369294166564941,8.45862865447998,-4.445864677429199
590,300.0,35000.0,-4.369294166564941,8.45862865447998,-4.445864677429199
591,301.0,35100.0,-4.369294166564941,8.45862865447998,-4.445864677429199
592,302.0,35200.0,-4.53200626373291,5.8097734451293945,-7.379465103149414
593,303.0,35300.0,-4.53200626373291,5.8097734451293945,-7.379465103149414
594,304.0,35400.0,-4.646861553192139,3.806980848312378,-6.570690631866455
595,305.0,35500.0,-4.646861553192139,3.806980848312378,-6.570690631866455
596,306.0,35600.0,-2.6799612045288086,1.5002998113632202,-8.860621452331543
597,307.0,35700.0,-2.6799612045288086,1.5002998113632202,-8.860621452331543
598,308.0,35800.0,-2.6799612045288086,1.5002998113632202,-8.860621452331543
599,309.0,35900.0,-3.680161237716675,2.1511476039886475,-8.970691680908203
600,300.0,35000.0,-4.369294166564941,8.45862865447998,-4.445864677429199
601,301.0,35100.0,-4.369294166564941,8.45862865447998,-4.445864677429199
602,302.0,35200.0,-4.53200626373291,5.8097734451293945,-7.379465103149414
603,303.0,35300.0,-4.53200626373291,5.8097734451293945,-7.379465103149414
604,304.0,35400.0,-4.646861553192139,3.806980848312378,-6.570690631866455
605,305.0,35500.0,-4.646861553192139,3.806980848312378,-6.570690631866455
606,306.0,35600.0,-2.6799612045288086,1.5002998113632202,-8.860621452331543
607,307.0,35700.0,-2.6799612045288086,1.5002998113632202,-8.860621452331543
608,308.0,35800.0,-2.6799612045288086,1.5002998113632202,-8.860621452331543
609,309.0,35900.0,-3.680161237716675,2.1511476039886475,-8.970691680908203
610,310.0,36000.0,-3.680161237716675,2.1511476039886475,-8.970691680908203
611,311.0,36100.0,-3.818945169448853,5.883951187133789,-7.082754611968994
612,312.0,36200.0,-3.818945169448853,5.883951187133789,-7.082754611968994
613,313.0,36300.0,-4.115654945373535,9.10229778289795,-3.2805597782135014
614,314.0,36400.0,-4.115654945373535,9.10229778289795,-3.2805597782135014
615,315.0,36500.0,-4.115654945373535,9.10229778289795,-3.2805597782135014
616,316.0,36600.0,-4.015156269073486,6.649653911590576,-2.048256158828736
617,317.0,36700.0,-4.015156269073486,6.649653911590576,-2.048256158828736
618,318.0,36800.0,-4.3453660011291495,8.456235885620117,-1.430907964706421
619,319.0,36900.0,-4.3453660011291495,8.456235885620117,-1.430907964706421
620,310.0,36000.0,-3.680161237716675,2.1511476039886475,-8.970691680908203
621,311.0,36100.0,-3.818945169448853,5.883951187133789,-7.082754611968994
622,312.0,36200.0,-3.818945169448853,5.883951187133789,-7.082754611968994
623,313.0,36300.0,-4.115654945373535,9.10229778289795,-3.2805597782135014
624,314.0,36400.0,-4.115654945373535,9.10229778289795,-3.2805597782135014
625,315.0,36500.0,-4.115654945373535,9.10229778289795,-3.2805597782135014
626,316.0,36600.0,-4.015156269073486,6.649653911590576,-2.048256158828736
627,317.0,36700.0,-4.015156269073486,6.649653911590576,-2.048256158828736
628,318.0,36800.0,-4.3453660011291495,8.456235885620117,-1.430907964706421
629,319.0,36900.0,-4.3453660011291495,8.456235885620117,-1.430907964706421
630,320.0,37000.0,-4.642076015472412,8.389235496520996,-1.5242280960083008
631,321.0,37100.0,-4.642076015472412,8.389235496520996,-1.5242280960083008
632,322.0,37200.0,-5.0201416015625,7.788637638092041,-2.0721843242645264
633,323.0,37300.0,-5.0201416015625,7.788637638092041,-2.0721843242645264
634,324.0,37400.0,-5.0201416015625,7.788637638092041,-2.0721843242645264
635,325.0,37500.0,-4.828716278076172,8.580661773681639,-2.033899307250977
636,326.0,37600.0,-4.828716278076172,8.580661773681639,-2.033899307250977
637,327.0,37700.0,-4.977071285247803,8.097311973571777,-2.1367905139923096
638,328.0,37800.0,-4.977071285247803,8.097311973571777,-2.1367905139923096
639,329.0,37900.0,-4.977071285247803,8.097311973571777,-2.1367905139923096
640,320.0,37000.0,-4.642076015472412,8.389235496520996,-1.5242280960083008
641,321.0,37100.0,-4.642076015472412,8.389235496520996,-1.5242280960083008
642,322.0,37200.0,-5.0201416015625,7.788637638092041,-2.0721843242645264
643,323.0,37300.0,-5.0201416015625,7.788637638092041,-2.0721843242645264
644,324.0,37400.0,-5.0201416015625,7.788637638092041,-2.0721843242645264
645,325.0,37500.0,-4.828716278076172,8.580661773681639,-2.033899307250977
646,326.0,37600.0,-4.828716278076172,8.580661773681639,-2.033899307250977
647,327.0,37700.0,-4.977071285247803,8.097311973571777,-2.1367905139923096
648,328.0,37800.0,-4.977071285247803,8.097311973571777,-2.1367905139923096
649,329.0,37900.0,-4.977071285247803,8.097311973571777,-2.1367905139923096
650,330.0,38000.0,-5.484349250793457,7.841279983520508,-3.4241292476654053
651,331.0,38100.0,-5.484349250793457,7.841279983520508,-3.4241292476654053
652,332.0,38200.0,-4.852644443511963,4.218546390533446,-6.649653911590576
653,333.0,38300.0,-4.852644443511963,4.218546390533446,-6.649653911590576
654,334.0,38400.0,-4.240081787109375,6.589833736419678,-7.393822193145753
655,335.0,38500.0,-4.240081787109375,6.589833736419678,-7.393822193145753
656,336.0,38600.0,-5.106283187866211,4.950750350952148,-4.8095736503601065
657,337.0,38700.0,-5.106283187866211,4.950750350952148,-4.8095736503601065
658,338.0,38800.0,-5.106283187866211,4.950750350952148,-4.8095736503601065
659,339.0,38900.0,-3.833301782608032,3.996013641357422,-6.721438884735107
660,330.0,38000.0,-5.484349250793457,7.841279983520508,-3.4241292476654053
661,331.0,38100.0,-5.484349250793457,7.841279983520508,-3.4241292476654053
662,332.0,38200.0,-4.852644443511963,4.218546390533446,-6.649653911590576
663,333.0,38300.0,-4.852644443511963,4.218546390533446,-6.649653911590576
664,334.0,38400.0,-4.240081787109375,6.589833736419678,-7.393822193145753
665,335.0,38500.0,-4.240081787109375,6.589833736419678,-7.393822193145753
666,336.0,38600.0,-5.106283187866211,4.950750350952148,-4.8095736503601065
667,337.0,38700.0,-5.106283187866211,4.950750350952148,-4.8095736503601065
668,338.0,38800.0,-5.106283187866211,4.950750350952148,-4.8095736503601065
669,339.0,38900.0,-3.833301782608032,3.996013641357422,-6.721438884735107
670,340.0,39000.0,-3.833301782608032,3.996013641357422,-6.721438884735107
671,341.0,39100.0,-4.618147850036621,3.1704900264739986,-4.47697114944458
672,342.0,39200.0,-4.618147850036621,3.1704900264739986,-4.47697114944458
673,343.0,39300.0,-4.618147850036621,3.1704900264739986,-4.47697114944458
674,344.0,39400.0,-3.6370904445648193,4.969892501831055,-8.508876800537111
675,345.0,39500.0,-3.6370904445648193,4.969892501831055,-8.508876800537111
676,346.0,39600.0,-4.589433670043945,7.353143692016602,-6.151947498321532
677,347.0,39700.0,-4.589433670043945,7.353143692016602,-6.151947498321532
678,348.0,39800.0,-2.914458036422728,9.707681655883787,-0.5264209508895874
679,349.0,39900.0,-2.914458036422728,9.707681655883787,-0.5264209508895874
680,340.0,39000.0,-3.833301782608032,3.996013641357422,-6.721438884735107
681,341.0,39100.0,-4.618147850036621,3.1704900264739986,-4.47697114944458
682,342.0,39200.0,-4.618147850036621,3.1704900264739986,-4.47697114944458
683,343.0,39300.0,-4.618147850036621,3.1704900264739986,-4.47697114944458
684,344.0,39400.0,-3.6370904445648193,4.969892501831055,-8.508876800537111
685,345.0,39500.0,-3.6370904445648193,4.969892501831055,-8.508876800537111
686,346.0,39600.0,-4.589433670043945,7.353143692016602,-6.151947498321532
687,347.0,39700.0,-4.589433670043945,7.353143692016602,-6.151947498321532
688,348.0,39800.0,-2.914458036422728,9.707681655883787,-0.5264209508895874
689,349.0,39900.0,-2.914458036422728,9.707681655883787,-0.5264209508895874
690,350.0,40000.0,-2.392822742462158,9.20040225982666,2.7038896083831787
691,351.0,40100.0,-2.392822742462158,9.20040225982666,2.7038896083831787
692,352.0,40200.0,-2.392822742462158,9.20040225982666,2.7038896083831787
693,353.0,40300.0,-2.7182462215423584,8.116454124450684,3.8261232376098633
694,354.0,40400.0,-2.7182462215423584,8.116454124450684,3.8261232376098633
695,355.0,40500.0,-2.7804601192474365,7.57806921005249,4.144368648529054
696,356.0,40600.0,-2.7804601192474365,7.57806921005249,4.144368648529054
697,357.0,40700.0,-2.7804601192474365,7.57806921005249,4.144368648529054
698,358.0,40800.0,-3.627518892288208,6.917649745941162,3.6370904445648193
699,359.0,40900.0,-3.627518892288208,6.917649745941162,3.6370904445648193
700,350.0,40000.0,-2.392822742462158,9.20040225982666,2.7038896083831787
701,351.0,40100.0,-2.392822742462158,9.20040225982666,2.7038896083831787
702,352.0,40200.0,-2.392822742462158,9.20040225982666,2.7038896083831787
703,353.0,40300.0,-2.7182462215423584,8.116454124450684,3.8261232376098633
704,354.0,40400.0,-2.7182462215423584,8.116454124450684,3.8261232376098633
705,355.0,40500.0,-2.7804601192474365,7.57806921005249,4.144368648529054
706,356.0,40600.0,-2.7804601192474365,7.57806921005249,4.144368648529054
707,357.0,40700.0,-2.7804601192474365,7.57806921005249,4.144368648529054
708,358.0,40800.0,-3.627518892288208,6.917649745941162,3.6370904445648193
709,359.0,40900.0,-3.627518892288208,6.917649745941162,3.6370904445648193
710,360.0,41000.0,-2.723031997680664,6.592226982116699,3.742374420166016
711,361.0,41100.0,-2.723031997680664,6.592226982116699,3.742374420166016
712,362.0,41200.0,-2.622533798217773,6.922436237335205,3.2853453159332275
713,363.0,41300.0,-2.622533798217773,6.922436237335205,3.2853453159332275
714,364.0,41400.0,-3.670589685440064,10.322636604309082,5.146961212158203
715,365.0,41500.0,-3.670589685440064,10.322636604309082,5.146961212158203
716,366.0,41600.0,-3.670589685440064,10.322636604309082,5.146961212158203
717,367.0,41700.0,-2.799602746963501,8.190631866455076,4.584648132324219
718,368.0,41800.0,-2.799602746963501,8.190631866455076,4.584648132324219
719,369.0,41900.0,-2.9862425327301025,7.599604606628418,3.818945169448853
720,360.0,41000.0,-2.723031997680664,6.592226982116699,3.742374420166016
721,361.0,41100.0,-2.723031997680664,6.592226982116699,3.742374420166016
722,362.0,41200.0,-2.622533798217773,6.922436237335205,3.2853453159332275
723,363.0,41300.0,-2.622533798217773,6.922436237335205,3.2853453159332275
724,364.0,41400.0,-3.670589685440064,10.322636604309082,5.146961212158203
725,365.0,41500.0,-3.670589685440064,10.322636604309082,5.146961212158203
726,366.0,41600.0,-3.670589685440064,10.322636604309082,5.146961212158203
727,367.0,41700.0,-2.799602746963501,8.190631866455076,4.584648132324219
728,368.0,41800.0,-2.799602746963501,8.190631866455076,4.584648132324219
729,369.0,41900.0,-2.9862425327301025,7.599604606628418,3.818945169448853
730,370.0,42000.0,-2.9862425327301025,7.599604606628418,3.818945169448853
731,371.0,42100.0,-2.9862425327301025,7.599604606628418,3.818945169448853
732,372.0,42200.0,-2.0243279933929443,9.236295700073242,4.354937553405762
733,373.0,42300.0,-2.0243279933929443,9.236295700073242,4.354937553405762
734,374.0,42400.0,-2.8378877639770512,8.642874717712402,4.898108005523682
735,375.0,42500.0,-2.8378877639770512,8.642874717712402,4.898108005523682
736,376.0,42600.0,-3.091526985168457,8.520841598510742,-1.801795244216919
737,377.0,42700.0,-3.091526985168457,8.520841598510742,-1.801795244216919
738,378.0,42800.0,-3.091526985168457,8.520841598510742,-1.801795244216919
739,379.0,42900.0,-3.924229145050049,8.788837432861326,-1.6199408769607544
740,370.0,42000.0,-2.9862425327301025,7.599604606628418,3.818945169448853
741,371.0,42100.0,-2.9862425327301025,7.599604606628418,3.818945169448853
742,372.0,42200.0,-2.0243279933929443,9.236295700073242,4.354937553405762
743,373.0,42300.0,-2.0243279933929443,9.236295700073242,4.354937553405762
744,374.0,42400.0,-2.8378877639770512,8.642874717712402,4.898108005523682
745,375.0,42500.0,-2.8378877639770512,8.642874717712402,4.898108005523682
746,376.0,42600.0,-3.091526985168457,8.520841598510742,-1.801795244216919
747,377.0,42700.0,-3.091526985168457,8.520841598510742,-1.801795244216919
748,378.0,42800.0,-3.091526985168457,8.520841598510742,-1.801795244216919
749,379.0,42900.0,-3.924229145050049,8.788837432861326,-1.6199408769607544
750,380.0,43000.0,-3.924229145050049,8.788837432861326,-1.6199408769607544
751,381.0,43100.0,-3.9290146827697767,9.083154678344727,-1.2825528383255005
752,382.0,43200.0,-3.9290146827697767,9.083154678344727,-1.2825528383255005
753,383.0,43300.0,-4.240081787109375,8.662017822265625,-0.8709874749183655
754,384.0,43400.0,-4.240081787109375,8.662017822265625,-0.8709874749183655
755,385.0,43500.0,-4.240081787109375,8.662017822265625,-0.8709874749183655
756,386.0,43600.0,-4.096512317657472,9.119047164916992,-0.9451649785041808
757,387.0,43700.0,-4.096512317657472,9.119047164916992,-0.9451649785041808
758,388.0,43800.0,-4.000799655914307,9.025726318359377,-1.0001999139785769
759,389.0,43900.0,-4.000799655914307,9.025726318359377,-1.0001999139785769
760,380.0,43000.0,-3.924229145050049,8.788837432861326,-1.6199408769607544
761,381.0,43100.0,-3.9290146827697767,9.083154678344727,-1.2825528383255005
762,382.0,43200.0,-3.9290146827697767,9.083154678344727,-1.2825528383255005
763,383.0,43300.0,-4.240081787109375,8.662017822265625,-0.8709874749183655
764,384.0,43400.0,-4.240081787109375,8.662017822265625,-0.8709874749183655
765,385.0,43500.0,-4.240081787109375,8.662017822265625,-0.8709874749183655
766,386.0,43600.0,-4.096512317657472,9.119047164916992,-0.9451649785041808
767,387.0,43700.0,-4.096512317657472,9.119047164916992,-0.9451649785041808
768,388.0,43800.0,-4.000799655914307,9.025726318359377,-1.0001999139785769
769,389.0,43900.0,-4.000799655914307,9.025726318359377,-1.0001999139785769
770,390.0,44000.0,-4.130012035369873,9.028119087219238,-0.7776673436164856
771,391.0,44100.0,-4.130012035369873,9.028119087219238,-0.7776673436164856
772,392.0,44200.0,-4.201796531677246,8.812766075134277,-1.124626636505127
773,393.0,44300.0,-4.201796531677246,8.812766075134277,-1.124626636505127
774,394.0,44400.0,-5.005784511566162,8.772088050842285,-0.6388836503028871
775,395.0,44500.0,-5.005784511566162,8.772088050842285,-0.6388836503028871
776,396.0,44600.0,-4.3310089111328125,7.795816421508789,-5.651846885681152
777,397.0,44700.0,-4.3310089111328125,7.795816421508789,-5.651846885681152
778,398.0,44800.0,-4.3310089111328125,7.795816421508789,-5.651846885681152
779,399.0,44900.0,-5.718846321105957,4.898108005523682,-4.934000015258789
780,390.0,44000.0,-4.130012035369873,9.028119087219238,-0.7776673436164856
781,391.0,44100.0,-4.130012035369873,9.028119087219238,-0.7776673436164856
782,392.0,44200.0,-4.201796531677246,8.812766075134277,-1.124626636505127
783,393.0,44300.0,-4.201796531677246,8.812766075134277,-1.124626636505127
784,394.0,44400.0,-5.005784511566162,8.772088050842285,-0.6388836503028871
785,395.0,44500.0,-5.005784511566162,8.772088050842285,-0.6388836503028871
786,396.0,44600.0,-4.3310089111328125,7.795816421508789,-5.651846885681152
787,397.0,44700.0,-4.3310089111328125,7.795816421508789,-5.651846885681152
788,398.0,44800.0,-4.3310089111328125,7.795816421508789,-5.651846885681152
789,399.0,44900.0,-5.718846321105957,4.898108005523682,-4.934000015258789
790,400.0,45000.0,-5.718846321105957,4.898108005523682,-4.934000015258789
791,401.0,45100.0,-4.847858428955078,5.436492443084717,-8.506484031677246
792,402.0,45200.0,-4.847858428955078,5.436492443084717,-8.506484031677246
793,403.0,45300.0,-4.847858428955078,5.436492443084717,-8.506484031677246
794,404.0,45400.0,-5.417350769042969,3.7902309894561768,-5.575276851654053
795,405.0,45500.0,-5.417350769042969,3.7902309894561768,-5.575276851654053
796,406.0,45600.0,-4.374079704284668,5.711667537689209,-7.482356548309326
797,407.0,45700.0,-4.374079704284668,5.711667537689209,-7.482356548309326
798,408.0,45800.0,-5.766702175140381,4.704289436340332,-4.814359188079834
799,409.0,45900.0,-5.766702175140381,4.704289436340332,-4.814359188079834
800,400.0,45000.0,-5.718846321105957,4.898108005523682,-4.934000015258789
801,401.0,45100.0,-4.847858428955078,5.436492443084717,-8.506484031677246
802,402.0,45200.0,-4.847858428955078,5.436492443084717,-8.506484031677246
803,403.0,45300.0,-4.847858428955078,5.436492443084717,-8.506484031677246
804,404.0,45400.0,-5.417350769042969,3.7902309894561768,-5.575276851654053
805,405.0,45500.0,-5.417350769042969,3.7902309894561768,-5.575276851654053
806,406.0,45600.0,-4.374079704284668,5.711667537689209,-7.482356548309326
807,407.0,45700.0,-4.374079704284668,5.711667537689209,-7.482356548309326
808,408.0,45800.0,-5.766702175140381,4.704289436340332,-4.814359188079834
809,409.0,45900.0,-5.766702175140381,4.704289436340332,-4.814359188079834
810,410.0,46000.0,-5.766702175140381,4.704289436340332,-4.814359188079834
811,411.0,46100.0,-3.833301782608032,6.31944465637207,-7.798208713531494
812,412.0,46200.0,-3.833301782608032,6.31944465637207,-7.798208713531494
813,413.0,46300.0,-5.627918720245361,5.9700927734375,-4.5104708671569815
814,414.0,46400.0,-5.627918720245361,5.9700927734375,-4.5104708671569815
815,415.0,46500.0,-6.005984783172607,7.264609336853027,-1.978864312171936
816,416.0,46600.0,-6.005984783172607,7.264609336853027,-1.978864312171936
817,417.0,46700.0,-6.005984783172607,7.264609336853027,-1.978864312171936
818,418.0,46800.0,-5.436492443084717,8.559126853942871,-0.9092726111412048
819,419.0,46900.0,-5.436492443084717,8.559126853942871,-0.9092726111412048
820,410.0,46000.0,-5.766702175140381,4.704289436340332,-4.814359188079834
821,411.0,46100.0,-3.833301782608032,6.31944465637207,-7.798208713531494
822,412.0,46200.0,-3.833301782608032,6.31944465637207,-7.798208713531494
823,413.0,46300.0,-5.627918720245361,5.9700927734375,-4.5104708671569815
824,414.0,46400.0,-5.627918720245361,5.9700927734375,-4.5104708671569815
825,415.0,46500.0,-6.005984783172607,7.264609336853027,-1.978864312171936
826,416.0,46600.0,-6.005984783172607,7.264609336853027,-1.978864312171936
827,417.0,46700.0,-6.005984783172607,7.264609336853027,-1.978864312171936
828,418.0,46800.0,-5.436492443084717,8.559126853942871,-0.9092726111412048
829,419.0,46900.0,-5.436492443084717,8.559126853942871,-0.9092726111412048
830,420.0,47000.0,-5.680561065673827,8.13798999786377,-0.30149564146995544
831,421.0,47100.0,-5.680561065673827,8.13798999786377,-0.30149564146995544
832,422.0,47200.0,-5.264209270477295,8.370094299316406,-0.5790630578994751
833,423.0,47300.0,-5.264209270477295,8.370094299316406,-0.5790630578994751
834,424.0,47400.0,-5.264209270477295,8.370094299316406,-0.5790630578994751
835,425.0,47500.0,-5.245067596435547,8.319844245910645,-0.8111668825149536
836,426.0,47600.0,-5.245067596435547,8.319844245910645,-0.8111668825149536
837,427.0,47700.0,-5.197210788726807,8.243274688720701,-1.3040882349014282
838,428.0,47800.0,-5.197210788726807,8.243274688720701,-1.3040882349014282
839,429.0,47900.0,-5.139782905578613,8.358129501342772,-1.146162033081055
840,420.0,47000.0,-5.680561065673827,8.13798999786377,-0.30149564146995544
841,421.0,47100.0,-5.680561065673827,8.13798999786377,-0.30149564146995544
842,422.0,47200.0,-5.264209270477295,8.370094299316406,-0.5790630578994751
843,423.0,47300.0,-5.264209270477295,8.370094299316406,-0.5790630578994751
844,424.0,47400.0,-5.264209270477295,8.370094299316406,-0.5790630578994751
845,425.0,47500.0,-5.245067596435547,8.319844245910645,-0.8111668825149536
846,426.0,47600.0,-5.245067596435547,8.319844245910645,-0.8111668825149536
847,427.0,47700.0,-5.197210788726807,8.243274688720701,-1.3040882349014282
848,428.0,47800.0,-5.197210788726807,8.243274688720701,-1.3040882349014282
849,429.0,47900.0,-5.139782905578613,8.358129501342772,-1.146162033081055
850,430.0,48000.0,-5.139782905578613,8.358129501342772,-1.146162033081055
851,431.0,48100.0,-5.139782905578613,8.358129501342772,-1.146162033081055
852,432.0,48200.0,-4.948357105255127,8.475377082824707,-1.244267821311951
853,433.0,48300.0,-4.948357105255127,8.475377082824707,-1.244267821311951
854,434.0,48400.0,-4.7712883949279785,8.556733131408691,-1.2586246728897097
855,435.0,48500.0,-4.7712883949279785,8.556733131408691,-1.2586246728897097
856,436.0,48600.0,-4.666004180908203,8.566305160522461,-1.3351951837539673
857,437.0,48700.0,-4.666004180908203,8.566305160522461,-1.3351951837539673
858,438.0,48800.0,-4.661218643188477,8.676375389099121,-1.179661512374878
859,439.0,48900.0,-4.661218643188477,8.676375389099121,-1.179661512374878
860,430.0,48000.0,-5.139782905578613,8.358129501342772,-1.146162033081055
861,431.0,48100.0,-5.139782905578613,8.358129501342772,-1.146162033081055
862,432.0,48200.0,-4.948357105255127,8.475377082824707,-1.244267821311951
863,433.0,48300.0,-4.948357105255127,8.475377082824707,-1.244267821311951
864,434.0,48400.0,-4.7712883949279785,8.556733131408691,-1.2586246728897097
865,435.0,48500.0,-4.7712883949279785,8.556733131408691,-1.2586246728897097
866,436.0,48600.0,-4.666004180908203,8.566305160522461,-1.3351951837539673
867,437.0,48700.0,-4.666004180908203,8.566305160522461,-1.3351951837539673
868,438.0,48800.0,-4.661218643188477,8.676375389099121,-1.179661512374878
869,439.0,48900.0,-4.661218643188477,8.676375389099121,-1.179661512374878
870,440.0,49000.0,-4.661218643188477,8.676375389099121,-1.179661512374878
871,441.0,49100.0,-4.65643310546875,8.669197082519531,-1.1150553226470947
872,442.0,49200.0,-4.65643310546875,8.669197082519531,-1.1150553226470947
873,443.0,49300.0,-4.800002098083496,8.652446746826174,-0.9236294627189636
874,444.0,49400.0,-4.800002098083496,8.652446746826174,-0.9236294627189636
875,445.0,49500.0,-4.780859470367432,8.580661773681639,-1.1485549211502075
876,446.0,49600.0,-4.780859470367432,8.580661773681639,-1.1485549211502075
877,447.0,49700.0,-4.479363918304443,8.803194999694824,-1.0456634759902954
878,448.0,49800.0,-4.479363918304443,8.803194999694824,-1.0456634759902954
879,449.0,49900.0,-4.60857629776001,8.626125335693361,-1.210768222808838
880,440.0,49000.0,-4.661218643188477,8.676375389099121,-1.179661512374878
881,441.0,49100.0,-4.65643310546875,8.669197082519531,-1.1150553226470947
882,442.0,49200.0,-4.65643310546875,8.669197082519531,-1.1150553226470947
883,443.0,49300.0,-4.800002098083496,8.652446746826174,-0.9236294627189636
884,444.0,49400.0,-4.800002098083496,8.652446746826174,-0.9236294627189636
885,445.0,49500.0,-4.780859470367432,8.580661773681639,-1.1485549211502075
886,446.0,49600.0,-4.780859470367432,8.580661773681639,-1.1485549211502075
887,447.0,49700.0,-4.479363918304443,8.803194999694824,-1.0456634759902954
888,448.0,49800.0,-4.479363918304443,8.803194999694824,-1.0456634759902954
889,449.0,49900.0,-4.60857629776001,8.626125335693361,-1.210768222808838
890,450.0,50000.0,-4.60857629776001,8.626125335693361,-1.210768222808838
891,451.0,50100.0,-4.60857629776001,8.626125335693361,-1.210768222808838
892,452.0,50200.0,-4.555934429168701,8.748159408569336,-1.0456634759902954
893,453.0,50300.0,-4.555934429168701,8.748159408569336,-1.0456634759902954
894,454.0,50400.0,-4.742574691772461,8.542377471923826,-1.0001999139785769
895,455.0,50500.0,-4.742574691772461,8.542377471923826,-1.0001999139785769
896,456.0,50600.0,-4.522434711456299,8.506484031677246,-1.289731502532959
897,457.0,50700.0,-4.522434711456299,8.506484031677246,-1.289731502532959
898,458.0,50800.0,-4.522434711456299,8.506484031677246,-1.289731502532959
899,459.0,50900.0,-3.73758864402771,8.949156761169434,1.3830513954162598
900,450.0,50000.0,-4.60857629776001,8.626125335693361,-1.210768222808838
901,451.0,50100.0,-4.60857629776001,8.626125335693361,-1.210768222808838
902,452.0,50200.0,-4.555934429168701,8.748159408569336,-1.0456634759902954
903,453.0,50300.0,-4.555934429168701,8.748159408569336,-1.0456634759902954
904,454.0,50400.0,-4.742574691772461,8.542377471923826,-1.0001999139785769
905,455.0,50500.0,-4.742574691772461,8.542377471923826,-1.0001999139785769
906,456.0,50600.0,-4.522434711456299,8.506484031677246,-1.289731502532959
907,457.0,50700.0,-4.522434711456299,8.506484031677246,-1.289731502532959
908,458.0,50800.0,-4.522434711456299,8.506484031677246,-1.289731502532959
909,459.0,50900.0,-3.73758864402771,8.949156761169434,1.3830513954162598
910,460.0,51000.0,-3.73758864402771,8.949156761169434,1.3830513954162598
911,461.0,51100.0,-3.713660717010498,8.798408508300781,2.376072883605957
912,462.0,51200.0,-3.713660717010498,8.798408508300781,2.376072883605957
913,463.0,51300.0,-3.7471601963043213,8.930014610290527,2.524427890777588
914,464.0,51400.0,-3.7471601963043213,8.930014610290527,2.524427890777588
915,465.0,51500.0,-3.6610186100006095,8.85105037689209,2.711068153381348
916,466.0,51600.0,-3.6610186100006095,8.85105037689209,2.711068153381348
917,467.0,51700.0,-3.6610186100006095,8.85105037689209,2.711068153381348
918,468.0,51800.0,-3.622733592987061,8.858229637145996,2.531606435775757
919,469.0,51900.0,-3.622733592987061,8.858229637145996,2.531606435775757
920,460.0,51000.0,-3.73758864402771,8.949156761169434,1.3830513954162598
921,461.0,51100.0,-3.713660717010498,8.798408508300781,2.376072883605957
922,462.0,51200.0,-3.713660717010498,8.798408508300781,2.376072883605957
923,463.0,51300.0,-3.7471601963043213,8.930014610290527,2.524427890777588
924,464.0,51400.0,-3.7471601963043213,8.930014610290527,2.524427890777588
925,465.0,51500.0,-3.6610186100006095,8.85105037689209,2.711068153381348
926,466.0,51600.0,-3.6610186100006095,8.85105037689209,2.711068153381348
927,467.0,51700.0,-3.6610186100006095,8.85105037689209,2.711068153381348
928,468.0,51800.0,-3.622733592987061,8.858229637145996,2.531606435775757
929,469.0,51900.0,-3.622733592987061,8.858229637145996,2.531606435775757
930,470.0,52000.0,-3.665804386138916,8.843873023986816,2.5914268493652344
931,471.0,52100.0,-3.665804386138916,8.843873023986816,2.5914268493652344
932,472.0,52200.0,-3.665804386138916,8.843873023986816,2.5914268493652344
933,473.0,52300.0,-3.728017807006837,8.731410026550293,2.4406790733337402
934,474.0,52400.0,-3.728017807006837,8.731410026550293,2.4406790733337402
935,475.0,52500.0,-3.996013641357422,8.748159408569336,2.1726830005645748
936,476.0,52600.0,-3.996013641357422,8.748159408569336,2.1726830005645748
937,477.0,52700.0,-4.225724697113037,8.980262756347656,1.5385849475860596
938,478.0,52800.0,-4.225724697113037,8.980262756347656,1.5385849475860596
939,479.0,52900.0,-4.225724697113037,8.980262756347656,1.5385849475860596
940,470.0,52000.0,-3.665804386138916,8.843873023986816,2.5914268493652344
941,471.0,52100.0,-3.665804386138916,8.843873023986816,2.5914268493652344
942,472.0,52200.0,-3.665804386138916,8.843873023986816,2.5914268493652344
943,473.0,52300.0,-3.728017807006837,8.731410026550293,2.4406790733337402
944,474.0,52400.0,-3.728017807006837,8.731410026550293,2.4406790733337402
945,475.0,52500.0,-3.996013641357422,8.748159408569336,2.1726830005645748
946,476.0,52600.0,-3.996013641357422,8.748159408569336,2.1726830005645748
947,477.0,52700.0,-4.225724697113037,8.980262756347656,1.5385849475860596
948,478.0,52800.0,-4.225724697113037,8.980262756347656,1.5385849475860596
949,479.0,52900.0,-4.225724697113037,8.980262756347656,1.5385849475860596
950,480.0,53000.0,-5.053641319274902,8.059026718139647,-1.2035897970199585
951,481.0,53100.0,-5.053641319274902,8.059026718139647,-1.2035897970199585
952,482.0,53200.0,-5.111069202423097,8.248059272766112,-1.3974084854125977
953,483.0,53300.0,-5.111069202423097,8.248059272766112,-1.3974084854125977
954,484.0,53400.0,-5.111069202423097,8.248059272766112,-1.3974084854125977
955,485.0,53500.0,-4.7952165603637695,8.47298526763916,-0.8518448472023009
956,486.0,53600.0,-4.7952165603637695,8.47298526763916,-0.8518448472023009
957,487.0,53700.0,-4.627718925476074,8.729016304016112,-0.4426721632480621
958,488.0,53800.0,-4.627718925476074,8.729016304016112,-0.4426721632480621
959,489.0,53900.0,-4.517649173736572,8.745766639709473,-0.3110669553279877
960,480.0,53000.0,-5.053641319274902,8.059026718139647,-1.2035897970199585
961,481.0,53100.0,-5.053641319274902,8.059026718139647,-1.2035897970199585
962,482.0,53200.0,-5.111069202423097,8.248059272766112,-1.3974084854125977
963,483.0,53300.0,-5.111069202423097,8.248059272766112,-1.3974084854125977
964,484.0,53400.0,-5.111069202423097,8.248059272766112,-1.3974084854125977
965,485.0,53500.0,-4.7952165603637695,8.47298526763916,-0.8518448472023009
966,486.0,53600.0,-4.7952165603637695,8.47298526763916,-0.8518448472023009
967,487.0,53700.0,-4.627718925476074,8.729016304016112,-0.4426721632480621
968,488.0,53800.0,-4.627718925476074,8.729016304016112,-0.4426721632480621
969,489.0,53900.0,-4.517649173736572,8.745766639709473,-0.3110669553279877
970,490.0,54000.0,-4.517649173736572,8.745766639709473,-0.3110669553279877
971,491.0,54100.0,-4.517649173736572,8.745766639709473,-0.3110669553279877
972,492.0,54200.0,-4.498506546020508,8.784051895141603,-0.18185453116893768
973,493.0,54300.0,-4.498506546020508,8.784051895141603,-0.18185453116893768
974,494.0,54400.0,-4.469792366027832,8.803194999694824,-0.1914258003234864
975,495.0,54500.0,-4.469792366027832,8.803194999694824,-0.1914258003234864
976,496.0,54600.0,-4.469792366027832,8.803194999694824,-0.1914258003234864
977,497.0,54700.0,-4.474578380584717,8.82951545715332,-0.10289137810468674
978,498.0,54800.0,-4.474578380584717,8.82951545715332,-0.10289137810468674
979,499.0,54900.0,-4.421936511993408,8.83669376373291,-0.2967100143432617
980,490.0,54000.0,-4.517649173736572,8.745766639709473,-0.3110669553279877
981,491.0,54100.0,-4.517649173736572,8.745766639709473,-0.3110669553279877
982,492.0,54200.0,-4.498506546020508,8.784051895141603,-0.18185453116893768
983,493.0,54300.0,-4.498506546020508,8.784051895141603,-0.18185453116893768
984,494.0,54400.0,-4.469792366027832,8.803194999694824,-0.1914258003234864
985,495.0,54500.0,-4.469792366027832,8.803194999694824,-0.1914258003234864
986,496.0,54600.0,-4.469792366027832,8.803194999694824,-0.1914258003234864
987,497.0,54700.0,-4.474578380584717,8.82951545715332,-0.10289137810468674
988,498.0,54800.0,-4.474578380584717,8.82951545715332,-0.10289137810468674
989,499.0,54900.0,-4.421936511993408,8.83669376373291,-0.2967100143432617
990,500.0,55000.0,-4.421936511993408,8.83669376373291,-0.2967100143432617
991,501.0,55100.0,-4.335794448852538,8.84626579284668,-0.2632104754447937
992,502.0,55200.0,-4.335794448852538,8.84626579284668,-0.2632104754447937
993,503.0,55300.0,-4.335794448852538,8.84626579284668,-0.2632104754447937
994,504.0,55400.0,-4.508078098297119,8.774479866027832,-0.2464607357978821
995,505.0,55500.0,-4.508078098297119,8.774479866027832,-0.2464607357978821
996,506.0,55600.0,-4.785645484924316,9.274580955505373,-0.48574298620224
997,507.0,55700.0,-4.785645484924316,9.274580955505373,-0.48574298620224
998,508.0,55800.0,-4.785645484924316,9.274580955505373,-0.48574298620224
999,509.0,55900.0,-6.436692714691162,7.786244869232178,-2.4191436767578125
1000,500.0,55000.0,-4.421936511993408,8.83669376373291,-0.2967100143432617
1001,501.0,55100.0,-4.335794448852538,8.84626579284668,-0.2632104754447937
1002,502.0,55200.0,-4.335794448852538,8.84626579284668,-0.2632104754447937
1003,503.0,55300.0,-4.335794448852538,8.84626579284668,-0.2632104754447937
1004,504.0,55400.0,-4.508078098297119,8.774479866027832,-0.2464607357978821
1005,505.0,55500.0,-4.508078098297119,8.774479866027832,-0.2464607357978821
1006,506.0,55600.0,-4.785645484924316,9.274580955505373,-0.48574298620224
1007,507.0,55700.0,-4.785645484924316,9.274580955505373,-0.48574298620224
1008,508.0,55800.0,-4.785645484924316,9.274580955505373,-0.48574298620224
1009,509.0,55900.0,-6.436692714691162,7.786244869232178,-2.4191436767578125
1010,510.0,56000.0,-6.436692714691162,7.786244869232178,-2.4191436767578125
1011,511.0,56100.0,-5.623133182525635,6.228517532348633,-3.9433717727661133
1012,512.0,56200.0,-5.623133182525635,6.228517532348633,-3.9433717727661133
1013,513.0,56300.0,-3.680161237716675,4.677968502044678,-6.128018856048584
1014,514.0,56400.0,-3.680161237716675,4.677968502044678,-6.128018856048584
1015,515.0,56500.0,-2.885744333267212,7.599604606628418,-5.000998973846436
1016,516.0,56600.0,-2.885744333267212,7.599604606628418,-5.000998973846436
1017,517.0,56700.0,-2.885744333267212,7.599604606628418,-5.000998973846436
1018,518.0,56800.0,-2.995814085006714,9.71485996246338,-0.9571290016174316
1019,519.0,56900.0,-2.995814085006714,9.71485996246338,-0.9571290016174316
1020,510.0,56000.0,-6.436692714691162,7.786244869232178,-2.4191436767578125
1021,511.0,56100.0,-5.623133182525635,6.228517532348633,-3.9433717727661133
1022,512.0,56200.0,-5.623133182525635,6.228517532348633,-3.9433717727661133
1023,513.0,56300.0,-3.680161237716675,4.677968502044678,-6.128018856048584
1024,514.0,56400.0,-3.680161237716675,4.677968502044678,-6.128018856048584
1025,515.0,56500.0,-2.885744333267212,7.599604606628418,-5.000998973846436
1026,516.0,56600.0,-2.885744333267212,7.599604606628418,-5.000998973846436
1027,517.0,56700.0,-2.885744333267212,7.599604606628418,-5.000998973846436
1028,518.0,56800.0,-2.995814085006714,9.71485996246338,-0.9571290016174316
1029,519.0,56900.0,-2.995814085006714,9.71485996246338,-0.9571290016174316
1030,520.0,57000.0,-2.6081764698028564,9.93978500366211,-0.20338992774486545
1031,521.0,57100.0,-2.6081764698028564,9.93978500366211,-0.20338992774486545
1032,522.0,57200.0,-3.4025940895080566,8.906085968017578,-2.8139593601226807
1033,523.0,57300.0,-3.4025940895080566,8.906085968017578,-2.8139593601226807
1034,524.0,57400.0,-3.4025940895080566,8.906085968017578,-2.8139593601226807
1035,525.0,57500.0,-4.02472734451294,6.881758213043213,-4.342973232269287
1036,526.0,57600.0,-4.02472734451294,6.881758213043213,-4.342973232269287
1037,527.0,57700.0,-1.938186287879944,6.276373863220215,-5.546562671661377
1038,528.0,57800.0,-1.938186287879944,6.276373863220215,-5.546562671661377
1039,529.0,57900.0,-2.1343977451324463,9.57607650756836,-1.3782659769058228
1040,520.0,57000.0,-2.6081764698028564,9.93978500366211,-0.20338992774486545
1041,521.0,57100.0,-2.6081764698028564,9.93978500366211,-0.20338992774486545
1042,522.0,57200.0,-3.4025940895080566,8.906085968017578,-2.8139593601226807
1043,523.0,57300.0,-3.4025940895080566,8.906085968017578,-2.8139593601226807
1044,524.0,57400.0,-3.4025940895080566,8.906085968017578,-2.8139593601226807
1045,525.0,57500.0,-4.02472734451294,6.881758213043213,-4.342973232269287
1046,526.0,57600.0,-4.02472734451294,6.881758213043213,-4.342973232269287
1047,527.0,57700.0,-1.938186287879944,6.276373863220215,-5.546562671661377
1048,528.0,57800.0,-1.938186287879944,6.276373863220215,-5.546562671661377
1049,529.0,57900.0,-2.1343977451324463,9.57607650756836,-1.3782659769058228
1050,530.0,58000.0,-2.1343977451324463,9.57607650756836,-1.3782659769058228
1051,531.0,58100.0,-2.1343977451324463,9.57607650756836,-1.3782659769058228
1052,532.0,58200.0,-0.8757730722427368,9.609575271606444,3.2231321334838867
1053,533.0,58300.0,-0.8757730722427368,9.609575271606444,3.2231321334838867
1054,534.0,58400.0,-0.5312066078186035,8.372486114501951,5.785844802856445
1055,535.0,58500.0,-0.5312066078186035,8.372486114501951,5.785844802856445
1056,536.0,58600.0,-0.7657032012939453,6.953542709350586,6.702296257019043
1057,537.0,58700.0,-0.7657032012939453,6.953542709350586,6.702296257019043
1058,538.0,58800.0,-0.7657032012939453,6.953542709350586,6.702296257019043
1059,539.0,58900.0,-0.5551348924636841,6.412764549255371,7.836494445800781
1060,530.0,58000.0,-2.1343977451324463,9.57607650756836,-1.3782659769058228
1061,531.0,58100.0,-2.1343977451324463,9.57607650756836,-1.3782659769058228
1062,532.0,58200.0,-0.8757730722427368,9.609575271606444,3.2231321334838867
1063,533.0,58300.0,-0.8757730722427368,9.609575271606444,3.2231321334838867
1064,534.0,58400.0,-0.5312066078186035,8.372486114501951,5.785844802856445
1065,535.0,58500.0,-0.5312066078186035,8.372486114501951,5.785844802856445
1066,536.0,58600.0,-0.7657032012939453,6.953542709350586,6.702296257019043
1067,537.0,58700.0,-0.7657032012939453,6.953542709350586,6.702296257019043
1068,538.0,58800.0,-0.7657032012939453,6.953542709350586,6.702296257019043
1069,539.0,58900.0,-0.5551348924636841,6.412764549255371,7.836494445800781
1070,540.0,59000.0,-0.5551348924636841,6.412764549255371,7.836494445800781
1071,541.0,59100.0,-0.9523434042930604,7.800601959228516,7.022934436798098
1072,542.0,59200.0,-0.9523434042930604,7.800601959228516,7.022934436798098
1073,543.0,59300.0,-1.5361920595169067,8.298308372497559,3.4959137439727783
1074,544.0,59400.0,-1.5361920595169067,8.298308372497559,3.4959137439727783
1075,545.0,59500.0,-1.1868400573730469,8.889336585998535,4.216153621673584
1076,546.0,59600.0,-1.1868400573730469,8.889336585998535,4.216153621673584
1077,547.0,59700.0,-1.4500504732131958,8.965906143188477,2.7278177738189697
1078,548.0,59800.0,-1.4500504732131958,8.965906143188477,2.7278177738189697
1079,549.0,59900.0,-1.588834285736084,9.482755661010742,2.7589242458343506
1080,540.0,59000.0,-0.5551348924636841,6.412764549255371,7.836494445800781
1081,541.0,59100.0,-0.9523434042930604,7.800601959228516,7.022934436798098
1082,542.0,59200.0,-0.9523434042930604,7.800601959228516,7.022934436798098
1083,543.0,59300.0,-1.5361920595169067,8.298308372497559,3.4959137439727783
1084,544.0,59400.0,-1.5361920595169067,8.298308372497559,3.4959137439727783
1085,545.0,59500.0,-1.1868400573730469,8.889336585998535,4.216153621673584
1086,546.0,59600.0,-1.1868400573730469,8.889336585998535,4.216153621673584
1087,547.0,59700.0,-1.4500504732131958,8.965906143188477,2.7278177738189697
1088,548.0,59800.0,-1.4500504732131958,8.965906143188477,2.7278177738189697
1089,549.0,59900.0,-1.588834285736084,9.482755661010742,2.7589242458343506
1090,550.0,60000.0,-1.588834285736084,9.482755661010742,2.7589242458343506
1091,551.0,60100.0,-1.6127625703811646,9.298508644104004,1.2203395366668701
1092,552.0,60200.0,-1.6127625703811646,9.298508644104004,1.2203395366668701
1093,553.0,60300.0,-1.6127625703811646,9.298508644104004,1.2203395366668701
1094,554.0,60400.0,-1.8999011516571045,9.80817985534668,1.124626636505127
1095,555.0,60500.0,-1.8999011516571045,9.80817985534668,1.124626636505127
1096,556.0,60600.0,-1.813759446144104,9.678967475891113,0.7489535212516785
1097,557.0,60700.0,-1.813759446144104,9.678967475891113,0.7489535212516785
1098,558.0,60800.0,-1.813759446144104,9.678967475891113,0.7489535212516785
1099,559.0,60900.0,-1.8999011516571045,9.76989459991455,0.4235295951366425
1100,550.0,60000.0,-1.588834285736084,9.482755661010742,2.7589242458343506
1101,551.0,60100.0,-1.6127625703811646,9.298508644104004,1.2203395366668701
1102,552.0,60200.0,-1.6127625703811646,9.298508644104004,1.2203395366668701
1103,553.0,60300.0,-1.6127625703811646,9.298508644104004,1.2203395366668701
1104,554.0,60400.0,-1.8999011516571045,9.80817985534668,1.124626636505127
1105,555.0,60500.0,-1.8999011516571045,9.80817985534668,1.124626636505127
1106,556.0,60600.0,-1.813759446144104,9.678967475891113,0.7489535212516785
1107,557.0,60700.0,-1.813759446144104,9.678967475891113,0.7489535212516785
1108,558.0,60800.0,-1.813759446144104,9.678967475891113,0.7489535212516785
1109,559.0,60900.0,-1.8999011516571045,9.76989459991455,0.4235295951366425
1110,560.0,61000.0,-1.8999011516571045,9.76989459991455,0.4235295951366425
1111,561.0,61100.0,-1.9238293170928955,9.415757179260254,0.3182453811168671
1112,562.0,61200.0,-1.9238293170928955,9.415757179260254,0.3182453811168671
1113,563.0,61300.0,-2.091326951980591,9.774680137634276,0.3900300860404968
1114,564.0,61400.0,-2.091326951980591,9.774680137634276,0.3900300860404968
1115,565.0,61500.0,-1.8281164169311523,9.497113227844238,0.4450649619102478
1116,566.0,61600.0,-1.8281164169311523,9.497113227844238,0.4450649619102478
1117,567.0,61700.0,-1.8281164169311523,9.497113227844238,0.4450649619102478
1118,568.0,61800.0,-1.9334007501602173,9.743573188781738,0.4091726541519165
1119,569.0,61900.0,-1.9334007501602173,9.743573188781738,0.4091726541519165
1120,560.0,61000.0,-1.8999011516571045,9.76989459991455,0.4235295951366425
1121,561.0,61100.0,-1.9238293170928955,9.415757179260254,0.3182453811168671
1122,562.0,61200.0,-1.9238293170928955,9.415757179260254,0.3182453811168671
1123,563.0,61300.0,-2.091326951980591,9.774680137634276,0.3900300860404968
1124,564.0,61400.0,-2.091326951980591,9.774680137634276,0.3900300860404968
1125,565.0,61500.0,-1.8281164169311523,9.497113227844238,0.4450649619102478
1126,566.0,61600.0,-1.8281164169311523,9.497113227844238,0.4450649619102478
1127,567.0,61700.0,-1.8281164169311523,9.497113227844238,0.4450649619102478
1128,568.0,61800.0,-1.9334007501602173,9.743573188781738,0.4091726541519165
1129,569.0,61900.0,-1.9334007501602173,9.743573188781738,0.4091726541519165
1130,570.0,62000.0,-2.230110645294189,9.518648147583008,0.20578275620937347
1131,571.0,62100.0,-2.230110645294189,9.518648147583008,0.20578275620937347
1132,572.0,62200.0,-2.230110645294189,9.518648147583008,0.20578275620937347
1133,573.0,62300.0,-2.2875385284423837,9.475577354431152,-0.002392822643741965
1134,574.0,62400.0,-2.2875385284423837,9.475577354431152,-0.002392822643741965
1135,575.0,62500.0,-2.5124638080596924,9.492327690124512,-1.3208380937576294
1136,576.0,62600.0,-2.5124638080596924,9.492327690124512,-1.3208380937576294
1137,577.0,62700.0,-2.4646072387695312,9.33440113067627,-2.1224336624145512
1138,578.0,62800.0,-2.4646072387695312,9.33440113067627,-2.1224336624145512
1139,579.0,62900.0,-2.847458839416504,9.322437286376953,-1.868794322013855
1140,570.0,62000.0,-2.230110645294189,9.518648147583008,0.20578275620937347
1141,571.0,62100.0,-2.230110645294189,9.518648147583008,0.20578275620937347
1142,572.0,62200.0,-2.230110645294189,9.518648147583008,0.20578275620937347
1143,573.0,62300.0,-2.2875385284423837,9.475577354431152,-0.002392822643741965
1144,574.0,62400.0,-2.2875385284423837,9.475577354431152,-0.002392822643741965
1145,575.0,62500.0,-2.5124638080596924,9.492327690124512,-1.3208380937576294
1146,576.0,62600.0,-2.5124638080596924,9.492327690124512,-1.3208380937576294
1147,577.0,62700.0,-2.4646072387695312,9.33440113067627,-2.1224336624145512
1148,578.0,62800.0,-2.4646072387695312,9.33440113067627,-2.1224336624145512
1149,579.0,62900.0,-2.847458839416504,9.322437286376953,-1.868794322013855
1150,580.0,63000.0,-2.847458839416504,9.322437286376953,-1.868794322013855
1151,581.0,63100.0,-2.847458839416504,9.322437286376953,-1.868794322013855
1152,582.0,63200.0,-2.5459630489349365,8.817551612854004,-2.562713146209717
1153,583.0,63300.0,-2.5459630489349365,8.817551612854004,-2.562713146209717
1154,584.0,63400.0,-2.8666017055511475,9.087940216064453,-2.2779672145843506
1155,585.0,63500.0,-2.8666017055511475,9.087940216064453,-2.2779672145843506
1156,586.0,63600.0,-2.560320377349853,9.387042999267578,-1.8041881322860718
1157,587.0,63700.0,-2.560320377349853,9.387042999267578,-1.8041881322860718
1158,588.0,63800.0,-2.6703903675079346,8.925228118896484,-1.852044701576233
1159,589.0,63900.0,-2.6703903675079346,8.925228118896484,-1.852044701576233
1160,580.0,63000.0,-2.847458839416504,9.322437286376953,-1.868794322013855
1161,581.0,63100.0,-2.847458839416504,9.322437286376953,-1.868794322013855
1162,582.0,63200.0,-2.5459630489349365,8.817551612854004,-2.562713146209717
1163,583.0,63300.0,-2.5459630489349365,8.817551612854004,-2.562713146209717
1164,584.0,63400.0,-2.8666017055511475,9.087940216064453,-2.2779672145843506
1165,585.0,63500.0,-2.8666017055511475,9.087940216064453,-2.2779672145843506
1166,586.0,63600.0,-2.560320377349853,9.387042999267578,-1.8041881322860718
1167,587.0,63700.0,-2.560320377349853,9.387042999267578,-1.8041881322860718
1168,588.0,63800.0,-2.6703903675079346,8.925228118896484,-1.852044701576233
1169,589.0,63900.0,-2.6703903675079346,8.925228118896484,-1.852044701576233
1170,590.0,64000.0,-2.4598214626312256,9.66939640045166,-2.687139749526977
1171,591.0,64100.0,-2.4598214626312256,9.66939640045166,-2.687139749526977
1172,592.0,64200.0,-2.4598214626312256,9.66939640045166,-2.687139749526977
1173,593.0,64300.0,-2.589033842086792,9.207581520080566,-3.431307554244995
1174,594.0,64400.0,-2.589033842086792,9.207581520080566,-3.431307554244995
1175,595.0,64500.0,-3.1537401676177983,8.164310455322267,-5.084747791290283
1176,596.0,64600.0,-3.1537401676177983,8.164310455322267,-5.084747791290283
1177,597.0,64700.0,-3.211168050765991,7.805387496948242,-6.580262184143066
1178,598.0,64800.0,-3.211168050765991,7.805387496948242,-6.580262184143066
1179,599.0,64900.0,-3.211168050765991,7.805387496948242,-6.580262184143066
1180,590.0,64000.0,-2.4598214626312256,9.66939640045166,-2.687139749526977
1181,591.0,64100.0,-2.4598214626312256,9.66939640045166,-2.687139749526977
1182,592.0,64200.0,-2.4598214626312256,9.66939640045166,-2.687139749526977
1183,593.0,64300.0,-2.589033842086792,9.207581520080566,-3.431307554244995
1184,594.0,64400.0,-2.589033842086792,9.207581520080566,-3.431307554244995
1185,595.0,64500.0,-3.1537401676177983,8.164310455322267,-5.084747791290283
1186,596.0,64600.0,-3.1537401676177983,8.164310455322267,-5.084747791290283
1187,597.0,64700.0,-3.211168050765991,7.805387496948242,-6.580262184143066
1188,598.0,64800.0,-3.211168050765991,7.805387496948242,-6.580262184143066
1189,599.0,64900.0,-3.211168050765991,7.805387496948242,-6.580262184143066
1190,600.0,65000.0,-2.9623143672943115,4.802394866943359,-6.9918274879455575
1191,601.0,65100.0,-2.9623143672943115,4.802394866943359,-6.9918274879455575
1192,602.0,65200.0,-3.263810157775879,3.1345977783203125,-7.16650390625
1193,603.0,65300.0,-3.263810157775879,3.1345977783203125,-7.16650390625
1194,604.0,65400.0,-3.0149567127227783,5.838487148284912,-7.542177200317383
1195,605.0,65500.0,-3.0149567127227783,5.838487148284912,-7.542177200317383
1196,606.0,65600.0,-2.4646072387695312,9.791430473327637,-0.7896314859390259
1197,607.0,65700.0,-2.4646072387695312,9.791430473327637,-0.7896314859390259
1198,608.0,65800.0,-2.4646072387695312,9.791430473327637,-0.7896314859390259
1199,609.0,65900.0,-2.1200408935546875,8.95394229888916,2.57228422164917
1200,600.0,65000.0,-2.9623143672943115,4.802394866943359,-6.9918274879455575
1201,601.0,65100.0,-2.9623143672943115,4.802394866943359,-6.9918274879455575
1202,602.0,65200.0,-3.263810157775879,3.1345977783203125,-7.16650390625
1203,603.0,65300.0,-3.263810157775879,3.1345977783203125,-7.16650390625
1204,604.0,65400.0,-3.0149567127227783,5.838487148284912,-7.542177200317383
1205,605.0,65500.0,-3.0149567127227783,5.838487148284912,-7.542177200317383
1206,606.0,65600.0,-2.4646072387695312,9.791430473327637,-0.7896314859390259
1207,607.0,65700.0,-2.4646072387695312,9.791430473327637,-0.7896314859390259
1208,608.0,65800.0,-2.4646072387695312,9.791430473327637,-0.7896314859390259
1209,609.0,65900.0,-2.1200408935546875,8.95394229888916,2.57228422164917
1210,610.0,66000.0,-2.1200408935546875,8.95394229888916,2.57228422164917
1211,611.0,66100.0,-2.148754596710205,9.482755661010742,4.323830604553224
1212,612.0,66200.0,-2.148754596710205,9.482755661010742,4.323830604553224
1213,613.0,66300.0,-2.517249345779419,9.097511291503906,3.3547375202178955
1214,614.0,66400.0,-2.517249345779419,9.097511291503906,3.3547375202178955
1215,615.0,66500.0,-2.517249345779419,9.097511291503906,3.3547375202178955
1216,616.0,66600.0,-3.192025184631348,10.15035343170166,-1.227518081665039
1217,617.0,66700.0,-3.192025184631348,10.15035343170166,-1.227518081665039
1218,618.0,66800.0,-4.130012035369873,5.4077792167663565,-5.659025192260742
1219,619.0,66900.0,-4.130012035369873,5.4077792167663565,-5.659025192260742
1220,610.0,66000.0,-2.1200408935546875,8.95394229888916,2.57228422164917
1221,611.0,66100.0,-2.148754596710205,9.482755661010742,4.323830604553224
1222,612.0,66200.0,-2.148754596710205,9.482755661010742,4.323830604553224
1223,613.0,66300.0,-2.517249345779419,9.097511291503906,3.3547375202178955
1224,614.0,66400.0,-2.517249345779419,9.097511291503906,3.3547375202178955
1225,615.0,66500.0,-2.517249345779419,9.097511291503906,3.3547375202178955
1226,616.0,66600.0,-3.192025184631348,10.15035343170166,-1.227518081665039
1227,617.0,66700.0,-3.192025184631348,10.15035343170166,-1.227518081665039
1228,618.0,66800.0,-4.130012035369873,5.4077792167663565,-5.659025192260742
1229,619.0,66900.0,-4.130012035369873,5.4077792167663565,-5.659025192260742
1230,620.0,67000.0,-4.130012035369873,5.4077792167663565,-5.659025192260742
1231,621.0,67100.0,-2.89052963256836,5.041677951812744,-6.843472957611084
1232,622.0,67200.0,-2.89052963256836,5.041677951812744,-6.843472957611084
1233,623.0,67300.0,-3.091526985168457,10.250852584838867,-1.2251251935958862
1234,624.0,67400.0,-3.091526985168457,10.250852584838867,-1.2251251935958862
1235,625.0,67500.0,-2.5842485427856445,9.45164966583252,2.3617160320281982
1236,626.0,67600.0,-2.5842485427856445,9.45164966583252,2.3617160320281982
1237,627.0,67700.0,-3.1250264644622803,8.930014610290527,5.065605640411377
1238,628.0,67800.0,-3.1250264644622803,8.930014610290527,5.065605640411377
1239,629.0,67900.0,-3.1250264644622803,8.930014610290527,5.065605640411377
1240,620.0,67000.0,-4.130012035369873,5.4077792167663565,-5.659025192260742
1241,621.0,67100.0,-2.89052963256836,5.041677951812744,-6.843472957611084
1242,622.0,67200.0,-2.89052963256836,5.041677951812744,-6.843472957611084
1243,623.0,67300.0,-3.091526985168457,10.250852584838867,-1.2251251935958862
1244,624.0,67400.0,-3.091526985168457,10.250852584838867,-1.2251251935958862
1245,625.0,67500.0,-2.5842485427856445,9.45164966583252,2.3617160320281982
1246,626.0,67600.0,-2.5842485427856445,9.45164966583252,2.3617160320281982
1247,627.0,67700.0,-3.1250264644622803,8.930014610290527,5.065605640411377
1248,628.0,67800.0,-3.1250264644622803,8.930014610290527,5.065605640411377
1249,629.0,67900.0,-3.1250264644622803,8.930014610290527,5.065605640411377
1250,630.0,68000.0,-3.3308091163635254,7.637890338897705,4.646861553192139
1251,631.0,68100.0,-3.3308091163635254,7.637890338897705,4.646861553192139
1252,632.0,68200.0,-2.8522443771362305,9.17886734008789,3.9601213932037367
1253,633.0,68300.0,-2.8522443771362305,9.17886734008789,3.9601213932037367
1254,634.0,68400.0,-2.8378877639770512,8.690732002258299,-2.5435702800750732
1255,635.0,68500.0,-2.8378877639770512,8.690732002258299,-2.5435702800750732
1256,636.0,68600.0,-2.8378877639770512,8.690732002258299,-2.5435702800750732
1257,637.0,68700.0,-2.2827527523040767,6.776473522186277,-6.929614543914795
1258,638.0,68800.0,-2.2827527523040767,6.776473522186277,-6.929614543914795
1259,639.0,68900.0,-5.565705299377441,4.6372904777526855,-3.38823676109314
1260,630.0,68000.0,-3.3308091163635254,7.637890338897705,4.646861553192139
1261,631.0,68100.0,-3.3308091163635254,7.637890338897705,4.646861553192139
1262,632.0,68200.0,-2.8522443771362305,9.17886734008789,3.9601213932037367
1263,633.0,68300.0,-2.8522443771362305,9.17886734008789,3.9601213932037367
1264,634.0,68400.0,-2.8378877639770512,8.690732002258299,-2.5435702800750732
1265,635.0,68500.0,-2.8378877639770512,8.690732002258299,-2.5435702800750732
1266,636.0,68600.0,-2.8378877639770512,8.690732002258299,-2.5435702800750732
1267,637.0,68700.0,-2.2827527523040767,6.776473522186277,-6.929614543914795
1268,638.0,68800.0,-2.2827527523040767,6.776473522186277,-6.929614543914795
1269,639.0,68900.0,-5.565705299377441,4.6372904777526855,-3.38823676109314
1270,640.0,69000.0,-5.565705299377441,4.6372904777526855,-3.38823676109314
1271,641.0,69100.0,-2.4885356426239014,3.0987055301666264,-8.793622970581055
1272,642.0,69200.0,-2.4885356426239014,3.0987055301666264,-8.793622970581055
1273,643.0,69300.0,-2.4885356426239014,3.0987055301666264,-8.793622970581055
1274,644.0,69400.0,-3.1537401676177983,8.877371788024902,-4.493720531463623
1275,645.0,69500.0,-3.1537401676177983,8.877371788024902,-4.493720531463623
1276,646.0,69600.0,-2.187039852142334,9.856036186218262,2.297109842300415
1277,647.0,69700.0,-2.187039852142334,9.856036186218262,2.297109842300415
1278,648.0,69800.0,-1.6462620496749878,8.279166221618652,4.773681163787842
1279,649.0,69900.0,-1.6462620496749878,8.279166221618652,4.773681163787842
1280,640.0,69000.0,-5.565705299377441,4.6372904777526855,-3.38823676109314
1281,641.0,69100.0,-2.4885356426239014,3.0987055301666264,-8.793622970581055
1282,642.0,69200.0,-2.4885356426239014,3.0987055301666264,-8.793622970581055
1283,643.0,69300.0,-2.4885356426239014,3.0987055301666264,-8.793622970581055
1284,644.0,69400.0,-3.1537401676177983,8.877371788024902,-4.493720531463623
1285,645.0,69500.0,-3.1537401676177983,8.877371788024902,-4.493720531463623
1286,646.0,69600.0,-2.187039852142334,9.856036186218262,2.297109842300415
1287,647.0,69700.0,-2.187039852142334,9.856036186218262,2.297109842300415
1288,648.0,69800.0,-1.6462620496749878,8.279166221618652,4.773681163787842
1289,649.0,69900.0,-1.6462620496749878,8.279166221618652,4.773681163787842
1290,650.0,70000.0,-1.6462620496749878,8.279166221618652,4.773681163787842
1291,651.0,70100.0,-2.258824586868286,7.111469268798827,4.3405799865722665
1292,652.0,70200.0,-2.258824586868286,7.111469268798827,4.3405799865722665
1293,653.0,70300.0,-2.5076780319213867,8.312665939331055,5.197210788726807
1294,654.0,70400.0,-2.5076780319213867,8.312665939331055,5.197210788726807
1295,655.0,70500.0,-2.8666017055511475,7.93699312210083,5.2115678787231445
1296,656.0,70600.0,-2.8666017055511475,7.93699312210083,5.2115678787231445
1297,657.0,70700.0,-2.8666017055511475,7.93699312210083,5.2115678787231445
1298,658.0,70800.0,-2.110469579696656,7.463213920593263,3.598805427551268
1299,659.0,70900.0,-2.110469579696656,7.463213920593263,3.598805427551268
1300,650.0,70000.0,-1.6462620496749878,8.279166221618652,4.773681163787842
1301,651.0,70100.0,-2.258824586868286,7.111469268798827,4.3405799865722665
1302,652.0,70200.0,-2.258824586868286,7.111469268798827,4.3405799865722665
1303,653.0,70300.0,-2.5076780319213867,8.312665939331055,5.197210788726807
1304,654.0,70400.0,-2.5076780319213867,8.312665939331055,5.197210788726807
1305,655.0,70500.0,-2.8666017055511475,7.93699312210083,5.2115678787231445
1306,656.0,70600.0,-2.8666017055511475,7.93699312210083,5.2115678787231445
1307,657.0,70700.0,-2.8666017055511475,7.93699312210083,5.2115678787231445
1308,658.0,70800.0,-2.110469579696656,7.463213920593263,3.598805427551268
1309,659.0,70900.0,-2.110469579696656,7.463213920593263,3.598805427551268
1310,660.0,71000.0,-2.612962245941162,9.487542152404783,5.860023021697997
1311,661.0,71100.0,-2.612962245941162,9.487542152404783,5.860023021697997
1312,662.0,71200.0,-2.9479575157165527,8.243274688720701,0.1938186287879944
1313,663.0,71300.0,-2.9479575157165527,8.243274688720701,0.1938186287879944
1314,664.0,71400.0,-2.9479575157165527,8.243274688720701,0.1938186287879944
1315,665.0,71500.0,-3.2446675300598145,9.138189315795898,-2.5076780319213867
1316,666.0,71600.0,-3.2446675300598145,9.138189315795898,-2.5076780319213867
1317,667.0,71700.0,-3.565305471420288,9.257830619812012,-1.730010747909546
1318,668.0,71800.0,-3.565305471420288,9.257830619812012,-1.730010747909546
1319,669.0,71900.0,-3.5461630821228027,8.908478736877441,-1.8783657550811768
1320,660.0,71000.0,-2.612962245941162,9.487542152404783,5.860023021697997
1321,661.0,71100.0,-2.612962245941162,9.487542152404783,5.860023021697997
1322,662.0,71200.0,-2.9479575157165527,8.243274688720701,0.1938186287879944
1323,663.0,71300.0,-2.9479575157165527,8.243274688720701,0.1938186287879944
1324,664.0,71400.0,-2.9479575157165527,8.243274688720701,0.1938186287879944
1325,665.0,71500.0,-3.2446675300598145,9.138189315795898,-2.5076780319213867
1326,666.0,71600.0,-3.2446675300598145,9.138189315795898,-2.5076780319213867
1327,667.0,71700.0,-3.565305471420288,9.257830619812012,-1.730010747909546
1328,668.0,71800.0,-3.565305471420288,9.257830619812012,-1.730010747909546
1329,669.0,71900.0,-3.5461630821228027,8.908478736877441,-1.8783657550811768
1330,670.0,72000.0,-3.5461630821228027,8.908478736877441,-1.8783657550811768
1331,671.0,72100.0,-3.5461630821228027,8.908478736877441,-1.8783657550811768
1332,672.0,72200.0,-3.684947013854982,8.559126853942871,-2.1631116867065434
1333,673.0,72300.0,-3.684947013854982,8.559126853942871,-2.1631116867065434
1334,674.0,72400.0,-3.641876220703125,8.918049812316895,-2.050648927688598
1335,675.0,72500.0,-3.641876220703125,8.918049812316895,-2.050648927688598
1336,676.0,72600.0,-3.641876220703125,8.918049812316895,-2.050648927688598
1337,677.0,72700.0,-4.043870449066162,8.707481384277344,-1.5218352079391482
1338,678.0,72800.0,-4.043870449066162,8.707481384277344,-1.5218352079391482
1339,679.0,72900.0,-4.043870449066162,8.717053413391112,-1.430907964706421
1340,670.0,72000.0,-3.5461630821228027,8.908478736877441,-1.8783657550811768
1341,671.0,72100.0,-3.5461630821228027,8.908478736877441,-1.8783657550811768
1342,672.0,72200.0,-3.684947013854982,8.559126853942871,-2.1631116867065434
1343,673.0,72300.0,-3.684947013854982,8.559126853942871,-2.1631116867065434
1344,674.0,72400.0,-3.641876220703125,8.918049812316895,-2.050648927688598
1345,675.0,72500.0,-3.641876220703125,8.918049812316895,-2.050648927688598
1346,676.0,72600.0,-3.641876220703125,8.918049812316895,-2.050648927688598
1347,677.0,72700.0,-4.043870449066162,8.707481384277344,-1.5218352079391482
1348,678.0,72800.0,-4.043870449066162,8.707481384277344,-1.5218352079391482
1349,679.0,72900.0,-4.043870449066162,8.717053413391112,-1.430907964706421
1350,680.0,73000.0,-4.043870449066162,8.717053413391112,-1.430907964706421
1351,681.0,73100.0,-4.101297855377196,8.492127418518066,-0.5503491759300232
1352,682.0,73200.0,-4.101297855377196,8.492127418518066,-0.5503491759300232
1353,683.0,73300.0,-4.101297855377196,8.492127418518066,-0.5503491759300232
1354,684.0,73400.0,-3.833301782608032,9.162117958068848,-1.2825528383255005
1355,685.0,73500.0,-3.833301782608032,9.162117958068848,-1.2825528383255005
1356,686.0,73600.0,-4.048655986785889,8.697910308837889,-0.6436693072319031
1357,687.0,73700.0,-4.048655986785889,8.697910308837889,-0.6436693072319031
1358,688.0,73800.0,-4.048655986785889,8.697910308837889,-0.6436693072319031
1359,689.0,73900.0,-3.9625141620635986,9.226724624633787,-0.9236294627189636
1360,680.0,73000.0,-4.043870449066162,8.717053413391112,-1.430907964706421
1361,681.0,73100.0,-4.101297855377196,8.492127418518066,-0.5503491759300232
1362,682.0,73200.0,-4.101297855377196,8.492127418518066,-0.5503491759300232
1363,683.0,73300.0,-4.101297855377196,8.492127418518066,-0.5503491759300232
1364,684.0,73400.0,-3.833301782608032,9.162117958068848,-1.2825528383255005
1365,685.0,73500.0,-3.833301782608032,9.162117958068848,-1.2825528383255005
1366,686.0,73600.0,-4.048655986785889,8.697910308837889,-0.6436693072319031
1367,687.0,73700.0,-4.048655986785889,8.697910308837889,-0.6436693072319031
1368,688.0,73800.0,-4.048655986785889,8.697910308837889,-0.6436693072319031
1369,689.0,73900.0,-3.9625141620635986,9.226724624633787,-0.9236294627189636
1370,690.0,74000.0,-3.9625141620635986,9.226724624633787,-0.9236294627189636
1371,691.0,74100.0,-3.838087558746338,9.42054271697998,-1.227518081665039
1372,692.0,74200.0,-3.838087558746338,9.42054271697998,-1.227518081665039
1373,693.0,74300.0,-4.398008346557616,8.403593063354492,-1.0671988725662231
1374,694.0,74400.0,-4.398008346557616,8.403593063354492,-1.0671988725662231
1375,695.0,74500.0,-4.398008346557616,8.403593063354492,-1.0671988725662231
1376,696.0,74600.0,-4.469792366027832,8.827122688293457,-1.244267821311951
1377,697.0,74700.0,-4.469792366027832,8.827122688293457,-1.244267821311951
1378,698.0,74800.0,-4.3453660011291495,8.891729354858398,-0.8518448472023009
1379,699.0,74900.0,-4.3453660011291495,8.891729354858398,-0.8518448472023009
1380,690.0,74000.0,-3.9625141620635986,9.226724624633787,-0.9236294627189636
1381,691.0,74100.0,-3.838087558746338,9.42054271697998,-1.227518081665039
1382,692.0,74200.0,-3.838087558746338,9.42054271697998,-1.227518081665039
1383,693.0,74300.0,-4.398008346557616,8.403593063354492,-1.0671988725662231
1384,694.0,74400.0,-4.398008346557616,8.403593063354492,-1.0671988725662231
1385,695.0,74500.0,-4.398008346557616,8.403593063354492,-1.0671988725662231
1386,696.0,74600.0,-4.469792366027832,8.827122688293457,-1.244267821311951
1387,697.0,74700.0,-4.469792366027832,8.827122688293457,-1.244267821311951
1388,698.0,74800.0,-4.3453660011291495,8.891729354858398,-0.8518448472023009
1389,699.0,74900.0,-4.3453660011291495,8.891729354858398,-0.8518448472023009
1390,700.0,75000.0,-4.3453660011291495,8.891729354858398,-0.8518448472023009
1391,701.0,75100.0,-4.4506497383117685,8.870193481445312,-0.9547362923622132
1392,702.0,75200.0,-4.4506497383117685,8.870193481445312,-0.9547362923622132
1393,703.0,75300.0,-4.383650779724121,8.841480255126953,-0.882951557636261
1394,704.0,75400.0,-4.383650779724121,8.841480255126953,-0.882951557636261
1395,705.0,75500.0,-4.579862117767334,8.626125335693361,-1.4572290182113647
1396,706.0,75600.0,-4.579862117767334,8.626125335693361,-1.4572290182113647
1397,707.0,75700.0,-4.579862117767334,8.626125335693361,-1.4572290182113647
1398,708.0,75800.0,-5.422136306762695,7.884350299835205,-3.328416109085083
1399,709.0,75900.0,-5.422136306762695,7.884350299835205,-3.328416109085083
1400,700.0,75000.0,-4.3453660011291495,8.891729354858398,-0.8518448472023009
1401,701.0,75100.0,-4.4506497383117685,8.870193481445312,-0.9547362923622132
1402,702.0,75200.0,-4.4506497383117685,8.870193481445312,-0.9547362923622132
1403,703.0,75300.0,-4.383650779724121,8.841480255126953,-0.882951557636261
1404,704.0,75400.0,-4.383650779724121,8.841480255126953,-0.882951557636261
1405,705.0,75500.0,-4.579862117767334,8.626125335693361,-1.4572290182113647
1406,706.0,75600.0,-4.579862117767334,8.626125335693361,-1.4572290182113647
1407,707.0,75700.0,-4.579862117767334,8.626125335693361,-1.4572290182113647
1408,708.0,75800.0,-5.422136306762695,7.884350299835205,-3.328416109085083
1409,709.0,75900.0,-5.422136306762695,7.884350299835205,-3.328416109085083
1410,710.0,76000.0,-4.508078098297119,7.384250640869141,-4.216153621673584
1411,711.0,76100.0,-4.508078098297119,7.384250640869141,-4.216153621673584
1412,712.0,76200.0,-3.4121649265289307,5.816952228546143,-6.336194515228272
1413,713.0,76300.0,-3.4121649265289307,5.816952228546143,-6.336194515228272
1414,714.0,76400.0,-3.4121649265289307,5.816952228546143,-6.336194515228272
1415,715.0,76500.0,-4.264009952545166,6.317051887512207,-4.974678039550781
1416,716.0,76600.0,-4.264009952545166,6.317051887512207,-4.974678039550781
1417,717.0,76700.0,-6.431907176971436,7.274180889129639,-3.754338502883911
1418,718.0,76800.0,-6.431907176971436,7.274180889129639,-3.754338502883911
1419,719.0,76900.0,-4.804787635803223,8.343771934509277,-4.216153621673584
1420,710.0,76000.0,-4.508078098297119,7.384250640869141,-4.216153621673584
1421,711.0,76100.0,-4.508078098297119,7.384250640869141,-4.216153621673584
1422,712.0,76200.0,-3.4121649265289307,5.816952228546143,-6.336194515228272
1423,713.0,76300.0,-3.4121649265289307,5.816952228546143,-6.336194515228272
1424,714.0,76400.0,-3.4121649265289307,5.816952228546143,-6.336194515228272
1425,715.0,76500.0,-4.264009952545166,6.317051887512207,-4.974678039550781
1426,716.0,76600.0,-4.264009952545166,6.317051887512207,-4.974678039550781
1427,717.0,76700.0,-6.431907176971436,7.274180889129639,-3.754338502883911
1428,718.0,76800.0,-6.431907176971436,7.274180889129639,-3.754338502883911
1429,719.0,76900.0,-4.804787635803223,8.343771934509277,-4.216153621673584
1430,720.0,77000.0,-4.804787635803223,8.343771934509277,-4.216153621673584
1431,721.0,77100.0,-5.125426292419434,7.903492927551269,-3.744767427444458
1432,722.0,77200.0,-5.125426292419434,7.903492927551269,-3.744767427444458
1433,723.0,77300.0,-5.125426292419434,7.903492927551269,-3.744767427444458
1434,724.0,77400.0,-5.7954163551330575,7.6737823486328125,-2.414358139038086
1435,725.0,77500.0,-5.7954163551330575,7.6737823486328125,-2.414358139038086
1436,726.0,77600.0,-5.446063995361328,7.518248558044434,-2.1846470832824707
1437,727.0,77700.0,-5.446063995361328,7.518248558044434,-2.1846470832824707
1438,728.0,77800.0,-5.565705299377441,8.01356315612793,-2.3306093215942383
1439,729.0,77900.0,-5.565705299377441,8.01356315612793,-2.3306093215942383
1440,720.0,77000.0,-4.804787635803223,8.343771934509277,-4.216153621673584
1441,721.0,77100.0,-5.125426292419434,7.903492927551269,-3.744767427444458
1442,722.0,77200.0,-5.125426292419434,7.903492927551269,-3.744767427444458
1443,723.0,77300.0,-5.125426292419434,7.903492927551269,-3.744767427444458
1444,724.0,77400.0,-5.7954163551330575,7.6737823486328125,-2.414358139038086
1445,725.0,77500.0,-5.7954163551330575,7.6737823486328125,-2.414358139038086
1446,726.0,77600.0,-5.446063995361328,7.518248558044434,-2.1846470832824707
1447,727.0,77700.0,-5.446063995361328,7.518248558044434,-2.1846470832824707
1448,728.0,77800.0,-5.565705299377441,8.01356315612793,-2.3306093215942383
1449,729.0,77900.0,-5.565705299377441,8.01356315612793,-2.3306093215942383
1450,730.0,78000.0,-5.565705299377441,8.01356315612793,-2.3306093215942383
1451,731.0,78100.0,-5.42692232131958,7.81974458694458,-2.1511476039886475
1452,732.0,78200.0,-5.42692232131958,7.81974458694458,-2.1511476039886475
1453,733.0,78300.0,-5.37906551361084,7.9896345138549805,-1.588834285736084
1454,734.0,78400.0,-5.37906551361084,7.9896345138549805,-1.588834285736084
1455,735.0,78500.0,-5.37906551361084,7.9896345138549805,-1.588834285736084
1456,736.0,78600.0,-5.125426292419434,8.616554260253906,-1.519442439079285
1457,737.0,78700.0,-5.125426292419434,8.616554260253906,-1.519442439079285
1458,738.0,78800.0,-4.6851468086242685,8.743373870849611,-1.3136597871780396
1459,739.0,78900.0,-4.6851468086242685,8.743373870849611,-1.3136597871780396
1460,730.0,78000.0,-5.565705299377441,8.01356315612793,-2.3306093215942383
1461,731.0,78100.0,-5.42692232131958,7.81974458694458,-2.1511476039886475
1462,732.0,78200.0,-5.42692232131958,7.81974458694458,-2.1511476039886475
1463,733.0,78300.0,-5.37906551361084,7.9896345138549805,-1.588834285736084
1464,734.0,78400.0,-5.37906551361084,7.9896345138549805,-1.588834285736084
1465,735.0,78500.0,-5.37906551361084,7.9896345138549805,-1.588834285736084
1466,736.0,78600.0,-5.125426292419434,8.616554260253906,-1.519442439079285
1467,737.0,78700.0,-5.125426292419434,8.616554260253906,-1.519442439079285
1468,738.0,78800.0,-4.6851468086242685,8.743373870849611,-1.3136597871780396
1469,739.0,78900.0,-4.6851468086242685,8.743373870849611,-1.3136597871780396
1470,740.0,79000.0,-4.929214477539063,8.432307243347168,-1.1581261157989502
1471,741.0,79100.0,-4.929214477539063,8.432307243347168,-1.1581261157989502
1472,742.0,79200.0,-4.814359188079834,8.616554260253906,-0.9978070855140686
1473,743.0,79300.0,-4.814359188079834,8.616554260253906,-0.9978070855140686
1474,744.0,79400.0,-4.814359188079834,8.616554260253906,-0.9978070855140686
1475,745.0,79500.0,-5.000998973846436,8.47298526763916,-0.9116654396057128
1476,746.0,79600.0,-5.000998973846436,8.47298526763916,-0.9116654396057128
1477,747.0,79700.0,-4.962714195251465,8.456235885620117,-0.8925228118896484
1478,748.0,79800.0,-4.962714195251465,8.456235885620117,-0.8925228118896484
1479,749.0,79900.0,-4.962714195251465,8.456235885620117,-0.8925228118896484
1480,740.0,79000.0,-4.929214477539063,8.432307243347168,-1.1581261157989502
1481,741.0,79100.0,-4.929214477539063,8.432307243347168,-1.1581261157989502
1482,742.0,79200.0,-4.814359188079834,8.616554260253906,-0.9978070855140686
1483,743.0,79300.0,-4.814359188079834,8.616554260253906,-0.9978070855140686
1484,744.0,79400.0,-4.814359188079834,8.616554260253906,-0.9978070855140686
1485,745.0,79500.0,-5.000998973846436,8.47298526763916,-0.9116654396057128
1486,746.0,79600.0,-5.000998973846436,8.47298526763916,-0.9116654396057128
1487,747.0,79700.0,-4.962714195251465,8.456235885620117,-0.8925228118896484
1488,748.0,79800.0,-4.962714195251465,8.456235885620117,-0.8925228118896484
1489,749.0,79900.0,-4.962714195251465,8.456235885620117,-0.8925228118896484
1490,750.0,80000.0,-4.986642360687256,8.439485549926758,-0.9284151792526244
1491,751.0,80100.0,-4.986642360687256,8.439485549926758,-0.9284151792526244
1492,752.0,80200.0,-5.1637115478515625,8.449056625366211,-0.7800601720809937
1493,753.0,80300.0,-5.1637115478515625,8.449056625366211,-0.7800601720809937
1494,754.0,80400.0,-5.14456844329834,8.370094299316406,-0.9499505758285522
1495,755.0,80500.0,-5.14456844329834,8.370094299316406,-0.9499505758285522
1496,756.0,80600.0,-5.259423732757568,8.319844245910645,-0.8877372145652771
1497,757.0,80700.0,-5.259423732757568,8.319844245910645,-0.8877372145652771
1498,758.0,80800.0,-5.259423732757568,8.319844245910645,-0.8877372145652771
1499,759.0,80900.0,-5.206782341003418,8.343771934509277,-0.9906285405158995
1500,750.0,80000.0,-4.986642360687256,8.439485549926758,-0.9284151792526244
1501,751.0,80100.0,-4.986642360687256,8.439485549926758,-0.9284151792526244
1502,752.0,80200.0,-5.1637115478515625,8.449056625366211,-0.7800601720809937
1503,753.0,80300.0,-5.1637115478515625,8.449056625366211,-0.7800601720809937
1504,754.0,80400.0,-5.14456844329834,8.370094299316406,-0.9499505758285522
1505,755.0,80500.0,-5.14456844329834,8.370094299316406,-0.9499505758285522
1506,756.0,80600.0,-5.259423732757568,8.319844245910645,-0.8877372145652771
1507,757.0,80700.0,-5.259423732757568,8.319844245910645,-0.8877372145652771
1508,758.0,80800.0,-5.259423732757568,8.319844245910645,-0.8877372145652771
1509,759.0,80900.0,-5.206782341003418,8.343771934509277,-0.9906285405158995
1510,760.0,81000.0,-5.206782341003418,8.343771934509277,-0.9906285405158995
1511,761.0,81100.0,-5.149354457855225,8.298308372497559,-1.0552347898483276
1512,762.0,81200.0,-5.149354457855225,8.298308372497559,-1.0552347898483276
1513,763.0,81300.0,-5.149354457855225,8.298308372497559,-1.0552347898483276
1514,764.0,81400.0,-5.187639236450195,8.35573673248291,-0.9044869542121888
1515,765.0,81500.0,-5.187639236450195,8.35573673248291,-0.9044869542121888
1516,766.0,81600.0,-5.048855781555176,8.398807525634767,-0.9116654396057128
1517,767.0,81700.0,-5.048855781555176,8.398807525634767,-0.9116654396057128
1518,768.0,81800.0,-5.005784511566162,8.439485549926758,-1.0097711086273191
1519,769.0,81900.0,-5.005784511566162,8.439485549926758,-1.0097711086273191
1520,760.0,81000.0,-5.206782341003418,8.343771934509277,-0.9906285405158995
1521,761.0,81100.0,-5.149354457855225,8.298308372497559,-1.0552347898483276
1522,762.0,81200.0,-5.149354457855225,8.298308372497559,-1.0552347898483276
1523,763.0,81300.0,-5.149354457855225,8.298308372497559,-1.0552347898483276
1524,764.0,81400.0,-5.187639236450195,8.35573673248291,-0.9044869542121888
1525,765.0,81500.0,-5.187639236450195,8.35573673248291,-0.9044869542121888
1526,766.0,81600.0,-5.048855781555176,8.398807525634767,-0.9116654396057128
1527,767.0,81700.0,-5.048855781555176,8.398807525634767,-0.9116654396057128
1528,768.0,81800.0,-5.005784511566162,8.439485549926758,-1.0097711086273191
1529,769.0,81900.0,-5.005784511566162,8.439485549926758,-1.0097711086273191
1530,770.0,82000.0,-4.9435715675354,8.451449394226074,-0.9643075466156006
1531,771.0,82100.0,-4.9435715675354,8.451449394226074,-0.9643075466156006
1532,772.0,82200.0,-4.9435715675354,8.451449394226074,-0.9643075466156006
1533,773.0,82300.0,-4.953143119812012,8.475377082824707,-1.0887343883514404
1534,774.0,82400.0,-4.953143119812012,8.475377082824707,-1.0887343883514404
1535,775.0,82500.0,-5.048855781555176,8.465806007385254,-0.9954141974449158
1536,776.0,82600.0,-5.048855781555176,8.465806007385254,-0.9954141974449158
1537,777.0,82700.0,-5.048855781555176,8.465806007385254,-0.9954141974449158
1538,778.0,82800.0,-5.225924491882324,8.23130989074707,-0.8662018179893494
1539,779.0,82900.0,-5.225924491882324,8.23130989074707,-0.8662018179893494
1540,770.0,82000.0,-4.9435715675354,8.451449394226074,-0.9643075466156006
1541,771.0,82100.0,-4.9435715675354,8.451449394226074,-0.9643075466156006
1542,772.0,82200.0,-4.9435715675354,8.451449394226074,-0.9643075466156006
1543,773.0,82300.0,-4.953143119812012,8.475377082824707,-1.0887343883514404
1544,774.0,82400.0,-4.953143119812012,8.475377082824707,-1.0887343883514404
1545,775.0,82500.0,-5.048855781555176,8.465806007385254,-0.9954141974449158
1546,776.0,82600.0,-5.048855781555176,8.465806007385254,-0.9954141974449158
1547,777.0,82700.0,-5.048855781555176,8.465806007385254,-0.9954141974449158
1548,778.0,82800.0,-5.225924491882324,8.23130989074707,-0.8662018179893494
1549,779.0,82900.0,-5.225924491882324,8.23130989074707,-0.8662018179893494
1550,780.0,83000.0,-5.565705299377441,8.051848411560059,-0.9188438653945924
1551,781.0,83100.0,-5.565705299377441,8.051848411560059,-0.9188438653945924
1552,782.0,83200.0,-5.565705299377441,8.051848411560059,-0.9188438653945924
1553,783.0,83300.0,-5.718846321105957,8.262415885925293,-1.3328022956848145
1554,784.0,83400.0,-5.718846321105957,8.262415885925293,-1.3328022956848145
1555,785.0,83500.0,-6.321837425231934,6.3912291526794425,-3.376272678375244
1556,786.0,83600.0,-6.321837425231934,6.3912291526794425,-3.376272678375244
1557,787.0,83700.0,-5.493920803070068,4.953143119812012,-5.178067684173584
1558,788.0,83800.0,-5.493920803070068,4.953143119812012,-5.178067684173584
1559,789.0,83900.0,-5.493920803070068,4.953143119812012,-5.178067684173584
1560,780.0,83000.0,-5.565705299377441,8.051848411560059,-0.9188438653945924
1561,781.0,83100.0,-5.565705299377441,8.051848411560059,-0.9188438653945924
1562,782.0,83200.0,-5.565705299377441,8.051848411560059,-0.9188438653945924
1563,783.0,83300.0,-5.718846321105957,8.262415885925293,-1.3328022956848145
1564,784.0,83400.0,-5.718846321105957,8.262415885925293,-1.3328022956848145
1565,785.0,83500.0,-6.321837425231934,6.3912291526794425,-3.376272678375244
1566,786.0,83600.0,-6.321837425231934,6.3912291526794425,-3.376272678375244
1567,787.0,83700.0,-5.493920803070068,4.953143119812012,-5.178067684173584
1568,788.0,83800.0,-5.493920803070068,4.953143119812012,-5.178067684173584
1569,789.0,83900.0,-5.493920803070068,4.953143119812012,-5.178067684173584
1570,790.0,84000.0,-5.513063907623291,5.7930235862731925,-5.965306758880615
1571,791.0,84100.0,-5.513063907623291,5.7930235862731925,-5.965306758880615
1572,792.0,84200.0,-6.331408977508545,4.828716278076172,-4.73300313949585
1573,793.0,84300.0,-6.331408977508545,4.828716278076172,-4.73300313949585
1574,794.0,84400.0,-5.982056617736816,4.2065820693969735,-5.962913990020753
1575,795.0,84500.0,-5.982056617736816,4.2065820693969735,-5.962913990020753
1576,796.0,84600.0,-6.283552646636963,5.113461971282959,-5.642275810241699
1577,797.0,84700.0,-6.283552646636963,5.113461971282959,-5.642275810241699
1578,798.0,84800.0,-6.283552646636963,5.113461971282959,-5.642275810241699
1579,799.0,84900.0,-6.283552646636963,5.283352375030519,-5.386244297027588
1580,790.0,84000.0,-5.513063907623291,5.7930235862731925,-5.965306758880615
1581,791.0,84100.0,-5.513063907623291,5.7930235862731925,-5.965306758880615
1582,792.0,84200.0,-6.331408977508545,4.828716278076172,-4.73300313949585
1583,793.0,84300.0,-6.331408977508545,4.828716278076172,-4.73300313949585
1584,794.0,84400.0,-5.982056617736816,4.2065820693969735,-5.962913990020753
1585,795.0,84500.0,-5.982056617736816,4.2065820693969735,-5.962913990020753
1586,796.0,84600.0,-6.283552646636963,5.113461971282959,-5.642275810241699
1587,797.0,84700.0,-6.283552646636963,5.113461971282959,-5.642275810241699
1588,798.0,84800.0,-6.283552646636963,5.113461971282959,-5.642275810241699
1589,799.0,84900.0,-6.283552646636963,5.283352375030519,-5.386244297027588
1590,800.0,85000.0,-6.283552646636963,5.283352375030519,-5.386244297027588
1591,801.0,85100.0,-6.02512788772583,5.582455158233644,-5.194818019866943
1592,802.0,85200.0,-6.02512788772583,5.582455158233644,-5.194818019866943
1593,803.0,85300.0,-6.527620315551758,7.243074417114258,-4.527220726013184
1594,804.0,85400.0,-6.527620315551758,7.243074417114258,-4.527220726013184
1595,805.0,85500.0,-6.527620315551758,7.243074417114258,-4.527220726013184
1596,806.0,85600.0,-4.029513359069823,8.709875106811522,-6.281159400939941
1597,807.0,85700.0,-4.029513359069823,8.709875106811522,-6.281159400939941
1598,808.0,85800.0,-5.790630340576173,4.890929222106934,-5.55852746963501
1599,809.0,85900.0,-5.790630340576173,4.890929222106934,-5.55852746963501
1600,800.0,85000.0,-6.283552646636963,5.283352375030519,-5.386244297027588
1601,801.0,85100.0,-6.02512788772583,5.582455158233644,-5.194818019866943
1602,802.0,85200.0,-6.02512788772583,5.582455158233644,-5.194818019866943
1603,803.0,85300.0,-6.527620315551758,7.243074417114258,-4.527220726013184
1604,804.0,85400.0,-6.527620315551758,7.243074417114258,-4.527220726013184
1605,805.0,85500.0,-6.527620315551758,7.243074417114258,-4.527220726013184
1606,806.0,85600.0,-4.029513359069823,8.709875106811522,-6.281159400939941
1607,807.0,85700.0,-4.029513359069823,8.709875106811522,-6.281159400939941
1608,808.0,85800.0,-5.790630340576173,4.890929222106934,-5.55852746963501
