,timestamp,ax,ay,az
0,7000.0,-2.699103832244873,9.556933403015137,0.6412764191627502
1,7100.0,-2.699103832244873,9.556933403015137,0.6412764191627502
2,7200.0,-2.699103832244873,9.556933403015137,0.6412764191627502
3,7300.0,-4.02472734451294,8.815157890319824,2.462214469909668
4,7400.0,-4.02472734451294,8.815157890319824,2.462214469909668
5,7500.0,-4.02472734451294,8.815157890319824,2.462214469909668
6,7600.0,-4.254438400268556,7.984848976135254,2.383251428604126
7,7700.0,-4.254438400268556,7.984848976135254,2.383251428604126
8,7800.0,-4.642076015472412,7.178467750549316,3.0221347808837886
9,7900.0,-4.642076015472412,7.178467750549316,3.0221347808837886
10,8000.0,-4.642076015472412,7.178467750549316,3.0221347808837886
11,8100.0,-4.082155227661134,8.02074146270752,3.5270204544067383
12,8200.0,-4.082155227661134,8.02074146270752,3.5270204544067383
13,8300.0,-4.149154186248778,8.535198211669924,4.902893543243408
14,8400.0,-4.149154186248778,8.535198211669924,4.902893543243408
15,8500.0,-3.608376264572144,8.678767204284668,2.0745770931243896
16,8600.0,-3.608376264572144,8.678767204284668,2.0745770931243896
17,8700.0,-5.082355499267578,9.028119087219238,1.902293920516968
18,8800.0,-5.082355499267578,9.028119087219238,1.902293920516968
19,8900.0,-5.082355499267578,9.028119087219238,1.902293920516968
20,9000.0,-5.517848491668701,7.2885379791259775,-3.708875179290772
21,9100.0,-5.517848491668701,7.2885379791259775,-3.708875179290772
22,9200.0,-2.057827472686768,5.359922409057617,-6.9272212982177725
23,9300.0,-2.057827472686768,5.359922409057617,-6.9272212982177725
24,9400.0,-2.057827472686768,5.359922409057617,-6.9272212982177725
25,9500.0,-1.1676974296569824,5.625525951385498,-8.425127983093263
26,9600.0,-1.1676974296569824,5.625525951385498,-8.425127983093263
27,9700.0,-1.6941183805465698,5.364708423614502,-7.7455668449401855
28,9800.0,-1.6941183805465698,5.364708423614502,-7.7455668449401855
29,9900.0,-1.368694543838501,5.8887367248535165,-7.420143127441406
30,8500.0,-3.608376264572144,8.678767204284668,2.0745770931243896
31,8600.0,-3.608376264572144,8.678767204284668,2.0745770931243896
32,8700.0,-5.082355499267578,9.028119087219238,1.902293920516968
33,8800.0,-5.082355499267578,9.028119087219238,1.902293920516968
34,8900.0,-5.082355499267578,9.028119087219238,1.902293920516968
35,9000.0,-5.517848491668701,7.2885379791259775,-3.708875179290772
36,9100.0,-5.517848491668701,7.2885379791259775,-3.708875179290772
37,9200.0,-2.057827472686768,5.359922409057617,-6.9272212982177725
38,9300.0,-2.057827472686768,5.359922409057617,-6.9272212982177725
39,9400.0,-2.057827472686768,5.359922409057617,-6.9272212982177725
40,9500.0,-1.1676974296569824,5.625525951385498,-8.425127983093263
41,9600.0,-1.1676974296569824,5.625525951385498,-8.425127983093263
42,9700.0,-1.6941183805465698,5.364708423614502,-7.7455668449401855
43,9800.0,-1.6941183805465698,5.364708423614502,-7.7455668449401855
44,9900.0,-1.368694543838501,5.8887367248535165,-7.420143127441406
45,10000.0,-1.368694543838501,5.8887367248535165,-7.420143127441406
46,10100.0,-1.368694543838501,5.8887367248535165,-7.420143127441406
47,10200.0,-1.4069796800613403,9.291330337524414,-4.153940200805663
48,10300.0,-1.4069796800613403,9.291330337524414,-4.153940200805663
49,10400.0,-2.048256158828736,9.592825889587402,-1.9262222051620483
50,10500.0,-2.048256158828736,9.592825889587402,-1.9262222051620483
51,10600.0,-2.048256158828736,9.592825889587402,-1.9262222051620483
52,10700.0,-2.493321180343628,9.363115310668944,-1.1868400573730469
53,10800.0,-2.493321180343628,9.363115310668944,-1.1868400573730469
54,10900.0,-3.192025184631348,7.922636032104492,-0.8901299238204956
55,11000.0,-3.192025184631348,7.922636032104492,-0.8901299238204956
56,11100.0,-5.50349235534668,6.618547439575195,0.9475577473640442
57,11200.0,-5.50349235534668,6.618547439575195,0.9475577473640442
58,11300.0,-5.50349235534668,6.618547439575195,0.9475577473640442
59,11400.0,-4.934000015258789,7.22871732711792,1.9812570810317995
60,10000.0,-1.368694543838501,5.8887367248535165,-7.420143127441406
61,10100.0,-1.368694543838501,5.8887367248535165,-7.420143127441406
62,10200.0,-1.4069796800613403,9.291330337524414,-4.153940200805663
63,10300.0,-1.4069796800613403,9.291330337524414,-4.153940200805663
64,10400.0,-2.048256158828736,9.592825889587402,-1.9262222051620483
65,10500.0,-2.048256158828736,9.592825889587402,-1.9262222051620483
66,10600.0,-2.048256158828736,9.592825889587402,-1.9262222051620483
67,10700.0,-2.493321180343628,9.363115310668944,-1.1868400573730469
68,10800.0,-2.493321180343628,9.363115310668944,-1.1868400573730469
69,10900.0,-3.192025184631348,7.922636032104492,-0.8901299238204956
70,11000.0,-3.192025184631348,7.922636032104492,-0.8901299238204956
71,11100.0,-5.50349235534668,6.618547439575195,0.9475577473640442
72,11200.0,-5.50349235534668,6.618547439575195,0.9475577473640442
73,11300.0,-5.50349235534668,6.618547439575195,0.9475577473640442
74,11400.0,-4.934000015258789,7.22871732711792,1.9812570810317995
75,11500.0,-4.934000015258789,7.22871732711792,1.9812570810317995
76,11600.0,-4.953143119812012,7.8460655212402335,1.3519448041915894
77,11700.0,-4.953143119812012,7.8460655212402335,1.3519448041915894
78,11800.0,-4.953143119812012,7.8460655212402335,1.3519448041915894
79,11900.0,-4.709074974060059,7.94177770614624,3.1202406883239746
80,12000.0,-4.709074974060059,7.94177770614624,3.1202406883239746
81,12100.0,-4.407578945159912,8.743373870849611,3.0077781677246094
82,12200.0,-4.407578945159912,8.743373870849611,3.0077781677246094
83,12300.0,-4.163511276245116,8.200202941894531,3.5461630821228027
84,12400.0,-4.163511276245116,8.200202941894531,3.5461630821228027
85,12500.0,-4.163511276245116,8.200202941894531,3.5461630821228027
86,12600.0,-4.125226020812988,8.350951194763184,3.684947013854981
87,12700.0,-4.125226020812988,8.350951194763184,3.684947013854981
88,12800.0,-4.101297855377196,8.207381248474121,3.5581274032592773
89,12900.0,-4.101297855377196,8.207381248474121,3.5581274032592773
90,11500.0,-4.934000015258789,7.22871732711792,1.9812570810317995
91,11600.0,-4.953143119812012,7.8460655212402335,1.3519448041915894
92,11700.0,-4.953143119812012,7.8460655212402335,1.3519448041915894
93,11800.0,-4.953143119812012,7.8460655212402335,1.3519448041915894
94,11900.0,-4.709074974060059,7.94177770614624,3.1202406883239746
95,12000.0,-4.709074974060059,7.94177770614624,3.1202406883239746
96,12100.0,-4.407578945159912,8.743373870849611,3.0077781677246094
97,12200.0,-4.407578945159912,8.743373870849611,3.0077781677246094
98,12300.0,-4.163511276245116,8.200202941894531,3.5461630821228027
99,12400.0,-4.163511276245116,8.200202941894531,3.5461630821228027
100,12500.0,-4.163511276245116,8.200202941894531,3.5461630821228027
101,12600.0,-4.125226020812988,8.350951194763184,3.684947013854981
102,12700.0,-4.125226020812988,8.350951194763184,3.684947013854981
103,12800.0,-4.101297855377196,8.207381248474121,3.5581274032592773
104,12900.0,-4.101297855377196,8.207381248474121,3.5581274032592773
105,13000.0,-4.139583110809326,8.219346046447754,3.797409296035767
106,13100.0,-4.139583110809326,8.219346046447754,3.797409296035767
107,13200.0,-4.139583110809326,8.219346046447754,3.797409296035767
108,13300.0,-4.9435715675354,7.5254268646240225,4.015156269073486
109,13400.0,-4.9435715675354,7.5254268646240225,4.015156269073486
110,13500.0,-5.374279499053955,6.917649745941162,4.084547996520996
111,13600.0,-5.374279499053955,6.917649745941162,4.084547996520996
112,13700.0,-4.694717884063722,7.149754047393799,4.089334011077882
113,13800.0,-4.694717884063722,7.149754047393799,4.089334011077882
114,13900.0,-4.694717884063722,7.149754047393799,4.089334011077882
115,14000.0,-4.019941806793213,7.630711555480957,6.384050369262695
116,14100.0,-4.019941806793213,7.630711555480957,6.384050369262695
117,14200.0,-3.962514162063599,8.090132713317871,1.8448662757873533
118,14300.0,-3.962514162063599,8.090132713317871,1.8448662757873533
119,14400.0,-3.962514162063599,8.090132713317871,1.8448662757873533
120,13000.0,-4.139583110809326,8.219346046447754,3.797409296035767
121,13100.0,-4.139583110809326,8.219346046447754,3.797409296035767
122,13200.0,-4.139583110809326,8.219346046447754,3.797409296035767
123,13300.0,-4.9435715675354,7.5254268646240225,4.015156269073486
124,13400.0,-4.9435715675354,7.5254268646240225,4.015156269073486
125,13500.0,-5.374279499053955,6.917649745941162,4.084547996520996
126,13600.0,-5.374279499053955,6.917649745941162,4.084547996520996
127,13700.0,-4.694717884063722,7.149754047393799,4.089334011077882
128,13800.0,-4.694717884063722,7.149754047393799,4.089334011077882
129,13900.0,-4.694717884063722,7.149754047393799,4.089334011077882
130,14000.0,-4.019941806793213,7.630711555480957,6.384050369262695
131,14100.0,-4.019941806793213,7.630711555480957,6.384050369262695
132,14200.0,-3.962514162063599,8.090132713317871,1.8448662757873533
133,14300.0,-3.962514162063599,8.090132713317871,1.8448662757873533
134,14400.0,-3.962514162063599,8.090132713317871,1.8448662757873533
135,14500.0,-4.350151538848877,9.564111709594727,-0.26081767678260803
136,14600.0,-4.350151538848877,9.564111709594727,-0.26081767678260803
137,14700.0,-5.350350856781006,7.862814903259277,-1.4476575851440432
138,14800.0,-5.350350856781006,7.862814903259277,-1.4476575851440432
139,14900.0,-5.441278457641602,8.405985832214355,-1.5433706045150757
140,15000.0,-5.441278457641602,8.405985832214355,-1.5433706045150757
141,15100.0,-5.441278457641602,8.405985832214355,-1.5433706045150757
142,15200.0,-5.402993679046631,7.767102241516112,-1.7252250909805298
143,15300.0,-5.402993679046631,7.767102241516112,-1.7252250909805298
144,15400.0,-5.560920238494873,7.700103282928468,-1.1629117727279663
145,15500.0,-5.560920238494873,7.700103282928468,-1.1629117727279663
146,15600.0,-5.551348686218262,8.590232849121094,-1.5385849475860596
147,15700.0,-5.551348686218262,8.590232849121094,-1.5385849475860596
148,15800.0,-5.551348686218262,8.590232849121094,-1.5385849475860596
149,15900.0,-5.5896339416503915,7.623533248901367,-2.7086753845214844
150,14500.0,-4.350151538848877,9.564111709594727,-0.26081767678260803
151,14600.0,-4.350151538848877,9.564111709594727,-0.26081767678260803
152,14700.0,-5.350350856781006,7.862814903259277,-1.4476575851440432
153,14800.0,-5.350350856781006,7.862814903259277,-1.4476575851440432
154,14900.0,-5.441278457641602,8.405985832214355,-1.5433706045150757
155,15000.0,-5.441278457641602,8.405985832214355,-1.5433706045150757
156,15100.0,-5.441278457641602,8.405985832214355,-1.5433706045150757
157,15200.0,-5.402993679046631,7.767102241516112,-1.7252250909805298
158,15300.0,-5.402993679046631,7.767102241516112,-1.7252250909805298
159,15400.0,-5.560920238494873,7.700103282928468,-1.1629117727279663
160,15500.0,-5.560920238494873,7.700103282928468,-1.1629117727279663
161,15600.0,-5.551348686218262,8.590232849121094,-1.5385849475860596
162,15700.0,-5.551348686218262,8.590232849121094,-1.5385849475860596
163,15800.0,-5.551348686218262,8.590232849121094,-1.5385849475860596
164,15900.0,-5.5896339416503915,7.623533248901367,-2.7086753845214844
165,16000.0,-5.5896339416503915,7.623533248901367,-2.7086753845214844
166,16100.0,-5.723631858825684,6.9344000816345215,-2.6057839393615723
167,16200.0,-5.723631858825684,6.9344000816345215,-2.6057839393615723
168,16300.0,-5.723631858825684,6.9344000816345215,-2.6057839393615723
169,16400.0,-5.5896339416503915,8.204988479614258,-3.0269205570220947
170,16500.0,-5.5896339416503915,8.204988479614258,-3.0269205570220947
171,16600.0,-6.307480335235597,6.8075804710388175,-2.988635540008545
172,16700.0,-6.307480335235597,6.8075804710388175,-2.988635540008545
173,16800.0,-4.603790760040283,6.67836856842041,-5.838487148284912
174,16900.0,-4.603790760040283,6.67836856842041,-5.838487148284912
175,17000.0,-4.603790760040283,6.67836856842041,-5.838487148284912
176,17100.0,-4.828716278076172,5.343173027038574,-4.934000015258789
177,17200.0,-4.828716278076172,5.343173027038574,-4.934000015258789
178,17300.0,-4.264009952545166,9.363115310668944,-2.227717876434326
179,17400.0,-4.264009952545166,9.363115310668944,-2.227717876434326
180,16000.0,-5.5896339416503915,7.623533248901367,-2.7086753845214844
181,16100.0,-5.723631858825684,6.9344000816345215,-2.6057839393615723
182,16200.0,-5.723631858825684,6.9344000816345215,-2.6057839393615723
183,16300.0,-5.723631858825684,6.9344000816345215,-2.6057839393615723
184,16400.0,-5.5896339416503915,8.204988479614258,-3.0269205570220947
185,16500.0,-5.5896339416503915,8.204988479614258,-3.0269205570220947
186,16600.0,-6.307480335235597,6.8075804710388175,-2.988635540008545
187,16700.0,-6.307480335235597,6.8075804710388175,-2.988635540008545
188,16800.0,-4.603790760040283,6.67836856842041,-5.838487148284912
189,16900.0,-4.603790760040283,6.67836856842041,-5.838487148284912
190,17000.0,-4.603790760040283,6.67836856842041,-5.838487148284912
191,17100.0,-4.828716278076172,5.343173027038574,-4.934000015258789
192,17200.0,-4.828716278076172,5.343173027038574,-4.934000015258789
193,17300.0,-4.264009952545166,9.363115310668944,-2.227717876434326
194,17400.0,-4.264009952545166,9.363115310668944,-2.227717876434326
195,17500.0,-4.23529577255249,9.930214881896973,0.07178468257188797
196,17600.0,-4.23529577255249,9.930214881896973,0.07178468257188797
197,17700.0,-4.23529577255249,9.930214881896973,0.07178468257188797
198,17800.0,-5.6997032165527335,7.365108013153076,-1.710868239402771
199,17900.0,-5.6997032165527335,7.365108013153076,-1.710868239402771
200,18000.0,-6.331408977508545,5.113461971282959,-2.407179594039917
201,18100.0,-6.331408977508545,5.113461971282959,-2.407179594039917
202,18200.0,-5.642275810241699,5.623133182525635,-5.7547383308410645
203,18300.0,-5.642275810241699,5.623133182525635,-5.7547383308410645
204,18400.0,-5.642275810241699,5.623133182525635,-5.7547383308410645
205,18500.0,-3.838087558746338,10.901700019836426,-0.8135597109794617
206,18600.0,-3.838087558746338,10.901700019836426,-0.8135597109794617
207,18700.0,-4.264009952545166,9.463613510131836,1.998006820678711
208,18800.0,-4.264009952545166,9.463613510131836,1.998006820678711
209,18900.0,-3.9003009796142583,9.054441452026367,-2.0171494483947754
210,17500.0,-4.23529577255249,9.930214881896973,0.07178468257188797
211,17600.0,-4.23529577255249,9.930214881896973,0.07178468257188797
212,17700.0,-4.23529577255249,9.930214881896973,0.07178468257188797
213,17800.0,-5.6997032165527335,7.365108013153076,-1.710868239402771
214,17900.0,-5.6997032165527335,7.365108013153076,-1.710868239402771
215,18000.0,-6.331408977508545,5.113461971282959,-2.407179594039917
216,18100.0,-6.331408977508545,5.113461971282959,-2.407179594039917
217,18200.0,-5.642275810241699,5.623133182525635,-5.7547383308410645
218,18300.0,-5.642275810241699,5.623133182525635,-5.7547383308410645
219,18400.0,-5.642275810241699,5.623133182525635,-5.7547383308410645
220,18500.0,-3.838087558746338,10.901700019836426,-0.8135597109794617
221,18600.0,-3.838087558746338,10.901700019836426,-0.8135597109794617
222,18700.0,-4.264009952545166,9.463613510131836,1.998006820678711
223,18800.0,-4.264009952545166,9.463613510131836,1.998006820678711
224,18900.0,-3.9003009796142583,9.054441452026367,-2.0171494483947754
225,19000.0,-3.9003009796142583,9.054441452026367,-2.0171494483947754
226,19100.0,-3.9003009796142583,9.054441452026367,-2.0171494483947754
227,19200.0,-6.742973804473878,6.843472957611084,-2.1367905139923096
228,19300.0,-6.742973804473878,6.843472957611084,-2.1367905139923096
229,19400.0,-5.264209270477295,5.9748783111572275,-4.498506546020508
230,19500.0,-5.264209270477295,5.9748783111572275,-4.498506546020508
231,19600.0,-4.886143684387207,5.9748783111572275,-4.292723655700684
232,19700.0,-4.886143684387207,5.9748783111572275,-4.292723655700684
233,19800.0,-4.886143684387207,5.9748783111572275,-4.292723655700684
234,19900.0,-3.8907296657562256,10.609774589538574,1.727617859840393
235,20000.0,-3.8907296657562256,10.609774589538574,1.727617859840393
236,20100.0,-4.225724697113037,8.365307807922362,3.1968109607696533
237,20200.0,-4.225724697113037,8.365307807922362,3.1968109607696533
238,20300.0,-4.225724697113037,8.365307807922362,3.1968109607696533
239,20400.0,-4.981856822967528,7.073184013366699,2.651247262954712
240,19000.0,-3.9003009796142583,9.054441452026367,-2.0171494483947754
241,19100.0,-3.9003009796142583,9.054441452026367,-2.0171494483947754
242,19200.0,-6.742973804473878,6.843472957611084,-2.1367905139923096
243,19300.0,-6.742973804473878,6.843472957611084,-2.1367905139923096
244,19400.0,-5.264209270477295,5.9748783111572275,-4.498506546020508
245,19500.0,-5.264209270477295,5.9748783111572275,-4.498506546020508
246,19600.0,-4.886143684387207,5.9748783111572275,-4.292723655700684
247,19700.0,-4.886143684387207,5.9748783111572275,-4.292723655700684
248,19800.0,-4.886143684387207,5.9748783111572275,-4.292723655700684
249,19900.0,-3.8907296657562256,10.609774589538574,1.727617859840393
250,20000.0,-3.8907296657562256,10.609774589538574,1.727617859840393
251,20100.0,-4.225724697113037,8.365307807922362,3.1968109607696533
252,20200.0,-4.225724697113037,8.365307807922362,3.1968109607696533
253,20300.0,-4.225724697113037,8.365307807922362,3.1968109607696533
254,20400.0,-4.981856822967528,7.073184013366699,2.651247262954712
255,20500.0,-4.981856822967528,7.073184013366699,2.651247262954712
256,20600.0,-5.216352939605713,7.29810905456543,2.919243574142456
257,20700.0,-5.216352939605713,7.29810905456543,2.919243574142456
258,20800.0,-4.484149932861328,7.9513492584228525,4.6061835289001465
259,20900.0,-4.484149932861328,7.9513492584228525,4.6061835289001465
260,21000.0,-4.484149932861328,7.9513492584228525,4.6061835289001465
261,21100.0,-4.484149932861328,7.810173511505128,4.405186176300049
262,21200.0,-4.484149932861328,7.810173511505128,4.405186176300049
263,21300.0,-4.833501815795898,9.116654396057127,2.569891452789306
264,21400.0,-4.833501815795898,9.116654396057127,2.569891452789306
265,21500.0,-4.833501815795898,9.116654396057127,2.569891452789306
266,21600.0,-4.977071285247803,8.372486114501951,2.3186452388763428
267,21700.0,-4.977071285247803,8.372486114501951,2.3186452388763428
268,21800.0,-5.077569961547852,8.099704742431639,2.2612173557281494
269,21900.0,-5.077569961547852,8.099704742431639,2.2612173557281494
270,20500.0,-4.981856822967528,7.073184013366699,2.651247262954712
271,20600.0,-5.216352939605713,7.29810905456543,2.919243574142456
272,20700.0,-5.216352939605713,7.29810905456543,2.919243574142456
273,20800.0,-4.484149932861328,7.9513492584228525,4.6061835289001465
274,20900.0,-4.484149932861328,7.9513492584228525,4.6061835289001465
275,21000.0,-4.484149932861328,7.9513492584228525,4.6061835289001465
276,21100.0,-4.484149932861328,7.810173511505128,4.405186176300049
277,21200.0,-4.484149932861328,7.810173511505128,4.405186176300049
278,21300.0,-4.833501815795898,9.116654396057127,2.569891452789306
279,21400.0,-4.833501815795898,9.116654396057127,2.569891452789306
280,21500.0,-4.833501815795898,9.116654396057127,2.569891452789306
281,21600.0,-4.977071285247803,8.372486114501951,2.3186452388763428
282,21700.0,-4.977071285247803,8.372486114501951,2.3186452388763428
283,21800.0,-5.077569961547852,8.099704742431639,2.2612173557281494
284,21900.0,-5.077569961547852,8.099704742431639,2.2612173557281494
285,22000.0,-5.292923927307129,7.98963451385498,2.2755744457244877
286,22100.0,-5.292923927307129,7.98963451385498,2.2755744457244877
287,22200.0,-5.292923927307129,7.98963451385498,2.2755744457244877
288,22300.0,-5.1637115478515625,7.901099681854247,2.2396819591522217
289,22400.0,-5.1637115478515625,7.901099681854247,2.2396819591522217
290,22500.0,-5.254639148712158,8.080562591552733,2.364108800888061
291,22600.0,-5.254639148712158,8.080562591552733,2.364108800888061
292,22700.0,-5.254639148712158,8.080562591552733,2.364108800888061
293,22800.0,-5.225924491882324,8.149953842163086,2.522034883499145
294,22900.0,-5.225924491882324,8.149953842163086,2.522034883499145
295,23000.0,-5.106283187866211,8.059026718139647,2.3234307765960693
296,23100.0,-5.106283187866211,8.059026718139647,2.3234307765960693
297,23200.0,-5.1637115478515625,8.008777618408201,2.280359983444214
298,23300.0,-5.1637115478515625,8.008777618408201,2.280359983444214
299,23400.0,-5.1637115478515625,8.008777618408201,2.280359983444214
300,22000.0,-5.292923927307129,7.98963451385498,2.2755744457244877
301,22100.0,-5.292923927307129,7.98963451385498,2.2755744457244877
302,22200.0,-5.292923927307129,7.98963451385498,2.2755744457244877
303,22300.0,-5.1637115478515625,7.901099681854247,2.2396819591522217
304,22400.0,-5.1637115478515625,7.901099681854247,2.2396819591522217
305,22500.0,-5.254639148712158,8.080562591552733,2.364108800888061
306,22600.0,-5.254639148712158,8.080562591552733,2.364108800888061
307,22700.0,-5.254639148712158,8.080562591552733,2.364108800888061
308,22800.0,-5.225924491882324,8.149953842163086,2.522034883499145
309,22900.0,-5.225924491882324,8.149953842163086,2.522034883499145
310,23000.0,-5.106283187866211,8.059026718139647,2.3234307765960693
311,23100.0,-5.106283187866211,8.059026718139647,2.3234307765960693
312,23200.0,-5.1637115478515625,8.008777618408201,2.280359983444214
313,23300.0,-5.1637115478515625,8.008777618408201,2.280359983444214
314,23400.0,-5.1637115478515625,8.008777618408201,2.280359983444214
315,23500.0,-5.130211353302002,8.145168304443361,2.5052852630615234
316,23600.0,-5.130211353302002,8.145168304443361,2.5052852630615234
317,23700.0,-5.178067684173584,8.157133102416992,2.53399920463562
318,23800.0,-5.178067684173584,8.157133102416992,2.53399920463562
319,23900.0,-5.178067684173584,8.157133102416992,2.53399920463562
320,24000.0,-5.125426292419434,8.075776100158691,2.3330020904541016
321,24100.0,-5.125426292419434,8.075776100158691,2.3330020904541016
322,24200.0,-5.3694939613342285,8.178668022155763,1.6965112686157229
323,24300.0,-5.3694939613342285,8.178668022155763,1.6965112686157229
324,24400.0,-5.469992637634277,8.528019905090332,0.4354937374591827
325,24500.0,-5.469992637634277,8.528019905090332,0.4354937374591827
326,24600.0,-5.469992637634277,8.528019905090332,0.4354937374591827
327,24700.0,-6.32662296295166,8.269595146179201,-1.4021940231323242
328,24800.0,-6.32662296295166,8.269595146179201,-1.4021940231323242
329,24900.0,-6.977471351623535,5.374279499053955,-1.722832441329956
330,23500.0,-5.130211353302002,8.145168304443361,2.5052852630615234
331,23600.0,-5.130211353302002,8.145168304443361,2.5052852630615234
332,23700.0,-5.178067684173584,8.157133102416992,2.53399920463562
333,23800.0,-5.178067684173584,8.157133102416992,2.53399920463562
334,23900.0,-5.178067684173584,8.157133102416992,2.53399920463562
335,24000.0,-5.125426292419434,8.075776100158691,2.3330020904541016
336,24100.0,-5.125426292419434,8.075776100158691,2.3330020904541016
337,24200.0,-5.3694939613342285,8.178668022155763,1.6965112686157229
338,24300.0,-5.3694939613342285,8.178668022155763,1.6965112686157229
339,24400.0,-5.469992637634277,8.528019905090332,0.4354937374591827
340,24500.0,-5.469992637634277,8.528019905090332,0.4354937374591827
341,24600.0,-5.469992637634277,8.528019905090332,0.4354937374591827
342,24700.0,-6.32662296295166,8.269595146179201,-1.4021940231323242
343,24800.0,-6.32662296295166,8.269595146179201,-1.4021940231323242
344,24900.0,-6.977471351623535,5.374279499053955,-1.722832441329956
345,25000.0,-6.977471351623535,5.374279499053955,-1.722832441329956
346,25100.0,-5.905486583709718,5.785844802856445,-4.453042984008789
347,25200.0,-5.905486583709718,5.785844802856445,-4.453042984008789
348,25300.0,-5.905486583709718,5.785844802856445,-4.453042984008789
349,25400.0,-5.302494525909424,6.379265785217285,-5.44845724105835
350,25500.0,-5.302494525909424,6.379265785217285,-5.44845724105835
351,25600.0,-4.536791324615479,9.198010444641113,-1.6845470666885376
352,25700.0,-4.536791324615479,9.198010444641113,-1.6845470666885376
353,25800.0,-4.584648132324219,9.372685432434082,-1.043270707130432
354,25900.0,-4.584648132324219,9.372685432434082,-1.043270707130432
355,26000.0,-4.584648132324219,9.372685432434082,-1.043270707130432
356,26100.0,-4.187439441680908,10.183852195739746,-0.430708110332489
357,26200.0,-4.187439441680908,10.183852195739746,-0.430708110332489
358,26300.0,-4.613362312316895,9.652647018432617,2.0554347038269043
359,26400.0,-4.613362312316895,9.652647018432617,2.0554347038269043
360,25000.0,-6.977471351623535,5.374279499053955,-1.722832441329956
361,25100.0,-5.905486583709718,5.785844802856445,-4.453042984008789
362,25200.0,-5.905486583709718,5.785844802856445,-4.453042984008789
363,25300.0,-5.905486583709718,5.785844802856445,-4.453042984008789
364,25400.0,-5.302494525909424,6.379265785217285,-5.44845724105835
365,25500.0,-5.302494525909424,6.379265785217285,-5.44845724105835
366,25600.0,-4.536791324615479,9.198010444641113,-1.6845470666885376
367,25700.0,-4.536791324615479,9.198010444641113,-1.6845470666885376
368,25800.0,-4.584648132324219,9.372685432434082,-1.043270707130432
369,25900.0,-4.584648132324219,9.372685432434082,-1.043270707130432
370,26000.0,-4.584648132324219,9.372685432434082,-1.043270707130432
371,26100.0,-4.187439441680908,10.183852195739746,-0.430708110332489
372,26200.0,-4.187439441680908,10.183852195739746,-0.430708110332489
373,26300.0,-4.613362312316895,9.652647018432617,2.0554347038269043
374,26400.0,-4.613362312316895,9.652647018432617,2.0554347038269043
375,26500.0,-5.192424774169922,8.721837997436522,2.2396819591522217
376,26600.0,-5.192424774169922,8.721837997436522,2.2396819591522217
377,26700.0,-5.61834716796875,7.448856830596924,1.4189438819885254
378,26800.0,-5.61834716796875,7.448856830596924,1.4189438819885254
379,26900.0,-5.61834716796875,7.448856830596924,1.4189438819885254
380,27000.0,-5.852844715118407,7.508677005767822,1.4021940231323242
381,27100.0,-5.852844715118407,7.508677005767822,1.4021940231323242
382,27200.0,-5.37906551361084,7.28375244140625,2.0458633899688716
383,27300.0,-5.37906551361084,7.28375244140625,2.0458633899688716
384,27400.0,-5.206782341003418,8.841480255126953,4.529613494873047
385,27500.0,-5.206782341003418,8.841480255126953,4.529613494873047
386,27600.0,-5.206782341003418,8.841480255126953,4.529613494873047
387,27700.0,-6.1878395080566415,6.790830135345459,0.4498506784439087
388,27800.0,-6.1878395080566415,6.790830135345459,0.4498506784439087
389,27900.0,-6.403193473815918,5.996413230895996,-2.553141593933105
390,26500.0,-5.192424774169922,8.721837997436522,2.2396819591522217
391,26600.0,-5.192424774169922,8.721837997436522,2.2396819591522217
392,26700.0,-5.61834716796875,7.448856830596924,1.4189438819885254
393,26800.0,-5.61834716796875,7.448856830596924,1.4189438819885254
394,26900.0,-5.61834716796875,7.448856830596924,1.4189438819885254
395,27000.0,-5.852844715118407,7.508677005767822,1.4021940231323242
396,27100.0,-5.852844715118407,7.508677005767822,1.4021940231323242
397,27200.0,-5.37906551361084,7.28375244140625,2.0458633899688716
398,27300.0,-5.37906551361084,7.28375244140625,2.0458633899688716
399,27400.0,-5.206782341003418,8.841480255126953,4.529613494873047
400,27500.0,-5.206782341003418,8.841480255126953,4.529613494873047
401,27600.0,-5.206782341003418,8.841480255126953,4.529613494873047
402,27700.0,-6.1878395080566415,6.790830135345459,0.4498506784439087
403,27800.0,-6.1878395080566415,6.790830135345459,0.4498506784439087
404,27900.0,-6.403193473815918,5.996413230895996,-2.553141593933105
405,28000.0,-6.403193473815918,5.996413230895996,-2.553141593933105
406,28100.0,-6.92482852935791,6.116055011749268,-2.5746772289276123
407,28200.0,-6.92482852935791,6.116055011749268,-2.5746772289276123
408,28300.0,-6.92482852935791,6.116055011749268,-2.5746772289276123
409,28400.0,-6.302694320678711,6.654439926147461,-3.799802303314209
410,28500.0,-6.302694320678711,6.654439926147461,-3.799802303314209
411,28600.0,-5.302494525909424,7.393822193145753,-3.7232320308685294
412,28700.0,-5.302494525909424,7.393822193145753,-3.7232320308685294
413,28800.0,-5.302494525909424,7.393822193145753,-3.7232320308685294
414,28900.0,-5.139782905578613,9.31765079498291,0.3876372575759888
415,29000.0,-5.139782905578613,9.31765079498291,0.3876372575759888
416,29100.0,-4.713860511779785,8.444271087646483,0.8327022790908813
417,29200.0,-4.713860511779785,8.444271087646483,0.8327022790908813
418,29300.0,-6.015556335449219,7.472784996032715,-0.8709874749183655
419,29400.0,-6.015556335449219,7.472784996032715,-0.8709874749183655
420,28000.0,-6.403193473815918,5.996413230895996,-2.553141593933105
421,28100.0,-6.92482852935791,6.116055011749268,-2.5746772289276123
422,28200.0,-6.92482852935791,6.116055011749268,-2.5746772289276123
423,28300.0,-6.92482852935791,6.116055011749268,-2.5746772289276123
424,28400.0,-6.302694320678711,6.654439926147461,-3.799802303314209
425,28500.0,-6.302694320678711,6.654439926147461,-3.799802303314209
426,28600.0,-5.302494525909424,7.393822193145753,-3.7232320308685294
427,28700.0,-5.302494525909424,7.393822193145753,-3.7232320308685294
428,28800.0,-5.302494525909424,7.393822193145753,-3.7232320308685294
429,28900.0,-5.139782905578613,9.31765079498291,0.3876372575759888
430,29000.0,-5.139782905578613,9.31765079498291,0.3876372575759888
431,29100.0,-4.713860511779785,8.444271087646483,0.8327022790908813
432,29200.0,-4.713860511779785,8.444271087646483,0.8327022790908813
433,29300.0,-6.015556335449219,7.472784996032715,-0.8709874749183655
434,29400.0,-6.015556335449219,7.472784996032715,-0.8709874749183655
435,29500.0,-6.16391134262085,4.790431022644043,-4.369294166564941
436,29600.0,-6.16391134262085,4.790431022644043,-4.369294166564941
437,29700.0,-6.16391134262085,4.790431022644043,-4.369294166564941
438,29800.0,-6.551548480987549,5.08953332901001,-4.220939159393311
439,29900.0,-6.551548480987549,5.08953332901001,-4.220939159393311
440,30000.0,-6.307480335235597,5.9198431968688965,-3.507878065109253
441,30100.0,-6.307480335235597,5.9198431968688965,-3.507878065109253
442,30200.0,-4.790431022644043,7.185646057128906,-5.252245903015137
443,30300.0,-4.790431022644043,7.185646057128906,-5.252245903015137
444,30400.0,-4.790431022644043,7.185646057128906,-5.252245903015137
445,30500.0,-4.632504463195801,9.533005714416504,-0.5335994362831116
446,30600.0,-4.632504463195801,9.533005714416504,-0.5335994362831116
447,30700.0,-4.689932346343994,8.489734649658201,1.00259268283844
448,30800.0,-4.689932346343994,8.489734649658201,1.00259268283844
449,30900.0,-5.168497085571289,8.970691680908203,1.797009825706482
450,29500.0,-6.16391134262085,4.790431022644043,-4.369294166564941
451,29600.0,-6.16391134262085,4.790431022644043,-4.369294166564941
452,29700.0,-6.16391134262085,4.790431022644043,-4.369294166564941
453,29800.0,-6.551548480987549,5.08953332901001,-4.220939159393311
454,29900.0,-6.551548480987549,5.08953332901001,-4.220939159393311
455,30000.0,-6.307480335235597,5.9198431968688965,-3.507878065109253
456,30100.0,-6.307480335235597,5.9198431968688965,-3.507878065109253
457,30200.0,-4.790431022644043,7.185646057128906,-5.252245903015137
458,30300.0,-4.790431022644043,7.185646057128906,-5.252245903015137
459,30400.0,-4.790431022644043,7.185646057128906,-5.252245903015137
460,30500.0,-4.632504463195801,9.533005714416504,-0.5335994362831116
461,30600.0,-4.632504463195801,9.533005714416504,-0.5335994362831116
462,30700.0,-4.689932346343994,8.489734649658201,1.00259268283844
463,30800.0,-4.689932346343994,8.489734649658201,1.00259268283844
464,30900.0,-5.168497085571289,8.970691680908203,1.797009825706482
465,31000.0,-5.168497085571289,8.970691680908203,1.797009825706482
466,31100.0,-5.168497085571289,8.970691680908203,1.797009825706482
467,31200.0,-6.058626651763916,7.015756130218506,2.0673987865448002
468,31300.0,-6.058626651763916,7.015756130218506,2.0673987865448002
469,31400.0,-5.857630252838135,6.8315086364746085,2.5076780319213867
470,31500.0,-5.857630252838135,6.8315086364746085,2.5076780319213867
471,31600.0,-4.9387855529785165,7.817351341247559,3.1896328926086426
472,31700.0,-4.9387855529785165,7.817351341247559,3.1896328926086426
473,31800.0,-5.264209270477295,8.193024635314941,3.7734813690185542
474,31900.0,-5.264209270477295,8.193024635314941,3.7734813690185542
475,32000.0,-5.264209270477295,8.193024635314941,3.7734813690185542
476,32100.0,-5.130211353302002,8.973085403442383,1.4524433612823486
477,32200.0,-5.130211353302002,8.973085403442383,1.4524433612823486
478,32300.0,-5.364708423614502,7.412964344024657,-2.7278177738189697
479,32400.0,-5.364708423614502,7.412964344024657,-2.7278177738189697
480,31000.0,-5.168497085571289,8.970691680908203,1.797009825706482
481,31100.0,-5.168497085571289,8.970691680908203,1.797009825706482
482,31200.0,-6.058626651763916,7.015756130218506,2.0673987865448002
483,31300.0,-6.058626651763916,7.015756130218506,2.0673987865448002
484,31400.0,-5.857630252838135,6.8315086364746085,2.5076780319213867
485,31500.0,-5.857630252838135,6.8315086364746085,2.5076780319213867
486,31600.0,-4.9387855529785165,7.817351341247559,3.1896328926086426
487,31700.0,-4.9387855529785165,7.817351341247559,3.1896328926086426
488,31800.0,-5.264209270477295,8.193024635314941,3.7734813690185542
489,31900.0,-5.264209270477295,8.193024635314941,3.7734813690185542
490,32000.0,-5.264209270477295,8.193024635314941,3.7734813690185542
491,32100.0,-5.130211353302002,8.973085403442383,1.4524433612823486
492,32200.0,-5.130211353302002,8.973085403442383,1.4524433612823486
493,32300.0,-5.364708423614502,7.412964344024657,-2.7278177738189697
494,32400.0,-5.364708423614502,7.412964344024657,-2.7278177738189697
495,32500.0,-4.579862117767334,7.5804619789123535,-4.512863159179688
496,32600.0,-4.579862117767334,7.5804619789123535,-4.512863159179688
497,32700.0,-4.579862117767334,7.5804619789123535,-4.512863159179688
498,32800.0,-3.713660717010498,7.671389579772949,-5.42692232131958
499,32900.0,-3.713660717010498,7.671389579772949,-5.42692232131958
500,33000.0,-3.235095977783203,6.175874710083008,-6.802794933319093
501,33100.0,-3.235095977783203,6.175874710083008,-6.802794933319093
502,33200.0,-3.235095977783203,6.175874710083008,-6.802794933319093
503,33300.0,-2.383251428604126,9.346364974975586,-2.857030153274536
504,33400.0,-2.383251428604126,9.346364974975586,-2.857030153274536
505,33500.0,-2.421536445617676,10.066605567932127,-0.8422735333442688
506,33600.0,-2.421536445617676,10.066605567932127,-0.8422735333442688
507,33700.0,-2.9048867225646973,9.18843936920166,-1.1485549211502075
508,33800.0,-2.9048867225646973,9.18843936920166,-1.1485549211502075
509,33900.0,-2.9048867225646973,9.18843936920166,-1.1485549211502075
510,32500.0,-4.579862117767334,7.5804619789123535,-4.512863159179688
511,32600.0,-4.579862117767334,7.5804619789123535,-4.512863159179688
512,32700.0,-4.579862117767334,7.5804619789123535,-4.512863159179688
513,32800.0,-3.713660717010498,7.671389579772949,-5.42692232131958
514,32900.0,-3.713660717010498,7.671389579772949,-5.42692232131958
515,33000.0,-3.235095977783203,6.175874710083008,-6.802794933319093
516,33100.0,-3.235095977783203,6.175874710083008,-6.802794933319093
517,33200.0,-3.235095977783203,6.175874710083008,-6.802794933319093
518,33300.0,-2.383251428604126,9.346364974975586,-2.857030153274536
519,33400.0,-2.383251428604126,9.346364974975586,-2.857030153274536
520,33500.0,-2.421536445617676,10.066605567932127,-0.8422735333442688
521,33600.0,-2.421536445617676,10.066605567932127,-0.8422735333442688
522,33700.0,-2.9048867225646973,9.18843936920166,-1.1485549211502075
523,33800.0,-2.9048867225646973,9.18843936920166,-1.1485549211502075
524,33900.0,-2.9048867225646973,9.18843936920166,-1.1485549211502075
525,34000.0,-3.230310440063477,9.449256896972656,-0.10767702758312224
526,34100.0,-3.230310440063477,9.449256896972656,-0.10767702758312224
527,34200.0,-3.646661758422852,9.413363456726074,-0.9595218896865844
528,34300.0,-3.646661758422852,9.413363456726074,-0.9595218896865844
529,34400.0,-3.483949899673462,7.551748275756836,-5.137389659881592
530,34500.0,-3.483949899673462,7.551748275756836,-5.137389659881592
531,34600.0,-3.483949899673462,7.551748275756836,-5.137389659881592
532,34700.0,-4.1730828285217285,7.726424217224121,-3.383451223373413
533,34800.0,-4.1730828285217285,7.726424217224121,-3.383451223373413
534,34900.0,-2.263610363006592,9.343972206115724,-3.603590488433838
535,35000.0,-2.263610363006592,9.343972206115724,-3.603590488433838
536,35100.0,-2.589033842086792,9.65503978729248,-0.6293123364448547
537,35200.0,-2.589033842086792,9.65503978729248,-0.6293123364448547
538,35300.0,-2.589033842086792,9.65503978729248,-0.6293123364448547
539,35400.0,-2.7326035499572754,9.432506561279297,-0.3493521213531494
540,34000.0,-3.230310440063477,9.449256896972656,-0.10767702758312224
541,34100.0,-3.230310440063477,9.449256896972656,-0.10767702758312224
542,34200.0,-3.646661758422852,9.413363456726074,-0.9595218896865844
543,34300.0,-3.646661758422852,9.413363456726074,-0.9595218896865844
544,34400.0,-3.483949899673462,7.551748275756836,-5.137389659881592
545,34500.0,-3.483949899673462,7.551748275756836,-5.137389659881592
546,34600.0,-3.483949899673462,7.551748275756836,-5.137389659881592
547,34700.0,-4.1730828285217285,7.726424217224121,-3.383451223373413
548,34800.0,-4.1730828285217285,7.726424217224121,-3.383451223373413
549,34900.0,-2.263610363006592,9.343972206115724,-3.603590488433838
550,35000.0,-2.263610363006592,9.343972206115724,-3.603590488433838
551,35100.0,-2.589033842086792,9.65503978729248,-0.6293123364448547
552,35200.0,-2.589033842086792,9.65503978729248,-0.6293123364448547
553,35300.0,-2.589033842086792,9.65503978729248,-0.6293123364448547
554,35400.0,-2.7326035499572754,9.432506561279297,-0.3493521213531494
555,35500.0,-2.7326035499572754,9.432506561279297,-0.3493521213531494
556,35600.0,-3.168097257614136,9.401400566101074,0.1459621787071228
557,35700.0,-3.168097257614136,9.401400566101074,0.1459621787071228
558,35800.0,-2.995814085006714,9.518648147583008,0.15553347766399386
559,35900.0,-2.995814085006714,9.518648147583008,0.15553347766399386
560,36000.0,-3.3164520263671875,9.365508079528807,0.9260223507881165
561,36100.0,-3.3164520263671875,9.365508079528807,0.9260223507881165
562,36200.0,-3.3164520263671875,9.365508079528807,0.9260223507881165
563,36300.0,-4.058227062225342,8.93240737915039,0.97148597240448
564,36400.0,-4.058227062225342,8.93240737915039,0.97148597240448
565,36500.0,-4.3166518211364755,8.767301559448242,0.9834501147270204
566,36600.0,-4.3166518211364755,8.767301559448242,0.9834501147270204
567,36700.0,-4.867001533508301,8.556733131408691,1.4620146751403809
568,36800.0,-4.867001533508301,8.556733131408691,1.4620146751403809
569,36900.0,-4.867001533508301,8.556733131408691,1.4620146751403809
570,35500.0,-2.7326035499572754,9.432506561279297,-0.3493521213531494
571,35600.0,-3.168097257614136,9.401400566101074,0.1459621787071228
572,35700.0,-3.168097257614136,9.401400566101074,0.1459621787071228
573,35800.0,-2.995814085006714,9.518648147583008,0.15553347766399386
574,35900.0,-2.995814085006714,9.518648147583008,0.15553347766399386
575,36000.0,-3.3164520263671875,9.365508079528807,0.9260223507881165
576,36100.0,-3.3164520263671875,9.365508079528807,0.9260223507881165
577,36200.0,-3.3164520263671875,9.365508079528807,0.9260223507881165
578,36300.0,-4.058227062225342,8.93240737915039,0.97148597240448
579,36400.0,-4.058227062225342,8.93240737915039,0.97148597240448
580,36500.0,-4.3166518211364755,8.767301559448242,0.9834501147270204
581,36600.0,-4.3166518211364755,8.767301559448242,0.9834501147270204
582,36700.0,-4.867001533508301,8.556733131408691,1.4620146751403809
583,36800.0,-4.867001533508301,8.556733131408691,1.4620146751403809
584,36900.0,-4.867001533508301,8.556733131408691,1.4620146751403809
585,37000.0,-3.713660717010498,8.315058708190918,2.4693927764892583
586,37100.0,-3.713660717010498,8.315058708190918,2.4693927764892583
587,37200.0,-5.340780735015869,9.279366493225098,2.4717857837677
588,37300.0,-5.340780735015869,9.279366493225098,2.4717857837677
589,37400.0,-5.340780735015869,9.279366493225098,2.4717857837677
590,37500.0,-5.513063907623291,8.616554260253906,2.589033842086792
591,37600.0,-5.513063907623291,8.616554260253906,2.589033842086792
592,37700.0,-6.16391134262085,7.436892509460449,2.2707886695861816
593,37800.0,-6.16391134262085,7.436892509460449,2.2707886695861816
594,37900.0,-6.5084776878356925,7.190432548522949,2.7038896083831787
595,38000.0,-6.5084776878356925,7.190432548522949,2.7038896083831787
596,38100.0,-6.5084776878356925,7.190432548522949,2.7038896083831787
597,38200.0,-6.719045639038086,6.604190349578857,2.3617160320281982
598,38300.0,-6.719045639038086,6.604190349578857,2.3617160320281982
599,38400.0,-6.503692150115968,6.254837989807129,3.235095977783203
600,37000.0,-3.713660717010498,8.315058708190918,2.4693927764892583
601,37100.0,-3.713660717010498,8.315058708190918,2.4693927764892583
602,37200.0,-5.340780735015869,9.279366493225098,2.4717857837677
603,37300.0,-5.340780735015869,9.279366493225098,2.4717857837677
604,37400.0,-5.340780735015869,9.279366493225098,2.4717857837677
605,37500.0,-5.513063907623291,8.616554260253906,2.589033842086792
606,37600.0,-5.513063907623291,8.616554260253906,2.589033842086792
607,37700.0,-6.16391134262085,7.436892509460449,2.2707886695861816
608,37800.0,-6.16391134262085,7.436892509460449,2.2707886695861816
609,37900.0,-6.5084776878356925,7.190432548522949,2.7038896083831787
610,38000.0,-6.5084776878356925,7.190432548522949,2.7038896083831787
611,38100.0,-6.5084776878356925,7.190432548522949,2.7038896083831787
612,38200.0,-6.719045639038086,6.604190349578857,2.3617160320281982
613,38300.0,-6.719045639038086,6.604190349578857,2.3617160320281982
614,38400.0,-6.503692150115968,6.254837989807129,3.235095977783203
615,38500.0,-6.503692150115968,6.254837989807129,3.235095977783203
616,38600.0,-6.503692150115968,6.254837989807129,3.235095977783203
617,38700.0,-6.068198204040527,7.066005229949951,3.1058835983276367
618,38800.0,-6.068198204040527,7.066005229949951,3.1058835983276367
619,38900.0,-5.709274768829347,7.168896198272705,4.242474555969238
620,39000.0,-5.709274768829347,7.168896198272705,4.242474555969238
621,39100.0,-6.0921263694763175,7.195217609405518,2.5507488250732417
622,39200.0,-6.0921263694763175,7.195217609405518,2.5507488250732417
623,39300.0,-6.293124198913574,6.434299945831299,1.940579175949097
624,39400.0,-6.293124198913574,6.434299945831299,1.940579175949097
625,39500.0,-6.293124198913574,6.434299945831299,1.940579175949097
626,39600.0,-6.235695838928223,6.7932233810424805,1.3112668991088867
627,39700.0,-6.235695838928223,6.7932233810424805,1.3112668991088867
628,39800.0,-6.379265785217285,7.207180976867676,0.8877372145652771
629,39900.0,-6.379265785217285,7.207180976867676,0.8877372145652771
630,38500.0,-6.503692150115968,6.254837989807129,3.235095977783203
631,38600.0,-6.503692150115968,6.254837989807129,3.235095977783203
632,38700.0,-6.068198204040527,7.066005229949951,3.1058835983276367
633,38800.0,-6.068198204040527,7.066005229949951,3.1058835983276367
634,38900.0,-5.709274768829347,7.168896198272705,4.242474555969238
635,39000.0,-5.709274768829347,7.168896198272705,4.242474555969238
636,39100.0,-6.0921263694763175,7.195217609405518,2.5507488250732417
637,39200.0,-6.0921263694763175,7.195217609405518,2.5507488250732417
638,39300.0,-6.293124198913574,6.434299945831299,1.940579175949097
639,39400.0,-6.293124198913574,6.434299945831299,1.940579175949097
640,39500.0,-6.293124198913574,6.434299945831299,1.940579175949097
641,39600.0,-6.235695838928223,6.7932233810424805,1.3112668991088867
642,39700.0,-6.235695838928223,6.7932233810424805,1.3112668991088867
643,39800.0,-6.379265785217285,7.207180976867676,0.8877372145652771
644,39900.0,-6.379265785217285,7.207180976867676,0.8877372145652771
645,40000.0,-6.230910301208496,7.640282154083253,0.7369893789291382
646,40100.0,-6.230910301208496,7.640282154083253,0.7369893789291382
647,40200.0,-6.230910301208496,7.640282154083253,0.7369893789291382
648,40300.0,-6.02512788772583,7.862814903259277,0.9188438653945924
649,40400.0,-6.02512788772583,7.862814903259277,0.9188438653945924
650,40500.0,-6.096912384033202,8.216952323913574,0.7274181246757507
651,40600.0,-6.096912384033202,8.216952323913574,0.7274181246757507
652,40700.0,-6.096912384033202,8.216952323913574,0.7274181246757507
653,40800.0,-6.2117671966552725,7.15932559967041,-2.12961220741272
654,40900.0,-6.2117671966552725,7.15932559967041,-2.12961220741272
655,41000.0,-6.647261142730713,5.900700569152832,-3.6514470577239986
656,41100.0,-6.647261142730713,5.900700569152832,-3.6514470577239986
657,41200.0,-6.833901405334473,6.465407371520996,-3.235095977783203
658,41300.0,-6.833901405334473,6.465407371520996,-3.235095977783203
659,41400.0,-6.833901405334473,6.465407371520996,-3.235095977783203
660,40000.0,-6.230910301208496,7.640282154083253,0.7369893789291382
661,40100.0,-6.230910301208496,7.640282154083253,0.7369893789291382
662,40200.0,-6.230910301208496,7.640282154083253,0.7369893789291382
663,40300.0,-6.02512788772583,7.862814903259277,0.9188438653945924
664,40400.0,-6.02512788772583,7.862814903259277,0.9188438653945924
665,40500.0,-6.096912384033202,8.216952323913574,0.7274181246757507
666,40600.0,-6.096912384033202,8.216952323913574,0.7274181246757507
667,40700.0,-6.096912384033202,8.216952323913574,0.7274181246757507
668,40800.0,-6.2117671966552725,7.15932559967041,-2.12961220741272
669,40900.0,-6.2117671966552725,7.15932559967041,-2.12961220741272
670,41000.0,-6.647261142730713,5.900700569152832,-3.6514470577239986
671,41100.0,-6.647261142730713,5.900700569152832,-3.6514470577239986
672,41200.0,-6.833901405334473,6.465407371520996,-3.235095977783203
673,41300.0,-6.833901405334473,6.465407371520996,-3.235095977783203
674,41400.0,-6.833901405334473,6.465407371520996,-3.235095977783203
675,41500.0,-6.561119556427003,5.5274200439453125,-3.7232320308685294
676,41600.0,-6.561119556427003,5.5274200439453125,-3.7232320308685294
677,41700.0,-5.704488754272461,7.5876407623291025,-4.240081787109375
678,41800.0,-5.704488754272461,7.5876407623291025,-4.240081787109375
679,41900.0,-5.125426292419434,7.223931312561035,-1.801795244216919
680,42000.0,-5.125426292419434,7.223931312561035,-1.801795244216919
681,42100.0,-5.125426292419434,7.223931312561035,-1.801795244216919
682,42200.0,-4.747360229492188,9.482755661010742,0.4354937374591827
683,42300.0,-4.747360229492188,9.482755661010742,0.4354937374591827
684,42400.0,-4.493720531463623,8.281558990478517,0.6987042427062988
685,42500.0,-4.493720531463623,8.281558990478517,0.6987042427062988
686,42600.0,-5.201996326446533,8.752944946289062,2.0793628692626958
687,42700.0,-5.201996326446533,8.752944946289062,2.0793628692626958
688,42800.0,-5.321637630462647,7.724031925201416,1.902293920516968
689,42900.0,-5.321637630462647,7.724031925201416,1.902293920516968
690,41500.0,-6.561119556427003,5.5274200439453125,-3.7232320308685294
691,41600.0,-6.561119556427003,5.5274200439453125,-3.7232320308685294
692,41700.0,-5.704488754272461,7.5876407623291025,-4.240081787109375
693,41800.0,-5.704488754272461,7.5876407623291025,-4.240081787109375
694,41900.0,-5.125426292419434,7.223931312561035,-1.801795244216919
695,42000.0,-5.125426292419434,7.223931312561035,-1.801795244216919
696,42100.0,-5.125426292419434,7.223931312561035,-1.801795244216919
697,42200.0,-4.747360229492188,9.482755661010742,0.4354937374591827
698,42300.0,-4.747360229492188,9.482755661010742,0.4354937374591827
699,42400.0,-4.493720531463623,8.281558990478517,0.6987042427062988
700,42500.0,-4.493720531463623,8.281558990478517,0.6987042427062988
701,42600.0,-5.201996326446533,8.752944946289062,2.0793628692626958
702,42700.0,-5.201996326446533,8.752944946289062,2.0793628692626958
703,42800.0,-5.321637630462647,7.724031925201416,1.902293920516968
704,42900.0,-5.321637630462647,7.724031925201416,1.902293920516968
705,43000.0,-5.321637630462647,7.724031925201416,1.902293920516968
706,43100.0,-5.982056617736816,7.427321434020996,2.6249265670776367
707,43200.0,-5.982056617736816,7.427321434020996,2.6249265670776367
708,43300.0,-5.1732821464538565,7.216752529144287,1.9118653535842896
709,43400.0,-5.1732821464538565,7.216752529144287,1.9118653535842896
710,43500.0,-4.9435715675354,8.456235885620117,5.192424774169922
711,43600.0,-4.9435715675354,8.456235885620117,5.192424774169922
712,43700.0,-4.9435715675354,8.456235885620117,5.192424774169922
713,43800.0,-5.359922409057617,8.554340362548826,2.2253248691558842
714,43900.0,-5.359922409057617,8.554340362548826,2.2253248691558842
715,44000.0,-5.857630252838135,7.319644451141357,0.7034898400306702
716,44100.0,-5.857630252838135,7.319644451141357,0.7034898400306702
717,44200.0,-6.063412666320801,7.295715808868407,0.12681959569454193
718,44300.0,-6.063412666320801,7.295715808868407,0.12681959569454193
719,44400.0,-6.063412666320801,7.295715808868407,0.12681959569454193
720,43000.0,-5.321637630462647,7.724031925201416,1.902293920516968
721,43100.0,-5.982056617736816,7.427321434020996,2.6249265670776367
722,43200.0,-5.982056617736816,7.427321434020996,2.6249265670776367
723,43300.0,-5.1732821464538565,7.216752529144287,1.9118653535842896
724,43400.0,-5.1732821464538565,7.216752529144287,1.9118653535842896
725,43500.0,-4.9435715675354,8.456235885620117,5.192424774169922
726,43600.0,-4.9435715675354,8.456235885620117,5.192424774169922
727,43700.0,-4.9435715675354,8.456235885620117,5.192424774169922
728,43800.0,-5.359922409057617,8.554340362548826,2.2253248691558842
729,43900.0,-5.359922409057617,8.554340362548826,2.2253248691558842
730,44000.0,-5.857630252838135,7.319644451141357,0.7034898400306702
731,44100.0,-5.857630252838135,7.319644451141357,0.7034898400306702
732,44200.0,-6.063412666320801,7.295715808868407,0.12681959569454193
733,44300.0,-6.063412666320801,7.295715808868407,0.12681959569454193
734,44400.0,-6.063412666320801,7.295715808868407,0.12681959569454193
735,44500.0,-6.096912384033202,7.496713638305664,-0.7274181246757507
736,44600.0,-6.096912384033202,7.496713638305664,-0.7274181246757507
737,44700.0,-6.269195556640625,8.039883613586426,-0.8159525394439697
738,44800.0,-6.269195556640625,8.039883613586426,-0.8159525394439697
739,44900.0,-6.360122680664063,7.422535419464111,-1.1629117727279663
740,45000.0,-6.360122680664063,7.422535419464111,-1.1629117727279663
741,45100.0,-6.360122680664063,7.422535419464111,-1.1629117727279663
742,45200.0,-5.991628170013428,7.451249599456787,-2.723031997680664
743,45300.0,-5.991628170013428,7.451249599456787,-2.723031997680664
744,45400.0,-4.302295207977295,7.659425258636475,-4.429114818572998
745,45500.0,-4.302295207977295,7.659425258636475,-4.429114818572998
746,45600.0,-4.302295207977295,7.659425258636475,-4.429114818572998
747,45700.0,-2.71346116065979,6.802794933319093,-5.838487148284912
748,45800.0,-2.71346116065979,6.802794933319093,-5.838487148284912
749,45900.0,-1.804188132286072,5.522634029388428,-7.46799898147583
750,44500.0,-6.096912384033202,7.496713638305664,-0.7274181246757507
751,44600.0,-6.096912384033202,7.496713638305664,-0.7274181246757507
752,44700.0,-6.269195556640625,8.039883613586426,-0.8159525394439697
753,44800.0,-6.269195556640625,8.039883613586426,-0.8159525394439697
754,44900.0,-6.360122680664063,7.422535419464111,-1.1629117727279663
755,45000.0,-6.360122680664063,7.422535419464111,-1.1629117727279663
756,45100.0,-6.360122680664063,7.422535419464111,-1.1629117727279663
757,45200.0,-5.991628170013428,7.451249599456787,-2.723031997680664
758,45300.0,-5.991628170013428,7.451249599456787,-2.723031997680664
759,45400.0,-4.302295207977295,7.659425258636475,-4.429114818572998
760,45500.0,-4.302295207977295,7.659425258636475,-4.429114818572998
761,45600.0,-4.302295207977295,7.659425258636475,-4.429114818572998
762,45700.0,-2.71346116065979,6.802794933319093,-5.838487148284912
763,45800.0,-2.71346116065979,6.802794933319093,-5.838487148284912
764,45900.0,-1.804188132286072,5.522634029388428,-7.46799898147583
765,46000.0,-1.804188132286072,5.522634029388428,-7.46799898147583
766,46100.0,-1.7706886529922483,6.104090690612793,-7.152146816253662
767,46200.0,-1.7706886529922483,6.104090690612793,-7.152146816253662
768,46300.0,-1.7706886529922483,6.104090690612793,-7.152146816253662
769,46400.0,-2.9862425327301025,5.12303352355957,-7.0444698333740225
770,46500.0,-2.9862425327301025,5.12303352355957,-7.0444698333740225
771,46600.0,-2.431107759475708,5.446063995361328,-7.810173511505128
772,46700.0,-2.431107759475708,5.446063995361328,-7.810173511505128
773,46800.0,-2.431107759475708,5.446063995361328,-7.810173511505128
774,46900.0,-1.430907964706421,4.869394302368164,-7.814958095550537
775,47000.0,-1.430907964706421,4.869394302368164,-7.814958095550537
776,47100.0,-0.8805587291717529,5.536991596221924,-7.518248558044434
777,47200.0,-0.8805587291717529,5.536991596221924,-7.518248558044434
778,47300.0,-0.9571290016174316,8.987441062927246,-4.460221290588379
779,47400.0,-0.9571290016174316,8.987441062927246,-4.460221290588379
780,46000.0,-1.804188132286072,5.522634029388428,-7.46799898147583
781,46100.0,-1.7706886529922483,6.104090690612793,-7.152146816253662
782,46200.0,-1.7706886529922483,6.104090690612793,-7.152146816253662
783,46300.0,-1.7706886529922483,6.104090690612793,-7.152146816253662
784,46400.0,-2.9862425327301025,5.12303352355957,-7.0444698333740225
785,46500.0,-2.9862425327301025,5.12303352355957,-7.0444698333740225
786,46600.0,-2.431107759475708,5.446063995361328,-7.810173511505128
787,46700.0,-2.431107759475708,5.446063995361328,-7.810173511505128
788,46800.0,-2.431107759475708,5.446063995361328,-7.810173511505128
789,46900.0,-1.430907964706421,4.869394302368164,-7.814958095550537
790,47000.0,-1.430907964706421,4.869394302368164,-7.814958095550537
791,47100.0,-0.8805587291717529,5.536991596221924,-7.518248558044434
792,47200.0,-0.8805587291717529,5.536991596221924,-7.518248558044434
793,47300.0,-0.9571290016174316,8.987441062927246,-4.460221290588379
794,47400.0,-0.9571290016174316,8.987441062927246,-4.460221290588379
795,47500.0,-1.2538390159606934,9.293723106384276,-2.0865414142608643
796,47600.0,-1.2538390159606934,9.293723106384276,-2.0865414142608643
797,47700.0,-1.2538390159606934,9.293723106384276,-2.0865414142608643
798,47800.0,-1.4261221885681152,9.942178726196287,0.33738797903060913
799,47900.0,-1.4261221885681152,9.942178726196287,0.33738797903060913
800,48000.0,-1.4739787578582764,10.097711563110352,1.1126624345779421
801,48100.0,-1.4739787578582764,10.097711563110352,1.1126624345779421
802,48200.0,-1.4739787578582764,10.097711563110352,1.1126624345779421
803,48300.0,-1.3351951837539673,9.736394882202148,1.674975872039795
804,48400.0,-1.3351951837539673,9.736394882202148,1.674975872039795
805,48500.0,-4.790431022644043,7.987241268157959,2.423929214477539
806,48600.0,-4.790431022644043,7.987241268157959,2.423929214477539
807,48700.0,-5.881557941436768,7.568498134613037,2.9527432918548584
808,48800.0,-5.881557941436768,7.568498134613037,2.9527432918548584
809,48900.0,-5.881557941436768,7.568498134613037,2.9527432918548584
810,47500.0,-1.2538390159606934,9.293723106384276,-2.0865414142608643
811,47600.0,-1.2538390159606934,9.293723106384276,-2.0865414142608643
812,47700.0,-1.2538390159606934,9.293723106384276,-2.0865414142608643
813,47800.0,-1.4261221885681152,9.942178726196287,0.33738797903060913
814,47900.0,-1.4261221885681152,9.942178726196287,0.33738797903060913
815,48000.0,-1.4739787578582764,10.097711563110352,1.1126624345779421
816,48100.0,-1.4739787578582764,10.097711563110352,1.1126624345779421
817,48200.0,-1.4739787578582764,10.097711563110352,1.1126624345779421
818,48300.0,-1.3351951837539673,9.736394882202148,1.674975872039795
819,48400.0,-1.3351951837539673,9.736394882202148,1.674975872039795
820,48500.0,-4.790431022644043,7.987241268157959,2.423929214477539
821,48600.0,-4.790431022644043,7.987241268157959,2.423929214477539
822,48700.0,-5.881557941436768,7.568498134613037,2.9527432918548584
823,48800.0,-5.881557941436768,7.568498134613037,2.9527432918548584
824,48900.0,-5.881557941436768,7.568498134613037,2.9527432918548584
825,49000.0,-6.235695838928223,6.479763507843018,3.1274189949035645
826,49100.0,-6.235695838928223,6.479763507843018,3.1274189949035645
827,49200.0,-5.800201892852782,7.149754047393799,3.5557346343994136
828,49300.0,-5.800201892852782,7.149754047393799,3.5557346343994136
829,49400.0,-5.800201892852782,7.149754047393799,3.5557346343994136
830,49500.0,-5.570490837097168,7.178467750549316,4.1347975730896005
831,49600.0,-5.570490837097168,7.178467750549316,4.1347975730896005
832,49700.0,-5.752345561981201,7.788637638092041,5.742774486541747
833,49800.0,-5.752345561981201,7.788637638092041,5.742774486541747
834,49900.0,-5.340780735015869,7.645068168640138,-1.6893328428268433
835,50000.0,-5.340780735015869,7.645068168640138,-1.6893328428268433
836,50100.0,-5.340780735015869,7.645068168640138,-1.6893328428268433
837,50200.0,-4.029513359069823,5.48674201965332,-6.307480335235597
838,50300.0,-4.029513359069823,5.48674201965332,-6.307480335235597
839,50400.0,-0.4450649619102478,9.568897247314453,-5.955735206604004
840,49000.0,-6.235695838928223,6.479763507843018,3.1274189949035645
841,49100.0,-6.235695838928223,6.479763507843018,3.1274189949035645
842,49200.0,-5.800201892852782,7.149754047393799,3.5557346343994136
843,49300.0,-5.800201892852782,7.149754047393799,3.5557346343994136
844,49400.0,-5.800201892852782,7.149754047393799,3.5557346343994136
845,49500.0,-5.570490837097168,7.178467750549316,4.1347975730896005
846,49600.0,-5.570490837097168,7.178467750549316,4.1347975730896005
847,49700.0,-5.752345561981201,7.788637638092041,5.742774486541747
848,49800.0,-5.752345561981201,7.788637638092041,5.742774486541747
849,49900.0,-5.340780735015869,7.645068168640138,-1.6893328428268433
850,50000.0,-5.340780735015869,7.645068168640138,-1.6893328428268433
851,50100.0,-5.340780735015869,7.645068168640138,-1.6893328428268433
852,50200.0,-4.029513359069823,5.48674201965332,-6.307480335235597
853,50300.0,-4.029513359069823,5.48674201965332,-6.307480335235597
854,50400.0,-0.4450649619102478,9.568897247314453,-5.955735206604004
855,50500.0,-0.4450649619102478,9.568897247314453,-5.955735206604004
856,50600.0,-0.4450649619102478,9.568897247314453,-5.955735206604004
857,50700.0,-2.3497519493103027,6.7692952156066895,-5.48674201965332
858,50800.0,-2.3497519493103027,6.7692952156066895,-5.48674201965332
859,50900.0,-1.5744771957397459,6.970292568206787,-7.123432636260986
860,51000.0,-1.5744771957397459,6.970292568206787,-7.123432636260986
861,51100.0,-0.9236294627189636,7.728816509246826,-5.709274768829347
862,51200.0,-0.9236294627189636,7.728816509246826,-5.709274768829347
863,51300.0,-0.9236294627189636,7.728816509246826,-5.709274768829347
864,51400.0,-1.4261221885681152,9.3128662109375,-2.2995026111602783
865,51500.0,-1.4261221885681152,9.3128662109375,-2.2995026111602783
866,51600.0,-1.2346963882446291,10.080962181091307,-0.12921242415905002
867,51700.0,-1.2346963882446291,10.080962181091307,-0.12921242415905002
868,51800.0,-1.2346963882446291,10.080962181091307,-0.12921242415905002
869,51900.0,-0.607776939868927,10.834701538085938,1.4668002128601074
870,50500.0,-0.4450649619102478,9.568897247314453,-5.955735206604004
871,50600.0,-0.4450649619102478,9.568897247314453,-5.955735206604004
872,50700.0,-2.3497519493103027,6.7692952156066895,-5.48674201965332
873,50800.0,-2.3497519493103027,6.7692952156066895,-5.48674201965332
874,50900.0,-1.5744771957397459,6.970292568206787,-7.123432636260986
875,51000.0,-1.5744771957397459,6.970292568206787,-7.123432636260986
876,51100.0,-0.9236294627189636,7.728816509246826,-5.709274768829347
877,51200.0,-0.9236294627189636,7.728816509246826,-5.709274768829347
878,51300.0,-0.9236294627189636,7.728816509246826,-5.709274768829347
879,51400.0,-1.4261221885681152,9.3128662109375,-2.2995026111602783
880,51500.0,-1.4261221885681152,9.3128662109375,-2.2995026111602783
881,51600.0,-1.2346963882446291,10.080962181091307,-0.12921242415905002
882,51700.0,-1.2346963882446291,10.080962181091307,-0.12921242415905002
883,51800.0,-1.2346963882446291,10.080962181091307,-0.12921242415905002
884,51900.0,-0.607776939868927,10.834701538085938,1.4668002128601074
885,52000.0,-0.607776939868927,10.834701538085938,1.4668002128601074
886,52100.0,-1.9956141710281368,8.824729919433594,2.6608188152313232
887,52200.0,-1.9956141710281368,8.824729919433594,2.6608188152313232
888,52300.0,-5.50349235534668,7.9585280418396,0.9810572862625122
889,52400.0,-5.50349235534668,7.9585280418396,0.9810572862625122
890,52500.0,-5.50349235534668,7.9585280418396,0.9810572862625122
891,52600.0,-5.201996326446533,8.374878883361816,1.7850456237792969
892,52700.0,-5.201996326446533,8.374878883361816,1.7850456237792969
893,52800.0,-5.345565319061278,8.080562591552733,2.9383859634399414
894,52900.0,-5.345565319061278,8.080562591552733,2.9383859634399414
895,53000.0,-5.345565319061278,8.080562591552733,2.9383859634399414
896,53100.0,-5.556134223937988,8.327022552490233,3.1082763671875
897,53200.0,-5.556134223937988,8.327022552490233,3.1082763671875
898,53300.0,-5.891129493713379,7.3675007820129395,2.364108800888061
899,53400.0,-5.891129493713379,7.3675007820129395,2.364108800888061
900,52000.0,-0.607776939868927,10.834701538085938,1.4668002128601074
901,52100.0,-1.9956141710281368,8.824729919433594,2.6608188152313232
902,52200.0,-1.9956141710281368,8.824729919433594,2.6608188152313232
903,52300.0,-5.50349235534668,7.9585280418396,0.9810572862625122
904,52400.0,-5.50349235534668,7.9585280418396,0.9810572862625122
905,52500.0,-5.50349235534668,7.9585280418396,0.9810572862625122
906,52600.0,-5.201996326446533,8.374878883361816,1.7850456237792969
907,52700.0,-5.201996326446533,8.374878883361816,1.7850456237792969
908,52800.0,-5.345565319061278,8.080562591552733,2.9383859634399414
909,52900.0,-5.345565319061278,8.080562591552733,2.9383859634399414
910,53000.0,-5.345565319061278,8.080562591552733,2.9383859634399414
911,53100.0,-5.556134223937988,8.327022552490233,3.1082763671875
912,53200.0,-5.556134223937988,8.327022552490233,3.1082763671875
913,53300.0,-5.891129493713379,7.3675007820129395,2.364108800888061
914,53400.0,-5.891129493713379,7.3675007820129395,2.364108800888061
915,53500.0,-6.159125804901122,7.331608772277832,2.3617160320281982
916,53600.0,-6.159125804901122,7.331608772277832,2.3617160320281982
917,53700.0,-6.159125804901122,7.331608772277832,2.3617160320281982
918,53800.0,-6.20219612121582,7.604390144348144,2.407179594039917
919,53900.0,-6.20219612121582,7.604390144348144,2.407179594039917
920,54000.0,-6.647261142730713,6.920042991638184,2.5459630489349365
921,54100.0,-6.647261142730713,6.920042991638184,2.5459630489349365
922,54200.0,-6.647261142730713,6.920042991638184,2.5459630489349365
923,54300.0,-5.876771926879883,6.802794933319093,2.553141593933105
924,54400.0,-5.876771926879883,6.802794933319093,2.553141593933105
925,54500.0,-5.307280540466309,7.494320392608643,3.2757742404937744
926,54600.0,-5.307280540466309,7.494320392608643,3.2757742404937744
927,54700.0,-5.3551368713378915,7.733603000640869,4.474578380584717
928,54800.0,-5.3551368713378915,7.733603000640869,4.474578380584717
929,54900.0,-5.3551368713378915,7.733603000640869,4.474578380584717
930,53500.0,-6.159125804901122,7.331608772277832,2.3617160320281982
931,53600.0,-6.159125804901122,7.331608772277832,2.3617160320281982
932,53700.0,-6.159125804901122,7.331608772277832,2.3617160320281982
933,53800.0,-6.20219612121582,7.604390144348144,2.407179594039917
934,53900.0,-6.20219612121582,7.604390144348144,2.407179594039917
935,54000.0,-6.647261142730713,6.920042991638184,2.5459630489349365
936,54100.0,-6.647261142730713,6.920042991638184,2.5459630489349365
937,54200.0,-6.647261142730713,6.920042991638184,2.5459630489349365
938,54300.0,-5.876771926879883,6.802794933319093,2.553141593933105
939,54400.0,-5.876771926879883,6.802794933319093,2.553141593933105
940,54500.0,-5.307280540466309,7.494320392608643,3.2757742404937744
941,54600.0,-5.307280540466309,7.494320392608643,3.2757742404937744
942,54700.0,-5.3551368713378915,7.733603000640869,4.474578380584717
943,54800.0,-5.3551368713378915,7.733603000640869,4.474578380584717
944,54900.0,-5.3551368713378915,7.733603000640869,4.474578380584717
945,55000.0,-6.474977493286133,6.065804958343506,-2.4191436767578125
946,55100.0,-6.474977493286133,6.065804958343506,-2.4191436767578125
947,55200.0,-6.417550563812256,6.553941249847412,-3.462414264678955
948,55300.0,-6.417550563812256,6.553941249847412,-3.462414264678955
949,55400.0,-6.417550563812256,6.553941249847412,-3.462414264678955
950,55500.0,-7.073184013366699,5.2905311584472665,-3.919443368911743
951,55600.0,-7.073184013366699,5.2905311584472665,-3.919443368911743
952,55700.0,-6.7142601013183585,4.914857387542725,-4.625326156616211
953,55800.0,-6.7142601013183585,4.914857387542725,-4.625326156616211
954,55900.0,-6.130411148071289,3.8548374176025386,-5.467599868774414
955,56000.0,-6.130411148071289,3.8548374176025386,-5.467599868774414
956,56100.0,-6.130411148071289,3.8548374176025386,-5.467599868774414
957,56200.0,-4.929214477539063,7.381857395172119,-2.651247262954712
958,56300.0,-4.929214477539063,7.381857395172119,-2.651247262954712
959,56400.0,-4.029513359069823,10.37527847290039,0.16749757528305054
960,55000.0,-6.474977493286133,6.065804958343506,-2.4191436767578125
961,55100.0,-6.474977493286133,6.065804958343506,-2.4191436767578125
962,55200.0,-6.417550563812256,6.553941249847412,-3.462414264678955
963,55300.0,-6.417550563812256,6.553941249847412,-3.462414264678955
964,55400.0,-6.417550563812256,6.553941249847412,-3.462414264678955
965,55500.0,-7.073184013366699,5.2905311584472665,-3.919443368911743
966,55600.0,-7.073184013366699,5.2905311584472665,-3.919443368911743
967,55700.0,-6.7142601013183585,4.914857387542725,-4.625326156616211
968,55800.0,-6.7142601013183585,4.914857387542725,-4.625326156616211
969,55900.0,-6.130411148071289,3.8548374176025386,-5.467599868774414
970,56000.0,-6.130411148071289,3.8548374176025386,-5.467599868774414
971,56100.0,-6.130411148071289,3.8548374176025386,-5.467599868774414
972,56200.0,-4.929214477539063,7.381857395172119,-2.651247262954712
973,56300.0,-4.929214477539063,7.381857395172119,-2.651247262954712
974,56400.0,-4.029513359069823,10.37527847290039,0.16749757528305054
975,56500.0,-4.029513359069823,10.37527847290039,0.16749757528305054
976,56600.0,-4.029513359069823,10.37527847290039,0.16749757528305054
977,56700.0,-5.106283187866211,9.432506561279297,-0.6317051649093628
978,56800.0,-5.106283187866211,9.432506561279297,-0.6317051649093628
979,56900.0,-3.689732551574707,7.2478599548339835,-4.034298896789552
980,57000.0,-3.689732551574707,7.2478599548339835,-4.034298896789552
981,57100.0,-4.876572608947754,9.456435203552246,0.7034898400306702
982,57200.0,-4.876572608947754,9.456435203552246,0.7034898400306702
983,57300.0,-4.876572608947754,9.456435203552246,0.7034898400306702
984,57400.0,-4.804787635803223,9.14297580718994,2.383251428604126
985,57500.0,-4.804787635803223,9.14297580718994,2.383251428604126
986,57600.0,-5.50349235534668,7.920242786407472,2.1056838035583496
987,57700.0,-5.50349235534668,7.920242786407472,2.1056838035583496
988,57800.0,-5.742774486541747,6.281159400939941,2.543570280075073
989,57900.0,-5.742774486541747,6.281159400939941,2.543570280075073
990,56500.0,-4.029513359069823,10.37527847290039,0.16749757528305054
991,56600.0,-4.029513359069823,10.37527847290039,0.16749757528305054
992,56700.0,-5.106283187866211,9.432506561279297,-0.6317051649093628
993,56800.0,-5.106283187866211,9.432506561279297,-0.6317051649093628
994,56900.0,-3.689732551574707,7.2478599548339835,-4.034298896789552
995,57000.0,-3.689732551574707,7.2478599548339835,-4.034298896789552
996,57100.0,-4.876572608947754,9.456435203552246,0.7034898400306702
997,57200.0,-4.876572608947754,9.456435203552246,0.7034898400306702
998,57300.0,-4.876572608947754,9.456435203552246,0.7034898400306702
999,57400.0,-4.804787635803223,9.14297580718994,2.383251428604126
1000,57500.0,-4.804787635803223,9.14297580718994,2.383251428604126
1001,57600.0,-5.50349235534668,7.920242786407472,2.1056838035583496
1002,57700.0,-5.50349235534668,7.920242786407472,2.1056838035583496
1003,57800.0,-5.742774486541747,6.281159400939941,2.543570280075073
1004,57900.0,-5.742774486541747,6.281159400939941,2.543570280075073
1005,58000.0,-5.0871405601501465,8.520841598510742,3.4743783473968506
1006,58100.0,-5.0871405601501465,8.520841598510742,3.4743783473968506
1007,58200.0,-4.694717884063722,7.621140003204347,4.479363918304443
1008,58300.0,-4.694717884063722,7.621140003204347,4.479363918304443
1009,58400.0,-4.694717884063722,7.621140003204347,4.479363918304443
1010,58500.0,-5.206782341003418,8.441878318786621,2.1391832828521733
1011,58600.0,-5.206782341003418,8.441878318786621,2.1391832828521733
1012,58700.0,-5.828916072845459,7.944170951843263,0.2321037948131561
1013,58800.0,-5.828916072845459,7.944170951843263,0.2321037948131561
1014,58900.0,-5.828916072845459,7.944170951843263,0.2321037948131561
1015,59000.0,-5.422136306762695,7.999206066131593,-2.021935224533081
1016,59100.0,-5.422136306762695,7.999206066131593,-2.021935224533081
1017,59200.0,-5.862415313720702,7.570890426635742,-2.5196423530578613
1018,59300.0,-5.862415313720702,7.570890426635742,-2.5196423530578613
1019,59400.0,-5.053641319274902,6.204589366912843,-5.958127975463867
1020,58000.0,-5.0871405601501465,8.520841598510742,3.4743783473968506
1021,58100.0,-5.0871405601501465,8.520841598510742,3.4743783473968506
1022,58200.0,-4.694717884063722,7.621140003204347,4.479363918304443
1023,58300.0,-4.694717884063722,7.621140003204347,4.479363918304443
1024,58400.0,-4.694717884063722,7.621140003204347,4.479363918304443
1025,58500.0,-5.206782341003418,8.441878318786621,2.1391832828521733
1026,58600.0,-5.206782341003418,8.441878318786621,2.1391832828521733
1027,58700.0,-5.828916072845459,7.944170951843263,0.2321037948131561
1028,58800.0,-5.828916072845459,7.944170951843263,0.2321037948131561
1029,58900.0,-5.828916072845459,7.944170951843263,0.2321037948131561
1030,59000.0,-5.422136306762695,7.999206066131593,-2.021935224533081
1031,59100.0,-5.422136306762695,7.999206066131593,-2.021935224533081
1032,59200.0,-5.862415313720702,7.570890426635742,-2.5196423530578613
1033,59300.0,-5.862415313720702,7.570890426635742,-2.5196423530578613
1034,59400.0,-5.053641319274902,6.204589366912843,-5.958127975463867
1035,59500.0,-5.053641319274902,6.204589366912843,-5.958127975463867
1036,59600.0,-1.6319050788879397,5.711667537689209,-7.975277900695801
1037,59700.0,-1.6319050788879397,5.711667537689209,-7.975277900695801
1038,59800.0,-1.6319050788879397,5.711667537689209,-7.975277900695801
1039,59900.0,-1.9669002294540403,5.170889854431152,-7.688138484954834
1040,60000.0,-1.9669002294540403,5.170889854431152,-7.688138484954834
1041,60100.0,-1.6845470666885376,4.912464618682861,-8.082954406738281
1042,60200.0,-1.6845470666885376,4.912464618682861,-8.082954406738281
1043,60300.0,-1.6845470666885376,4.912464618682861,-8.082954406738281
1044,60400.0,-1.430907964706421,5.92223596572876,-7.690531730651855
1045,60500.0,-1.430907964706421,5.92223596572876,-7.690531730651855
1046,60600.0,-1.5744771957397459,8.329416275024414,-5.156532764434815
1047,60700.0,-1.5744771957397459,8.329416275024414,-5.156532764434815
1048,60800.0,-1.5744771957397459,8.329416275024414,-5.156532764434815
1049,60900.0,-2.0769701004028316,8.762516975402832,-3.177668571472168
1050,59500.0,-5.053641319274902,6.204589366912843,-5.958127975463867
1051,59600.0,-1.6319050788879397,5.711667537689209,-7.975277900695801
1052,59700.0,-1.6319050788879397,5.711667537689209,-7.975277900695801
1053,59800.0,-1.6319050788879397,5.711667537689209,-7.975277900695801
1054,59900.0,-1.9669002294540403,5.170889854431152,-7.688138484954834
1055,60000.0,-1.9669002294540403,5.170889854431152,-7.688138484954834
1056,60100.0,-1.6845470666885376,4.912464618682861,-8.082954406738281
1057,60200.0,-1.6845470666885376,4.912464618682861,-8.082954406738281
1058,60300.0,-1.6845470666885376,4.912464618682861,-8.082954406738281
1059,60400.0,-1.430907964706421,5.92223596572876,-7.690531730651855
1060,60500.0,-1.430907964706421,5.92223596572876,-7.690531730651855
1061,60600.0,-1.5744771957397459,8.329416275024414,-5.156532764434815
1062,60700.0,-1.5744771957397459,8.329416275024414,-5.156532764434815
1063,60800.0,-1.5744771957397459,8.329416275024414,-5.156532764434815
1064,60900.0,-2.0769701004028316,8.762516975402832,-3.177668571472168
1065,61000.0,-2.0769701004028316,8.762516975402832,-3.177668571472168
1066,61100.0,-1.6654045581817627,9.26740264892578,-2.3162522315979004
1067,61200.0,-1.6654045581817627,9.26740264892578,-2.3162522315979004
1068,61300.0,-2.2013967037200928,7.891529560089111,-5.620740413665772
1069,61400.0,-2.2013967037200928,7.891529560089111,-5.620740413665772
1070,61500.0,-2.2013967037200928,7.891529560089111,-5.620740413665772
1071,61600.0,-0.4354937374591827,8.099704742431639,-4.902893543243408
1072,61700.0,-0.4354937374591827,8.099704742431639,-4.902893543243408
1073,61800.0,-1.6175479888916016,9.817750930786133,-0.11246266961097716
1074,61900.0,-1.6175479888916016,9.817750930786133,-0.11246266961097716
1075,62000.0,-1.6175479888916016,9.817750930786133,-0.11246266961097716
1076,62100.0,-1.65583336353302,9.860822677612305,1.0049854516983032
1077,62200.0,-1.65583336353302,9.860822677612305,1.0049854516983032
1078,62300.0,-1.2634103298187256,9.037691116333008,-3.842873096466065
1079,62400.0,-1.2634103298187256,9.037691116333008,-3.842873096466065
1080,61000.0,-2.0769701004028316,8.762516975402832,-3.177668571472168
1081,61100.0,-1.6654045581817627,9.26740264892578,-2.3162522315979004
1082,61200.0,-1.6654045581817627,9.26740264892578,-2.3162522315979004
1083,61300.0,-2.2013967037200928,7.891529560089111,-5.620740413665772
1084,61400.0,-2.2013967037200928,7.891529560089111,-5.620740413665772
1085,61500.0,-2.2013967037200928,7.891529560089111,-5.620740413665772
1086,61600.0,-0.4354937374591827,8.099704742431639,-4.902893543243408
1087,61700.0,-0.4354937374591827,8.099704742431639,-4.902893543243408
1088,61800.0,-1.6175479888916016,9.817750930786133,-0.11246266961097716
1089,61900.0,-1.6175479888916016,9.817750930786133,-0.11246266961097716
1090,62000.0,-1.6175479888916016,9.817750930786133,-0.11246266961097716
1091,62100.0,-1.65583336353302,9.860822677612305,1.0049854516983032
1092,62200.0,-1.65583336353302,9.860822677612305,1.0049854516983032
1093,62300.0,-1.2634103298187256,9.037691116333008,-3.842873096466065
1094,62400.0,-1.2634103298187256,9.037691116333008,-3.842873096466065
1095,62500.0,-2.7804601192474365,5.063212871551514,-6.817151546478272
1096,62600.0,-2.7804601192474365,5.063212871551514,-6.817151546478272
1097,62700.0,-2.7804601192474365,5.063212871551514,-6.817151546478272
1098,62800.0,-2.421536445617676,5.508277893066406,-6.9583282470703125
1099,62900.0,-2.421536445617676,5.508277893066406,-6.9583282470703125
1100,63000.0,-2.746960401535034,7.015756130218506,-6.443871021270753
1101,63100.0,-2.746960401535034,7.015756130218506,-6.443871021270753
1102,63200.0,-2.311466693878174,6.15673303604126,-6.879364967346191
1103,63300.0,-2.311466693878174,6.15673303604126,-6.879364967346191
1104,63400.0,-2.311466693878174,6.15673303604126,-6.879364967346191
1105,63500.0,-1.368694543838501,6.448657035827638,-7.99681282043457
1106,63600.0,-1.368694543838501,6.448657035827638,-7.99681282043457
1107,63700.0,-0.9906285405158995,6.2500529289245605,-7.326822757720947
1108,63800.0,-0.9906285405158995,6.2500529289245605,-7.326822757720947
1109,63900.0,-0.9906285405158995,6.2500529289245605,-7.326822757720947
1110,62500.0,-2.7804601192474365,5.063212871551514,-6.817151546478272
1111,62600.0,-2.7804601192474365,5.063212871551514,-6.817151546478272
1112,62700.0,-2.7804601192474365,5.063212871551514,-6.817151546478272
1113,62800.0,-2.421536445617676,5.508277893066406,-6.9583282470703125
1114,62900.0,-2.421536445617676,5.508277893066406,-6.9583282470703125
1115,63000.0,-2.746960401535034,7.015756130218506,-6.443871021270753
1116,63100.0,-2.746960401535034,7.015756130218506,-6.443871021270753
1117,63200.0,-2.311466693878174,6.15673303604126,-6.879364967346191
1118,63300.0,-2.311466693878174,6.15673303604126,-6.879364967346191
1119,63400.0,-2.311466693878174,6.15673303604126,-6.879364967346191
1120,63500.0,-1.368694543838501,6.448657035827638,-7.99681282043457
1121,63600.0,-1.368694543838501,6.448657035827638,-7.99681282043457
1122,63700.0,-0.9906285405158995,6.2500529289245605,-7.326822757720947
1123,63800.0,-0.9906285405158995,6.2500529289245605,-7.326822757720947
1124,63900.0,-0.9906285405158995,6.2500529289245605,-7.326822757720947
1125,64000.0,-0.6843472719192505,9.798608779907227,-3.0987055301666264
1126,64100.0,-0.6843472719192505,9.798608779907227,-3.0987055301666264
1127,64200.0,-1.3639088869094849,9.686145782470703,-0.11006984114646913
1128,64300.0,-1.3639088869094849,9.686145782470703,-0.11006984114646913
1129,64400.0,-1.0001999139785769,9.927821159362793,0.5096712112426758
1130,64500.0,-1.0001999139785769,9.927821159362793,0.5096712112426758
1131,64600.0,-1.0001999139785769,9.927821159362793,0.5096712112426758
1132,64700.0,-1.1724830865859983,9.511469841003418,1.2299107313156128
1133,64800.0,-1.1724830865859983,9.511469841003418,1.2299107313156128
1134,64900.0,-1.5649060010910034,9.568897247314453,2.0171494483947754
1135,65000.0,-1.5649060010910034,9.568897247314453,2.0171494483947754
1136,65100.0,-1.2825528383255005,9.765109062194824,3.3786656856536865
1137,65200.0,-1.2825528383255005,9.765109062194824,3.3786656856536865
1138,65300.0,-1.2825528383255005,9.765109062194824,3.3786656856536865
1139,65400.0,-1.9812570810317995,11.3778715133667,-0.3445664942264557
1140,64000.0,-0.6843472719192505,9.798608779907227,-3.0987055301666264
1141,64100.0,-0.6843472719192505,9.798608779907227,-3.0987055301666264
1142,64200.0,-1.3639088869094849,9.686145782470703,-0.11006984114646913
1143,64300.0,-1.3639088869094849,9.686145782470703,-0.11006984114646913
1144,64400.0,-1.0001999139785769,9.927821159362793,0.5096712112426758
1145,64500.0,-1.0001999139785769,9.927821159362793,0.5096712112426758
1146,64600.0,-1.0001999139785769,9.927821159362793,0.5096712112426758
1147,64700.0,-1.1724830865859983,9.511469841003418,1.2299107313156128
1148,64800.0,-1.1724830865859983,9.511469841003418,1.2299107313156128
1149,64900.0,-1.5649060010910034,9.568897247314453,2.0171494483947754
1150,65000.0,-1.5649060010910034,9.568897247314453,2.0171494483947754
1151,65100.0,-1.2825528383255005,9.765109062194824,3.3786656856536865
1152,65200.0,-1.2825528383255005,9.765109062194824,3.3786656856536865
1153,65300.0,-1.2825528383255005,9.765109062194824,3.3786656856536865
1154,65400.0,-1.9812570810317995,11.3778715133667,-0.3445664942264557
1155,65500.0,-1.9812570810317995,11.3778715133667,-0.3445664942264557
1156,65600.0,-5.331209182739258,7.668996810913086,1.4859429597854614
1157,65700.0,-5.331209182739258,7.668996810913086,1.4859429597854614
1158,65800.0,-5.331209182739258,7.668996810913086,1.4859429597854614
1159,65900.0,-3.268595933914185,9.12383270263672,3.9720854759216313
1160,66000.0,-3.268595933914185,9.12383270263672,3.9720854759216313
1161,66100.0,-2.7421746253967285,8.154739379882812,3.268595933914185
1162,66200.0,-2.7421746253967285,8.154739379882812,3.268595933914185
1163,66300.0,-4.048655986785889,8.597411155700684,3.25663161277771
1164,66400.0,-4.048655986785889,8.597411155700684,3.25663161277771
1165,66500.0,-4.412364959716797,8.13798999786377,3.168097257614136
1166,66600.0,-4.412364959716797,8.13798999786377,3.168097257614136
1167,66700.0,-4.847858428955078,8.12123966217041,3.1537401676177983
1168,66800.0,-4.847858428955078,8.12123966217041,3.1537401676177983
1169,66900.0,-4.847858428955078,8.12123966217041,3.1537401676177983
1170,65500.0,-1.9812570810317995,11.3778715133667,-0.3445664942264557
1171,65600.0,-5.331209182739258,7.668996810913086,1.4859429597854614
1172,65700.0,-5.331209182739258,7.668996810913086,1.4859429597854614
1173,65800.0,-5.331209182739258,7.668996810913086,1.4859429597854614
1174,65900.0,-3.268595933914185,9.12383270263672,3.9720854759216313
1175,66000.0,-3.268595933914185,9.12383270263672,3.9720854759216313
1176,66100.0,-2.7421746253967285,8.154739379882812,3.268595933914185
1177,66200.0,-2.7421746253967285,8.154739379882812,3.268595933914185
1178,66300.0,-4.048655986785889,8.597411155700684,3.25663161277771
1179,66400.0,-4.048655986785889,8.597411155700684,3.25663161277771
1180,66500.0,-4.412364959716797,8.13798999786377,3.168097257614136
1181,66600.0,-4.412364959716797,8.13798999786377,3.168097257614136
1182,66700.0,-4.847858428955078,8.12123966217041,3.1537401676177983
1183,66800.0,-4.847858428955078,8.12123966217041,3.1537401676177983
1184,66900.0,-4.847858428955078,8.12123966217041,3.1537401676177983
1185,67000.0,-5.905486583709718,7.432106971740723,2.3497519493103027
1186,67100.0,-5.905486583709718,7.432106971740723,2.3497519493103027
1187,67200.0,-6.02512788772583,7.29810905456543,1.2753744125366209
1188,67300.0,-6.02512788772583,7.29810905456543,1.2753744125366209
1189,67400.0,-6.02512788772583,7.29810905456543,1.2753744125366209
1190,67500.0,-6.427121639251709,7.623533248901367,1.7922240495681765
1191,67600.0,-6.427121639251709,7.623533248901367,1.7922240495681765
1192,67700.0,-6.379265785217285,7.786244869232178,1.835294842720032
1193,67800.0,-6.379265785217285,7.786244869232178,1.835294842720032
1194,67900.0,-6.345765590667725,6.948756694793701,1.4691929817199707
1195,68000.0,-6.345765590667725,6.948756694793701,1.4691929817199707
1196,68100.0,-6.345765590667725,6.948756694793701,1.4691929817199707
1197,68200.0,-6.900900363922119,7.219145774841309,1.832902193069458
1198,68300.0,-6.900900363922119,7.219145774841309,1.832902193069458
1199,68400.0,-6.7860450744628915,6.419942855834961,1.5768700838088991
1200,67000.0,-5.905486583709718,7.432106971740723,2.3497519493103027
1201,67100.0,-5.905486583709718,7.432106971740723,2.3497519493103027
1202,67200.0,-6.02512788772583,7.29810905456543,1.2753744125366209
1203,67300.0,-6.02512788772583,7.29810905456543,1.2753744125366209
1204,67400.0,-6.02512788772583,7.29810905456543,1.2753744125366209
1205,67500.0,-6.427121639251709,7.623533248901367,1.7922240495681765
1206,67600.0,-6.427121639251709,7.623533248901367,1.7922240495681765
1207,67700.0,-6.379265785217285,7.786244869232178,1.835294842720032
1208,67800.0,-6.379265785217285,7.786244869232178,1.835294842720032
1209,67900.0,-6.345765590667725,6.948756694793701,1.4691929817199707
1210,68000.0,-6.345765590667725,6.948756694793701,1.4691929817199707
1211,68100.0,-6.345765590667725,6.948756694793701,1.4691929817199707
1212,68200.0,-6.900900363922119,7.219145774841309,1.832902193069458
1213,68300.0,-6.900900363922119,7.219145774841309,1.832902193069458
1214,68400.0,-6.7860450744628915,6.419942855834961,1.5768700838088991
1215,68500.0,-6.7860450744628915,6.419942855834961,1.5768700838088991
1216,68600.0,-6.7860450744628915,6.419942855834961,1.5768700838088991
1217,68700.0,-6.005984783172607,7.781459331512451,3.2279179096221924
1218,68800.0,-6.005984783172607,7.781459331512451,3.2279179096221924
1219,68900.0,-5.063212871551514,8.346165657043457,3.6394832134246826
1220,69000.0,-5.063212871551514,8.346165657043457,3.6394832134246826
1221,69100.0,-6.805188179016112,7.307680606842041,2.033899307250977
1222,69200.0,-6.805188179016112,7.307680606842041,2.033899307250977
1223,69300.0,-6.7860450744628915,5.917449951171875,-3.0221347808837886
1224,69400.0,-6.7860450744628915,5.917449951171875,-3.0221347808837886
1225,69500.0,-6.666403770446777,5.984449863433838,-4.1730828285217285
1226,69600.0,-6.666403770446777,5.984449863433838,-4.1730828285217285
1227,69700.0,-6.666403770446777,5.984449863433838,-4.1730828285217285
1228,69800.0,-7.456035614013673,6.118447780609131,-3.76151704788208
1229,69900.0,-7.456035614013673,6.118447780609131,-3.76151704788208
1230,68500.0,-6.7860450744628915,6.419942855834961,1.5768700838088991
1231,68600.0,-6.7860450744628915,6.419942855834961,1.5768700838088991
1232,68700.0,-6.005984783172607,7.781459331512451,3.2279179096221924
1233,68800.0,-6.005984783172607,7.781459331512451,3.2279179096221924
1234,68900.0,-5.063212871551514,8.346165657043457,3.6394832134246826
1235,69000.0,-5.063212871551514,8.346165657043457,3.6394832134246826
1236,69100.0,-6.805188179016112,7.307680606842041,2.033899307250977
1237,69200.0,-6.805188179016112,7.307680606842041,2.033899307250977
1238,69300.0,-6.7860450744628915,5.917449951171875,-3.0221347808837886
1239,69400.0,-6.7860450744628915,5.917449951171875,-3.0221347808837886
1240,69500.0,-6.666403770446777,5.984449863433838,-4.1730828285217285
1241,69600.0,-6.666403770446777,5.984449863433838,-4.1730828285217285
1242,69700.0,-6.666403770446777,5.984449863433838,-4.1730828285217285
1243,69800.0,-7.456035614013673,6.118447780609131,-3.76151704788208
1244,69900.0,-7.456035614013673,6.118447780609131,-3.76151704788208
1245,70000.0,-5.891129493713379,7.5326056480407715,-4.027120590209962
1246,70100.0,-5.891129493713379,7.5326056480407715,-4.027120590209962
1247,70200.0,-5.891129493713379,7.5326056480407715,-4.027120590209962
1248,70300.0,-5.082355499267578,7.211967468261719,-3.395415067672729
1249,70400.0,-5.082355499267578,7.211967468261719,-3.395415067672729
1250,70500.0,-5.1732821464538565,9.468399047851562,0.5264209508895874
1251,70600.0,-5.1732821464538565,9.468399047851562,0.5264209508895874
1252,70700.0,-5.14456844329834,8.872586250305176,1.7874385118484497
1253,70800.0,-5.14456844329834,8.872586250305176,1.7874385118484497
1254,70900.0,-5.14456844329834,8.872586250305176,1.7874385118484497
1255,71000.0,-5.570490837097168,8.047062873840332,2.53399920463562
1256,71100.0,-5.570490837097168,8.047062873840332,2.53399920463562
1257,71200.0,-5.718846321105957,7.326822757720947,3.1202406883239746
1258,71300.0,-5.718846321105957,7.326822757720947,3.1202406883239746
1259,71400.0,-5.718846321105957,7.326822757720947,3.1202406883239746
1260,70000.0,-5.891129493713379,7.5326056480407715,-4.027120590209962
1261,70100.0,-5.891129493713379,7.5326056480407715,-4.027120590209962
1262,70200.0,-5.891129493713379,7.5326056480407715,-4.027120590209962
1263,70300.0,-5.082355499267578,7.211967468261719,-3.395415067672729
1264,70400.0,-5.082355499267578,7.211967468261719,-3.395415067672729
1265,70500.0,-5.1732821464538565,9.468399047851562,0.5264209508895874
1266,70600.0,-5.1732821464538565,9.468399047851562,0.5264209508895874
1267,70700.0,-5.14456844329834,8.872586250305176,1.7874385118484497
1268,70800.0,-5.14456844329834,8.872586250305176,1.7874385118484497
1269,70900.0,-5.14456844329834,8.872586250305176,1.7874385118484497
1270,71000.0,-5.570490837097168,8.047062873840332,2.53399920463562
1271,71100.0,-5.570490837097168,8.047062873840332,2.53399920463562
1272,71200.0,-5.718846321105957,7.326822757720947,3.1202406883239746
1273,71300.0,-5.718846321105957,7.326822757720947,3.1202406883239746
1274,71400.0,-5.718846321105957,7.326822757720947,3.1202406883239746
1275,71500.0,-5.757131576538086,6.604190349578857,3.615554809570313
1276,71600.0,-5.757131576538086,6.604190349578857,3.615554809570313
1277,71700.0,-4.9387855529785165,8.051848411560059,2.273181438446045
1278,71800.0,-4.9387855529785165,8.051848411560059,2.273181438446045
1279,71900.0,-5.297709465026856,8.647661209106445,4.555934429168701
1280,72000.0,-5.297709465026856,8.647661209106445,4.555934429168701
1281,72100.0,-5.240281581878662,7.645068168640138,1.940579175949097
1282,72200.0,-5.240281581878662,7.645068168640138,1.940579175949097
1283,72300.0,-5.240281581878662,7.645068168640138,1.940579175949097
1284,72400.0,-5.958127975463867,8.073383331298826,0.7920243144035339
1285,72500.0,-5.958127975463867,8.073383331298826,0.7920243144035339
1286,72600.0,-6.599405288696289,7.465606689453125,-1.043270707130432
1287,72700.0,-6.599405288696289,7.465606689453125,-1.043270707130432
1288,72800.0,-6.599405288696289,7.465606689453125,-1.043270707130432
1289,72900.0,-6.1878395080566415,7.324430465698242,-2.7038896083831787
1290,71500.0,-5.757131576538086,6.604190349578857,3.615554809570313
1291,71600.0,-5.757131576538086,6.604190349578857,3.615554809570313
1292,71700.0,-4.9387855529785165,8.051848411560059,2.273181438446045
1293,71800.0,-4.9387855529785165,8.051848411560059,2.273181438446045
1294,71900.0,-5.297709465026856,8.647661209106445,4.555934429168701
1295,72000.0,-5.297709465026856,8.647661209106445,4.555934429168701
1296,72100.0,-5.240281581878662,7.645068168640138,1.940579175949097
1297,72200.0,-5.240281581878662,7.645068168640138,1.940579175949097
1298,72300.0,-5.240281581878662,7.645068168640138,1.940579175949097
1299,72400.0,-5.958127975463867,8.073383331298826,0.7920243144035339
1300,72500.0,-5.958127975463867,8.073383331298826,0.7920243144035339
1301,72600.0,-6.599405288696289,7.465606689453125,-1.043270707130432
1302,72700.0,-6.599405288696289,7.465606689453125,-1.043270707130432
1303,72800.0,-6.599405288696289,7.465606689453125,-1.043270707130432
1304,72900.0,-6.1878395080566415,7.324430465698242,-2.7038896083831787
1305,73000.0,-6.1878395080566415,7.324430465698242,-2.7038896083831787
1306,73100.0,-6.27876615524292,7.554140567779541,-2.6057839393615723
1307,73200.0,-6.27876615524292,7.554140567779541,-2.6057839393615723
1308,73300.0,-4.924428939819336,7.34357213973999,-5.532205581665039
1309,73400.0,-4.924428939819336,7.34357213973999,-5.532205581665039
1310,73500.0,-4.924428939819336,7.34357213973999,-5.532205581665039
1311,73600.0,-6.8099732398986825,5.8265228271484375,-2.1846470832824707
1312,73700.0,-6.8099732398986825,5.8265228271484375,-2.1846470832824707
1313,73800.0,-6.245267391204834,6.331408977508545,-6.305087566375732
1314,73900.0,-6.245267391204834,6.331408977508545,-6.305087566375732
1315,74000.0,-6.245267391204834,6.331408977508545,-6.305087566375732
1316,74100.0,-6.096912384033202,4.1515469551086435,-5.850451469421388
1317,74200.0,-6.096912384033202,4.1515469551086435,-5.850451469421388
1318,74300.0,-5.254639148712158,7.319644451141357,-3.708875179290772
1319,74400.0,-5.254639148712158,7.319644451141357,-3.708875179290772
1320,73000.0,-6.1878395080566415,7.324430465698242,-2.7038896083831787
1321,73100.0,-6.27876615524292,7.554140567779541,-2.6057839393615723
1322,73200.0,-6.27876615524292,7.554140567779541,-2.6057839393615723
1323,73300.0,-4.924428939819336,7.34357213973999,-5.532205581665039
1324,73400.0,-4.924428939819336,7.34357213973999,-5.532205581665039
1325,73500.0,-4.924428939819336,7.34357213973999,-5.532205581665039
1326,73600.0,-6.8099732398986825,5.8265228271484375,-2.1846470832824707
1327,73700.0,-6.8099732398986825,5.8265228271484375,-2.1846470832824707
1328,73800.0,-6.245267391204834,6.331408977508545,-6.305087566375732
1329,73900.0,-6.245267391204834,6.331408977508545,-6.305087566375732
1330,74000.0,-6.245267391204834,6.331408977508545,-6.305087566375732
1331,74100.0,-6.096912384033202,4.1515469551086435,-5.850451469421388
1332,74200.0,-6.096912384033202,4.1515469551086435,-5.850451469421388
1333,74300.0,-5.254639148712158,7.319644451141357,-3.708875179290772
1334,74400.0,-5.254639148712158,7.319644451141357,-3.708875179290772
1335,74500.0,-5.005784511566162,9.760323524475098,2.0003998279571533
1336,74600.0,-5.005784511566162,9.760323524475098,2.0003998279571533
1337,74700.0,-5.005784511566162,9.760323524475098,2.0003998279571533
1338,74800.0,-5.31685209274292,7.563712120056152,2.7349963188171387
1339,74900.0,-5.31685209274292,7.563712120056152,2.7349963188171387
1340,75000.0,-5.580062389373778,6.656832218170166,2.569891452789306
1341,75100.0,-5.580062389373778,6.656832218170166,2.569891452789306
1342,75200.0,-5.580062389373778,6.656832218170166,2.569891452789306
1343,75300.0,-5.4077792167663565,7.216752529144287,3.94097900390625
1344,75400.0,-5.4077792167663565,7.216752529144287,3.94097900390625
1345,75500.0,-5.015356063842773,8.382057189941406,4.78803825378418
1346,75600.0,-5.015356063842773,8.382057189941406,4.78803825378418
1347,75700.0,-5.599205493927002,7.767102241516112,2.4191436767578125
1348,75800.0,-5.599205493927002,7.767102241516112,2.4191436767578125
1349,75900.0,-5.599205493927002,7.767102241516112,2.4191436767578125
1350,74500.0,-5.005784511566162,9.760323524475098,2.0003998279571533
1351,74600.0,-5.005784511566162,9.760323524475098,2.0003998279571533
1352,74700.0,-5.005784511566162,9.760323524475098,2.0003998279571533
1353,74800.0,-5.31685209274292,7.563712120056152,2.7349963188171387
1354,74900.0,-5.31685209274292,7.563712120056152,2.7349963188171387
1355,75000.0,-5.580062389373778,6.656832218170166,2.569891452789306
1356,75100.0,-5.580062389373778,6.656832218170166,2.569891452789306
1357,75200.0,-5.580062389373778,6.656832218170166,2.569891452789306
1358,75300.0,-5.4077792167663565,7.216752529144287,3.94097900390625
1359,75400.0,-5.4077792167663565,7.216752529144287,3.94097900390625
1360,75500.0,-5.015356063842773,8.382057189941406,4.78803825378418
1361,75600.0,-5.015356063842773,8.382057189941406,4.78803825378418
1362,75700.0,-5.599205493927002,7.767102241516112,2.4191436767578125
1363,75800.0,-5.599205493927002,7.767102241516112,2.4191436767578125
1364,75900.0,-5.599205493927002,7.767102241516112,2.4191436767578125
1365,76000.0,-6.0299134254455575,7.286144733428955,-0.8805587291717529
1366,76100.0,-6.0299134254455575,7.286144733428955,-0.8805587291717529
1367,76200.0,-5.249853134155273,5.883951187133789,-4.900500774383545
1368,76300.0,-5.249853134155273,5.883951187133789,-4.900500774383545
1369,76400.0,-5.249853134155273,5.883951187133789,-4.900500774383545
1370,76500.0,-4.59421968460083,5.883951187133789,-5.764309883117676
1371,76600.0,-4.59421968460083,5.883951187133789,-5.764309883117676
1372,76700.0,-3.742374420166016,6.357729434967041,-5.907878875732423
1373,76800.0,-3.742374420166016,6.357729434967041,-5.907878875732423
1374,76900.0,-3.31166672706604,5.9748783111572275,-6.183053970336914
1375,77000.0,-3.31166672706604,5.9748783111572275,-6.183053970336914
1376,77100.0,-3.31166672706604,5.9748783111572275,-6.183053970336914
1377,77200.0,-2.3258235454559326,9.585646629333496,-2.1511476039886475
1378,77300.0,-2.3258235454559326,9.585646629333496,-2.1511476039886475
1379,77400.0,-2.1056838035583496,9.62393283843994,0.5455635190010071
1380,76000.0,-6.0299134254455575,7.286144733428955,-0.8805587291717529
1381,76100.0,-6.0299134254455575,7.286144733428955,-0.8805587291717529
1382,76200.0,-5.249853134155273,5.883951187133789,-4.900500774383545
1383,76300.0,-5.249853134155273,5.883951187133789,-4.900500774383545
1384,76400.0,-5.249853134155273,5.883951187133789,-4.900500774383545
1385,76500.0,-4.59421968460083,5.883951187133789,-5.764309883117676
1386,76600.0,-4.59421968460083,5.883951187133789,-5.764309883117676
1387,76700.0,-3.742374420166016,6.357729434967041,-5.907878875732423
1388,76800.0,-3.742374420166016,6.357729434967041,-5.907878875732423
1389,76900.0,-3.31166672706604,5.9748783111572275,-6.183053970336914
1390,77000.0,-3.31166672706604,5.9748783111572275,-6.183053970336914
1391,77100.0,-3.31166672706604,5.9748783111572275,-6.183053970336914
1392,77200.0,-2.3258235454559326,9.585646629333496,-2.1511476039886475
1393,77300.0,-2.3258235454559326,9.585646629333496,-2.1511476039886475
1394,77400.0,-2.1056838035583496,9.62393283843994,0.5455635190010071
1395,77500.0,-2.1056838035583496,9.62393283843994,0.5455635190010071
1396,77600.0,-2.1056838035583496,9.339186668395996,1.4548362493515017
1397,77700.0,-2.1056838035583496,9.339186668395996,1.4548362493515017
1398,77800.0,-2.1056838035583496,9.339186668395996,1.4548362493515017
1399,77900.0,-2.483749866485596,9.68375301361084,3.0221347808837886
1400,78000.0,-2.483749866485596,9.68375301361084,3.0221347808837886
1401,78100.0,-3.0484561920166016,8.171488761901855,2.9527432918548584
1402,78200.0,-3.0484561920166016,8.171488761901855,2.9527432918548584
1403,78300.0,-3.0484561920166016,8.171488761901855,2.9527432918548584
1404,78400.0,-3.4408791065216064,7.8245296478271475,2.426322221755981
1405,78500.0,-3.4408791065216064,7.8245296478271475,2.426322221755981
1406,78600.0,-3.708875179290772,7.791030406951903,2.452643394470215
1407,78700.0,-3.708875179290772,7.791030406951903,2.452643394470215
1408,78800.0,-4.01037073135376,8.190631866455076,2.51007080078125
1409,78900.0,-4.01037073135376,8.190631866455076,2.51007080078125
1410,77500.0,-2.1056838035583496,9.62393283843994,0.5455635190010071
1411,77600.0,-2.1056838035583496,9.339186668395996,1.4548362493515017
1412,77700.0,-2.1056838035583496,9.339186668395996,1.4548362493515017
1413,77800.0,-2.1056838035583496,9.339186668395996,1.4548362493515017
1414,77900.0,-2.483749866485596,9.68375301361084,3.0221347808837886
1415,78000.0,-2.483749866485596,9.68375301361084,3.0221347808837886
1416,78100.0,-3.0484561920166016,8.171488761901855,2.9527432918548584
1417,78200.0,-3.0484561920166016,8.171488761901855,2.9527432918548584
1418,78300.0,-3.0484561920166016,8.171488761901855,2.9527432918548584
1419,78400.0,-3.4408791065216064,7.8245296478271475,2.426322221755981
1420,78500.0,-3.4408791065216064,7.8245296478271475,2.426322221755981
1421,78600.0,-3.708875179290772,7.791030406951903,2.452643394470215
1422,78700.0,-3.708875179290772,7.791030406951903,2.452643394470215
1423,78800.0,-4.01037073135376,8.190631866455076,2.51007080078125
1424,78900.0,-4.01037073135376,8.190631866455076,2.51007080078125
1425,79000.0,-4.01037073135376,8.190631866455076,2.51007080078125
1426,79100.0,-4.101297855377196,8.48734188079834,3.744767427444458
1427,79200.0,-4.101297855377196,8.48734188079834,3.744767427444458
1428,79300.0,-4.900500774383545,7.3531436920166025,2.5914268493652344
1429,79400.0,-4.900500774383545,7.3531436920166025,2.5914268493652344
1430,79500.0,-4.900500774383545,7.3531436920166025,2.5914268493652344
1431,79600.0,-4.8095736503601065,8.216952323913574,2.3473589420318604
1432,79700.0,-4.8095736503601065,8.216952323913574,2.3473589420318604
1433,79800.0,-5.3694939613342285,8.673982620239258,-0.3565305471420288
1434,79900.0,-5.3694939613342285,8.673982620239258,-0.3565305471420288
1435,80000.0,-5.0871405601501465,8.092526435852049,0.25842484831810003
1436,80100.0,-5.0871405601501465,8.092526435852049,0.25842484831810003
1437,80200.0,-5.0871405601501465,8.092526435852049,0.25842484831810003
1438,80300.0,-5.091926097869873,8.310273170471191,3.0388848781585693
1439,80400.0,-5.091926097869873,8.310273170471191,3.0388848781585693
1440,79000.0,-4.01037073135376,8.190631866455076,2.51007080078125
1441,79100.0,-4.101297855377196,8.48734188079834,3.744767427444458
1442,79200.0,-4.101297855377196,8.48734188079834,3.744767427444458
1443,79300.0,-4.900500774383545,7.3531436920166025,2.5914268493652344
1444,79400.0,-4.900500774383545,7.3531436920166025,2.5914268493652344
1445,79500.0,-4.900500774383545,7.3531436920166025,2.5914268493652344
1446,79600.0,-4.8095736503601065,8.216952323913574,2.3473589420318604
1447,79700.0,-4.8095736503601065,8.216952323913574,2.3473589420318604
1448,79800.0,-5.3694939613342285,8.673982620239258,-0.3565305471420288
1449,79900.0,-5.3694939613342285,8.673982620239258,-0.3565305471420288
1450,80000.0,-5.0871405601501465,8.092526435852049,0.25842484831810003
1451,80100.0,-5.0871405601501465,8.092526435852049,0.25842484831810003
1452,80200.0,-5.0871405601501465,8.092526435852049,0.25842484831810003
1453,80300.0,-5.091926097869873,8.310273170471191,3.0388848781585693
1454,80400.0,-5.091926097869873,8.310273170471191,3.0388848781585693
1455,80500.0,-5.4795637130737305,7.499105930328369,3.553341627120972
1456,80600.0,-5.4795637130737305,7.499105930328369,3.553341627120972
1457,80700.0,-5.4795637130737305,7.499105930328369,3.553341627120972
1458,80800.0,-5.694917678833008,7.142575740814209,3.6299118995666495
1459,80900.0,-5.694917678833008,7.142575740814209,3.6299118995666495
1460,81000.0,-5.61834716796875,7.0133628845214835,3.5461630821228027
1461,81100.0,-5.61834716796875,7.0133628845214835,3.5461630821228027
1462,81200.0,-5.685347080230713,7.429713726043701,3.627518892288208
1463,81300.0,-5.685347080230713,7.429713726043701,3.627518892288208
1464,81400.0,-5.685347080230713,7.429713726043701,3.627518892288208
1465,81500.0,-5.704488754272461,7.22871732711792,3.3643085956573486
1466,81600.0,-5.704488754272461,7.22871732711792,3.3643085956573486
1467,81700.0,-5.800201892852782,7.101897716522218,3.2231321334838867
1468,81800.0,-5.800201892852782,7.101897716522218,3.2231321334838867
1469,81900.0,-5.800201892852782,7.101897716522218,3.2231321334838867
1470,80500.0,-5.4795637130737305,7.499105930328369,3.553341627120972
1471,80600.0,-5.4795637130737305,7.499105930328369,3.553341627120972
1472,80700.0,-5.4795637130737305,7.499105930328369,3.553341627120972
1473,80800.0,-5.694917678833008,7.142575740814209,3.6299118995666495
1474,80900.0,-5.694917678833008,7.142575740814209,3.6299118995666495
1475,81000.0,-5.61834716796875,7.0133628845214835,3.5461630821228027
1476,81100.0,-5.61834716796875,7.0133628845214835,3.5461630821228027
1477,81200.0,-5.685347080230713,7.429713726043701,3.627518892288208
1478,81300.0,-5.685347080230713,7.429713726043701,3.627518892288208
1479,81400.0,-5.685347080230713,7.429713726043701,3.627518892288208
1480,81500.0,-5.704488754272461,7.22871732711792,3.3643085956573486
1481,81600.0,-5.704488754272461,7.22871732711792,3.3643085956573486
1482,81700.0,-5.800201892852782,7.101897716522218,3.2231321334838867
1483,81800.0,-5.800201892852782,7.101897716522218,3.2231321334838867
1484,81900.0,-5.800201892852782,7.101897716522218,3.2231321334838867
1485,82000.0,-5.938986301422119,7.223931312561035,3.4241292476654053
1486,82100.0,-5.938986301422119,7.223931312561035,3.4241292476654053
1487,82200.0,-5.8959150314331055,7.29810905456543,3.3379876613616943
1488,82300.0,-5.8959150314331055,7.29810905456543,3.3379876613616943
1489,82400.0,-5.986842632293701,7.2670021057128915,3.4743783473968506
1490,82500.0,-5.986842632293701,7.2670021057128915,3.4743783473968506
1491,82600.0,-5.8337016105651855,6.86261510848999,3.232703685760498
1492,82700.0,-5.8337016105651855,6.86261510848999,3.232703685760498
1493,82800.0,-5.8337016105651855,6.86261510848999,3.232703685760498
1494,82900.0,-5.517848491668701,7.144968032836914,4.304687976837158
1495,83000.0,-5.517848491668701,7.144968032836914,4.304687976837158
1496,83100.0,-4.847858428955078,7.010970115661621,4.453042984008789
1497,83200.0,-4.847858428955078,7.010970115661621,4.453042984008789
1498,83300.0,-4.847858428955078,7.010970115661621,4.453042984008789
1499,83400.0,-4.910072326660156,7.601996898651122,3.842873096466065
1500,82000.0,-5.938986301422119,7.223931312561035,3.4241292476654053
1501,82100.0,-5.938986301422119,7.223931312561035,3.4241292476654053
1502,82200.0,-5.8959150314331055,7.29810905456543,3.3379876613616943
1503,82300.0,-5.8959150314331055,7.29810905456543,3.3379876613616943
1504,82400.0,-5.986842632293701,7.2670021057128915,3.4743783473968506
1505,82500.0,-5.986842632293701,7.2670021057128915,3.4743783473968506
1506,82600.0,-5.8337016105651855,6.86261510848999,3.232703685760498
1507,82700.0,-5.8337016105651855,6.86261510848999,3.232703685760498
1508,82800.0,-5.8337016105651855,6.86261510848999,3.232703685760498
1509,82900.0,-5.517848491668701,7.144968032836914,4.304687976837158
1510,83000.0,-5.517848491668701,7.144968032836914,4.304687976837158
1511,83100.0,-4.847858428955078,7.010970115661621,4.453042984008789
1512,83200.0,-4.847858428955078,7.010970115661621,4.453042984008789
1513,83300.0,-4.847858428955078,7.010970115661621,4.453042984008789
1514,83400.0,-4.910072326660156,7.601996898651122,3.842873096466065
1515,83500.0,-4.910072326660156,7.601996898651122,3.842873096466065
1516,83600.0,-4.871786594390869,7.953742504119872,4.395615100860597
1517,83700.0,-4.871786594390869,7.953742504119872,4.395615100860597
1518,83800.0,-5.201996326446533,7.963313579559326,-0.413958340883255
1519,83900.0,-5.201996326446533,7.963313579559326,-0.413958340883255
1520,84000.0,-5.565705299377441,7.855636119842528,2.00518536567688
1521,84100.0,-5.565705299377441,7.855636119842528,2.00518536567688
1522,84200.0,-5.565705299377441,7.855636119842528,2.00518536567688
1523,84300.0,-5.235496044158936,7.063612461090088,2.108076810836792
1524,84400.0,-5.235496044158936,7.063612461090088,2.108076810836792
1525,84500.0,-4.479363918304443,9.401400566101074,4.065405368804932
1526,84600.0,-4.479363918304443,9.401400566101074,4.065405368804932
1527,84700.0,-5.647061824798584,8.288737297058105,1.7730815410614014
1528,84800.0,-5.647061824798584,8.288737297058105,1.7730815410614014
1529,84900.0,-5.647061824798584,8.288737297058105,1.7730815410614014
1530,83500.0,-4.910072326660156,7.601996898651122,3.842873096466065
1531,83600.0,-4.871786594390869,7.953742504119872,4.395615100860597
1532,83700.0,-4.871786594390869,7.953742504119872,4.395615100860597
1533,83800.0,-5.201996326446533,7.963313579559326,-0.413958340883255
1534,83900.0,-5.201996326446533,7.963313579559326,-0.413958340883255
1535,84000.0,-5.565705299377441,7.855636119842528,2.00518536567688
1536,84100.0,-5.565705299377441,7.855636119842528,2.00518536567688
1537,84200.0,-5.565705299377441,7.855636119842528,2.00518536567688
1538,84300.0,-5.235496044158936,7.063612461090088,2.108076810836792
1539,84400.0,-5.235496044158936,7.063612461090088,2.108076810836792
1540,84500.0,-4.479363918304443,9.401400566101074,4.065405368804932
1541,84600.0,-4.479363918304443,9.401400566101074,4.065405368804932
1542,84700.0,-5.647061824798584,8.288737297058105,1.7730815410614014
1543,84800.0,-5.647061824798584,8.288737297058105,1.7730815410614014
1544,84900.0,-5.647061824798584,8.288737297058105,1.7730815410614014
1545,85000.0,-6.427121639251709,6.022734642028809,-2.031506299972534
1546,85100.0,-6.427121639251709,6.022734642028809,-2.031506299972534
1547,85200.0,-6.790830135345459,6.6903319358825675,-1.9094725847244265
1548,85300.0,-6.790830135345459,6.6903319358825675,-1.9094725847244265
1549,85400.0,-7.0540409088134775,6.833901405334473,-1.2299107313156128
1550,85500.0,-7.0540409088134775,6.833901405334473,-1.2299107313156128
1551,85600.0,-7.0540409088134775,6.833901405334473,-1.2299107313156128
1552,85700.0,-6.824329853057861,6.886543273925781,-1.356730580329895
1553,85800.0,-6.824329853057861,6.886543273925781,-1.356730580329895
1554,85900.0,-7.23589563369751,7.010970115661621,-0.8997013568878174
1555,86000.0,-7.23589563369751,7.010970115661621,-0.8997013568878174
1556,86100.0,-6.814758777618407,6.867401123046875,-2.230110645294189
1557,86200.0,-6.814758777618407,6.867401123046875,-2.230110645294189
1558,86300.0,-7.374679565429687,6.798008918762207,-2.091326951980591
1559,86400.0,-7.374679565429687,6.798008918762207,-2.091326951980591
1560,85000.0,-6.427121639251709,6.022734642028809,-2.031506299972534
1561,85100.0,-6.427121639251709,6.022734642028809,-2.031506299972534
1562,85200.0,-6.790830135345459,6.6903319358825675,-1.9094725847244265
1563,85300.0,-6.790830135345459,6.6903319358825675,-1.9094725847244265
1564,85400.0,-7.0540409088134775,6.833901405334473,-1.2299107313156128
1565,85500.0,-7.0540409088134775,6.833901405334473,-1.2299107313156128
1566,85600.0,-7.0540409088134775,6.833901405334473,-1.2299107313156128
1567,85700.0,-6.824329853057861,6.886543273925781,-1.356730580329895
1568,85800.0,-6.824329853057861,6.886543273925781,-1.356730580329895
1569,85900.0,-7.23589563369751,7.010970115661621,-0.8997013568878174
1570,86000.0,-7.23589563369751,7.010970115661621,-0.8997013568878174
1571,86100.0,-6.814758777618407,6.867401123046875,-2.230110645294189
1572,86200.0,-6.814758777618407,6.867401123046875,-2.230110645294189
1573,86300.0,-7.374679565429687,6.798008918762207,-2.091326951980591
1574,86400.0,-7.374679565429687,6.798008918762207,-2.091326951980591
1575,86500.0,-6.0394840240478525,5.608776092529297,-5.245067596435547
1576,86600.0,-6.0394840240478525,5.608776092529297,-5.245067596435547
1577,86700.0,-6.0394840240478525,5.608776092529297,-5.245067596435547
1578,86800.0,-5.546562671661377,6.838686943054199,-3.9792640209198
1579,86900.0,-5.546562671661377,6.838686943054199,-3.9792640209198
1580,87000.0,-5.029713153839111,8.449056625366211,0.11964112520217896
1581,87100.0,-5.029713153839111,8.449056625366211,0.11964112520217896
1582,87200.0,-4.680361270904541,8.676375389099121,0.36370906233787537
1583,87300.0,-4.680361270904541,8.676375389099121,0.36370906233787537
1584,87400.0,-4.680361270904541,8.676375389099121,0.36370906233787537
1585,87500.0,-4.9387855529785165,9.006584167480469,0.3708875179290772
1586,87600.0,-4.9387855529785165,9.006584167480469,0.3708875179290772
1587,87700.0,-5.221138954162598,9.652647018432617,1.6773687601089478
1588,87800.0,-5.221138954162598,9.652647018432617,1.6773687601089478
1589,87900.0,-5.221138954162598,9.652647018432617,1.6773687601089478
1590,86500.0,-6.0394840240478525,5.608776092529297,-5.245067596435547
1591,86600.0,-6.0394840240478525,5.608776092529297,-5.245067596435547
1592,86700.0,-6.0394840240478525,5.608776092529297,-5.245067596435547
1593,86800.0,-5.546562671661377,6.838686943054199,-3.9792640209198
1594,86900.0,-5.546562671661377,6.838686943054199,-3.9792640209198
1595,87000.0,-5.029713153839111,8.449056625366211,0.11964112520217896
1596,87100.0,-5.029713153839111,8.449056625366211,0.11964112520217896
1597,87200.0,-4.680361270904541,8.676375389099121,0.36370906233787537
1598,87300.0,-4.680361270904541,8.676375389099121,0.36370906233787537
1599,87400.0,-4.680361270904541,8.676375389099121,0.36370906233787537
1600,87500.0,-4.9387855529785165,9.006584167480469,0.3708875179290772
1601,87600.0,-4.9387855529785165,9.006584167480469,0.3708875179290772
1602,87700.0,-5.221138954162598,9.652647018432617,1.6773687601089478
1603,87800.0,-5.221138954162598,9.652647018432617,1.6773687601089478
1604,87900.0,-5.221138954162598,9.652647018432617,1.6773687601089478
1605,88000.0,-5.374279499053955,7.927421569824219,1.9716858863830569
1606,88100.0,-5.374279499053955,7.927421569824219,1.9716858863830569
1607,88200.0,-5.240281581878662,7.738388061523437,2.569891452789306
1608,88300.0,-5.240281581878662,7.738388061523437,2.569891452789306
1609,88400.0,-4.54636287689209,8.398807525634767,3.122633695602417
1610,88500.0,-4.54636287689209,8.398807525634767,3.122633695602417
1611,88600.0,-4.54636287689209,8.398807525634767,3.122633695602417
1612,88700.0,-4.766502857208252,8.310273170471191,3.687339782714844
1613,88800.0,-4.766502857208252,8.310273170471191,3.687339782714844
1614,88900.0,-5.364708423614502,6.8554368019104,1.241874933242798
1615,89000.0,-5.364708423614502,6.8554368019104,1.241874933242798
1616,89100.0,-5.0871405601501465,8.635696411132812,-1.797009825706482
1617,89200.0,-5.0871405601501465,8.635696411132812,-1.797009825706482
1618,89300.0,-5.0871405601501465,8.635696411132812,-1.797009825706482
1619,89400.0,-4.689932346343994,8.221738815307617,-2.414358139038086
1620,88000.0,-5.374279499053955,7.927421569824219,1.9716858863830569
1621,88100.0,-5.374279499053955,7.927421569824219,1.9716858863830569
1622,88200.0,-5.240281581878662,7.738388061523437,2.569891452789306
1623,88300.0,-5.240281581878662,7.738388061523437,2.569891452789306
1624,88400.0,-4.54636287689209,8.398807525634767,3.122633695602417
1625,88500.0,-4.54636287689209,8.398807525634767,3.122633695602417
1626,88600.0,-4.54636287689209,8.398807525634767,3.122633695602417
1627,88700.0,-4.766502857208252,8.310273170471191,3.687339782714844
1628,88800.0,-4.766502857208252,8.310273170471191,3.687339782714844
1629,88900.0,-5.364708423614502,6.8554368019104,1.241874933242798
1630,89000.0,-5.364708423614502,6.8554368019104,1.241874933242798
1631,89100.0,-5.0871405601501465,8.635696411132812,-1.797009825706482
1632,89200.0,-5.0871405601501465,8.635696411132812,-1.797009825706482
1633,89300.0,-5.0871405601501465,8.635696411132812,-1.797009825706482
1634,89400.0,-4.689932346343994,8.221738815307617,-2.414358139038086
1635,89500.0,-4.689932346343994,8.221738815307617,-2.414358139038086
1636,89600.0,-4.9435715675354,9.265008926391602,-2.2947168350219727
1637,89700.0,-4.9435715675354,9.265008926391602,-2.2947168350219727
1638,89800.0,-5.584848403930664,7.968099594116211,-1.7706886529922483
1639,89900.0,-5.584848403930664,7.968099594116211,-1.7706886529922483
1640,90000.0,-5.584848403930664,7.968099594116211,-1.7706886529922483
1641,90100.0,-5.201996326446533,6.4462642669677725,-3.565305471420288
1642,90200.0,-5.201996326446533,6.4462642669677725,-3.565305471420288
1643,90300.0,-5.1637115478515625,7.831708431243896,-3.06999135017395
1644,90400.0,-5.1637115478515625,7.831708431243896,-3.06999135017395
1645,90500.0,-6.431907176971436,6.429513931274414,-2.522034883499145
1646,90600.0,-6.431907176971436,6.429513931274414,-2.522034883499145
1647,90700.0,-6.431907176971436,6.429513931274414,-2.522034883499145
1648,90800.0,-6.254837989807129,7.030113220214844,-4.053441524505615
1649,90900.0,-6.254837989807129,7.030113220214844,-4.053441524505615
1650,89500.0,-4.689932346343994,8.221738815307617,-2.414358139038086
1651,89600.0,-4.9435715675354,9.265008926391602,-2.2947168350219727
1652,89700.0,-4.9435715675354,9.265008926391602,-2.2947168350219727
1653,89800.0,-5.584848403930664,7.968099594116211,-1.7706886529922483
1654,89900.0,-5.584848403930664,7.968099594116211,-1.7706886529922483
1655,90000.0,-5.584848403930664,7.968099594116211,-1.7706886529922483
1656,90100.0,-5.201996326446533,6.4462642669677725,-3.565305471420288
1657,90200.0,-5.201996326446533,6.4462642669677725,-3.565305471420288
1658,90300.0,-5.1637115478515625,7.831708431243896,-3.06999135017395
1659,90400.0,-5.1637115478515625,7.831708431243896,-3.06999135017395
1660,90500.0,-6.431907176971436,6.429513931274414,-2.522034883499145
1661,90600.0,-6.431907176971436,6.429513931274414,-2.522034883499145
1662,90700.0,-6.431907176971436,6.429513931274414,-2.522034883499145
1663,90800.0,-6.254837989807129,7.030113220214844,-4.053441524505615
1664,90900.0,-6.254837989807129,7.030113220214844,-4.053441524505615
1665,91000.0,-6.6281185150146475,6.685546875,-4.084547996520996
1666,91100.0,-6.6281185150146475,6.685546875,-4.084547996520996
1667,91200.0,-6.6281185150146475,6.685546875,-4.084547996520996
1668,91300.0,-6.259624004364014,4.570291519165039,-5.331209182739258
1669,91400.0,-6.259624004364014,4.570291519165039,-5.331209182739258
1670,91500.0,-4.95792818069458,7.365108013153076,-4.125226020812988
1671,91600.0,-4.95792818069458,7.365108013153076,-4.125226020812988
1672,91700.0,-4.560719966888428,10.088139533996582,-0.09092726558446884
1673,91800.0,-4.560719966888428,10.088139533996582,-0.09092726558446884
1674,91900.0,-4.560719966888428,10.088139533996582,-0.09092726558446884
1675,92000.0,-5.000998973846436,9.796216011047363,-0.2273181527853012
1676,92100.0,-5.000998973846436,9.796216011047363,-0.2273181527853012
1677,92200.0,-5.996413230895996,5.182853698730469,-1.8448662757873533
1678,92300.0,-5.996413230895996,5.182853698730469,-1.8448662757873533
1679,92400.0,-5.996413230895996,5.182853698730469,-1.8448662757873533
1680,91000.0,-6.6281185150146475,6.685546875,-4.084547996520996
1681,91100.0,-6.6281185150146475,6.685546875,-4.084547996520996
1682,91200.0,-6.6281185150146475,6.685546875,-4.084547996520996
1683,91300.0,-6.259624004364014,4.570291519165039,-5.331209182739258
1684,91400.0,-6.259624004364014,4.570291519165039,-5.331209182739258
1685,91500.0,-4.95792818069458,7.365108013153076,-4.125226020812988
1686,91600.0,-4.95792818069458,7.365108013153076,-4.125226020812988
1687,91700.0,-4.560719966888428,10.088139533996582,-0.09092726558446884
1688,91800.0,-4.560719966888428,10.088139533996582,-0.09092726558446884
1689,91900.0,-4.560719966888428,10.088139533996582,-0.09092726558446884
1690,92000.0,-5.000998973846436,9.796216011047363,-0.2273181527853012
1691,92100.0,-5.000998973846436,9.796216011047363,-0.2273181527853012
1692,92200.0,-5.996413230895996,5.182853698730469,-1.8448662757873533
1693,92300.0,-5.996413230895996,5.182853698730469,-1.8448662757873533
1694,92400.0,-5.996413230895996,5.182853698730469,-1.8448662757873533
1695,92500.0,-5.000998973846436,8.379664421081543,-1.2562319040298462
1696,92600.0,-5.000998973846436,8.379664421081543,-1.2562319040298462
1697,92700.0,-3.9864425659179688,9.40379238128662,0.7274181246757507
1698,92800.0,-3.9864425659179688,9.40379238128662,0.7274181246757507
1699,92900.0,-5.197210788726807,7.858029365539551,3.050848960876465
1700,93000.0,-5.197210788726807,7.858029365539551,3.050848960876465
1701,93100.0,-5.197210788726807,7.858029365539551,3.050848960876465
1702,93200.0,-5.522634029388428,6.649653911590576,2.416750907897949
1703,93300.0,-5.522634029388428,6.649653911590576,2.416750907897949
1704,93400.0,-5.374279499053955,8.523234367370605,4.304687976837158
1705,93500.0,-5.374279499053955,8.523234367370605,4.304687976837158
1706,93600.0,-6.168696403503418,7.113861560821532,2.1655044555664062
1707,93700.0,-6.168696403503418,7.113861560821532,2.1655044555664062
1708,93800.0,-6.168696403503418,7.113861560821532,2.1655044555664062
1709,93900.0,-6.269195556640625,5.862415313720702,-3.4576287269592285
1710,92500.0,-5.000998973846436,8.379664421081543,-1.2562319040298462
1711,92600.0,-5.000998973846436,8.379664421081543,-1.2562319040298462
1712,92700.0,-3.9864425659179688,9.40379238128662,0.7274181246757507
1713,92800.0,-3.9864425659179688,9.40379238128662,0.7274181246757507
1714,92900.0,-5.197210788726807,7.858029365539551,3.050848960876465
1715,93000.0,-5.197210788726807,7.858029365539551,3.050848960876465
1716,93100.0,-5.197210788726807,7.858029365539551,3.050848960876465
1717,93200.0,-5.522634029388428,6.649653911590576,2.416750907897949
1718,93300.0,-5.522634029388428,6.649653911590576,2.416750907897949
1719,93400.0,-5.374279499053955,8.523234367370605,4.304687976837158
1720,93500.0,-5.374279499053955,8.523234367370605,4.304687976837158
1721,93600.0,-6.168696403503418,7.113861560821532,2.1655044555664062
1722,93700.0,-6.168696403503418,7.113861560821532,2.1655044555664062
1723,93800.0,-6.168696403503418,7.113861560821532,2.1655044555664062
1724,93900.0,-6.269195556640625,5.862415313720702,-3.4576287269592285
1725,94000.0,-6.269195556640625,5.862415313720702,-3.4576287269592285
1726,94100.0,-6.494120597839356,5.481956481933594,-4.5583271980285645
1727,94200.0,-6.494120597839356,5.481956481933594,-4.5583271980285645
1728,94300.0,-5.967699527740479,4.807180881500244,-4.711467742919922
1729,94400.0,-5.967699527740479,4.807180881500244,-4.711467742919922
1730,94500.0,-5.967699527740479,4.807180881500244,-4.711467742919922
1731,94600.0,-4.9435715675354,6.8554368019104,-4.864608287811278
1732,94700.0,-4.9435715675354,6.8554368019104,-4.864608287811278
1733,94800.0,-4.407578945159912,9.595218658447266,-0.5431707501411438
1734,94900.0,-4.407578945159912,9.595218658447266,-0.5431707501411438
1735,95000.0,-4.407578945159912,9.595218658447266,-0.5431707501411438
1736,95100.0,-4.498506546020508,7.869993209838867,0.7202396392822266
1737,95200.0,-4.498506546020508,7.869993209838867,0.7202396392822266
1738,95300.0,-4.910072326660156,9.975677490234377,1.6462620496749878
1739,95400.0,-4.910072326660156,9.975677490234377,1.6462620496749878
1740,94000.0,-6.269195556640625,5.862415313720702,-3.4576287269592285
1741,94100.0,-6.494120597839356,5.481956481933594,-4.5583271980285645
1742,94200.0,-6.494120597839356,5.481956481933594,-4.5583271980285645
1743,94300.0,-5.967699527740479,4.807180881500244,-4.711467742919922
1744,94400.0,-5.967699527740479,4.807180881500244,-4.711467742919922
1745,94500.0,-5.967699527740479,4.807180881500244,-4.711467742919922
1746,94600.0,-4.9435715675354,6.8554368019104,-4.864608287811278
1747,94700.0,-4.9435715675354,6.8554368019104,-4.864608287811278
1748,94800.0,-4.407578945159912,9.595218658447266,-0.5431707501411438
1749,94900.0,-4.407578945159912,9.595218658447266,-0.5431707501411438
1750,95000.0,-4.407578945159912,9.595218658447266,-0.5431707501411438
1751,95100.0,-4.498506546020508,7.869993209838867,0.7202396392822266
1752,95200.0,-4.498506546020508,7.869993209838867,0.7202396392822266
