,timestamp,ax,ay,az
0,0.0,-3.646661758422852,-3.802195072174072,-6.721438884735107
1,100.0,-3.646661758422852,-3.802195072174072,-6.721438884735107
2,200.0,-3.646661758422852,-3.802195072174072,-6.721438884735107
3,300.0,-1.2729815244674685,0.6125625967979431,-10.971091270446776
4,400.0,-1.2729815244674685,0.6125625967979431,-10.971091270446776
5,500.0,-2.0195422172546387,1.887937068939209,-8.035098075866701
6,600.0,-2.0195422172546387,1.887937068939209,-8.035098075866701
7,700.0,-1.4356936216354368,2.715853452682495,-9.934999465942383
8,800.0,-1.4356936216354368,2.715853452682495,-9.934999465942383
9,900.0,-1.4356936216354368,2.715853452682495,-9.934999465942383
10,1000.0,-1.4548362493515017,3.653840303421021,-8.889336585998535
11,1100.0,-1.4548362493515017,3.653840303421021,-8.889336585998535
12,1200.0,-3.067598581314087,3.90987229347229,-8.561518669128418
13,1300.0,-3.067598581314087,3.90987229347229,-8.561518669128418
14,1400.0,-3.799802303314209,3.708875179290772,-8.068597793579103
15,1500.0,-3.799802303314209,3.708875179290772,-8.068597793579103
16,1600.0,-3.799802303314209,3.708875179290772,-8.068597793579103
17,1700.0,-4.570291519165039,4.350151538848877,-7.190432548522949
18,1800.0,-4.570291519165039,4.350151538848877,-7.190432548522949
19,1900.0,-2.9479575157165527,6.503692150115968,-7.424928665161133
20,2000.0,-2.9479575157165527,6.503692150115968,-7.424928665161133
21,2100.0,-2.9479575157165527,6.503692150115968,-7.424928665161133
22,2200.0,-5.9342002868652335,-2.280359983444214,-9.4660062789917
23,2300.0,-5.9342002868652335,-2.280359983444214,-9.4660062789917
24,2400.0,-4.5750770568847665,-3.31884503364563,-8.118846893310549
25,2500.0,-4.5750770568847665,-3.31884503364563,-8.118846893310549
26,2600.0,-4.541577339172363,-0.14835500717163086,-6.982256412506104
27,2700.0,-4.541577339172363,-0.14835500717163086,-6.982256412506104
28,2800.0,-4.541577339172363,-0.14835500717163086,-6.982256412506104
29,2900.0,-1.7802598476409912,3.1178479194641118,-10.303494453430176
30,1500.0,-3.799802303314209,3.708875179290772,-8.068597793579103
31,1600.0,-3.799802303314209,3.708875179290772,-8.068597793579103
32,1700.0,-4.570291519165039,4.350151538848877,-7.190432548522949
33,1800.0,-4.570291519165039,4.350151538848877,-7.190432548522949
34,1900.0,-2.9479575157165527,6.503692150115968,-7.424928665161133
35,2000.0,-2.9479575157165527,6.503692150115968,-7.424928665161133
36,2100.0,-2.9479575157165527,6.503692150115968,-7.424928665161133
37,2200.0,-5.9342002868652335,-2.280359983444214,-9.4660062789917
38,2300.0,-5.9342002868652335,-2.280359983444214,-9.4660062789917
39,2400.0,-4.5750770568847665,-3.31884503364563,-8.118846893310549
40,2500.0,-4.5750770568847665,-3.31884503364563,-8.118846893310549
41,2600.0,-4.541577339172363,-0.14835500717163086,-6.982256412506104
42,2700.0,-4.541577339172363,-0.14835500717163086,-6.982256412506104
43,2800.0,-4.541577339172363,-0.14835500717163086,-6.982256412506104
44,2900.0,-1.7802598476409912,3.1178479194641118,-10.303494453430176
45,3000.0,-1.7802598476409912,3.1178479194641118,-10.303494453430176
46,3100.0,-3.0484561920166016,-3.079562902450561,-10.214959144592283
47,3200.0,-3.0484561920166016,-3.079562902450561,-10.214959144592283
48,3300.0,-1.741974949836731,-3.304487943649292,-10.418350219726562
49,3400.0,-1.741974949836731,-3.304487943649292,-10.418350219726562
50,3500.0,-1.741974949836731,-3.304487943649292,-10.418350219726562
51,3600.0,-2.756531953811645,4.3381876945495605,-8.733802795410156
52,3700.0,-2.756531953811645,4.3381876945495605,-8.733802795410156
53,3800.0,-2.502892255783081,0.04307081177830696,-9.23390293121338
54,3900.0,-2.502892255783081,0.04307081177830696,-9.23390293121338
55,4000.0,-1.5074783563613892,1.9262222051620483,-8.638089179992676
56,4100.0,-1.5074783563613892,1.9262222051620483,-8.638089179992676
57,4200.0,-1.5074783563613892,1.9262222051620483,-8.638089179992676
58,4300.0,-2.603391170501709,4.792823314666748,-9.06401252746582
59,4400.0,-2.603391170501709,4.792823314666748,-9.06401252746582
60,3000.0,-1.7802598476409912,3.1178479194641118,-10.303494453430176
61,3100.0,-3.0484561920166016,-3.079562902450561,-10.214959144592283
62,3200.0,-3.0484561920166016,-3.079562902450561,-10.214959144592283
63,3300.0,-1.741974949836731,-3.304487943649292,-10.418350219726562
64,3400.0,-1.741974949836731,-3.304487943649292,-10.418350219726562
65,3500.0,-1.741974949836731,-3.304487943649292,-10.418350219726562
66,3600.0,-2.756531953811645,4.3381876945495605,-8.733802795410156
67,3700.0,-2.756531953811645,4.3381876945495605,-8.733802795410156
68,3800.0,-2.502892255783081,0.04307081177830696,-9.23390293121338
69,3900.0,-2.502892255783081,0.04307081177830696,-9.23390293121338
70,4000.0,-1.5074783563613892,1.9262222051620483,-8.638089179992676
71,4100.0,-1.5074783563613892,1.9262222051620483,-8.638089179992676
72,4200.0,-1.5074783563613892,1.9262222051620483,-8.638089179992676
73,4300.0,-2.603391170501709,4.792823314666748,-9.06401252746582
74,4400.0,-2.603391170501709,4.792823314666748,-9.06401252746582
75,4500.0,-4.302295207977295,3.5198421478271484,-6.740581512451173
76,4600.0,-4.302295207977295,3.5198421478271484,-6.740581512451173
77,4700.0,-4.302295207977295,3.5198421478271484,-6.740581512451173
78,4800.0,-5.4077792167663565,3.6945178508758554,-7.46799898147583
79,4900.0,-5.4077792167663565,3.6945178508758554,-7.46799898147583
80,5000.0,-5.158926010131836,3.5844480991363525,-7.176074504852295
81,5100.0,-5.158926010131836,3.5844480991363525,-7.176074504852295
82,5200.0,-5.106283187866211,4.201796531677246,-7.817351341247559
83,5300.0,-5.106283187866211,4.201796531677246,-7.817351341247559
84,5400.0,-5.31685209274292,2.8139593601226807,-7.668996810913086
85,5500.0,-5.31685209274292,2.8139593601226807,-7.668996810913086
86,5600.0,-5.31685209274292,2.8139593601226807,-7.668996810913086
87,5700.0,-5.422136306762695,2.9168508052825928,-7.640282154083253
88,5800.0,-5.422136306762695,2.9168508052825928,-7.640282154083253
89,5900.0,-5.312066078186035,3.2207393646240234,-7.432106971740723
90,4500.0,-4.302295207977295,3.5198421478271484,-6.740581512451173
91,4600.0,-4.302295207977295,3.5198421478271484,-6.740581512451173
92,4700.0,-4.302295207977295,3.5198421478271484,-6.740581512451173
93,4800.0,-5.4077792167663565,3.6945178508758554,-7.46799898147583
94,4900.0,-5.4077792167663565,3.6945178508758554,-7.46799898147583
95,5000.0,-5.158926010131836,3.5844480991363525,-7.176074504852295
96,5100.0,-5.158926010131836,3.5844480991363525,-7.176074504852295
97,5200.0,-5.106283187866211,4.201796531677246,-7.817351341247559
98,5300.0,-5.106283187866211,4.201796531677246,-7.817351341247559
99,5400.0,-5.31685209274292,2.8139593601226807,-7.668996810913086
100,5500.0,-5.31685209274292,2.8139593601226807,-7.668996810913086
101,5600.0,-5.31685209274292,2.8139593601226807,-7.668996810913086
102,5700.0,-5.422136306762695,2.9168508052825928,-7.640282154083253
103,5800.0,-5.422136306762695,2.9168508052825928,-7.640282154083253
104,5900.0,-5.312066078186035,3.2207393646240234,-7.432106971740723
105,6000.0,-5.312066078186035,3.2207393646240234,-7.432106971740723
106,6100.0,-5.312066078186035,3.2207393646240234,-7.432106971740723
107,6200.0,-5.345565319061278,2.562713146209717,-7.434500217437744
108,6300.0,-5.345565319061278,2.562713146209717,-7.434500217437744
109,6400.0,-5.1637115478515625,3.086741209030152,-7.716853141784668
110,6500.0,-5.1637115478515625,3.086741209030152,-7.716853141784668
111,6600.0,-4.761716842651367,3.493520975112915,-7.623533248901367
112,6700.0,-4.761716842651367,3.493520975112915,-7.623533248901367
113,6800.0,-4.761716842651367,3.493520975112915,-7.623533248901367
114,6900.0,-4.321437358856201,0.5503491759300232,-9.128618240356444
115,7000.0,-4.321437358856201,0.5503491759300232,-9.128618240356444
116,7100.0,-4.488935470581055,-0.27756744623184204,-9.841679573059082
117,7200.0,-4.488935470581055,-0.27756744623184204,-9.841679573059082
118,7300.0,-4.488935470581055,-0.27756744623184204,-9.841679573059082
119,7400.0,-4.2065820693969735,0.5934200286865234,-9.166903495788574
120,6000.0,-5.312066078186035,3.2207393646240234,-7.432106971740723
121,6100.0,-5.312066078186035,3.2207393646240234,-7.432106971740723
122,6200.0,-5.345565319061278,2.562713146209717,-7.434500217437744
123,6300.0,-5.345565319061278,2.562713146209717,-7.434500217437744
124,6400.0,-5.1637115478515625,3.086741209030152,-7.716853141784668
125,6500.0,-5.1637115478515625,3.086741209030152,-7.716853141784668
126,6600.0,-4.761716842651367,3.493520975112915,-7.623533248901367
127,6700.0,-4.761716842651367,3.493520975112915,-7.623533248901367
128,6800.0,-4.761716842651367,3.493520975112915,-7.623533248901367
129,6900.0,-4.321437358856201,0.5503491759300232,-9.128618240356444
130,7000.0,-4.321437358856201,0.5503491759300232,-9.128618240356444
131,7100.0,-4.488935470581055,-0.27756744623184204,-9.841679573059082
132,7200.0,-4.488935470581055,-0.27756744623184204,-9.841679573059082
133,7300.0,-4.488935470581055,-0.27756744623184204,-9.841679573059082
134,7400.0,-4.2065820693969735,0.5934200286865234,-9.166903495788574
135,7500.0,-4.2065820693969735,0.5934200286865234,-9.166903495788574
136,7600.0,-4.431507587432861,0.5479563474655151,-8.642874717712402
137,7700.0,-4.431507587432861,0.5479563474655151,-8.642874717712402
138,7800.0,-4.106083393096924,0.20817556977272034,-8.877371788024902
139,7900.0,-4.106083393096924,0.20817556977272034,-8.877371788024902
140,8000.0,-4.106083393096924,0.20817556977272034,-8.877371788024902
141,8100.0,-4.3405799865722665,0.1579262912273407,-8.774479866027832
142,8200.0,-4.3405799865722665,0.1579262912273407,-8.774479866027832
143,8300.0,-4.335794448852538,0.2488535493612289,-8.738588333129883
144,8400.0,-4.335794448852538,0.2488535493612289,-8.738588333129883
145,8500.0,-4.335794448852538,0.2488535493612289,-8.738588333129883
146,8600.0,-3.7232320308685294,0.42831525206565857,-9.138189315795898
147,8700.0,-3.7232320308685294,0.42831525206565857,-9.138189315795898
148,8800.0,-4.0390844345092765,0.3349951505661011,-8.791230201721191
149,8900.0,-4.0390844345092765,0.3349951505661011,-8.791230201721191
150,7500.0,-4.2065820693969735,0.5934200286865234,-9.166903495788574
151,7600.0,-4.431507587432861,0.5479563474655151,-8.642874717712402
152,7700.0,-4.431507587432861,0.5479563474655151,-8.642874717712402
153,7800.0,-4.106083393096924,0.20817556977272034,-8.877371788024902
154,7900.0,-4.106083393096924,0.20817556977272034,-8.877371788024902
155,8000.0,-4.106083393096924,0.20817556977272034,-8.877371788024902
156,8100.0,-4.3405799865722665,0.1579262912273407,-8.774479866027832
157,8200.0,-4.3405799865722665,0.1579262912273407,-8.774479866027832
158,8300.0,-4.335794448852538,0.2488535493612289,-8.738588333129883
159,8400.0,-4.335794448852538,0.2488535493612289,-8.738588333129883
160,8500.0,-4.335794448852538,0.2488535493612289,-8.738588333129883
161,8600.0,-3.7232320308685294,0.42831525206565857,-9.138189315795898
162,8700.0,-3.7232320308685294,0.42831525206565857,-9.138189315795898
163,8800.0,-4.0390844345092765,0.3349951505661011,-8.791230201721191
164,8900.0,-4.0390844345092765,0.3349951505661011,-8.791230201721191
165,9000.0,-4.153940200805663,0.22492533922195435,-8.803194999694824
166,9100.0,-4.153940200805663,0.22492533922195435,-8.803194999694824
167,9200.0,-4.153940200805663,0.22492533922195435,-8.803194999694824
168,9300.0,-3.6514470577239986,-0.5742774605751038,-9.652647018432617
169,9400.0,-3.6514470577239986,-0.5742774605751038,-9.652647018432617
170,9500.0,-3.2446675300598145,0.9738788008689879,-9.408578872680664
171,9600.0,-3.2446675300598145,0.9738788008689879,-9.408578872680664
172,9700.0,-3.929014682769776,0.25842484831810003,-8.800802230834961
173,9800.0,-3.929014682769776,0.25842484831810003,-8.800802230834961
174,9900.0,-3.929014682769776,0.25842484831810003,-8.800802230834961
175,10000.0,-3.967299938201904,0.4067798554897308,-8.889336585998535
176,10100.0,-3.967299938201904,0.4067798554897308,-8.889336585998535
177,10200.0,-4.019941806793213,0.16510476171970367,-8.901299476623535
178,10300.0,-4.019941806793213,0.16510476171970367,-8.901299476623535
179,10400.0,-4.019941806793213,0.16510476171970367,-8.901299476623535
180,9000.0,-4.153940200805663,0.22492533922195435,-8.803194999694824
181,9100.0,-4.153940200805663,0.22492533922195435,-8.803194999694824
182,9200.0,-4.153940200805663,0.22492533922195435,-8.803194999694824
183,9300.0,-3.6514470577239986,-0.5742774605751038,-9.652647018432617
184,9400.0,-3.6514470577239986,-0.5742774605751038,-9.652647018432617
185,9500.0,-3.2446675300598145,0.9738788008689879,-9.408578872680664
186,9600.0,-3.2446675300598145,0.9738788008689879,-9.408578872680664
187,9700.0,-3.929014682769776,0.25842484831810003,-8.800802230834961
188,9800.0,-3.929014682769776,0.25842484831810003,-8.800802230834961
189,9900.0,-3.929014682769776,0.25842484831810003,-8.800802230834961
190,10000.0,-3.967299938201904,0.4067798554897308,-8.889336585998535
191,10100.0,-3.967299938201904,0.4067798554897308,-8.889336585998535
192,10200.0,-4.019941806793213,0.16510476171970367,-8.901299476623535
193,10300.0,-4.019941806793213,0.16510476171970367,-8.901299476623535
194,10400.0,-4.019941806793213,0.16510476171970367,-8.901299476623535
195,10500.0,-4.053441524505615,0.13878372311592102,-8.884550094604492
196,10600.0,-4.053441524505615,0.13878372311592102,-8.884550094604492
197,10700.0,-4.048655986785889,0.16510476171970367,-8.841480255126953
198,10800.0,-4.048655986785889,0.16510476171970367,-8.841480255126953
199,10900.0,-4.058227062225342,0.2321037948131561,-8.906085968017578
200,11000.0,-4.058227062225342,0.2321037948131561,-8.906085968017578
201,11100.0,-4.000799655914307,0.20099709928035736,-8.824729919433594
202,11200.0,-4.000799655914307,0.20099709928035736,-8.824729919433594
203,11300.0,-4.000799655914307,0.20099709928035736,-8.824729919433594
204,11400.0,-4.096512317657472,0.2632104754447937,-8.84626579284668
205,11500.0,-4.096512317657472,0.2632104754447937,-8.84626579284668
206,11600.0,-4.077369689941406,0.16510476171970367,-8.83669376373291
207,11700.0,-4.077369689941406,0.16510476171970367,-8.83669376373291
208,11800.0,-4.077369689941406,0.16510476171970367,-8.83669376373291
209,11900.0,-4.096512317657472,0.11246266961097716,-8.798408508300781
210,10500.0,-4.053441524505615,0.13878372311592102,-8.884550094604492
211,10600.0,-4.053441524505615,0.13878372311592102,-8.884550094604492
212,10700.0,-4.048655986785889,0.16510476171970367,-8.841480255126953
213,10800.0,-4.048655986785889,0.16510476171970367,-8.841480255126953
214,10900.0,-4.058227062225342,0.2321037948131561,-8.906085968017578
215,11000.0,-4.058227062225342,0.2321037948131561,-8.906085968017578
216,11100.0,-4.000799655914307,0.20099709928035736,-8.824729919433594
217,11200.0,-4.000799655914307,0.20099709928035736,-8.824729919433594
218,11300.0,-4.000799655914307,0.20099709928035736,-8.824729919433594
219,11400.0,-4.096512317657472,0.2632104754447937,-8.84626579284668
220,11500.0,-4.096512317657472,0.2632104754447937,-8.84626579284668
221,11600.0,-4.077369689941406,0.16510476171970367,-8.83669376373291
222,11700.0,-4.077369689941406,0.16510476171970367,-8.83669376373291
223,11800.0,-4.077369689941406,0.16510476171970367,-8.83669376373291
224,11900.0,-4.096512317657472,0.11246266961097716,-8.798408508300781
225,12000.0,-4.096512317657472,0.11246266961097716,-8.798408508300781
226,12100.0,-4.110869407653809,0.16749757528305054,-8.896513938903809
227,12200.0,-4.110869407653809,0.16749757528305054,-8.896513938903809
228,12300.0,-4.125226020812988,0.07896314561367035,-8.819944381713867
229,12400.0,-4.125226020812988,0.07896314561367035,-8.819944381713867
230,12500.0,-4.144368648529054,-0.18903298676013947,-8.903693199157715
231,12600.0,-4.144368648529054,-0.18903298676013947,-8.903693199157715
232,12700.0,-4.187439441680908,-0.01914258114993572,-8.264809608459473
233,12800.0,-4.187439441680908,-0.01914258114993572,-8.264809608459473
234,12900.0,-4.187439441680908,-0.01914258114993572,-8.264809608459473
235,13000.0,-4.292723655700684,-0.5240281224250793,-9.23390293121338
236,13100.0,-4.292723655700684,-0.5240281224250793,-9.23390293121338
237,13200.0,-3.0197420120239262,-0.8350951075553894,-9.425328254699707
238,13300.0,-3.0197420120239262,-0.8350951075553894,-9.425328254699707
239,13400.0,-3.0005996227264404,1.5481561422348022,-9.595218658447266
240,12000.0,-4.096512317657472,0.11246266961097716,-8.798408508300781
241,12100.0,-4.110869407653809,0.16749757528305054,-8.896513938903809
242,12200.0,-4.110869407653809,0.16749757528305054,-8.896513938903809
243,12300.0,-4.125226020812988,0.07896314561367035,-8.819944381713867
244,12400.0,-4.125226020812988,0.07896314561367035,-8.819944381713867
245,12500.0,-4.144368648529054,-0.18903298676013947,-8.903693199157715
246,12600.0,-4.144368648529054,-0.18903298676013947,-8.903693199157715
247,12700.0,-4.187439441680908,-0.01914258114993572,-8.264809608459473
248,12800.0,-4.187439441680908,-0.01914258114993572,-8.264809608459473
249,12900.0,-4.187439441680908,-0.01914258114993572,-8.264809608459473
250,13000.0,-4.292723655700684,-0.5240281224250793,-9.23390293121338
251,13100.0,-4.292723655700684,-0.5240281224250793,-9.23390293121338
252,13200.0,-3.0197420120239262,-0.8350951075553894,-9.425328254699707
253,13300.0,-3.0197420120239262,-0.8350951075553894,-9.425328254699707
254,13400.0,-3.0005996227264404,1.5481561422348022,-9.595218658447266
255,13500.0,-3.0005996227264404,1.5481561422348022,-9.595218658447266
256,13600.0,-3.0005996227264404,1.5481561422348022,-9.595218658447266
257,13700.0,-2.6703903675079346,0.8949156999588013,-9.037691116333008
258,13800.0,-2.6703903675079346,0.8949156999588013,-9.037691116333008
259,13900.0,-3.249453067779541,3.1369905471801762,-9.018548011779783
260,14000.0,-3.249453067779541,3.1369905471801762,-9.018548011779783
261,14100.0,-3.129812002182007,2.3306093215942383,-8.721837997436522
262,14200.0,-3.129812002182007,2.3306093215942383,-8.721837997436522
263,14300.0,-3.129812002182007,2.3306093215942383,-8.721837997436522
264,14400.0,-3.2255251407623287,1.782652735710144,-9.186046600341797
265,14500.0,-3.2255251407623287,1.782652735710144,-9.186046600341797
266,14600.0,-3.3978083133697514,2.4047868251800537,-8.762516975402832
267,14700.0,-3.3978083133697514,2.4047868251800537,-8.762516975402832
268,14800.0,-3.3978083133697514,2.4047868251800537,-8.762516975402832
269,14900.0,-3.431307554244995,2.5938196182250977,-8.908478736877441
270,13500.0,-3.0005996227264404,1.5481561422348022,-9.595218658447266
271,13600.0,-3.0005996227264404,1.5481561422348022,-9.595218658447266
272,13700.0,-2.6703903675079346,0.8949156999588013,-9.037691116333008
273,13800.0,-2.6703903675079346,0.8949156999588013,-9.037691116333008
274,13900.0,-3.249453067779541,3.1369905471801762,-9.018548011779783
275,14000.0,-3.249453067779541,3.1369905471801762,-9.018548011779783
276,14100.0,-3.129812002182007,2.3306093215942383,-8.721837997436522
277,14200.0,-3.129812002182007,2.3306093215942383,-8.721837997436522
278,14300.0,-3.129812002182007,2.3306093215942383,-8.721837997436522
279,14400.0,-3.2255251407623287,1.782652735710144,-9.186046600341797
280,14500.0,-3.2255251407623287,1.782652735710144,-9.186046600341797
281,14600.0,-3.3978083133697514,2.4047868251800537,-8.762516975402832
282,14700.0,-3.3978083133697514,2.4047868251800537,-8.762516975402832
283,14800.0,-3.3978083133697514,2.4047868251800537,-8.762516975402832
284,14900.0,-3.431307554244995,2.5938196182250977,-8.908478736877441
285,15000.0,-3.431307554244995,2.5938196182250977,-8.908478736877441
286,15100.0,-3.69930362701416,2.557927370071411,-8.647661209106445
287,15200.0,-3.69930362701416,2.557927370071411,-8.647661209106445
288,15300.0,-3.981656789779663,2.675175428390503,-8.528019905090332
289,15400.0,-3.981656789779663,2.675175428390503,-8.528019905090332
290,15500.0,-3.981656789779663,2.675175428390503,-8.528019905090332
291,15600.0,-4.149154186248778,2.4741785526275635,-8.092526435852049
292,15700.0,-4.149154186248778,2.4741785526275635,-8.092526435852049
293,15800.0,-4.058227062225342,2.7948169708251958,-8.599804878234862
294,15900.0,-4.058227062225342,2.7948169708251958,-8.599804878234862
295,16000.0,-4.058227062225342,2.7948169708251958,-8.599804878234862
296,16100.0,-3.5030922889709477,3.115455150604248,-8.592625617980957
297,16200.0,-3.5030922889709477,3.115455150604248,-8.592625617980957
298,16300.0,-3.948157548904419,1.8999011516571045,-8.84626579284668
299,16400.0,-3.948157548904419,1.8999011516571045,-8.84626579284668
300,15000.0,-3.431307554244995,2.5938196182250977,-8.908478736877441
301,15100.0,-3.69930362701416,2.557927370071411,-8.647661209106445
302,15200.0,-3.69930362701416,2.557927370071411,-8.647661209106445
303,15300.0,-3.981656789779663,2.675175428390503,-8.528019905090332
304,15400.0,-3.981656789779663,2.675175428390503,-8.528019905090332
305,15500.0,-3.981656789779663,2.675175428390503,-8.528019905090332
306,15600.0,-4.149154186248778,2.4741785526275635,-8.092526435852049
307,15700.0,-4.149154186248778,2.4741785526275635,-8.092526435852049
308,15800.0,-4.058227062225342,2.7948169708251958,-8.599804878234862
309,15900.0,-4.058227062225342,2.7948169708251958,-8.599804878234862
310,16000.0,-4.058227062225342,2.7948169708251958,-8.599804878234862
311,16100.0,-3.5030922889709477,3.115455150604248,-8.592625617980957
312,16200.0,-3.5030922889709477,3.115455150604248,-8.592625617980957
313,16300.0,-3.948157548904419,1.8999011516571045,-8.84626579284668
314,16400.0,-3.948157548904419,1.8999011516571045,-8.84626579284668
315,16500.0,-5.096712112426758,2.7014968395233154,-9.08554744720459
316,16600.0,-5.096712112426758,2.7014968395233154,-9.08554744720459
317,16700.0,-3.9912283420562735,2.665604591369629,-8.669197082519531
318,16800.0,-3.9912283420562735,2.665604591369629,-8.669197082519531
319,16900.0,-3.9912283420562735,2.665604591369629,-8.669197082519531
320,17000.0,-4.029513359069823,1.804188132286072,-8.48016357421875
321,17100.0,-4.029513359069823,1.804188132286072,-8.48016357421875
322,17200.0,-4.091726779937743,2.1367905139923096,-8.523234367370605
323,17300.0,-4.091726779937743,2.1367905139923096,-8.523234367370605
324,17400.0,-4.091726779937743,2.1367905139923096,-8.523234367370605
325,17500.0,-4.249652862548828,2.1032910346984863,-8.559126853942871
326,17600.0,-4.249652862548828,2.1032910346984863,-8.559126853942871
327,17700.0,-4.149154186248778,2.093719720840454,-8.592625617980957
328,17800.0,-4.149154186248778,2.093719720840454,-8.592625617980957
329,17900.0,-4.19701099395752,2.026720762252808,-8.590232849121094
330,16500.0,-5.096712112426758,2.7014968395233154,-9.08554744720459
331,16600.0,-5.096712112426758,2.7014968395233154,-9.08554744720459
332,16700.0,-3.9912283420562735,2.665604591369629,-8.669197082519531
333,16800.0,-3.9912283420562735,2.665604591369629,-8.669197082519531
334,16900.0,-3.9912283420562735,2.665604591369629,-8.669197082519531
335,17000.0,-4.029513359069823,1.804188132286072,-8.48016357421875
336,17100.0,-4.029513359069823,1.804188132286072,-8.48016357421875
337,17200.0,-4.091726779937743,2.1367905139923096,-8.523234367370605
338,17300.0,-4.091726779937743,2.1367905139923096,-8.523234367370605
339,17400.0,-4.091726779937743,2.1367905139923096,-8.523234367370605
340,17500.0,-4.249652862548828,2.1032910346984863,-8.559126853942871
341,17600.0,-4.249652862548828,2.1032910346984863,-8.559126853942871
342,17700.0,-4.149154186248778,2.093719720840454,-8.592625617980957
343,17800.0,-4.149154186248778,2.093719720840454,-8.592625617980957
344,17900.0,-4.19701099395752,2.026720762252808,-8.590232849121094
345,18000.0,-4.19701099395752,2.026720762252808,-8.590232849121094
346,18100.0,-4.19701099395752,2.026720762252808,-8.590232849121094
347,18200.0,-4.29750919342041,2.67278265953064,-8.535198211669924
348,18300.0,-4.29750919342041,2.67278265953064,-8.535198211669924
349,18400.0,-4.766502857208252,3.184847116470337,-8.34855842590332
350,18500.0,-4.766502857208252,3.184847116470337,-8.34855842590332
351,18600.0,-4.766502857208252,3.184847116470337,-8.34855842590332
352,18700.0,-5.388636112213135,3.268595933914185,-7.073184013366699
353,18800.0,-5.388636112213135,3.268595933914185,-7.073184013366699
354,18900.0,-5.694917678833008,3.9912283420562735,-6.31944465637207
355,19000.0,-5.694917678833008,3.9912283420562735,-6.31944465637207
356,19100.0,-5.603990077972412,4.931607723236084,-6.120840072631836
357,19200.0,-5.603990077972412,4.931607723236084,-6.120840072631836
358,19300.0,-5.603990077972412,4.931607723236084,-6.120840072631836
359,19400.0,-6.116055011749268,3.7040894031524663,-7.5254268646240225
360,18000.0,-4.19701099395752,2.026720762252808,-8.590232849121094
361,18100.0,-4.19701099395752,2.026720762252808,-8.590232849121094
362,18200.0,-4.29750919342041,2.67278265953064,-8.535198211669924
363,18300.0,-4.29750919342041,2.67278265953064,-8.535198211669924
364,18400.0,-4.766502857208252,3.184847116470337,-8.34855842590332
365,18500.0,-4.766502857208252,3.184847116470337,-8.34855842590332
366,18600.0,-4.766502857208252,3.184847116470337,-8.34855842590332
367,18700.0,-5.388636112213135,3.268595933914185,-7.073184013366699
368,18800.0,-5.388636112213135,3.268595933914185,-7.073184013366699
369,18900.0,-5.694917678833008,3.9912283420562735,-6.31944465637207
370,19000.0,-5.694917678833008,3.9912283420562735,-6.31944465637207
371,19100.0,-5.603990077972412,4.931607723236084,-6.120840072631836
372,19200.0,-5.603990077972412,4.931607723236084,-6.120840072631836
373,19300.0,-5.603990077972412,4.931607723236084,-6.120840072631836
374,19400.0,-6.116055011749268,3.7040894031524663,-7.5254268646240225
375,19500.0,-6.116055011749268,3.7040894031524663,-7.5254268646240225
376,19600.0,-6.269195556640625,1.9669002294540403,-6.580262184143066
377,19700.0,-6.269195556640625,1.9669002294540403,-6.580262184143066
378,19800.0,-6.159125804901122,3.579662799835205,-6.972684860229492
379,19900.0,-6.159125804901122,3.579662799835205,-6.972684860229492
380,20000.0,-5.560920238494873,2.665604591369629,-7.752745151519775
381,20100.0,-5.560920238494873,2.665604591369629,-7.752745151519775
382,20200.0,-5.560920238494873,2.665604591369629,-7.752745151519775
383,20300.0,-5.45563554763794,2.998206615447998,-7.056434154510497
384,20400.0,-5.45563554763794,2.998206615447998,-7.056434154510497
385,20500.0,-4.9435715675354,3.1345977783203125,-8.023134231567383
386,20600.0,-4.9435715675354,3.1345977783203125,-8.023134231567383
387,20700.0,-4.584648132324219,0.11964112520217896,-8.896513938903809
388,20800.0,-4.584648132324219,0.11964112520217896,-8.896513938903809
389,20900.0,-4.584648132324219,0.11964112520217896,-8.896513938903809
390,19500.0,-6.116055011749268,3.7040894031524663,-7.5254268646240225
391,19600.0,-6.269195556640625,1.9669002294540403,-6.580262184143066
392,19700.0,-6.269195556640625,1.9669002294540403,-6.580262184143066
393,19800.0,-6.159125804901122,3.579662799835205,-6.972684860229492
394,19900.0,-6.159125804901122,3.579662799835205,-6.972684860229492
395,20000.0,-5.560920238494873,2.665604591369629,-7.752745151519775
396,20100.0,-5.560920238494873,2.665604591369629,-7.752745151519775
397,20200.0,-5.560920238494873,2.665604591369629,-7.752745151519775
398,20300.0,-5.45563554763794,2.998206615447998,-7.056434154510497
399,20400.0,-5.45563554763794,2.998206615447998,-7.056434154510497
400,20500.0,-4.9435715675354,3.1345977783203125,-8.023134231567383
401,20600.0,-4.9435715675354,3.1345977783203125,-8.023134231567383
402,20700.0,-4.584648132324219,0.11964112520217896,-8.896513938903809
403,20800.0,-4.584648132324219,0.11964112520217896,-8.896513938903809
404,20900.0,-4.584648132324219,0.11964112520217896,-8.896513938903809
405,21000.0,-5.130211353302002,-1.3950155973434448,-7.487142086029053
406,21100.0,-5.130211353302002,-1.3950155973434448,-7.487142086029053
407,21200.0,-5.182853698730469,-1.7252250909805298,-7.908278465270996
408,21300.0,-5.182853698730469,-1.7252250909805298,-7.908278465270996
409,21400.0,-4.053441524505615,-2.4191436767578125,-9.456435203552246
410,21500.0,-4.053441524505615,-2.4191436767578125,-9.456435203552246
411,21600.0,-4.053441524505615,-2.4191436767578125,-9.456435203552246
412,21700.0,-2.5986053943634038,3.969692707061768,-9.724431037902832
413,21800.0,-2.5986053943634038,3.969692707061768,-9.724431037902832
414,21900.0,-2.273181438446045,3.641876220703125,-8.415557861328125
415,22000.0,-2.273181438446045,3.641876220703125,-8.415557861328125
416,22100.0,-3.5700912475585938,4.706681728363037,-8.693124771118164
417,22200.0,-3.5700912475585938,4.706681728363037,-8.693124771118164
418,22300.0,-4.3405799865722665,4.764110088348389,-7.829315185546875
419,22400.0,-4.3405799865722665,4.764110088348389,-7.829315185546875
420,21000.0,-5.130211353302002,-1.3950155973434448,-7.487142086029053
421,21100.0,-5.130211353302002,-1.3950155973434448,-7.487142086029053
422,21200.0,-5.182853698730469,-1.7252250909805298,-7.908278465270996
423,21300.0,-5.182853698730469,-1.7252250909805298,-7.908278465270996
424,21400.0,-4.053441524505615,-2.4191436767578125,-9.456435203552246
425,21500.0,-4.053441524505615,-2.4191436767578125,-9.456435203552246
426,21600.0,-4.053441524505615,-2.4191436767578125,-9.456435203552246
427,21700.0,-2.5986053943634038,3.969692707061768,-9.724431037902832
428,21800.0,-2.5986053943634038,3.969692707061768,-9.724431037902832
429,21900.0,-2.273181438446045,3.641876220703125,-8.415557861328125
430,22000.0,-2.273181438446045,3.641876220703125,-8.415557861328125
431,22100.0,-3.5700912475585938,4.706681728363037,-8.693124771118164
432,22200.0,-3.5700912475585938,4.706681728363037,-8.693124771118164
433,22300.0,-4.3405799865722665,4.764110088348389,-7.829315185546875
434,22400.0,-4.3405799865722665,4.764110088348389,-7.829315185546875
435,22500.0,-4.3405799865722665,4.764110088348389,-7.829315185546875
436,22600.0,-4.613362312316895,4.426721572875977,-6.702296257019043
437,22700.0,-4.613362312316895,4.426721572875977,-6.702296257019043
438,22800.0,-5.058426856994629,4.199403762817384,-6.434299945831299
439,22900.0,-5.058426856994629,4.199403762817384,-6.434299945831299
440,23000.0,-5.1637115478515625,4.453042984008789,-6.195017814636231
441,23100.0,-5.1637115478515625,4.453042984008789,-6.195017814636231
442,23200.0,-5.1637115478515625,4.453042984008789,-6.195017814636231
443,23300.0,-4.709074974060059,4.3932223320007315,-6.893722057342528
444,23400.0,-4.709074974060059,4.3932223320007315,-6.893722057342528
445,23500.0,-4.048655986785889,0.8303093910217285,-9.133403778076172
446,23600.0,-4.048655986785889,0.8303093910217285,-9.133403778076172
447,23700.0,-4.048655986785889,0.8303093910217285,-9.133403778076172
448,23800.0,-3.689732551574707,0.3780659735202789,-9.492327690124512
449,23900.0,-3.689732551574707,0.3780659735202789,-9.492327690124512
450,22500.0,-4.3405799865722665,4.764110088348389,-7.829315185546875
451,22600.0,-4.613362312316895,4.426721572875977,-6.702296257019043
452,22700.0,-4.613362312316895,4.426721572875977,-6.702296257019043
453,22800.0,-5.058426856994629,4.199403762817384,-6.434299945831299
454,22900.0,-5.058426856994629,4.199403762817384,-6.434299945831299
455,23000.0,-5.1637115478515625,4.453042984008789,-6.195017814636231
456,23100.0,-5.1637115478515625,4.453042984008789,-6.195017814636231
457,23200.0,-5.1637115478515625,4.453042984008789,-6.195017814636231
458,23300.0,-4.709074974060059,4.3932223320007315,-6.893722057342528
459,23400.0,-4.709074974060059,4.3932223320007315,-6.893722057342528
460,23500.0,-4.048655986785889,0.8303093910217285,-9.133403778076172
461,23600.0,-4.048655986785889,0.8303093910217285,-9.133403778076172
462,23700.0,-4.048655986785889,0.8303093910217285,-9.133403778076172
463,23800.0,-3.689732551574707,0.3780659735202789,-9.492327690124512
464,23900.0,-3.689732551574707,0.3780659735202789,-9.492327690124512
465,24000.0,-4.445864677429199,-0.5288137793540955,-8.927621841430664
466,24100.0,-4.445864677429199,-0.5288137793540955,-8.927621841430664
467,24200.0,-4.65643310546875,-0.4977070987224579,-8.370094299316406
468,24300.0,-4.65643310546875,-0.4977070987224579,-8.370094299316406
469,24400.0,-4.177868366241455,-0.6484549045562744,-8.341379165649414
470,24500.0,-4.177868366241455,-0.6484549045562744,-8.341379165649414
471,24600.0,-4.177868366241455,-0.6484549045562744,-8.341379165649414
472,24700.0,-5.469992637634277,1.0504491329193115,-8.075776100158691
473,24800.0,-5.469992637634277,1.0504491329193115,-8.075776100158691
474,24900.0,-5.800201892852782,1.043270707130432,-7.640282154083253
475,25000.0,-5.800201892852782,1.043270707130432,-7.640282154083253
476,25100.0,-5.800201892852782,1.043270707130432,-7.640282154083253
477,25200.0,-5.824130058288574,1.6223337650299072,-7.39142894744873
478,25300.0,-5.824130058288574,1.6223337650299072,-7.39142894744873
479,25400.0,-5.886343479156494,1.7467604875564575,-7.606783390045166
480,24000.0,-4.445864677429199,-0.5288137793540955,-8.927621841430664
481,24100.0,-4.445864677429199,-0.5288137793540955,-8.927621841430664
482,24200.0,-4.65643310546875,-0.4977070987224579,-8.370094299316406
483,24300.0,-4.65643310546875,-0.4977070987224579,-8.370094299316406
484,24400.0,-4.177868366241455,-0.6484549045562744,-8.341379165649414
485,24500.0,-4.177868366241455,-0.6484549045562744,-8.341379165649414
486,24600.0,-4.177868366241455,-0.6484549045562744,-8.341379165649414
487,24700.0,-5.469992637634277,1.0504491329193115,-8.075776100158691
488,24800.0,-5.469992637634277,1.0504491329193115,-8.075776100158691
489,24900.0,-5.800201892852782,1.043270707130432,-7.640282154083253
490,25000.0,-5.800201892852782,1.043270707130432,-7.640282154083253
491,25100.0,-5.800201892852782,1.043270707130432,-7.640282154083253
492,25200.0,-5.824130058288574,1.6223337650299072,-7.39142894744873
493,25300.0,-5.824130058288574,1.6223337650299072,-7.39142894744873
494,25400.0,-5.886343479156494,1.7467604875564575,-7.606783390045166
495,25500.0,-5.886343479156494,1.7467604875564575,-7.606783390045166
496,25600.0,-5.72841739654541,1.3423734903335571,-7.860422611236572
497,25700.0,-5.72841739654541,1.3423734903335571,-7.860422611236572
498,25800.0,-5.465207099914551,1.5098710060119631,-7.836494445800781
499,25900.0,-5.465207099914551,1.5098710060119631,-7.836494445800781
500,26000.0,-5.465207099914551,1.5098710060119631,-7.836494445800781
501,26100.0,-5.594419479370117,1.3328022956848145,-7.953742504119872
502,26200.0,-5.594419479370117,1.3328022956848145,-7.953742504119872
503,26300.0,-5.685347080230713,1.5984054803848269,-7.858029365539551
504,26400.0,-5.685347080230713,1.5984054803848269,-7.858029365539551
505,26500.0,-5.685347080230713,1.5984054803848269,-7.858029365539551
506,26600.0,-5.493920803070068,1.4333008527755735,-7.94177770614624
507,26700.0,-5.493920803070068,1.4333008527755735,-7.94177770614624
508,26800.0,-5.556134223937988,1.4333008527755735,-7.850851535797119
509,26900.0,-5.556134223937988,1.4333008527755735,-7.850851535797119
510,25500.0,-5.886343479156494,1.7467604875564575,-7.606783390045166
511,25600.0,-5.72841739654541,1.3423734903335571,-7.860422611236572
512,25700.0,-5.72841739654541,1.3423734903335571,-7.860422611236572
513,25800.0,-5.465207099914551,1.5098710060119631,-7.836494445800781
514,25900.0,-5.465207099914551,1.5098710060119631,-7.836494445800781
515,26000.0,-5.465207099914551,1.5098710060119631,-7.836494445800781
516,26100.0,-5.594419479370117,1.3328022956848145,-7.953742504119872
517,26200.0,-5.594419479370117,1.3328022956848145,-7.953742504119872
518,26300.0,-5.685347080230713,1.5984054803848269,-7.858029365539551
519,26400.0,-5.685347080230713,1.5984054803848269,-7.858029365539551
520,26500.0,-5.685347080230713,1.5984054803848269,-7.858029365539551
521,26600.0,-5.493920803070068,1.4333008527755735,-7.94177770614624
522,26700.0,-5.493920803070068,1.4333008527755735,-7.94177770614624
523,26800.0,-5.556134223937988,1.4333008527755735,-7.850851535797119
524,26900.0,-5.556134223937988,1.4333008527755735,-7.850851535797119
525,27000.0,-5.422136306762695,1.4165509939193726,-7.905886173248291
526,27100.0,-5.422136306762695,1.4165509939193726,-7.905886173248291
527,27200.0,-5.422136306762695,1.4165509939193726,-7.905886173248291
528,27300.0,-5.513063907623291,1.368694543838501,-7.913064479827881
529,27400.0,-5.513063907623291,1.368694543838501,-7.913064479827881
530,27500.0,-5.460421085357666,1.3854442834854126,-7.982456684112549
531,27600.0,-5.460421085357666,1.3854442834854126,-7.982456684112549
532,27700.0,-5.460421085357666,1.3854442834854126,-7.982456684112549
533,27800.0,-5.489135265350342,1.2658032178878784,-8.042276382446289
534,27900.0,-5.489135265350342,1.2658032178878784,-8.042276382446289
535,28000.0,-5.517848491668701,1.3112668991088867,-8.042276382446289
536,28100.0,-5.517848491668701,1.3112668991088867,-8.042276382446289
537,28200.0,-5.517848491668701,1.4715858697891235,-7.874779224395753
538,28300.0,-5.517848491668701,1.4715858697891235,-7.874779224395753
539,28400.0,-5.5274200439453125,1.3304094076156616,-7.934599876403809
540,27000.0,-5.422136306762695,1.4165509939193726,-7.905886173248291
541,27100.0,-5.422136306762695,1.4165509939193726,-7.905886173248291
542,27200.0,-5.422136306762695,1.4165509939193726,-7.905886173248291
543,27300.0,-5.513063907623291,1.368694543838501,-7.913064479827881
544,27400.0,-5.513063907623291,1.368694543838501,-7.913064479827881
545,27500.0,-5.460421085357666,1.3854442834854126,-7.982456684112549
546,27600.0,-5.460421085357666,1.3854442834854126,-7.982456684112549
547,27700.0,-5.460421085357666,1.3854442834854126,-7.982456684112549
548,27800.0,-5.489135265350342,1.2658032178878784,-8.042276382446289
549,27900.0,-5.489135265350342,1.2658032178878784,-8.042276382446289
550,28000.0,-5.517848491668701,1.3112668991088867,-8.042276382446289
551,28100.0,-5.517848491668701,1.3112668991088867,-8.042276382446289
552,28200.0,-5.517848491668701,1.4715858697891235,-7.874779224395753
553,28300.0,-5.517848491668701,1.4715858697891235,-7.874779224395753
554,28400.0,-5.5274200439453125,1.3304094076156616,-7.934599876403809
555,28500.0,-5.5274200439453125,1.3304094076156616,-7.934599876403809
556,28600.0,-5.5274200439453125,1.3304094076156616,-7.934599876403809
557,28700.0,-5.460421085357666,1.179661512374878,-7.980063438415527
558,28800.0,-5.460421085357666,1.179661512374878,-7.980063438415527
559,28900.0,-5.4077792167663565,1.2538390159606934,-7.915457248687744
560,29000.0,-5.4077792167663565,1.2538390159606934,-7.915457248687744
561,29100.0,-5.489135265350342,1.1748759746551514,-8.030312538146973
562,29200.0,-5.489135265350342,1.1748759746551514,-8.030312538146973
563,29300.0,-5.489135265350342,1.1748759746551514,-8.030312538146973
564,29400.0,-5.508277893066406,1.3471590280532837,-8.00399112701416
565,29500.0,-5.508277893066406,1.3471590280532837,-8.00399112701416
566,29600.0,-5.288137912750244,1.1389836072921753,-8.178668022155763
567,29700.0,-5.288137912750244,1.1389836072921753,-8.178668022155763
568,29800.0,-5.374279499053955,1.3663017749786377,-8.059026718139647
569,29900.0,-5.374279499053955,1.3663017749786377,-8.059026718139647
570,28500.0,-5.5274200439453125,1.3304094076156616,-7.934599876403809
571,28600.0,-5.5274200439453125,1.3304094076156616,-7.934599876403809
572,28700.0,-5.460421085357666,1.179661512374878,-7.980063438415527
573,28800.0,-5.460421085357666,1.179661512374878,-7.980063438415527
574,28900.0,-5.4077792167663565,1.2538390159606934,-7.915457248687744
575,29000.0,-5.4077792167663565,1.2538390159606934,-7.915457248687744
576,29100.0,-5.489135265350342,1.1748759746551514,-8.030312538146973
577,29200.0,-5.489135265350342,1.1748759746551514,-8.030312538146973
578,29300.0,-5.489135265350342,1.1748759746551514,-8.030312538146973
579,29400.0,-5.508277893066406,1.3471590280532837,-8.00399112701416
580,29500.0,-5.508277893066406,1.3471590280532837,-8.00399112701416
581,29600.0,-5.288137912750244,1.1389836072921753,-8.178668022155763
582,29700.0,-5.288137912750244,1.1389836072921753,-8.178668022155763
583,29800.0,-5.374279499053955,1.3663017749786377,-8.059026718139647
584,29900.0,-5.374279499053955,1.3663017749786377,-8.059026718139647
585,30000.0,-5.374279499053955,1.3663017749786377,-8.059026718139647
586,30100.0,-5.474778175354004,1.246660590171814,-7.94177770614624
587,30200.0,-5.474778175354004,1.246660590171814,-7.94177770614624
588,30300.0,-5.3694939613342285,1.361515998840332,-7.994420051574707
589,30400.0,-5.3694939613342285,1.361515998840332,-7.994420051574707
590,30500.0,-5.345565319061278,1.4787644147872925,-7.908278465270996
591,30600.0,-5.345565319061278,1.4787644147872925,-7.908278465270996
592,30700.0,-5.345565319061278,1.4787644147872925,-7.908278465270996
593,30800.0,-5.484349250793457,1.191625714302063,-8.015955924987793
594,30900.0,-5.484349250793457,1.191625714302063,-8.015955924987793
595,31000.0,-5.37906551361084,1.368694543838501,-8.023134231567383
596,31100.0,-5.37906551361084,1.368694543838501,-8.023134231567383
597,31200.0,-5.388636112213135,1.2993026971817017,-8.12123966217041
598,31300.0,-5.388636112213135,1.2993026971817017,-8.12123966217041
599,31400.0,-5.388636112213135,1.2993026971817017,-8.12123966217041
600,30000.0,-5.374279499053955,1.3663017749786377,-8.059026718139647
601,30100.0,-5.474778175354004,1.246660590171814,-7.94177770614624
602,30200.0,-5.474778175354004,1.246660590171814,-7.94177770614624
603,30300.0,-5.3694939613342285,1.361515998840332,-7.994420051574707
604,30400.0,-5.3694939613342285,1.361515998840332,-7.994420051574707
605,30500.0,-5.345565319061278,1.4787644147872925,-7.908278465270996
606,30600.0,-5.345565319061278,1.4787644147872925,-7.908278465270996
607,30700.0,-5.345565319061278,1.4787644147872925,-7.908278465270996
608,30800.0,-5.484349250793457,1.191625714302063,-8.015955924987793
609,30900.0,-5.484349250793457,1.191625714302063,-8.015955924987793
610,31000.0,-5.37906551361084,1.368694543838501,-8.023134231567383
611,31100.0,-5.37906551361084,1.368694543838501,-8.023134231567383
612,31200.0,-5.388636112213135,1.2993026971817017,-8.12123966217041
613,31300.0,-5.388636112213135,1.2993026971817017,-8.12123966217041
614,31400.0,-5.388636112213135,1.2993026971817017,-8.12123966217041
615,31500.0,-5.45563554763794,1.289731502532959,-7.999206066131593
616,31600.0,-5.45563554763794,1.289731502532959,-7.999206066131593
617,31700.0,-5.388636112213135,1.289731502532959,-8.068597793579103
618,31800.0,-5.388636112213135,1.289731502532959,-8.068597793579103
619,31900.0,-5.154139995574951,1.430907964706421,-8.169095993041992
620,32000.0,-5.154139995574951,1.430907964706421,-8.169095993041992
621,32100.0,-5.154139995574951,1.430907964706421,-8.169095993041992
622,32200.0,-5.776273727416992,1.3663017749786377,-7.685746192932129
623,32300.0,-5.776273727416992,1.3663017749786377,-7.685746192932129
624,32400.0,-5.737988471984862,1.3280165195465088,-7.728816509246826
625,32500.0,-5.737988471984862,1.3280165195465088,-7.728816509246826
626,32600.0,-5.570490837097168,1.7132610082626345,-7.829315185546875
627,32700.0,-5.570490837097168,1.7132610082626345,-7.829315185546875
628,32800.0,-5.570490837097168,1.7132610082626345,-7.829315185546875
629,32900.0,-5.905486583709718,1.7635102272033691,-7.57806921005249
630,31500.0,-5.45563554763794,1.289731502532959,-7.999206066131593
631,31600.0,-5.45563554763794,1.289731502532959,-7.999206066131593
632,31700.0,-5.388636112213135,1.289731502532959,-8.068597793579103
633,31800.0,-5.388636112213135,1.289731502532959,-8.068597793579103
634,31900.0,-5.154139995574951,1.430907964706421,-8.169095993041992
635,32000.0,-5.154139995574951,1.430907964706421,-8.169095993041992
636,32100.0,-5.154139995574951,1.430907964706421,-8.169095993041992
637,32200.0,-5.776273727416992,1.3663017749786377,-7.685746192932129
638,32300.0,-5.776273727416992,1.3663017749786377,-7.685746192932129
639,32400.0,-5.737988471984862,1.3280165195465088,-7.728816509246826
640,32500.0,-5.737988471984862,1.3280165195465088,-7.728816509246826
641,32600.0,-5.570490837097168,1.7132610082626345,-7.829315185546875
642,32700.0,-5.570490837097168,1.7132610082626345,-7.829315185546875
643,32800.0,-5.570490837097168,1.7132610082626345,-7.829315185546875
644,32900.0,-5.905486583709718,1.7635102272033691,-7.57806921005249
645,33000.0,-5.905486583709718,1.7635102272033691,-7.57806921005249
646,33100.0,-6.154339790344237,1.4668002128601074,-7.345965385437013
647,33200.0,-6.154339790344237,1.4668002128601074,-7.345965385437013
648,33300.0,-6.154339790344237,1.4668002128601074,-7.345965385437013
649,33400.0,-6.178267955780028,1.5960125923156738,-7.465606689453125
650,33500.0,-6.178267955780028,1.5960125923156738,-7.465606689453125
651,33600.0,-6.178267955780028,1.5960125923156738,-7.465606689453125
652,33700.0,-6.058626651763916,1.6390833854675293,-7.5014991760253915
653,33800.0,-6.058626651763916,1.6390833854675293,-7.5014991760253915
654,33900.0,-6.1256256103515625,1.794616937637329,-7.350750923156737
655,34000.0,-6.1256256103515625,1.794616937637329,-7.350750923156737
656,34100.0,-6.1256256103515625,1.794616937637329,-7.350750923156737
657,34200.0,-6.077769756317139,1.6271194219589231,-7.451249599456787
658,34300.0,-6.077769756317139,1.6271194219589231,-7.451249599456787
659,34400.0,-5.828916072845459,2.0410776138305664,-7.52303409576416
660,33000.0,-5.905486583709718,1.7635102272033691,-7.57806921005249
661,33100.0,-6.154339790344237,1.4668002128601074,-7.345965385437013
662,33200.0,-6.154339790344237,1.4668002128601074,-7.345965385437013
663,33300.0,-6.154339790344237,1.4668002128601074,-7.345965385437013
664,33400.0,-6.178267955780028,1.5960125923156738,-7.465606689453125
665,33500.0,-6.178267955780028,1.5960125923156738,-7.465606689453125
666,33600.0,-6.178267955780028,1.5960125923156738,-7.465606689453125
667,33700.0,-6.058626651763916,1.6390833854675293,-7.5014991760253915
668,33800.0,-6.058626651763916,1.6390833854675293,-7.5014991760253915
669,33900.0,-6.1256256103515625,1.794616937637329,-7.350750923156737
670,34000.0,-6.1256256103515625,1.794616937637329,-7.350750923156737
671,34100.0,-6.1256256103515625,1.794616937637329,-7.350750923156737
672,34200.0,-6.077769756317139,1.6271194219589231,-7.451249599456787
673,34300.0,-6.077769756317139,1.6271194219589231,-7.451249599456787
674,34400.0,-5.828916072845459,2.0410776138305664,-7.52303409576416
675,34500.0,-5.828916072845459,2.0410776138305664,-7.52303409576416
676,34600.0,-5.5896339416503915,1.9334007501602173,-7.764709949493407
677,34700.0,-5.5896339416503915,1.9334007501602173,-7.764709949493407
678,34800.0,-5.613561630249023,1.6965112686157229,-7.841279983520508
679,34900.0,-5.613561630249023,1.6965112686157229,-7.841279983520508
680,35000.0,-5.714060306549072,1.9716858863830569,-7.680960178375244
681,35100.0,-5.714060306549072,1.9716858863830569,-7.680960178375244
682,35200.0,-5.714060306549072,1.9716858863830569,-7.680960178375244
683,35300.0,-5.115854740142822,1.998006820678711,-8.638089179992676
684,35400.0,-5.115854740142822,1.998006820678711,-8.638089179992676
685,35500.0,-5.45563554763794,-0.4929214715957642,-8.695517539978027
686,35600.0,-5.45563554763794,-0.4929214715957642,-8.695517539978027
687,35700.0,-6.16391134262085,-1.954936146736145,-6.860222339630128
688,35800.0,-6.16391134262085,-1.954936146736145,-6.860222339630128
689,35900.0,-4.54636287689209,-0.1746760606765747,-8.590232849121094
690,34500.0,-5.828916072845459,2.0410776138305664,-7.52303409576416
691,34600.0,-5.5896339416503915,1.9334007501602173,-7.764709949493407
692,34700.0,-5.5896339416503915,1.9334007501602173,-7.764709949493407
693,34800.0,-5.613561630249023,1.6965112686157229,-7.841279983520508
694,34900.0,-5.613561630249023,1.6965112686157229,-7.841279983520508
695,35000.0,-5.714060306549072,1.9716858863830569,-7.680960178375244
696,35100.0,-5.714060306549072,1.9716858863830569,-7.680960178375244
697,35200.0,-5.714060306549072,1.9716858863830569,-7.680960178375244
698,35300.0,-5.115854740142822,1.998006820678711,-8.638089179992676
699,35400.0,-5.115854740142822,1.998006820678711,-8.638089179992676
700,35500.0,-5.45563554763794,-0.4929214715957642,-8.695517539978027
701,35600.0,-5.45563554763794,-0.4929214715957642,-8.695517539978027
702,35700.0,-6.16391134262085,-1.954936146736145,-6.860222339630128
703,35800.0,-6.16391134262085,-1.954936146736145,-6.860222339630128
704,35900.0,-4.54636287689209,-0.1746760606765747,-8.590232849121094
705,36000.0,-4.54636287689209,-0.1746760606765747,-8.590232849121094
706,36100.0,-4.043870449066162,-1.308874011039734,-9.920641899108887
707,36200.0,-4.043870449066162,-1.308874011039734,-9.920641899108887
708,36300.0,-3.3930225372314453,-0.7130610942840576,-8.97787094116211
709,36400.0,-3.3930225372314453,-0.7130610942840576,-8.97787094116211
710,36500.0,-3.3930225372314453,-0.7130610942840576,-8.97787094116211
711,36600.0,-3.0005996227264404,-1.9908283948898315,-10.001997947692873
712,36700.0,-3.0005996227264404,-1.9908283948898315,-10.001997947692873
713,36800.0,-3.1202406883239746,-0.2273181527853012,-9.190832138061523
714,36900.0,-3.1202406883239746,-0.2273181527853012,-9.190832138061523
715,37000.0,-3.7663028240203857,2.785245418548584,-8.587841033935549
716,37100.0,-3.7663028240203857,2.785245418548584,-8.587841033935549
717,37200.0,-3.7663028240203857,2.785245418548584,-8.587841033935549
718,37300.0,-2.1439690589904785,-0.6604190468788147,-10.28913688659668
719,37400.0,-2.1439690589904785,-0.6604190468788147,-10.28913688659668
720,36000.0,-4.54636287689209,-0.1746760606765747,-8.590232849121094
721,36100.0,-4.043870449066162,-1.308874011039734,-9.920641899108887
722,36200.0,-4.043870449066162,-1.308874011039734,-9.920641899108887
723,36300.0,-3.3930225372314453,-0.7130610942840576,-8.97787094116211
724,36400.0,-3.3930225372314453,-0.7130610942840576,-8.97787094116211
725,36500.0,-3.3930225372314453,-0.7130610942840576,-8.97787094116211
726,36600.0,-3.0005996227264404,-1.9908283948898315,-10.001997947692873
727,36700.0,-3.0005996227264404,-1.9908283948898315,-10.001997947692873
728,36800.0,-3.1202406883239746,-0.2273181527853012,-9.190832138061523
729,36900.0,-3.1202406883239746,-0.2273181527853012,-9.190832138061523
730,37000.0,-3.7663028240203857,2.785245418548584,-8.587841033935549
731,37100.0,-3.7663028240203857,2.785245418548584,-8.587841033935549
732,37200.0,-3.7663028240203857,2.785245418548584,-8.587841033935549
733,37300.0,-2.1439690589904785,-0.6604190468788147,-10.28913688659668
734,37400.0,-2.1439690589904785,-0.6604190468788147,-10.28913688659668
735,37500.0,-2.4741785526275635,4.95792818069458,-8.47298526763916
736,37600.0,-2.4741785526275635,4.95792818069458,-8.47298526763916
737,37700.0,-3.627518892288208,4.974678039550781,-8.336593627929688
738,37800.0,-3.627518892288208,4.974678039550781,-8.336593627929688
739,37900.0,-4.766502857208252,3.9505498409271236,-6.503692150115968
740,38000.0,-4.766502857208252,3.9505498409271236,-6.503692150115968
741,38100.0,-4.766502857208252,3.9505498409271236,-6.503692150115968
742,38200.0,-5.5896339416503915,3.084348201751709,-7.152146816253662
743,38300.0,-5.5896339416503915,3.084348201751709,-7.152146816253662
744,38400.0,-5.737988471984862,3.967299938201904,-7.147361278533936
745,38500.0,-5.737988471984862,3.967299938201904,-7.147361278533936
746,38600.0,-5.613561630249023,3.1178479194641118,-7.968099594116211
747,38700.0,-5.613561630249023,3.1178479194641118,-7.968099594116211
748,38800.0,-5.613561630249023,3.1178479194641118,-7.968099594116211
749,38900.0,-5.891129493713379,4.072584152221681,-7.144968032836914
750,37500.0,-2.4741785526275635,4.95792818069458,-8.47298526763916
751,37600.0,-2.4741785526275635,4.95792818069458,-8.47298526763916
752,37700.0,-3.627518892288208,4.974678039550781,-8.336593627929688
753,37800.0,-3.627518892288208,4.974678039550781,-8.336593627929688
754,37900.0,-4.766502857208252,3.9505498409271236,-6.503692150115968
755,38000.0,-4.766502857208252,3.9505498409271236,-6.503692150115968
756,38100.0,-4.766502857208252,3.9505498409271236,-6.503692150115968
757,38200.0,-5.5896339416503915,3.084348201751709,-7.152146816253662
758,38300.0,-5.5896339416503915,3.084348201751709,-7.152146816253662
759,38400.0,-5.737988471984862,3.967299938201904,-7.147361278533936
760,38500.0,-5.737988471984862,3.967299938201904,-7.147361278533936
761,38600.0,-5.613561630249023,3.1178479194641118,-7.968099594116211
762,38700.0,-5.613561630249023,3.1178479194641118,-7.968099594116211
763,38800.0,-5.613561630249023,3.1178479194641118,-7.968099594116211
764,38900.0,-5.891129493713379,4.072584152221681,-7.144968032836914
765,39000.0,-5.891129493713379,4.072584152221681,-7.144968032836914
766,39100.0,-6.522834300994872,3.759124279022217,-6.470191955566406
767,39200.0,-6.522834300994872,3.759124279022217,-6.470191955566406
768,39300.0,-6.154339790344237,3.768695831298828,-6.285945415496826
769,39400.0,-6.154339790344237,3.768695831298828,-6.285945415496826
770,39500.0,-6.154339790344237,3.768695831298828,-6.285945415496826
771,39600.0,-5.412564754486084,3.369094133377075,-6.668797016143799
772,39700.0,-5.412564754486084,3.369094133377075,-6.668797016143799
773,39800.0,-5.278566360473633,1.529013752937317,-7.805387496948242
774,39900.0,-5.278566360473633,1.529013752937317,-7.805387496948242
775,40000.0,-5.278566360473633,1.529013752937317,-7.805387496948242
776,40100.0,-5.446063995361328,-1.6462620496749878,-8.95394229888916
777,40200.0,-5.446063995361328,-1.6462620496749878,-8.95394229888916
778,40300.0,-4.776073932647705,-1.4452648162841797,-7.503891944885254
779,40400.0,-4.776073932647705,-1.4452648162841797,-7.503891944885254
780,39000.0,-5.891129493713379,4.072584152221681,-7.144968032836914
781,39100.0,-6.522834300994872,3.759124279022217,-6.470191955566406
782,39200.0,-6.522834300994872,3.759124279022217,-6.470191955566406
783,39300.0,-6.154339790344237,3.768695831298828,-6.285945415496826
784,39400.0,-6.154339790344237,3.768695831298828,-6.285945415496826
785,39500.0,-6.154339790344237,3.768695831298828,-6.285945415496826
786,39600.0,-5.412564754486084,3.369094133377075,-6.668797016143799
787,39700.0,-5.412564754486084,3.369094133377075,-6.668797016143799
788,39800.0,-5.278566360473633,1.529013752937317,-7.805387496948242
789,39900.0,-5.278566360473633,1.529013752937317,-7.805387496948242
790,40000.0,-5.278566360473633,1.529013752937317,-7.805387496948242
791,40100.0,-5.446063995361328,-1.6462620496749878,-8.95394229888916
792,40200.0,-5.446063995361328,-1.6462620496749878,-8.95394229888916
793,40300.0,-4.776073932647705,-1.4452648162841797,-7.503891944885254
794,40400.0,-4.776073932647705,-1.4452648162841797,-7.503891944885254
795,40500.0,-3.9912283420562735,-2.2947168350219727,-8.805586814880371
796,40600.0,-3.9912283420562735,-2.2947168350219727,-8.805586814880371
797,40700.0,-3.9912283420562735,-2.2947168350219727,-8.805586814880371
798,40800.0,-3.268595933914185,1.1389836072921753,-9.556933403015137
799,40900.0,-3.268595933914185,1.1389836072921753,-9.556933403015137
800,41000.0,-2.675175428390503,1.2705888748168943,-8.647661209106445
801,41100.0,-2.675175428390503,1.2705888748168943,-8.647661209106445
802,41200.0,-2.9718859195709233,3.7567315101623535,-9.128618240356444
803,41300.0,-2.9718859195709233,3.7567315101623535,-9.128618240356444
804,41400.0,-2.9718859195709233,3.7567315101623535,-9.128618240356444
805,41500.0,-3.5509488582611084,3.948157548904419,-8.784051895141603
806,41600.0,-3.5509488582611084,3.948157548904419,-8.784051895141603
807,41700.0,-4.264009952545166,4.634897232055664,-7.001399040222168
808,41800.0,-4.264009952545166,4.634897232055664,-7.001399040222168
809,41900.0,-4.661218643188477,4.955535888671875,-6.857830047607423
810,40500.0,-3.9912283420562735,-2.2947168350219727,-8.805586814880371
811,40600.0,-3.9912283420562735,-2.2947168350219727,-8.805586814880371
812,40700.0,-3.9912283420562735,-2.2947168350219727,-8.805586814880371
813,40800.0,-3.268595933914185,1.1389836072921753,-9.556933403015137
814,40900.0,-3.268595933914185,1.1389836072921753,-9.556933403015137
815,41000.0,-2.675175428390503,1.2705888748168943,-8.647661209106445
816,41100.0,-2.675175428390503,1.2705888748168943,-8.647661209106445
817,41200.0,-2.9718859195709233,3.7567315101623535,-9.128618240356444
818,41300.0,-2.9718859195709233,3.7567315101623535,-9.128618240356444
819,41400.0,-2.9718859195709233,3.7567315101623535,-9.128618240356444
820,41500.0,-3.5509488582611084,3.948157548904419,-8.784051895141603
821,41600.0,-3.5509488582611084,3.948157548904419,-8.784051895141603
822,41700.0,-4.264009952545166,4.634897232055664,-7.001399040222168
823,41800.0,-4.264009952545166,4.634897232055664,-7.001399040222168
824,41900.0,-4.661218643188477,4.955535888671875,-6.857830047607423
825,42000.0,-4.661218643188477,4.955535888671875,-6.857830047607423
826,42100.0,-4.283152580261231,3.976871252059937,-7.36032247543335
827,42200.0,-4.283152580261231,3.976871252059937,-7.36032247543335
828,42300.0,-4.479363918304443,3.9912283420562735,-6.984649658203125
829,42400.0,-4.479363918304443,3.9912283420562735,-6.984649658203125
830,42500.0,-4.479363918304443,3.9912283420562735,-6.984649658203125
831,42600.0,-5.45563554763794,0.8662018179893494,-8.099704742431639
832,42700.0,-5.45563554763794,0.8662018179893494,-8.099704742431639
833,42800.0,-5.886343479156494,1.00259268283844,-8.135597229003906
834,42900.0,-5.886343479156494,1.00259268283844,-8.135597229003906
835,43000.0,-5.886343479156494,1.00259268283844,-8.135597229003906
836,43100.0,-4.977071285247803,0.6005984544754028,-8.614161491394043
837,43200.0,-4.977071285247803,0.6005984544754028,-8.614161491394043
838,43300.0,-4.479363918304443,1.4069796800613403,-8.539983749389647
839,43400.0,-4.479363918304443,1.4069796800613403,-8.539983749389647
840,42000.0,-4.661218643188477,4.955535888671875,-6.857830047607423
841,42100.0,-4.283152580261231,3.976871252059937,-7.36032247543335
842,42200.0,-4.283152580261231,3.976871252059937,-7.36032247543335
843,42300.0,-4.479363918304443,3.9912283420562735,-6.984649658203125
844,42400.0,-4.479363918304443,3.9912283420562735,-6.984649658203125
845,42500.0,-4.479363918304443,3.9912283420562735,-6.984649658203125
846,42600.0,-5.45563554763794,0.8662018179893494,-8.099704742431639
847,42700.0,-5.45563554763794,0.8662018179893494,-8.099704742431639
848,42800.0,-5.886343479156494,1.00259268283844,-8.135597229003906
849,42900.0,-5.886343479156494,1.00259268283844,-8.135597229003906
850,43000.0,-5.886343479156494,1.00259268283844,-8.135597229003906
851,43100.0,-4.977071285247803,0.6005984544754028,-8.614161491394043
852,43200.0,-4.977071285247803,0.6005984544754028,-8.614161491394043
853,43300.0,-4.479363918304443,1.4069796800613403,-8.539983749389647
854,43400.0,-4.479363918304443,1.4069796800613403,-8.539983749389647
855,43500.0,-4.072584152221681,1.4524433612823486,-8.786444664001465
856,43600.0,-4.072584152221681,1.4524433612823486,-8.786444664001465
857,43700.0,-4.072584152221681,1.4524433612823486,-8.786444664001465
858,43800.0,-4.460221290588379,0.8997013568878174,-8.422735214233397
859,43900.0,-4.460221290588379,0.8997013568878174,-8.422735214233397
860,44000.0,-4.264009952545166,-1.7084753513336182,-8.551947593688965
861,44100.0,-4.264009952545166,-1.7084753513336182,-8.551947593688965
862,44200.0,-4.264009952545166,-1.7084753513336182,-8.551947593688965
863,44300.0,-4.201796531677246,-0.2703889608383179,-9.131011009216307
864,44400.0,-4.201796531677246,-0.2703889608383179,-9.131011009216307
865,44500.0,-4.283152580261231,0.07417750358581543,-8.640481948852539
866,44600.0,-4.283152580261231,0.07417750358581543,-8.640481948852539
867,44700.0,-4.369294166564941,0.3517449200153351,-8.609375953674316
868,44800.0,-4.369294166564941,0.3517449200153351,-8.609375953674316
869,44900.0,-4.369294166564941,0.3517449200153351,-8.609375953674316
870,43500.0,-4.072584152221681,1.4524433612823486,-8.786444664001465
871,43600.0,-4.072584152221681,1.4524433612823486,-8.786444664001465
872,43700.0,-4.072584152221681,1.4524433612823486,-8.786444664001465
873,43800.0,-4.460221290588379,0.8997013568878174,-8.422735214233397
874,43900.0,-4.460221290588379,0.8997013568878174,-8.422735214233397
875,44000.0,-4.264009952545166,-1.7084753513336182,-8.551947593688965
876,44100.0,-4.264009952545166,-1.7084753513336182,-8.551947593688965
877,44200.0,-4.264009952545166,-1.7084753513336182,-8.551947593688965
878,44300.0,-4.201796531677246,-0.2703889608383179,-9.131011009216307
879,44400.0,-4.201796531677246,-0.2703889608383179,-9.131011009216307
880,44500.0,-4.283152580261231,0.07417750358581543,-8.640481948852539
881,44600.0,-4.283152580261231,0.07417750358581543,-8.640481948852539
882,44700.0,-4.369294166564941,0.3517449200153351,-8.609375953674316
883,44800.0,-4.369294166564941,0.3517449200153351,-8.609375953674316
884,44900.0,-4.369294166564941,0.3517449200153351,-8.609375953674316
885,45000.0,-4.249652862548828,0.2632104754447937,-8.645268440246582
886,45100.0,-4.249652862548828,0.2632104754447937,-8.645268440246582
887,45200.0,-4.082155227661134,0.3110669553279877,-8.934800148010254
888,45300.0,-4.082155227661134,0.3110669553279877,-8.934800148010254
889,45400.0,-4.082155227661134,0.3110669553279877,-8.934800148010254
890,45500.0,-4.240081787109375,0.7872385978698729,-8.84626579284668
891,45600.0,-4.240081787109375,0.7872385978698729,-8.84626579284668
892,45700.0,-4.3310089111328125,0.7393822073936462,-8.640481948852539
893,45800.0,-4.3310089111328125,0.7393822073936462,-8.640481948852539
894,45900.0,-4.177868366241455,0.7393822073936462,-8.764908790588379
895,46000.0,-4.177868366241455,0.7393822073936462,-8.764908790588379
896,46100.0,-4.177868366241455,0.7393822073936462,-8.764908790588379
897,46200.0,-4.19701099395752,0.6771688461303711,-8.84626579284668
898,46300.0,-4.19701099395752,0.6771688461303711,-8.84626579284668
899,46400.0,-4.177868366241455,0.6843472719192505,-8.82951545715332
900,45000.0,-4.249652862548828,0.2632104754447937,-8.645268440246582
901,45100.0,-4.249652862548828,0.2632104754447937,-8.645268440246582
902,45200.0,-4.082155227661134,0.3110669553279877,-8.934800148010254
903,45300.0,-4.082155227661134,0.3110669553279877,-8.934800148010254
904,45400.0,-4.082155227661134,0.3110669553279877,-8.934800148010254
905,45500.0,-4.240081787109375,0.7872385978698729,-8.84626579284668
906,45600.0,-4.240081787109375,0.7872385978698729,-8.84626579284668
907,45700.0,-4.3310089111328125,0.7393822073936462,-8.640481948852539
908,45800.0,-4.3310089111328125,0.7393822073936462,-8.640481948852539
909,45900.0,-4.177868366241455,0.7393822073936462,-8.764908790588379
910,46000.0,-4.177868366241455,0.7393822073936462,-8.764908790588379
911,46100.0,-4.177868366241455,0.7393822073936462,-8.764908790588379
912,46200.0,-4.19701099395752,0.6771688461303711,-8.84626579284668
913,46300.0,-4.19701099395752,0.6771688461303711,-8.84626579284668
914,46400.0,-4.177868366241455,0.6843472719192505,-8.82951545715332
915,46500.0,-4.177868366241455,0.6843472719192505,-8.82951545715332
916,46600.0,-4.1587257385253915,0.7106683850288391,-8.73619556427002
917,46700.0,-4.1587257385253915,0.7106683850288391,-8.73619556427002
918,46800.0,-4.25922441482544,0.7728817462921143,-8.678767204284668
919,46900.0,-4.25922441482544,0.7728817462921143,-8.678767204284668
920,47000.0,-4.25922441482544,0.7728817462921143,-8.678767204284668
921,47100.0,-4.3070807456970215,0.7465606331825256,-8.678767204284668
922,47200.0,-4.3070807456970215,0.7465606331825256,-8.678767204284668
923,47300.0,-4.254438400268556,0.7561319470405579,-8.690732002258299
924,47400.0,-4.254438400268556,0.7561319470405579,-8.690732002258299
925,47500.0,-4.287938117980957,0.7322037816047668,-8.738588333129883
926,47600.0,-4.287938117980957,0.7322037816047668,-8.738588333129883
927,47700.0,-4.287938117980957,0.7322037816047668,-8.738588333129883
928,47800.0,-4.264009952545166,0.7561319470405579,-8.764908790588379
929,47900.0,-4.264009952545166,0.7561319470405579,-8.764908790588379
930,46500.0,-4.177868366241455,0.6843472719192505,-8.82951545715332
931,46600.0,-4.1587257385253915,0.7106683850288391,-8.73619556427002
932,46700.0,-4.1587257385253915,0.7106683850288391,-8.73619556427002
933,46800.0,-4.25922441482544,0.7728817462921143,-8.678767204284668
934,46900.0,-4.25922441482544,0.7728817462921143,-8.678767204284668
935,47000.0,-4.25922441482544,0.7728817462921143,-8.678767204284668
936,47100.0,-4.3070807456970215,0.7465606331825256,-8.678767204284668
937,47200.0,-4.3070807456970215,0.7465606331825256,-8.678767204284668
938,47300.0,-4.254438400268556,0.7561319470405579,-8.690732002258299
939,47400.0,-4.254438400268556,0.7561319470405579,-8.690732002258299
940,47500.0,-4.287938117980957,0.7322037816047668,-8.738588333129883
941,47600.0,-4.287938117980957,0.7322037816047668,-8.738588333129883
942,47700.0,-4.287938117980957,0.7322037816047668,-8.738588333129883
943,47800.0,-4.264009952545166,0.7561319470405579,-8.764908790588379
944,47900.0,-4.264009952545166,0.7561319470405579,-8.764908790588379
945,48000.0,-4.292723655700684,0.6388836503028871,-8.688338279724121
946,48100.0,-4.292723655700684,0.6388836503028871,-8.688338279724121
947,48200.0,-4.292723655700684,0.6388836503028871,-8.688338279724121
948,48300.0,-4.192224979400635,0.6149553656578064,-8.755338668823242
949,48400.0,-4.192224979400635,0.6149553656578064,-8.755338668823242
950,48500.0,-4.192224979400635,0.397208571434021,-8.83669376373291
951,48600.0,-4.192224979400635,0.397208571434021,-8.83669376373291
952,48700.0,-4.168296813964844,0.5790630578994751,-8.748159408569336
953,48800.0,-4.168296813964844,0.5790630578994751,-8.748159408569336
954,48900.0,-4.168296813964844,0.5790630578994751,-8.748159408569336
955,49000.0,-4.273581027984618,0.5359922647476196,-8.690732002258299
956,49100.0,-4.273581027984618,0.5359922647476196,-8.690732002258299
957,49200.0,-4.249652862548828,0.3254238963127136,-8.729016304016112
958,49300.0,-4.249652862548828,0.3254238963127136,-8.729016304016112
959,49400.0,-4.201796531677246,0.4905286431312561,-8.772088050842285
960,48000.0,-4.292723655700684,0.6388836503028871,-8.688338279724121
961,48100.0,-4.292723655700684,0.6388836503028871,-8.688338279724121
962,48200.0,-4.292723655700684,0.6388836503028871,-8.688338279724121
963,48300.0,-4.192224979400635,0.6149553656578064,-8.755338668823242
964,48400.0,-4.192224979400635,0.6149553656578064,-8.755338668823242
965,48500.0,-4.192224979400635,0.397208571434021,-8.83669376373291
966,48600.0,-4.192224979400635,0.397208571434021,-8.83669376373291
967,48700.0,-4.168296813964844,0.5790630578994751,-8.748159408569336
968,48800.0,-4.168296813964844,0.5790630578994751,-8.748159408569336
969,48900.0,-4.168296813964844,0.5790630578994751,-8.748159408569336
970,49000.0,-4.273581027984618,0.5359922647476196,-8.690732002258299
971,49100.0,-4.273581027984618,0.5359922647476196,-8.690732002258299
972,49200.0,-4.249652862548828,0.3254238963127136,-8.729016304016112
973,49300.0,-4.249652862548828,0.3254238963127136,-8.729016304016112
974,49400.0,-4.201796531677246,0.4905286431312561,-8.772088050842285
975,49500.0,-4.201796531677246,0.4905286431312561,-8.772088050842285
976,49600.0,-4.1587257385253915,0.5790630578994751,-8.721837997436522
977,49700.0,-4.1587257385253915,0.5790630578994751,-8.721837997436522
978,49800.0,-4.053441524505615,0.5503491759300232,-8.781659126281737
979,49900.0,-4.053441524505615,0.5503491759300232,-8.781659126281737
980,50000.0,-4.053441524505615,0.5120640397071838,-8.855835914611816
981,50100.0,-4.053441524505615,0.5120640397071838,-8.855835914611816
982,50200.0,-4.053441524505615,0.5120640397071838,-8.855835914611816
983,50300.0,-4.077369689941406,0.5575276613235474,-8.745766639709473
984,50400.0,-4.077369689941406,0.5575276613235474,-8.745766639709473
985,50500.0,-4.072584152221681,0.4235295951366425,-8.812766075134277
986,50600.0,-4.072584152221681,0.4235295951366425,-8.812766075134277
987,50700.0,-4.0869412422180185,0.5455635190010071,-8.815157890319824
988,50800.0,-4.0869412422180185,0.5455635190010071,-8.815157890319824
989,50900.0,-4.350151538848877,0.672383189201355,-8.666803359985353
990,49500.0,-4.201796531677246,0.4905286431312561,-8.772088050842285
991,49600.0,-4.1587257385253915,0.5790630578994751,-8.721837997436522
992,49700.0,-4.1587257385253915,0.5790630578994751,-8.721837997436522
993,49800.0,-4.053441524505615,0.5503491759300232,-8.781659126281737
994,49900.0,-4.053441524505615,0.5503491759300232,-8.781659126281737
995,50000.0,-4.053441524505615,0.5120640397071838,-8.855835914611816
996,50100.0,-4.053441524505615,0.5120640397071838,-8.855835914611816
997,50200.0,-4.053441524505615,0.5120640397071838,-8.855835914611816
998,50300.0,-4.077369689941406,0.5575276613235474,-8.745766639709473
999,50400.0,-4.077369689941406,0.5575276613235474,-8.745766639709473
1000,50500.0,-4.072584152221681,0.4235295951366425,-8.812766075134277
1001,50600.0,-4.072584152221681,0.4235295951366425,-8.812766075134277
1002,50700.0,-4.0869412422180185,0.5455635190010071,-8.815157890319824
1003,50800.0,-4.0869412422180185,0.5455635190010071,-8.815157890319824
1004,50900.0,-4.350151538848877,0.672383189201355,-8.666803359985353
1005,51000.0,-4.350151538848877,0.672383189201355,-8.666803359985353
1006,51100.0,-4.350151538848877,0.672383189201355,-8.666803359985353
1007,51200.0,-4.273581027984618,0.552742063999176,-8.762516975402832
1008,51300.0,-4.273581027984618,0.552742063999176,-8.762516975402832
1009,51400.0,-4.407578945159912,0.7178468108177185,-8.561518669128418
1010,51500.0,-4.407578945159912,0.7178468108177185,-8.561518669128418
1011,51600.0,-4.254438400268556,0.6891329884529114,-8.853443145751953
1012,51700.0,-4.254438400268556,0.6891329884529114,-8.853443145751953
1013,51800.0,-4.082155227661134,0.672383189201355,-8.973085403442383
1014,51900.0,-4.082155227661134,0.672383189201355,-8.973085403442383
1015,52000.0,-4.082155227661134,0.672383189201355,-8.973085403442383
1016,52100.0,-4.335794448852538,1.2969098091125488,-8.539983749389647
1017,52200.0,-4.335794448852538,1.2969098091125488,-8.539983749389647
1018,52300.0,-4.5032920837402335,0.8685945868492126,-8.678767204284668
1019,52400.0,-4.5032920837402335,0.8685945868492126,-8.678767204284668
1020,51000.0,-4.350151538848877,0.672383189201355,-8.666803359985353
1021,51100.0,-4.350151538848877,0.672383189201355,-8.666803359985353
1022,51200.0,-4.273581027984618,0.552742063999176,-8.762516975402832
1023,51300.0,-4.273581027984618,0.552742063999176,-8.762516975402832
1024,51400.0,-4.407578945159912,0.7178468108177185,-8.561518669128418
1025,51500.0,-4.407578945159912,0.7178468108177185,-8.561518669128418
1026,51600.0,-4.254438400268556,0.6891329884529114,-8.853443145751953
1027,51700.0,-4.254438400268556,0.6891329884529114,-8.853443145751953
1028,51800.0,-4.082155227661134,0.672383189201355,-8.973085403442383
1029,51900.0,-4.082155227661134,0.672383189201355,-8.973085403442383
1030,52000.0,-4.082155227661134,0.672383189201355,-8.973085403442383
1031,52100.0,-4.335794448852538,1.2969098091125488,-8.539983749389647
1032,52200.0,-4.335794448852538,1.2969098091125488,-8.539983749389647
1033,52300.0,-4.5032920837402335,0.8685945868492126,-8.678767204284668
1034,52400.0,-4.5032920837402335,0.8685945868492126,-8.678767204284668
1035,52500.0,-4.2448673248291025,0.7609176039695741,-8.738588333129883
1036,52600.0,-4.2448673248291025,0.7609176039695741,-8.738588333129883
1037,52700.0,-4.2448673248291025,0.7609176039695741,-8.738588333129883
1038,52800.0,-4.230510234832764,0.7345964908599854,-8.767301559448242
1039,52900.0,-4.230510234832764,0.7345964908599854,-8.767301559448242
1040,53000.0,-4.144368648529054,0.5431707501411438,-8.71466064453125
1041,53100.0,-4.144368648529054,0.5431707501411438,-8.71466064453125
1042,53200.0,-4.441079139709473,0.30149564146995544,-8.681159973144531
1043,53300.0,-4.441079139709473,0.30149564146995544,-8.681159973144531
1044,53400.0,-4.441079139709473,0.30149564146995544,-8.681159973144531
1045,53500.0,-4.144368648529054,-0.05982056260108948,-8.539983749389647
1046,53600.0,-4.144368648529054,-0.05982056260108948,-8.539983749389647
1047,53700.0,-4.527220726013184,0.1579262912273407,-8.477770805358888
1048,53800.0,-4.527220726013184,0.1579262912273407,-8.477770805358888
1049,53900.0,-4.527220726013184,0.1579262912273407,-8.477770805358888
1050,52500.0,-4.2448673248291025,0.7609176039695741,-8.738588333129883
1051,52600.0,-4.2448673248291025,0.7609176039695741,-8.738588333129883
1052,52700.0,-4.2448673248291025,0.7609176039695741,-8.738588333129883
1053,52800.0,-4.230510234832764,0.7345964908599854,-8.767301559448242
1054,52900.0,-4.230510234832764,0.7345964908599854,-8.767301559448242
1055,53000.0,-4.144368648529054,0.5431707501411438,-8.71466064453125
1056,53100.0,-4.144368648529054,0.5431707501411438,-8.71466064453125
1057,53200.0,-4.441079139709473,0.30149564146995544,-8.681159973144531
1058,53300.0,-4.441079139709473,0.30149564146995544,-8.681159973144531
1059,53400.0,-4.441079139709473,0.30149564146995544,-8.681159973144531
1060,53500.0,-4.144368648529054,-0.05982056260108948,-8.539983749389647
1061,53600.0,-4.144368648529054,-0.05982056260108948,-8.539983749389647
1062,53700.0,-4.527220726013184,0.1579262912273407,-8.477770805358888
1063,53800.0,-4.527220726013184,0.1579262912273407,-8.477770805358888
1064,53900.0,-4.527220726013184,0.1579262912273407,-8.477770805358888
1065,54000.0,-4.106083393096924,-0.5431707501411438,-8.85105037689209
1066,54100.0,-4.106083393096924,-0.5431707501411438,-8.85105037689209
1067,54200.0,-4.182653903961182,-0.12681959569454193,-8.772088050842285
1068,54300.0,-4.182653903961182,-0.12681959569454193,-8.772088050842285
1069,54400.0,-4.469792366027832,0.28953152894973755,-8.621339797973633
1070,54500.0,-4.469792366027832,0.28953152894973755,-8.621339797973633
1071,54600.0,-4.469792366027832,0.28953152894973755,-8.621339797973633
1072,54700.0,-4.388436794281007,0.3206382095813751,-8.776873588562013
1073,54800.0,-4.388436794281007,0.3206382095813751,-8.776873588562013
1074,54900.0,-4.426721572875977,-0.011964112520217896,-8.532805442810059
1075,55000.0,-4.426721572875977,-0.011964112520217896,-8.532805442810059
1076,55100.0,-4.388436794281007,0.3254238963127136,-8.805586814880371
1077,55200.0,-4.388436794281007,0.3254238963127136,-8.805586814880371
1078,55300.0,-4.388436794281007,0.3254238963127136,-8.805586814880371
1079,55400.0,-4.584648132324219,0.35413774847984314,-8.659625053405763
1080,54000.0,-4.106083393096924,-0.5431707501411438,-8.85105037689209
1081,54100.0,-4.106083393096924,-0.5431707501411438,-8.85105037689209
1082,54200.0,-4.182653903961182,-0.12681959569454193,-8.772088050842285
1083,54300.0,-4.182653903961182,-0.12681959569454193,-8.772088050842285
1084,54400.0,-4.469792366027832,0.28953152894973755,-8.621339797973633
1085,54500.0,-4.469792366027832,0.28953152894973755,-8.621339797973633
1086,54600.0,-4.469792366027832,0.28953152894973755,-8.621339797973633
1087,54700.0,-4.388436794281007,0.3206382095813751,-8.776873588562013
1088,54800.0,-4.388436794281007,0.3206382095813751,-8.776873588562013
1089,54900.0,-4.426721572875977,-0.011964112520217896,-8.532805442810059
1090,55000.0,-4.426721572875977,-0.011964112520217896,-8.532805442810059
1091,55100.0,-4.388436794281007,0.3254238963127136,-8.805586814880371
1092,55200.0,-4.388436794281007,0.3254238963127136,-8.805586814880371
1093,55300.0,-4.388436794281007,0.3254238963127136,-8.805586814880371
1094,55400.0,-4.584648132324219,0.35413774847984314,-8.659625053405763
1095,55500.0,-4.584648132324219,0.35413774847984314,-8.659625053405763
1096,55600.0,-4.378865718841554,-0.30149564146995544,-8.839086532592773
1097,55700.0,-4.378865718841554,-0.30149564146995544,-8.839086532592773
1098,55800.0,-5.0871405601501465,-1.6534404754638672,-8.094919204711914
1099,55900.0,-5.0871405601501465,-1.6534404754638672,-8.094919204711914
1100,56000.0,-3.981656789779663,-1.5074783563613892,-8.566305160522461
1101,56100.0,-3.981656789779663,-1.5074783563613892,-8.566305160522461
1102,56200.0,-3.981656789779663,-1.5074783563613892,-8.566305160522461
1103,56300.0,-4.110869407653809,-2.0458633899688716,-8.484949111938478
1104,56400.0,-4.110869407653809,-2.0458633899688716,-8.484949111938478
1105,56500.0,-4.278366565704347,-0.413958340883255,-7.575676441192628
1106,56600.0,-4.278366565704347,-0.413958340883255,-7.575676441192628
1107,56700.0,-3.589233875274658,0.44745784997940063,-9.257830619812012
1108,56800.0,-3.589233875274658,0.44745784997940063,-9.257830619812012
1109,56900.0,-3.589233875274658,0.44745784997940063,-9.257830619812012
1110,55500.0,-4.584648132324219,0.35413774847984314,-8.659625053405763
1111,55600.0,-4.378865718841554,-0.30149564146995544,-8.839086532592773
1112,55700.0,-4.378865718841554,-0.30149564146995544,-8.839086532592773
1113,55800.0,-5.0871405601501465,-1.6534404754638672,-8.094919204711914
1114,55900.0,-5.0871405601501465,-1.6534404754638672,-8.094919204711914
1115,56000.0,-3.981656789779663,-1.5074783563613892,-8.566305160522461
1116,56100.0,-3.981656789779663,-1.5074783563613892,-8.566305160522461
1117,56200.0,-3.981656789779663,-1.5074783563613892,-8.566305160522461
1118,56300.0,-4.110869407653809,-2.0458633899688716,-8.484949111938478
1119,56400.0,-4.110869407653809,-2.0458633899688716,-8.484949111938478
1120,56500.0,-4.278366565704347,-0.413958340883255,-7.575676441192628
1121,56600.0,-4.278366565704347,-0.413958340883255,-7.575676441192628
1122,56700.0,-3.589233875274658,0.44745784997940063,-9.257830619812012
1123,56800.0,-3.589233875274658,0.44745784997940063,-9.257830619812012
1124,56900.0,-3.589233875274658,0.44745784997940063,-9.257830619812012
1125,57000.0,-1.7706886529922483,1.9908283948898315,-9.734003067016602
1126,57100.0,-1.7706886529922483,1.9908283948898315,-9.734003067016602
1127,57200.0,-4.790431022644043,3.2997026443481445,-7.788637638092041
1128,57300.0,-4.790431022644043,3.2997026443481445,-7.788637638092041
1129,57400.0,-4.790431022644043,3.2997026443481445,-7.788637638092041
1130,57500.0,-4.072584152221681,-2.6009981632232666,-8.539983749389647
1131,57600.0,-4.072584152221681,-2.6009981632232666,-8.539983749389647
1132,57700.0,-2.0099709033966064,4.299902439117432,-9.03290557861328
1133,57800.0,-2.0099709033966064,4.299902439117432,-9.03290557861328
1134,57900.0,-2.0099709033966064,4.299902439117432,-9.03290557861328
1135,58000.0,-3.206382274627685,3.9218363761901855,-7.977671146392822
1136,58100.0,-3.206382274627685,3.9218363761901855,-7.977671146392822
1137,58200.0,-2.622533798217773,1.9334007501602173,-9.078369140625
1138,58300.0,-2.622533798217773,1.9334007501602173,-9.078369140625
1139,58400.0,-2.383251428604126,3.8213374614715576,-8.664410591125487
1140,57000.0,-1.7706886529922483,1.9908283948898315,-9.734003067016602
1141,57100.0,-1.7706886529922483,1.9908283948898315,-9.734003067016602
1142,57200.0,-4.790431022644043,3.2997026443481445,-7.788637638092041
1143,57300.0,-4.790431022644043,3.2997026443481445,-7.788637638092041
1144,57400.0,-4.790431022644043,3.2997026443481445,-7.788637638092041
1145,57500.0,-4.072584152221681,-2.6009981632232666,-8.539983749389647
1146,57600.0,-4.072584152221681,-2.6009981632232666,-8.539983749389647
1147,57700.0,-2.0099709033966064,4.299902439117432,-9.03290557861328
1148,57800.0,-2.0099709033966064,4.299902439117432,-9.03290557861328
1149,57900.0,-2.0099709033966064,4.299902439117432,-9.03290557861328
1150,58000.0,-3.206382274627685,3.9218363761901855,-7.977671146392822
1151,58100.0,-3.206382274627685,3.9218363761901855,-7.977671146392822
1152,58200.0,-2.622533798217773,1.9334007501602173,-9.078369140625
1153,58300.0,-2.622533798217773,1.9334007501602173,-9.078369140625
1154,58400.0,-2.383251428604126,3.8213374614715576,-8.664410591125487
1155,58500.0,-2.383251428604126,3.8213374614715576,-8.664410591125487
1156,58600.0,-2.167897224426269,4.993820667266847,-8.042276382446289
1157,58700.0,-2.167897224426269,4.993820667266847,-8.042276382446289
1158,58800.0,-2.167897224426269,4.993820667266847,-8.042276382446289
1159,58900.0,-2.541177749633789,5.584848403930664,-7.52303409576416
1160,59000.0,-2.541177749633789,5.584848403930664,-7.52303409576416
1161,59100.0,-2.5842485427856445,1.5649060010910034,-9.367900848388672
1162,59200.0,-2.5842485427856445,1.5649060010910034,-9.367900848388672
1163,59300.0,-2.5842485427856445,1.5649060010910034,-9.367900848388672
1164,59400.0,-2.6799612045288086,2.0027925968170166,-8.23848819732666
1165,59500.0,-2.6799612045288086,2.0027925968170166,-8.23848819732666
1166,59600.0,-3.369094133377075,5.0225348472595215,-8.501699447631836
1167,59700.0,-3.369094133377075,5.0225348472595215,-8.501699447631836
1168,59800.0,-4.0390844345092765,4.967499732971191,-7.838886737823486
1169,59900.0,-4.0390844345092765,4.967499732971191,-7.838886737823486
1170,58500.0,-2.383251428604126,3.8213374614715576,-8.664410591125487
1171,58600.0,-2.167897224426269,4.993820667266847,-8.042276382446289
1172,58700.0,-2.167897224426269,4.993820667266847,-8.042276382446289
1173,58800.0,-2.167897224426269,4.993820667266847,-8.042276382446289
1174,58900.0,-2.541177749633789,5.584848403930664,-7.52303409576416
1175,59000.0,-2.541177749633789,5.584848403930664,-7.52303409576416
1176,59100.0,-2.5842485427856445,1.5649060010910034,-9.367900848388672
1177,59200.0,-2.5842485427856445,1.5649060010910034,-9.367900848388672
1178,59300.0,-2.5842485427856445,1.5649060010910034,-9.367900848388672
1179,59400.0,-2.6799612045288086,2.0027925968170166,-8.23848819732666
1180,59500.0,-2.6799612045288086,2.0027925968170166,-8.23848819732666
1181,59600.0,-3.369094133377075,5.0225348472595215,-8.501699447631836
1182,59700.0,-3.369094133377075,5.0225348472595215,-8.501699447631836
1183,59800.0,-4.0390844345092765,4.967499732971191,-7.838886737823486
1184,59900.0,-4.0390844345092765,4.967499732971191,-7.838886737823486
1185,60000.0,-4.182653903961182,4.077369689941406,-7.032505512237549
1186,60100.0,-4.182653903961182,4.077369689941406,-7.032505512237549
1187,60200.0,-4.182653903961182,4.077369689941406,-7.032505512237549
1188,60300.0,-4.091726779937743,5.9533424377441415,-6.723831653594972
1189,60400.0,-4.091726779937743,5.9533424377441415,-6.723831653594972
1190,60500.0,-4.005585193634033,4.9842495918273935,-7.451249599456787
1191,60600.0,-4.005585193634033,4.9842495918273935,-7.451249599456787
1192,60700.0,-4.005585193634033,4.9842495918273935,-7.451249599456787
1193,60800.0,-3.948157548904419,4.374079704284668,-7.53021240234375
1194,60900.0,-3.948157548904419,4.374079704284668,-7.53021240234375
1195,61000.0,-4.240081787109375,-0.9499505758285522,-9.688538551330566
1196,61100.0,-4.240081787109375,-0.9499505758285522,-9.688538551330566
1197,61200.0,-4.5032920837402335,-1.1748759746551514,-9.011369705200195
1198,61300.0,-4.5032920837402335,-1.1748759746551514,-9.011369705200195
1199,61400.0,-4.675575256347656,-0.5168496966362001,-8.666803359985353
1200,60000.0,-4.182653903961182,4.077369689941406,-7.032505512237549
1201,60100.0,-4.182653903961182,4.077369689941406,-7.032505512237549
1202,60200.0,-4.182653903961182,4.077369689941406,-7.032505512237549
1203,60300.0,-4.091726779937743,5.9533424377441415,-6.723831653594972
1204,60400.0,-4.091726779937743,5.9533424377441415,-6.723831653594972
1205,60500.0,-4.005585193634033,4.9842495918273935,-7.451249599456787
1206,60600.0,-4.005585193634033,4.9842495918273935,-7.451249599456787
1207,60700.0,-4.005585193634033,4.9842495918273935,-7.451249599456787
1208,60800.0,-3.948157548904419,4.374079704284668,-7.53021240234375
1209,60900.0,-3.948157548904419,4.374079704284668,-7.53021240234375
1210,61000.0,-4.240081787109375,-0.9499505758285522,-9.688538551330566
1211,61100.0,-4.240081787109375,-0.9499505758285522,-9.688538551330566
1212,61200.0,-4.5032920837402335,-1.1748759746551514,-9.011369705200195
1213,61300.0,-4.5032920837402335,-1.1748759746551514,-9.011369705200195
1214,61400.0,-4.675575256347656,-0.5168496966362001,-8.666803359985353
1215,61500.0,-4.675575256347656,-0.5168496966362001,-8.666803359985353
1216,61600.0,-4.25922441482544,0.5383850932121277,-8.085347175598145
1217,61700.0,-4.25922441482544,0.5383850932121277,-8.085347175598145
1218,61800.0,-5.111069202423097,1.4715858697891235,-9.65503978729248
1219,61900.0,-5.111069202423097,1.4715858697891235,-9.65503978729248
1220,62000.0,-5.005784511566162,2.0362920761108403,-8.60219669342041
1221,62100.0,-5.005784511566162,2.0362920761108403,-8.60219669342041
1222,62200.0,-4.742574691772461,1.5672988891601562,-8.365307807922362
1223,62300.0,-4.742574691772461,1.5672988891601562,-8.365307807922362
1224,62400.0,-4.618147850036621,1.8783657550811768,-8.334200859069824
1225,62500.0,-4.618147850036621,1.8783657550811768,-8.334200859069824
1226,62600.0,-4.618147850036621,1.8783657550811768,-8.334200859069824
1227,62700.0,-4.555934429168701,1.730010747909546,-8.389235496520996
1228,62800.0,-4.555934429168701,1.730010747909546,-8.389235496520996
1229,62900.0,-4.5032920837402335,1.584048628807068,-8.592625617980957
1230,61500.0,-4.675575256347656,-0.5168496966362001,-8.666803359985353
1231,61600.0,-4.25922441482544,0.5383850932121277,-8.085347175598145
1232,61700.0,-4.25922441482544,0.5383850932121277,-8.085347175598145
1233,61800.0,-5.111069202423097,1.4715858697891235,-9.65503978729248
1234,61900.0,-5.111069202423097,1.4715858697891235,-9.65503978729248
1235,62000.0,-5.005784511566162,2.0362920761108403,-8.60219669342041
1236,62100.0,-5.005784511566162,2.0362920761108403,-8.60219669342041
1237,62200.0,-4.742574691772461,1.5672988891601562,-8.365307807922362
1238,62300.0,-4.742574691772461,1.5672988891601562,-8.365307807922362
1239,62400.0,-4.618147850036621,1.8783657550811768,-8.334200859069824
1240,62500.0,-4.618147850036621,1.8783657550811768,-8.334200859069824
1241,62600.0,-4.618147850036621,1.8783657550811768,-8.334200859069824
1242,62700.0,-4.555934429168701,1.730010747909546,-8.389235496520996
1243,62800.0,-4.555934429168701,1.730010747909546,-8.389235496520996
1244,62900.0,-4.5032920837402335,1.584048628807068,-8.592625617980957
1245,63000.0,-4.5032920837402335,1.584048628807068,-8.592625617980957
1246,63100.0,-4.445864677429199,1.6486548185348509,-8.48016357421875
1247,63200.0,-4.445864677429199,1.6486548185348509,-8.48016357421875
1248,63300.0,-4.445864677429199,1.6486548185348509,-8.48016357421875
1249,63400.0,-4.560719966888428,1.765903115272522,-8.437092781066895
1250,63500.0,-4.560719966888428,1.765903115272522,-8.437092781066895
1251,63600.0,-4.4506497383117685,1.8161523342132568,-8.451449394226074
1252,63700.0,-4.4506497383117685,1.8161523342132568,-8.451449394226074
1253,63800.0,-4.512863159179688,1.8951154947280884,-8.461020469665527
1254,63900.0,-4.512863159179688,1.8951154947280884,-8.461020469665527
1255,64000.0,-4.4027934074401855,1.765903115272522,-8.518448829650879
1256,64100.0,-4.4027934074401855,1.765903115272522,-8.518448829650879
1257,64200.0,-4.407578945159912,1.8735800981521609,-8.492127418518066
1258,64300.0,-4.407578945159912,1.8735800981521609,-8.492127418518066
1259,64400.0,-4.398008346557616,1.7443678379058838,-8.554340362548826
1260,63000.0,-4.5032920837402335,1.584048628807068,-8.592625617980957
1261,63100.0,-4.445864677429199,1.6486548185348509,-8.48016357421875
1262,63200.0,-4.445864677429199,1.6486548185348509,-8.48016357421875
1263,63300.0,-4.445864677429199,1.6486548185348509,-8.48016357421875
1264,63400.0,-4.560719966888428,1.765903115272522,-8.437092781066895
1265,63500.0,-4.560719966888428,1.765903115272522,-8.437092781066895
1266,63600.0,-4.4506497383117685,1.8161523342132568,-8.451449394226074
1267,63700.0,-4.4506497383117685,1.8161523342132568,-8.451449394226074
1268,63800.0,-4.512863159179688,1.8951154947280884,-8.461020469665527
1269,63900.0,-4.512863159179688,1.8951154947280884,-8.461020469665527
1270,64000.0,-4.4027934074401855,1.765903115272522,-8.518448829650879
1271,64100.0,-4.4027934074401855,1.765903115272522,-8.518448829650879
1272,64200.0,-4.407578945159912,1.8735800981521609,-8.492127418518066
1273,64300.0,-4.407578945159912,1.8735800981521609,-8.492127418518066
1274,64400.0,-4.398008346557616,1.7443678379058838,-8.554340362548826
1275,64500.0,-4.398008346557616,1.7443678379058838,-8.554340362548826
1276,64600.0,-4.398008346557616,1.7443678379058838,-8.554340362548826
1277,64700.0,-4.6995038986206055,2.2827527523040767,-8.248059272766112
1278,64800.0,-4.6995038986206055,2.2827527523040767,-8.248059272766112
1279,64900.0,-4.565505504608153,1.919043779373169,-8.382057189941406
1280,65000.0,-4.565505504608153,1.919043779373169,-8.382057189941406
1281,65100.0,-4.421936511993408,1.8975083827972408,-8.504091262817383
1282,65200.0,-4.421936511993408,1.8975083827972408,-8.504091262817383
1283,65300.0,-4.421936511993408,1.8975083827972408,-8.504091262817383
1284,65400.0,-4.436293125152588,1.938186287879944,-8.391629219055176
1285,65500.0,-4.436293125152588,1.938186287879944,-8.391629219055176
1286,65600.0,-4.4027934074401855,1.8424735069274905,-8.568697929382324
1287,65700.0,-4.4027934074401855,1.8424735069274905,-8.568697929382324
1288,65800.0,-4.273581027984618,1.8281164169311523,-8.523234367370605
1289,65900.0,-4.273581027984618,1.8281164169311523,-8.523234367370605
1290,64500.0,-4.398008346557616,1.7443678379058838,-8.554340362548826
1291,64600.0,-4.398008346557616,1.7443678379058838,-8.554340362548826
1292,64700.0,-4.6995038986206055,2.2827527523040767,-8.248059272766112
1293,64800.0,-4.6995038986206055,2.2827527523040767,-8.248059272766112
1294,64900.0,-4.565505504608153,1.919043779373169,-8.382057189941406
1295,65000.0,-4.565505504608153,1.919043779373169,-8.382057189941406
1296,65100.0,-4.421936511993408,1.8975083827972408,-8.504091262817383
1297,65200.0,-4.421936511993408,1.8975083827972408,-8.504091262817383
1298,65300.0,-4.421936511993408,1.8975083827972408,-8.504091262817383
1299,65400.0,-4.436293125152588,1.938186287879944,-8.391629219055176
1300,65500.0,-4.436293125152588,1.938186287879944,-8.391629219055176
1301,65600.0,-4.4027934074401855,1.8424735069274905,-8.568697929382324
1302,65700.0,-4.4027934074401855,1.8424735069274905,-8.568697929382324
1303,65800.0,-4.273581027984618,1.8281164169311523,-8.523234367370605
1304,65900.0,-4.273581027984618,1.8281164169311523,-8.523234367370605
1305,66000.0,-4.273581027984618,1.8281164169311523,-8.523234367370605
1306,66100.0,-4.407578945159912,1.7467604875564575,-8.422735214233397
1307,66200.0,-4.407578945159912,1.7467604875564575,-8.422735214233397
1308,66300.0,-4.484149932861328,1.557727575302124,-8.398807525634767
1309,66400.0,-4.484149932861328,1.557727575302124,-8.398807525634767
1310,66500.0,-4.484149932861328,1.557727575302124,-8.398807525634767
1311,66600.0,-4.3932223320007315,1.7994027137756348,-8.573483467102049
1312,66700.0,-4.3932223320007315,1.7994027137756348,-8.573483467102049
1313,66800.0,-4.426721572875977,1.804188132286072,-8.49452018737793
1314,66900.0,-4.426721572875977,1.804188132286072,-8.49452018737793
1315,67000.0,-4.326223373413087,1.9046868085861208,-8.508876800537111
1316,67100.0,-4.326223373413087,1.9046868085861208,-8.508876800537111
1317,67200.0,-4.426721572875977,1.8257235288619995,-8.37727165222168
1318,67300.0,-4.426721572875977,1.8257235288619995,-8.37727165222168
1319,67400.0,-4.426721572875977,1.8257235288619995,-8.37727165222168
1320,66000.0,-4.273581027984618,1.8281164169311523,-8.523234367370605
1321,66100.0,-4.407578945159912,1.7467604875564575,-8.422735214233397
1322,66200.0,-4.407578945159912,1.7467604875564575,-8.422735214233397
1323,66300.0,-4.484149932861328,1.557727575302124,-8.398807525634767
1324,66400.0,-4.484149932861328,1.557727575302124,-8.398807525634767
1325,66500.0,-4.484149932861328,1.557727575302124,-8.398807525634767
1326,66600.0,-4.3932223320007315,1.7994027137756348,-8.573483467102049
1327,66700.0,-4.3932223320007315,1.7994027137756348,-8.573483467102049
1328,66800.0,-4.426721572875977,1.804188132286072,-8.49452018737793
1329,66900.0,-4.426721572875977,1.804188132286072,-8.49452018737793
1330,67000.0,-4.326223373413087,1.9046868085861208,-8.508876800537111
1331,67100.0,-4.326223373413087,1.9046868085861208,-8.508876800537111
1332,67200.0,-4.426721572875977,1.8257235288619995,-8.37727165222168
1333,67300.0,-4.426721572875977,1.8257235288619995,-8.37727165222168
1334,67400.0,-4.426721572875977,1.8257235288619995,-8.37727165222168
1335,67500.0,-4.412364959716797,1.7682960033416748,-8.537590980529785
1336,67600.0,-4.412364959716797,1.7682960033416748,-8.537590980529785
1337,67700.0,-4.350151538848877,1.8424735069274905,-8.597411155700684
1338,67800.0,-4.350151538848877,1.8424735069274905,-8.597411155700684
1339,67900.0,-4.350151538848877,1.8424735069274905,-8.597411155700684
1340,68000.0,-4.426721572875977,1.782652735710144,-8.506484031677246
1341,68100.0,-4.426721572875977,1.782652735710144,-8.506484031677246
1342,68200.0,-4.445864677429199,1.84965181350708,-8.461020469665527
1343,68300.0,-4.445864677429199,1.84965181350708,-8.461020469665527
1344,68400.0,-4.589433670043945,1.765903115272522,-8.437092781066895
1345,68500.0,-4.589433670043945,1.765903115272522,-8.437092781066895
1346,68600.0,-4.474578380584717,1.7994027137756348,-8.482556343078612
1347,68700.0,-4.474578380584717,1.7994027137756348,-8.482556343078612
1348,68800.0,-4.460221290588379,1.7922240495681765,-8.427520751953125
1349,68900.0,-4.460221290588379,1.7922240495681765,-8.427520751953125
1350,67500.0,-4.412364959716797,1.7682960033416748,-8.537590980529785
1351,67600.0,-4.412364959716797,1.7682960033416748,-8.537590980529785
1352,67700.0,-4.350151538848877,1.8424735069274905,-8.597411155700684
1353,67800.0,-4.350151538848877,1.8424735069274905,-8.597411155700684
1354,67900.0,-4.350151538848877,1.8424735069274905,-8.597411155700684
1355,68000.0,-4.426721572875977,1.782652735710144,-8.506484031677246
1356,68100.0,-4.426721572875977,1.782652735710144,-8.506484031677246
1357,68200.0,-4.445864677429199,1.84965181350708,-8.461020469665527
1358,68300.0,-4.445864677429199,1.84965181350708,-8.461020469665527
1359,68400.0,-4.589433670043945,1.765903115272522,-8.437092781066895
1360,68500.0,-4.589433670043945,1.765903115272522,-8.437092781066895
1361,68600.0,-4.474578380584717,1.7994027137756348,-8.482556343078612
1362,68700.0,-4.474578380584717,1.7994027137756348,-8.482556343078612
1363,68800.0,-4.460221290588379,1.7922240495681765,-8.427520751953125
1364,68900.0,-4.460221290588379,1.7922240495681765,-8.427520751953125
1365,69000.0,-4.469792366027832,1.8257235288619995,-8.528019905090332
1366,69100.0,-4.469792366027832,1.8257235288619995,-8.528019905090332
1367,69200.0,-4.469792366027832,1.8257235288619995,-8.528019905090332
1368,69300.0,-4.417150497436523,1.9334007501602173,-8.523234367370605
1369,69400.0,-4.417150497436523,1.9334007501602173,-8.523234367370605
1370,69500.0,-4.551148891448975,1.8376877307891848,-8.535198211669924
1371,69600.0,-4.551148891448975,1.8376877307891848,-8.535198211669924
1372,69700.0,-4.3453660011291495,1.801795244216919,-8.642874717712402
1373,69800.0,-4.3453660011291495,1.801795244216919,-8.642874717712402
1374,69900.0,-4.3453660011291495,1.801795244216919,-8.642874717712402
1375,70000.0,-4.455435752868652,1.765903115272522,-8.669197082519531
1376,70100.0,-4.455435752868652,1.765903115272522,-8.669197082519531
1377,70200.0,-4.407578945159912,1.7682960033416748,-8.58305549621582
1378,70300.0,-4.407578945159912,1.7682960033416748,-8.58305549621582
1379,70400.0,-4.555934429168701,1.938186287879944,-8.240880966186522
1380,69000.0,-4.469792366027832,1.8257235288619995,-8.528019905090332
1381,69100.0,-4.469792366027832,1.8257235288619995,-8.528019905090332
1382,69200.0,-4.469792366027832,1.8257235288619995,-8.528019905090332
1383,69300.0,-4.417150497436523,1.9334007501602173,-8.523234367370605
1384,69400.0,-4.417150497436523,1.9334007501602173,-8.523234367370605
1385,69500.0,-4.551148891448975,1.8376877307891848,-8.535198211669924
1386,69600.0,-4.551148891448975,1.8376877307891848,-8.535198211669924
1387,69700.0,-4.3453660011291495,1.801795244216919,-8.642874717712402
1388,69800.0,-4.3453660011291495,1.801795244216919,-8.642874717712402
1389,69900.0,-4.3453660011291495,1.801795244216919,-8.642874717712402
1390,70000.0,-4.455435752868652,1.765903115272522,-8.669197082519531
1391,70100.0,-4.455435752868652,1.765903115272522,-8.669197082519531
1392,70200.0,-4.407578945159912,1.7682960033416748,-8.58305549621582
1393,70300.0,-4.407578945159912,1.7682960033416748,-8.58305549621582
1394,70400.0,-4.555934429168701,1.938186287879944,-8.240880966186522
1395,70500.0,-4.555934429168701,1.938186287879944,-8.240880966186522
1396,70600.0,-4.555934429168701,1.938186287879944,-8.240880966186522
1397,70700.0,-4.742574691772461,2.4095723628997803,-8.25284481048584
1398,70800.0,-4.742574691772461,2.4095723628997803,-8.25284481048584
1399,70900.0,-5.26899528503418,2.057827472686768,-8.298308372497559
1400,71000.0,-5.26899528503418,2.057827472686768,-8.298308372497559
1401,71100.0,-5.106283187866211,1.9956141710281368,-7.724031925201416
1402,71200.0,-5.106283187866211,1.9956141710281368,-7.724031925201416
1403,71300.0,-5.106283187866211,1.9956141710281368,-7.724031925201416
1404,71400.0,-4.627718925476074,-0.7393822073936462,-9.006584167480469
1405,71500.0,-4.627718925476074,-0.7393822073936462,-9.006584167480469
1406,71600.0,-4.321437358856201,-1.3423734903335571,-8.171488761901855
1407,71700.0,-4.321437358856201,-1.3423734903335571,-8.171488761901855
1408,71800.0,-4.742574691772461,0.3708875179290772,-8.049454689025879
1409,71900.0,-4.742574691772461,0.3708875179290772,-8.049454689025879
1410,70500.0,-4.555934429168701,1.938186287879944,-8.240880966186522
1411,70600.0,-4.555934429168701,1.938186287879944,-8.240880966186522
1412,70700.0,-4.742574691772461,2.4095723628997803,-8.25284481048584
1413,70800.0,-4.742574691772461,2.4095723628997803,-8.25284481048584
1414,70900.0,-5.26899528503418,2.057827472686768,-8.298308372497559
1415,71000.0,-5.26899528503418,2.057827472686768,-8.298308372497559
1416,71100.0,-5.106283187866211,1.9956141710281368,-7.724031925201416
1417,71200.0,-5.106283187866211,1.9956141710281368,-7.724031925201416
1418,71300.0,-5.106283187866211,1.9956141710281368,-7.724031925201416
1419,71400.0,-4.627718925476074,-0.7393822073936462,-9.006584167480469
1420,71500.0,-4.627718925476074,-0.7393822073936462,-9.006584167480469
1421,71600.0,-4.321437358856201,-1.3423734903335571,-8.171488761901855
1422,71700.0,-4.321437358856201,-1.3423734903335571,-8.171488761901855
1423,71800.0,-4.742574691772461,0.3708875179290772,-8.049454689025879
1424,71900.0,-4.742574691772461,0.3708875179290772,-8.049454689025879
1425,72000.0,-4.847858428955078,1.1437692642211914,-7.190432548522949
1426,72100.0,-4.847858428955078,1.1437692642211914,-7.190432548522949
1427,72200.0,-4.847858428955078,1.1437692642211914,-7.190432548522949
1428,72300.0,-5.264209270477295,1.3112668991088867,-7.503891944885254
1429,72400.0,-5.264209270477295,1.3112668991088867,-7.503891944885254
1430,72500.0,-5.077569961547852,-1.6677974462509155,-8.331808090209961
1431,72600.0,-5.077569961547852,-1.6677974462509155,-8.331808090209961
1432,72700.0,-4.292723655700684,0.4881358444690704,-8.858229637145996
1433,72800.0,-4.292723655700684,0.4881358444690704,-8.858229637145996
1434,72900.0,-4.292723655700684,0.4881358444690704,-8.858229637145996
1435,73000.0,-3.981656789779663,-1.3639088869094849,-8.83669376373291
1436,73100.0,-3.981656789779663,-1.3639088869094849,-8.83669376373291
1437,73200.0,-3.3547375202178955,2.3976082801818848,-9.066404342651367
1438,73300.0,-3.3547375202178955,2.3976082801818848,-9.066404342651367
1439,73400.0,-2.6847469806671143,1.514656662940979,-9.415757179260254
1440,72000.0,-4.847858428955078,1.1437692642211914,-7.190432548522949
1441,72100.0,-4.847858428955078,1.1437692642211914,-7.190432548522949
1442,72200.0,-4.847858428955078,1.1437692642211914,-7.190432548522949
1443,72300.0,-5.264209270477295,1.3112668991088867,-7.503891944885254
1444,72400.0,-5.264209270477295,1.3112668991088867,-7.503891944885254
1445,72500.0,-5.077569961547852,-1.6677974462509155,-8.331808090209961
1446,72600.0,-5.077569961547852,-1.6677974462509155,-8.331808090209961
1447,72700.0,-4.292723655700684,0.4881358444690704,-8.858229637145996
1448,72800.0,-4.292723655700684,0.4881358444690704,-8.858229637145996
1449,72900.0,-4.292723655700684,0.4881358444690704,-8.858229637145996
1450,73000.0,-3.981656789779663,-1.3639088869094849,-8.83669376373291
1451,73100.0,-3.981656789779663,-1.3639088869094849,-8.83669376373291
1452,73200.0,-3.3547375202178955,2.3976082801818848,-9.066404342651367
1453,73300.0,-3.3547375202178955,2.3976082801818848,-9.066404342651367
1454,73400.0,-2.6847469806671143,1.514656662940979,-9.415757179260254
1455,73500.0,-2.6847469806671143,1.514656662940979,-9.415757179260254
1456,73600.0,-2.6847469806671143,1.514656662940979,-9.415757179260254
1457,73700.0,-3.263810157775879,1.9669002294540403,-9.166903495788574
1458,73800.0,-3.263810157775879,1.9669002294540403,-9.166903495788574
1459,73900.0,-3.7902309894561768,2.6847469806671143,-7.872386455535889
1460,74000.0,-3.7902309894561768,2.6847469806671143,-7.872386455535889
1461,74100.0,-3.76151704788208,-2.115255117416382,-9.075976371765137
1462,74200.0,-3.76151704788208,-2.115255117416382,-9.075976371765137
1463,74300.0,-3.76151704788208,-2.115255117416382,-9.075976371765137
1464,74400.0,-2.9814569950103764,-0.5072783827781677,-10.604989051818848
1465,74500.0,-2.9814569950103764,-0.5072783827781677,-10.604989051818848
1466,74600.0,-2.5507488250732417,2.026720762252808,-9.207581520080566
1467,74700.0,-2.5507488250732417,2.026720762252808,-9.207581520080566
1468,74800.0,-2.943171739578247,2.919243574142456,-8.707481384277344
1469,74900.0,-2.943171739578247,2.919243574142456,-8.707481384277344
1470,73500.0,-2.6847469806671143,1.514656662940979,-9.415757179260254
1471,73600.0,-2.6847469806671143,1.514656662940979,-9.415757179260254
1472,73700.0,-3.263810157775879,1.9669002294540403,-9.166903495788574
1473,73800.0,-3.263810157775879,1.9669002294540403,-9.166903495788574
1474,73900.0,-3.7902309894561768,2.6847469806671143,-7.872386455535889
1475,74000.0,-3.7902309894561768,2.6847469806671143,-7.872386455535889
1476,74100.0,-3.76151704788208,-2.115255117416382,-9.075976371765137
1477,74200.0,-3.76151704788208,-2.115255117416382,-9.075976371765137
1478,74300.0,-3.76151704788208,-2.115255117416382,-9.075976371765137
1479,74400.0,-2.9814569950103764,-0.5072783827781677,-10.604989051818848
1480,74500.0,-2.9814569950103764,-0.5072783827781677,-10.604989051818848
1481,74600.0,-2.5507488250732417,2.026720762252808,-9.207581520080566
1482,74700.0,-2.5507488250732417,2.026720762252808,-9.207581520080566
1483,74800.0,-2.943171739578247,2.919243574142456,-8.707481384277344
1484,74900.0,-2.943171739578247,2.919243574142456,-8.707481384277344
1485,75000.0,-2.943171739578247,2.919243574142456,-8.707481384277344
1486,75100.0,-2.6416761875152592,1.428515076637268,-10.076176643371582
1487,75200.0,-2.6416761875152592,1.428515076637268,-10.076176643371582
1488,75300.0,-2.9766712188720703,2.809173583984375,-8.288737297058105
1489,75400.0,-2.9766712188720703,2.809173583984375,-8.288737297058105
1490,75500.0,-2.502892255783081,2.89052963256836,-9.360722541809082
1491,75600.0,-2.502892255783081,2.89052963256836,-9.360722541809082
1492,75700.0,-2.502892255783081,2.89052963256836,-9.360722541809082
1493,75800.0,-3.670589685440064,3.5437703132629395,-8.549554824829103
1494,75900.0,-3.670589685440064,3.5437703132629395,-8.549554824829103
1495,76000.0,-3.933800458908081,3.5294132232666016,-8.216952323913574
1496,76100.0,-3.933800458908081,3.5294132232666016,-8.216952323913574
1497,76200.0,-3.933800458908081,3.5294132232666016,-8.216952323913574
1498,76300.0,-5.154139995574951,3.6945178508758554,-7.499105930328369
1499,76400.0,-5.154139995574951,3.6945178508758554,-7.499105930328369
1500,75000.0,-2.943171739578247,2.919243574142456,-8.707481384277344
1501,75100.0,-2.6416761875152592,1.428515076637268,-10.076176643371582
1502,75200.0,-2.6416761875152592,1.428515076637268,-10.076176643371582
1503,75300.0,-2.9766712188720703,2.809173583984375,-8.288737297058105
1504,75400.0,-2.9766712188720703,2.809173583984375,-8.288737297058105
1505,75500.0,-2.502892255783081,2.89052963256836,-9.360722541809082
1506,75600.0,-2.502892255783081,2.89052963256836,-9.360722541809082
1507,75700.0,-2.502892255783081,2.89052963256836,-9.360722541809082
1508,75800.0,-3.670589685440064,3.5437703132629395,-8.549554824829103
1509,75900.0,-3.670589685440064,3.5437703132629395,-8.549554824829103
1510,76000.0,-3.933800458908081,3.5294132232666016,-8.216952323913574
1511,76100.0,-3.933800458908081,3.5294132232666016,-8.216952323913574
1512,76200.0,-3.933800458908081,3.5294132232666016,-8.216952323913574
1513,76300.0,-5.154139995574951,3.6945178508758554,-7.499105930328369
1514,76400.0,-5.154139995574951,3.6945178508758554,-7.499105930328369
1515,76500.0,-5.307280540466309,3.888336658477783,-7.008577823638916
1516,76600.0,-5.307280540466309,3.888336658477783,-7.008577823638916
1517,76700.0,-5.723631858825684,3.976871252059937,-6.27876615524292
1518,76800.0,-5.723631858825684,3.976871252059937,-6.27876615524292
1519,76900.0,-5.723631858825684,3.976871252059937,-6.27876615524292
1520,77000.0,-6.489335060119629,4.689932346343994,-5.6350975036621085
1521,77100.0,-6.489335060119629,4.689932346343994,-5.6350975036621085
1522,77200.0,-6.585048198699951,4.783252716064453,-5.680561065673827
1523,77300.0,-6.585048198699951,4.783252716064453,-5.680561065673827
1524,77400.0,-5.876771926879883,3.438485860824585,-6.695117950439452
1525,77500.0,-5.876771926879883,3.438485860824585,-6.695117950439452
1526,77600.0,-5.876771926879883,3.438485860824585,-6.695117950439452
1527,77700.0,-6.3936219215393075,3.122633695602417,-8.030312538146973
1528,77800.0,-6.3936219215393075,3.122633695602417,-8.030312538146973
1529,77900.0,-7.068397998809815,2.6464619636535645,-6.099304676055907
1530,76500.0,-5.307280540466309,3.888336658477783,-7.008577823638916
1531,76600.0,-5.307280540466309,3.888336658477783,-7.008577823638916
1532,76700.0,-5.723631858825684,3.976871252059937,-6.27876615524292
1533,76800.0,-5.723631858825684,3.976871252059937,-6.27876615524292
1534,76900.0,-5.723631858825684,3.976871252059937,-6.27876615524292
1535,77000.0,-6.489335060119629,4.689932346343994,-5.6350975036621085
1536,77100.0,-6.489335060119629,4.689932346343994,-5.6350975036621085
1537,77200.0,-6.585048198699951,4.783252716064453,-5.680561065673827
1538,77300.0,-6.585048198699951,4.783252716064453,-5.680561065673827
1539,77400.0,-5.876771926879883,3.438485860824585,-6.695117950439452
1540,77500.0,-5.876771926879883,3.438485860824585,-6.695117950439452
1541,77600.0,-5.876771926879883,3.438485860824585,-6.695117950439452
1542,77700.0,-6.3936219215393075,3.122633695602417,-8.030312538146973
1543,77800.0,-6.3936219215393075,3.122633695602417,-8.030312538146973
1544,77900.0,-7.068397998809815,2.6464619636535645,-6.099304676055907
1545,78000.0,-7.068397998809815,2.6464619636535645,-6.099304676055907
1546,78100.0,-6.9344000816345215,4.0869412422180185,-5.115854740142822
1547,78200.0,-6.9344000816345215,4.0869412422180185,-5.115854740142822
1548,78300.0,-6.9344000816345215,4.0869412422180185,-5.115854740142822
1549,78400.0,-5.359922409057617,3.598805427551269,-7.389035701751709
1550,78500.0,-5.359922409057617,3.598805427551269,-7.389035701751709
1551,78600.0,-5.450850009918213,2.861815929412842,-7.5326056480407715
1552,78700.0,-5.450850009918213,2.861815929412842,-7.5326056480407715
1553,78800.0,-4.680361270904541,3.232703685760498,-7.814958095550537
1554,78900.0,-4.680361270904541,3.232703685760498,-7.814958095550537
1555,79000.0,-4.302295207977295,3.806980848312378,-8.044669151306152
1556,79100.0,-4.302295207977295,3.806980848312378,-8.044669151306152
1557,79200.0,-4.302295207977295,3.806980848312378,-8.044669151306152
1558,79300.0,-4.067798614501953,3.627518892288208,-7.9728851318359375
1559,79400.0,-4.067798614501953,3.627518892288208,-7.9728851318359375
1560,78000.0,-7.068397998809815,2.6464619636535645,-6.099304676055907
1561,78100.0,-6.9344000816345215,4.0869412422180185,-5.115854740142822
1562,78200.0,-6.9344000816345215,4.0869412422180185,-5.115854740142822
1563,78300.0,-6.9344000816345215,4.0869412422180185,-5.115854740142822
1564,78400.0,-5.359922409057617,3.598805427551269,-7.389035701751709
1565,78500.0,-5.359922409057617,3.598805427551269,-7.389035701751709
1566,78600.0,-5.450850009918213,2.861815929412842,-7.5326056480407715
1567,78700.0,-5.450850009918213,2.861815929412842,-7.5326056480407715
1568,78800.0,-4.680361270904541,3.232703685760498,-7.814958095550537
1569,78900.0,-4.680361270904541,3.232703685760498,-7.814958095550537
1570,79000.0,-4.302295207977295,3.806980848312378,-8.044669151306152
1571,79100.0,-4.302295207977295,3.806980848312378,-8.044669151306152
1572,79200.0,-4.302295207977295,3.806980848312378,-8.044669151306152
1573,79300.0,-4.067798614501953,3.627518892288208,-7.9728851318359375
1574,79400.0,-4.067798614501953,3.627518892288208,-7.9728851318359375
1575,79500.0,-3.838087558746338,3.919443368911743,-8.204988479614258
1576,79600.0,-3.838087558746338,3.919443368911743,-8.204988479614258
1577,79700.0,-3.957728624343872,3.79262375831604,-8.030312538146973
1578,79800.0,-3.957728624343872,3.79262375831604,-8.030312538146973
1579,79900.0,-3.957728624343872,3.79262375831604,-8.030312538146973
1580,80000.0,-3.929014682769776,3.8835511207580566,-8.075776100158691
1581,80100.0,-3.929014682769776,3.8835511207580566,-8.075776100158691
1582,80200.0,-3.876372575759888,4.034298896789552,-8.047062873840332
1583,80300.0,-3.876372575759888,4.034298896789552,-8.047062873840332
1584,80400.0,-3.8572301864624015,3.8907296657562256,-8.068597793579103
1585,80500.0,-3.8572301864624015,3.8907296657562256,-8.068597793579103
1586,80600.0,-3.962514162063599,3.926621913909912,-7.965706348419189
1587,80700.0,-3.962514162063599,3.926621913909912,-7.965706348419189
1588,80800.0,-3.962514162063599,3.926621913909912,-7.965706348419189
1589,80900.0,-3.8572301864624015,3.8596229553222656,-8.00399112701416
1590,79500.0,-3.838087558746338,3.919443368911743,-8.204988479614258
1591,79600.0,-3.838087558746338,3.919443368911743,-8.204988479614258
1592,79700.0,-3.957728624343872,3.79262375831604,-8.030312538146973
1593,79800.0,-3.957728624343872,3.79262375831604,-8.030312538146973
1594,79900.0,-3.957728624343872,3.79262375831604,-8.030312538146973
1595,80000.0,-3.929014682769776,3.8835511207580566,-8.075776100158691
1596,80100.0,-3.929014682769776,3.8835511207580566,-8.075776100158691
1597,80200.0,-3.876372575759888,4.034298896789552,-8.047062873840332
1598,80300.0,-3.876372575759888,4.034298896789552,-8.047062873840332
1599,80400.0,-3.8572301864624015,3.8907296657562256,-8.068597793579103
1600,80500.0,-3.8572301864624015,3.8907296657562256,-8.068597793579103
1601,80600.0,-3.962514162063599,3.926621913909912,-7.965706348419189
1602,80700.0,-3.962514162063599,3.926621913909912,-7.965706348419189
1603,80800.0,-3.962514162063599,3.926621913909912,-7.965706348419189
1604,80900.0,-3.8572301864624015,3.8596229553222656,-8.00399112701416
1605,81000.0,-3.8572301864624015,3.8596229553222656,-8.00399112701416
1606,81100.0,-3.9146575927734375,3.862015962600708,-7.982456684112549
1607,81200.0,-3.9146575927734375,3.862015962600708,-7.982456684112549
1608,81300.0,-3.8955152034759517,3.902693748474121,-8.126025199890138
1609,81400.0,-3.8955152034759517,3.902693748474121,-8.126025199890138
1610,81500.0,-3.90987229347229,3.8668015003204346,-8.047062873840332
1611,81600.0,-3.90987229347229,3.8668015003204346,-8.047062873840332
1612,81700.0,-3.88594388961792,3.8955152034759517,-8.116454124450684
1613,81800.0,-3.88594388961792,3.8955152034759517,-8.116454124450684
1614,81900.0,-3.88594388961792,3.8955152034759517,-8.116454124450684
1615,82000.0,-3.876372575759888,3.9146575927734375,-8.066205024719237
1616,82100.0,-3.876372575759888,3.9146575927734375,-8.066205024719237
1617,82200.0,-3.919443368911743,3.938585996627808,-8.063812255859375
1618,82300.0,-3.919443368911743,3.938585996627808,-8.063812255859375
1619,82400.0,-3.933800458908081,3.87876558303833,-8.063812255859375
1620,81000.0,-3.8572301864624015,3.8596229553222656,-8.00399112701416
1621,81100.0,-3.9146575927734375,3.862015962600708,-7.982456684112549
1622,81200.0,-3.9146575927734375,3.862015962600708,-7.982456684112549
1623,81300.0,-3.8955152034759517,3.902693748474121,-8.126025199890138
1624,81400.0,-3.8955152034759517,3.902693748474121,-8.126025199890138
1625,81500.0,-3.90987229347229,3.8668015003204346,-8.047062873840332
1626,81600.0,-3.90987229347229,3.8668015003204346,-8.047062873840332
1627,81700.0,-3.88594388961792,3.8955152034759517,-8.116454124450684
1628,81800.0,-3.88594388961792,3.8955152034759517,-8.116454124450684
1629,81900.0,-3.88594388961792,3.8955152034759517,-8.116454124450684
1630,82000.0,-3.876372575759888,3.9146575927734375,-8.066205024719237
1631,82100.0,-3.876372575759888,3.9146575927734375,-8.066205024719237
1632,82200.0,-3.919443368911743,3.938585996627808,-8.063812255859375
1633,82300.0,-3.919443368911743,3.938585996627808,-8.063812255859375
1634,82400.0,-3.933800458908081,3.87876558303833,-8.063812255859375
1635,82500.0,-3.933800458908081,3.87876558303833,-8.063812255859375
1636,82600.0,-3.933800458908081,3.87876558303833,-8.063812255859375
1637,82700.0,-3.88594388961792,3.864408254623413,-8.082954406738281
1638,82800.0,-3.88594388961792,3.864408254623413,-8.082954406738281
1639,82900.0,-3.833301782608032,4.000799655914307,-7.963313579559326
1640,83000.0,-3.833301782608032,4.000799655914307,-7.963313579559326
1641,83100.0,-4.01037073135376,3.869194030761719,-8.015955924987793
1642,83200.0,-4.01037073135376,3.869194030761719,-8.015955924987793
1643,83300.0,-3.881158351898194,3.845265865325928,-8.099704742431639
1644,83400.0,-3.881158351898194,3.845265865325928,-8.099704742431639
1645,83500.0,-3.924229145050049,3.8907296657562256,-8.073383331298826
1646,83600.0,-3.924229145050049,3.8907296657562256,-8.073383331298826
1647,83700.0,-3.924229145050049,3.8907296657562256,-8.073383331298826
1648,83800.0,-3.962514162063599,3.8835511207580566,-7.893921852111816
1649,83900.0,-3.962514162063599,3.8835511207580566,-7.893921852111816
1650,82500.0,-3.933800458908081,3.87876558303833,-8.063812255859375
1651,82600.0,-3.933800458908081,3.87876558303833,-8.063812255859375
1652,82700.0,-3.88594388961792,3.864408254623413,-8.082954406738281
1653,82800.0,-3.88594388961792,3.864408254623413,-8.082954406738281
1654,82900.0,-3.833301782608032,4.000799655914307,-7.963313579559326
1655,83000.0,-3.833301782608032,4.000799655914307,-7.963313579559326
1656,83100.0,-4.01037073135376,3.869194030761719,-8.015955924987793
1657,83200.0,-4.01037073135376,3.869194030761719,-8.015955924987793
1658,83300.0,-3.881158351898194,3.845265865325928,-8.099704742431639
1659,83400.0,-3.881158351898194,3.845265865325928,-8.099704742431639
1660,83500.0,-3.924229145050049,3.8907296657562256,-8.073383331298826
1661,83600.0,-3.924229145050049,3.8907296657562256,-8.073383331298826
1662,83700.0,-3.924229145050049,3.8907296657562256,-8.073383331298826
1663,83800.0,-3.962514162063599,3.8835511207580566,-7.893921852111816
1664,83900.0,-3.962514162063599,3.8835511207580566,-7.893921852111816
1665,84000.0,-3.7567315101623535,3.840480089187622,-8.116454124450684
1666,84100.0,-3.7567315101623535,3.840480089187622,-8.116454124450684
1667,84200.0,-3.90987229347229,3.845265865325928,-8.037490844726562
1668,84300.0,-3.90987229347229,3.845265865325928,-8.037490844726562
1669,84400.0,-3.871586799621582,3.751945972442627,-8.092526435852049
1670,84500.0,-3.871586799621582,3.751945972442627,-8.092526435852049
1671,84600.0,-3.871586799621582,3.751945972442627,-8.092526435852049
1672,84700.0,-3.924229145050049,3.8572301864624015,-8.044669151306152
1673,84800.0,-3.924229145050049,3.8572301864624015,-8.044669151306152
1674,84900.0,-3.919443368911743,3.919443368911743,-8.281558990478517
1675,85000.0,-3.919443368911743,3.919443368911743,-8.281558990478517
1676,85100.0,-3.8524444103240967,3.833301782608032,-8.12841796875
1677,85200.0,-3.8524444103240967,3.833301782608032,-8.12841796875
1678,85300.0,-3.8524444103240967,3.833301782608032,-8.12841796875
1679,85400.0,-3.9720854759216313,3.842873096466065,-8.063812255859375
1680,84000.0,-3.7567315101623535,3.840480089187622,-8.116454124450684
1681,84100.0,-3.7567315101623535,3.840480089187622,-8.116454124450684
1682,84200.0,-3.90987229347229,3.845265865325928,-8.037490844726562
1683,84300.0,-3.90987229347229,3.845265865325928,-8.037490844726562
1684,84400.0,-3.871586799621582,3.751945972442627,-8.092526435852049
1685,84500.0,-3.871586799621582,3.751945972442627,-8.092526435852049
1686,84600.0,-3.871586799621582,3.751945972442627,-8.092526435852049
1687,84700.0,-3.924229145050049,3.8572301864624015,-8.044669151306152
1688,84800.0,-3.924229145050049,3.8572301864624015,-8.044669151306152
1689,84900.0,-3.919443368911743,3.919443368911743,-8.281558990478517
1690,85000.0,-3.919443368911743,3.919443368911743,-8.281558990478517
1691,85100.0,-3.8524444103240967,3.833301782608032,-8.12841796875
1692,85200.0,-3.8524444103240967,3.833301782608032,-8.12841796875
1693,85300.0,-3.8524444103240967,3.833301782608032,-8.12841796875
1694,85400.0,-3.9720854759216313,3.842873096466065,-8.063812255859375
1695,85500.0,-3.9720854759216313,3.842873096466065,-8.063812255859375
1696,85600.0,-3.919443368911743,3.8548374176025386,-8.094919204711914
1697,85700.0,-3.919443368911743,3.8548374176025386,-8.094919204711914
1698,85800.0,-3.871586799621582,3.8596229553222656,-8.159524917602539
1699,85900.0,-3.871586799621582,3.8596229553222656,-8.159524917602539
1700,86000.0,-3.871586799621582,3.8596229553222656,-8.159524917602539
1701,86100.0,-3.876372575759888,3.893122434616089,-8.078168869018555
1702,86200.0,-3.876372575759888,3.893122434616089,-8.078168869018555
1703,86300.0,-3.8668015003204346,3.842873096466065,-7.999206066131593
1704,86400.0,-3.8668015003204346,3.842873096466065,-7.999206066131593
1705,86500.0,-3.8668015003204346,3.842873096466065,-7.999206066131593
1706,86600.0,-3.90987229347229,3.617947816848755,-8.343771934509277
1707,86700.0,-3.90987229347229,3.617947816848755,-8.343771934509277
1708,86800.0,-4.1730828285217285,3.515056610107422,-8.291130065917969
1709,86900.0,-4.1730828285217285,3.515056610107422,-8.291130065917969
1710,85500.0,-3.9720854759216313,3.842873096466065,-8.063812255859375
1711,85600.0,-3.919443368911743,3.8548374176025386,-8.094919204711914
1712,85700.0,-3.919443368911743,3.8548374176025386,-8.094919204711914
1713,85800.0,-3.871586799621582,3.8596229553222656,-8.159524917602539
1714,85900.0,-3.871586799621582,3.8596229553222656,-8.159524917602539
1715,86000.0,-3.871586799621582,3.8596229553222656,-8.159524917602539
1716,86100.0,-3.876372575759888,3.893122434616089,-8.078168869018555
1717,86200.0,-3.876372575759888,3.893122434616089,-8.078168869018555
1718,86300.0,-3.8668015003204346,3.842873096466065,-7.999206066131593
1719,86400.0,-3.8668015003204346,3.842873096466065,-7.999206066131593
1720,86500.0,-3.8668015003204346,3.842873096466065,-7.999206066131593
1721,86600.0,-3.90987229347229,3.617947816848755,-8.343771934509277
1722,86700.0,-3.90987229347229,3.617947816848755,-8.343771934509277
1723,86800.0,-4.1730828285217285,3.515056610107422,-8.291130065917969
1724,86900.0,-4.1730828285217285,3.515056610107422,-8.291130065917969
1725,87000.0,-4.23529577255249,1.9932212829589844,-8.317451477050781
1726,87100.0,-4.23529577255249,1.9932212829589844,-8.317451477050781
1727,87200.0,-4.23529577255249,1.9932212829589844,-8.317451477050781
1728,87300.0,-5.785844802856445,-1.0169496536254885,-7.192824840545653
1729,87400.0,-5.785844802856445,-1.0169496536254885,-7.192824840545653
1730,87500.0,-5.024927616119385,-3.469593048095703,-7.386643409729004
1731,87600.0,-5.024927616119385,-3.469593048095703,-7.386643409729004
1732,87700.0,-4.149154186248778,1.227518081665039,-8.657232284545897
1733,87800.0,-4.149154186248778,1.227518081665039,-8.657232284545897
1734,87900.0,-4.149154186248778,1.227518081665039,-8.657232284545897
