,timestamp,ax,ay,az
0,0.0,4.374079704284668,6.695117950439452,-11.358729362487793
1,50.0,4.374079704284668,6.695117950439452,-11.358729362487793
2,100.0,4.374079704284668,6.695117950439452,-11.358729362487793
3,150.0,4.374079704284668,6.695117950439452,-11.358729362487793
4,200.0,4.374079704284668,6.695117950439452,-11.358729362487793
5,250.0,-2.2923240661621094,-2.665604591369629,-6.405585765838622
6,300.0,-2.2923240661621094,-2.665604591369629,-6.405585765838622
7,350.0,-2.2923240661621094,-2.665604591369629,-6.405585765838622
8,400.0,-2.2923240661621094,-2.665604591369629,-6.405585765838622
9,450.0,0.15314064919948578,-4.1515469551086435,-8.183453559875487
10,500.0,0.15314064919948578,-4.1515469551086435,-8.183453559875487
11,550.0,0.15314064919948578,-4.1515469551086435,-8.183453559875487
12,600.0,0.15314064919948578,-4.1515469551086435,-8.183453559875487
13,650.0,0.15314064919948578,-4.1515469551086435,-8.183453559875487
14,700.0,0.03828516229987145,-5.749952793121338,-8.178668022155763
15,750.0,0.03828516229987145,-5.749952793121338,-8.178668022155763
16,800.0,0.03828516229987145,-5.749952793121338,-8.178668022155763
17,850.0,0.03828516229987145,-5.749952793121338,-8.178668022155763
18,900.0,0.5264209508895874,-4.893322467803955,-8.3629150390625
19,950.0,0.5264209508895874,-4.893322467803955,-8.3629150390625
20,1000.0,0.5264209508895874,-4.893322467803955,-8.3629150390625
21,1050.0,0.5264209508895874,-4.893322467803955,-8.3629150390625
22,1100.0,0.5264209508895874,-4.893322467803955,-8.3629150390625
23,1150.0,-5.374279499053955,-2.4023938179016118,-8.84626579284668
24,1200.0,-5.374279499053955,-2.4023938179016118,-8.84626579284668
25,1250.0,-5.374279499053955,-2.4023938179016118,-8.84626579284668
26,1300.0,-5.374279499053955,-2.4023938179016118,-8.84626579284668
27,1350.0,-3.1489543914794917,-2.203789472579956,-9.255437850952148
28,1400.0,-3.1489543914794917,-2.203789472579956,-9.255437850952148
29,1450.0,-3.1489543914794917,-2.203789472579956,-9.255437850952148
30,1500.0,-3.1489543914794917,-2.203789472579956,-9.255437850952148
31,1550.0,-2.1966111660003658,-2.6536402702331543,-8.848658561706543
32,1600.0,-2.1966111660003658,-2.6536402702331543,-8.848658561706543
33,1650.0,-2.1966111660003658,-2.6536402702331543,-8.848658561706543
34,1700.0,-2.1966111660003658,-2.6536402702331543,-8.848658561706543
35,1750.0,-2.1966111660003658,-2.6536402702331543,-8.848658561706543
36,1800.0,-4.900500774383545,0.8087739944458008,-11.621939659118652
37,1850.0,-4.900500774383545,0.8087739944458008,-11.621939659118652
38,1900.0,-4.900500774383545,0.8087739944458008,-11.621939659118652
39,1950.0,-4.900500774383545,0.8087739944458008,-11.621939659118652
40,1000.0,0.5264209508895874,-4.893322467803955,-8.3629150390625
41,1050.0,0.5264209508895874,-4.893322467803955,-8.3629150390625
42,1100.0,0.5264209508895874,-4.893322467803955,-8.3629150390625
43,1150.0,-5.374279499053955,-2.4023938179016118,-8.84626579284668
44,1200.0,-5.374279499053955,-2.4023938179016118,-8.84626579284668
45,1250.0,-5.374279499053955,-2.4023938179016118,-8.84626579284668
46,1300.0,-5.374279499053955,-2.4023938179016118,-8.84626579284668
47,1350.0,-3.1489543914794917,-2.203789472579956,-9.255437850952148
48,1400.0,-3.1489543914794917,-2.203789472579956,-9.255437850952148
49,1450.0,-3.1489543914794917,-2.203789472579956,-9.255437850952148
50,1500.0,-3.1489543914794917,-2.203789472579956,-9.255437850952148
51,1550.0,-2.1966111660003658,-2.6536402702331543,-8.848658561706543
52,1600.0,-2.1966111660003658,-2.6536402702331543,-8.848658561706543
53,1650.0,-2.1966111660003658,-2.6536402702331543,-8.848658561706543
54,1700.0,-2.1966111660003658,-2.6536402702331543,-8.848658561706543
55,1750.0,-2.1966111660003658,-2.6536402702331543,-8.848658561706543
56,1800.0,-4.900500774383545,0.8087739944458008,-11.621939659118652
57,1850.0,-4.900500774383545,0.8087739944458008,-11.621939659118652
58,1900.0,-4.900500774383545,0.8087739944458008,-11.621939659118652
59,1950.0,-4.900500774383545,0.8087739944458008,-11.621939659118652
60,2000.0,-4.900500774383545,0.8087739944458008,-11.621939659118652
61,2050.0,-4.900500774383545,0.8087739944458008,-11.621939659118652
62,2100.0,-3.464807271957397,1.3639088869094849,-4.2137603759765625
63,2150.0,-3.464807271957397,1.3639088869094849,-4.2137603759765625
64,2200.0,-3.464807271957397,1.3639088869094849,-4.2137603759765625
65,2250.0,-3.464807271957397,1.3639088869094849,-4.2137603759765625
66,2300.0,-1.674975872039795,4.912464618682861,-8.360522270202638
67,2350.0,-1.674975872039795,4.912464618682861,-8.360522270202638
68,2400.0,-1.674975872039795,4.912464618682861,-8.360522270202638
69,2450.0,-1.674975872039795,4.912464618682861,-8.360522270202638
70,2500.0,-1.674975872039795,4.912464618682861,-8.360522270202638
71,2550.0,-5.43170690536499,4.9842495918273935,-6.26440954208374
72,2600.0,-5.43170690536499,4.9842495918273935,-6.26440954208374
73,2650.0,-5.43170690536499,4.9842495918273935,-6.26440954208374
74,2700.0,-5.43170690536499,4.9842495918273935,-6.26440954208374
75,2750.0,-5.733203411102295,3.634697675704956,-7.992027282714844
76,2800.0,-5.733203411102295,3.634697675704956,-7.992027282714844
77,2850.0,-5.733203411102295,3.634697675704956,-7.992027282714844
78,2900.0,-5.733203411102295,3.634697675704956,-7.992027282714844
79,2950.0,-3.421736478805542,1.1413763761520386,-9.858428955078123
80,2000.0,-4.900500774383545,0.8087739944458008,-11.621939659118652
81,2050.0,-4.900500774383545,0.8087739944458008,-11.621939659118652
82,2100.0,-3.464807271957397,1.3639088869094849,-4.2137603759765625
83,2150.0,-3.464807271957397,1.3639088869094849,-4.2137603759765625
84,2200.0,-3.464807271957397,1.3639088869094849,-4.2137603759765625
85,2250.0,-3.464807271957397,1.3639088869094849,-4.2137603759765625
86,2300.0,-1.674975872039795,4.912464618682861,-8.360522270202638
87,2350.0,-1.674975872039795,4.912464618682861,-8.360522270202638
88,2400.0,-1.674975872039795,4.912464618682861,-8.360522270202638
89,2450.0,-1.674975872039795,4.912464618682861,-8.360522270202638
90,2500.0,-1.674975872039795,4.912464618682861,-8.360522270202638
91,2550.0,-5.43170690536499,4.9842495918273935,-6.26440954208374
92,2600.0,-5.43170690536499,4.9842495918273935,-6.26440954208374
93,2650.0,-5.43170690536499,4.9842495918273935,-6.26440954208374
94,2700.0,-5.43170690536499,4.9842495918273935,-6.26440954208374
95,2750.0,-5.733203411102295,3.634697675704956,-7.992027282714844
96,2800.0,-5.733203411102295,3.634697675704956,-7.992027282714844
97,2850.0,-5.733203411102295,3.634697675704956,-7.992027282714844
98,2900.0,-5.733203411102295,3.634697675704956,-7.992027282714844
99,2950.0,-3.421736478805542,1.1413763761520386,-9.858428955078123
100,3000.0,-3.421736478805542,1.1413763761520386,-9.858428955078123
101,3050.0,-3.421736478805542,1.1413763761520386,-9.858428955078123
102,3100.0,-3.421736478805542,1.1413763761520386,-9.858428955078123
103,3150.0,-3.421736478805542,1.1413763761520386,-9.858428955078123
104,3200.0,-1.8472589254379272,6.484549045562744,-7.195217609405518
105,3250.0,-1.8472589254379272,6.484549045562744,-7.195217609405518
106,3300.0,-1.8472589254379272,6.484549045562744,-7.195217609405518
107,3350.0,-1.8472589254379272,6.484549045562744,-7.195217609405518
108,3400.0,-1.8472589254379272,6.484549045562744,-7.195217609405518
109,3450.0,-3.45045018196106,7.209574222564697,-6.113661766052246
110,3500.0,-3.45045018196106,7.209574222564697,-6.113661766052246
111,3550.0,-3.45045018196106,7.209574222564697,-6.113661766052246
112,3600.0,-3.45045018196106,7.209574222564697,-6.113661766052246
113,3650.0,-2.4598214626312256,6.577868938446045,-6.474977493286133
114,3700.0,-2.4598214626312256,6.577868938446045,-6.474977493286133
115,3750.0,-2.4598214626312256,6.577868938446045,-6.474977493286133
116,3800.0,-2.4598214626312256,6.577868938446045,-6.474977493286133
117,3850.0,-2.4598214626312256,6.577868938446045,-6.474977493286133
118,3900.0,-2.426322221755981,5.1014976501464835,-6.501298904418945
119,3950.0,-2.426322221755981,5.1014976501464835,-6.501298904418945
120,3000.0,-3.421736478805542,1.1413763761520386,-9.858428955078123
121,3050.0,-3.421736478805542,1.1413763761520386,-9.858428955078123
122,3100.0,-3.421736478805542,1.1413763761520386,-9.858428955078123
123,3150.0,-3.421736478805542,1.1413763761520386,-9.858428955078123
124,3200.0,-1.8472589254379272,6.484549045562744,-7.195217609405518
125,3250.0,-1.8472589254379272,6.484549045562744,-7.195217609405518
126,3300.0,-1.8472589254379272,6.484549045562744,-7.195217609405518
127,3350.0,-1.8472589254379272,6.484549045562744,-7.195217609405518
128,3400.0,-1.8472589254379272,6.484549045562744,-7.195217609405518
129,3450.0,-3.45045018196106,7.209574222564697,-6.113661766052246
130,3500.0,-3.45045018196106,7.209574222564697,-6.113661766052246
131,3550.0,-3.45045018196106,7.209574222564697,-6.113661766052246
132,3600.0,-3.45045018196106,7.209574222564697,-6.113661766052246
133,3650.0,-2.4598214626312256,6.577868938446045,-6.474977493286133
134,3700.0,-2.4598214626312256,6.577868938446045,-6.474977493286133
135,3750.0,-2.4598214626312256,6.577868938446045,-6.474977493286133
136,3800.0,-2.4598214626312256,6.577868938446045,-6.474977493286133
137,3850.0,-2.4598214626312256,6.577868938446045,-6.474977493286133
138,3900.0,-2.426322221755981,5.1014976501464835,-6.501298904418945
139,3950.0,-2.426322221755981,5.1014976501464835,-6.501298904418945
140,4000.0,-2.426322221755981,5.1014976501464835,-6.501298904418945
141,4050.0,-2.426322221755981,5.1014976501464835,-6.501298904418945
142,4100.0,-2.426322221755981,5.1014976501464835,-6.501298904418945
143,4150.0,-0.3445664942264557,4.448256969451903,-7.712067127227782
144,4200.0,-0.3445664942264557,4.448256969451903,-7.712067127227782
145,4250.0,-0.3445664942264557,4.448256969451903,-7.712067127227782
146,4300.0,-0.3445664942264557,4.448256969451903,-7.712067127227782
147,4350.0,-6.120840072631836,3.5844480991363525,-6.412764549255371
148,4400.0,-6.120840072631836,3.5844480991363525,-6.412764549255371
149,4450.0,-6.120840072631836,3.5844480991363525,-6.412764549255371
150,4500.0,-6.120840072631836,3.5844480991363525,-6.412764549255371
151,4550.0,-6.120840072631836,3.5844480991363525,-6.412764549255371
152,4600.0,-3.005385160446167,4.754538536071777,-9.020941734313963
153,4650.0,-3.005385160446167,4.754538536071777,-9.020941734313963
154,4700.0,-3.005385160446167,4.754538536071777,-9.020941734313963
155,4750.0,-3.005385160446167,4.754538536071777,-9.020941734313963
156,4800.0,-3.5270204544067383,-1.2658032178878784,-8.793622970581055
157,4850.0,-3.5270204544067383,-1.2658032178878784,-8.793622970581055
158,4900.0,-3.5270204544067383,-1.2658032178878784,-8.793622970581055
159,4950.0,-3.5270204544067383,-1.2658032178878784,-8.793622970581055
160,4000.0,-2.426322221755981,5.1014976501464835,-6.501298904418945
161,4050.0,-2.426322221755981,5.1014976501464835,-6.501298904418945
162,4100.0,-2.426322221755981,5.1014976501464835,-6.501298904418945
163,4150.0,-0.3445664942264557,4.448256969451903,-7.712067127227782
164,4200.0,-0.3445664942264557,4.448256969451903,-7.712067127227782
165,4250.0,-0.3445664942264557,4.448256969451903,-7.712067127227782
166,4300.0,-0.3445664942264557,4.448256969451903,-7.712067127227782
167,4350.0,-6.120840072631836,3.5844480991363525,-6.412764549255371
168,4400.0,-6.120840072631836,3.5844480991363525,-6.412764549255371
169,4450.0,-6.120840072631836,3.5844480991363525,-6.412764549255371
170,4500.0,-6.120840072631836,3.5844480991363525,-6.412764549255371
171,4550.0,-6.120840072631836,3.5844480991363525,-6.412764549255371
172,4600.0,-3.005385160446167,4.754538536071777,-9.020941734313963
173,4650.0,-3.005385160446167,4.754538536071777,-9.020941734313963
174,4700.0,-3.005385160446167,4.754538536071777,-9.020941734313963
175,4750.0,-3.005385160446167,4.754538536071777,-9.020941734313963
176,4800.0,-3.5270204544067383,-1.2658032178878784,-8.793622970581055
177,4850.0,-3.5270204544067383,-1.2658032178878784,-8.793622970581055
178,4900.0,-3.5270204544067383,-1.2658032178878784,-8.793622970581055
179,4950.0,-3.5270204544067383,-1.2658032178878784,-8.793622970581055
180,5000.0,-3.5270204544067383,-1.2658032178878784,-8.793622970581055
181,5050.0,-4.412364959716797,3.3427734375,-8.781659126281737
182,5100.0,-4.412364959716797,3.3427734375,-8.781659126281737
183,5150.0,-4.412364959716797,3.3427734375,-8.781659126281737
184,5200.0,-4.412364959716797,3.3427734375,-8.781659126281737
185,5250.0,-4.412364959716797,3.3427734375,-8.781659126281737
186,5300.0,-4.019941806793213,5.0368919372558585,-7.635497093200684
187,5350.0,-4.019941806793213,5.0368919372558585,-7.635497093200684
188,5400.0,-4.019941806793213,5.0368919372558585,-7.635497093200684
189,5450.0,-4.019941806793213,5.0368919372558585,-7.635497093200684
190,5500.0,-4.019941806793213,5.0368919372558585,-7.635497093200684
191,5550.0,-4.29750919342041,4.4721856117248535,-8.23130989074707
192,5600.0,-4.29750919342041,4.4721856117248535,-8.23130989074707
193,5650.0,-4.29750919342041,4.4721856117248535,-8.23130989074707
194,5700.0,-4.29750919342041,4.4721856117248535,-8.23130989074707
195,5750.0,-6.049055576324463,4.189832210540772,-4.438685894012451
196,5800.0,-6.049055576324463,4.189832210540772,-4.438685894012451
197,5850.0,-6.049055576324463,4.189832210540772,-4.438685894012451
198,5900.0,-6.049055576324463,4.189832210540772,-4.438685894012451
199,5950.0,-6.049055576324463,4.189832210540772,-4.438685894012451
200,5000.0,-3.5270204544067383,-1.2658032178878784,-8.793622970581055
201,5050.0,-4.412364959716797,3.3427734375,-8.781659126281737
202,5100.0,-4.412364959716797,3.3427734375,-8.781659126281737
203,5150.0,-4.412364959716797,3.3427734375,-8.781659126281737
204,5200.0,-4.412364959716797,3.3427734375,-8.781659126281737
205,5250.0,-4.412364959716797,3.3427734375,-8.781659126281737
206,5300.0,-4.019941806793213,5.0368919372558585,-7.635497093200684
207,5350.0,-4.019941806793213,5.0368919372558585,-7.635497093200684
208,5400.0,-4.019941806793213,5.0368919372558585,-7.635497093200684
209,5450.0,-4.019941806793213,5.0368919372558585,-7.635497093200684
210,5500.0,-4.019941806793213,5.0368919372558585,-7.635497093200684
211,5550.0,-4.29750919342041,4.4721856117248535,-8.23130989074707
212,5600.0,-4.29750919342041,4.4721856117248535,-8.23130989074707
213,5650.0,-4.29750919342041,4.4721856117248535,-8.23130989074707
214,5700.0,-4.29750919342041,4.4721856117248535,-8.23130989074707
215,5750.0,-6.049055576324463,4.189832210540772,-4.438685894012451
216,5800.0,-6.049055576324463,4.189832210540772,-4.438685894012451
217,5850.0,-6.049055576324463,4.189832210540772,-4.438685894012451
218,5900.0,-6.049055576324463,4.189832210540772,-4.438685894012451
219,5950.0,-6.049055576324463,4.189832210540772,-4.438685894012451
220,6000.0,-3.603590488433838,4.048655986785889,-9.054441452026367
221,6050.0,-3.603590488433838,4.048655986785889,-9.054441452026367
222,6100.0,-3.603590488433838,4.048655986785889,-9.054441452026367
223,6150.0,-3.603590488433838,4.048655986785889,-9.054441452026367
224,6200.0,-3.603590488433838,4.048655986785889,-9.054441452026367
225,6250.0,-2.9383859634399414,0.4091726541519165,-8.922836303710938
226,6300.0,-2.9383859634399414,0.4091726541519165,-8.922836303710938
227,6350.0,-2.9383859634399414,0.4091726541519165,-8.922836303710938
228,6400.0,-2.9383859634399414,0.4091726541519165,-8.922836303710938
229,6450.0,-2.9383859634399414,0.4091726541519165,-8.922836303710938
230,6500.0,-3.933800458908081,0.41156551241874695,-8.499305725097656
231,6550.0,-3.933800458908081,0.41156551241874695,-8.499305725097656
232,6600.0,-3.933800458908081,0.41156551241874695,-8.499305725097656
233,6650.0,-3.933800458908081,0.41156551241874695,-8.499305725097656
234,6700.0,-6.149554252624513,1.722832441329956,-7.051648139953612
235,6750.0,-6.149554252624513,1.722832441329956,-7.051648139953612
236,6800.0,-6.149554252624513,1.722832441329956,-7.051648139953612
237,6850.0,-6.149554252624513,1.722832441329956,-7.051648139953612
238,6900.0,-4.512863159179688,0.8781659603118896,-8.13798999786377
239,6950.0,-4.512863159179688,0.8781659603118896,-8.13798999786377
240,6000.0,-3.603590488433838,4.048655986785889,-9.054441452026367
241,6050.0,-3.603590488433838,4.048655986785889,-9.054441452026367
242,6100.0,-3.603590488433838,4.048655986785889,-9.054441452026367
243,6150.0,-3.603590488433838,4.048655986785889,-9.054441452026367
244,6200.0,-3.603590488433838,4.048655986785889,-9.054441452026367
245,6250.0,-2.9383859634399414,0.4091726541519165,-8.922836303710938
246,6300.0,-2.9383859634399414,0.4091726541519165,-8.922836303710938
247,6350.0,-2.9383859634399414,0.4091726541519165,-8.922836303710938
248,6400.0,-2.9383859634399414,0.4091726541519165,-8.922836303710938
249,6450.0,-2.9383859634399414,0.4091726541519165,-8.922836303710938
250,6500.0,-3.933800458908081,0.41156551241874695,-8.499305725097656
251,6550.0,-3.933800458908081,0.41156551241874695,-8.499305725097656
252,6600.0,-3.933800458908081,0.41156551241874695,-8.499305725097656
253,6650.0,-3.933800458908081,0.41156551241874695,-8.499305725097656
254,6700.0,-6.149554252624513,1.722832441329956,-7.051648139953612
255,6750.0,-6.149554252624513,1.722832441329956,-7.051648139953612
256,6800.0,-6.149554252624513,1.722832441329956,-7.051648139953612
257,6850.0,-6.149554252624513,1.722832441329956,-7.051648139953612
258,6900.0,-4.512863159179688,0.8781659603118896,-8.13798999786377
259,6950.0,-4.512863159179688,0.8781659603118896,-8.13798999786377
260,7000.0,-4.512863159179688,0.8781659603118896,-8.13798999786377
261,7050.0,-4.512863159179688,0.8781659603118896,-8.13798999786377
262,7100.0,-4.512863159179688,0.8781659603118896,-8.13798999786377
263,7150.0,-2.9671001434326167,2.888136863708496,-7.9728851318359375
264,7200.0,-2.9671001434326167,2.888136863708496,-7.9728851318359375
265,7250.0,-2.9671001434326167,2.888136863708496,-7.9728851318359375
266,7300.0,-2.9671001434326167,2.888136863708496,-7.9728851318359375
267,7350.0,-2.9671001434326167,2.888136863708496,-7.9728851318359375
268,7400.0,-3.292524099349976,10.112068176269533,-2.2061824798583984
269,7450.0,-3.292524099349976,10.112068176269533,-2.2061824798583984
270,7500.0,-3.292524099349976,10.112068176269533,-2.2061824798583984
271,7550.0,-3.292524099349976,10.112068176269533,-2.2061824798583984
272,7600.0,-3.292524099349976,10.112068176269533,-2.2061824798583984
273,7650.0,-2.0147566795349117,9.879963874816896,2.203789472579956
274,7700.0,-2.0147566795349117,9.879963874816896,2.203789472579956
275,7750.0,-2.0147566795349117,9.879963874816896,2.203789472579956
276,7800.0,-2.0147566795349117,9.879963874816896,2.203789472579956
277,7850.0,-2.1966111660003658,9.186046600341797,4.25922441482544
278,7900.0,-2.1966111660003658,9.186046600341797,4.25922441482544
279,7950.0,-2.1966111660003658,9.186046600341797,4.25922441482544
280,7000.0,-4.512863159179688,0.8781659603118896,-8.13798999786377
281,7050.0,-4.512863159179688,0.8781659603118896,-8.13798999786377
282,7100.0,-4.512863159179688,0.8781659603118896,-8.13798999786377
283,7150.0,-2.9671001434326167,2.888136863708496,-7.9728851318359375
284,7200.0,-2.9671001434326167,2.888136863708496,-7.9728851318359375
285,7250.0,-2.9671001434326167,2.888136863708496,-7.9728851318359375
286,7300.0,-2.9671001434326167,2.888136863708496,-7.9728851318359375
287,7350.0,-2.9671001434326167,2.888136863708496,-7.9728851318359375
288,7400.0,-3.292524099349976,10.112068176269533,-2.2061824798583984
289,7450.0,-3.292524099349976,10.112068176269533,-2.2061824798583984
290,7500.0,-3.292524099349976,10.112068176269533,-2.2061824798583984
291,7550.0,-3.292524099349976,10.112068176269533,-2.2061824798583984
292,7600.0,-3.292524099349976,10.112068176269533,-2.2061824798583984
293,7650.0,-2.0147566795349117,9.879963874816896,2.203789472579956
294,7700.0,-2.0147566795349117,9.879963874816896,2.203789472579956
295,7750.0,-2.0147566795349117,9.879963874816896,2.203789472579956
296,7800.0,-2.0147566795349117,9.879963874816896,2.203789472579956
297,7850.0,-2.1966111660003658,9.186046600341797,4.25922441482544
298,7900.0,-2.1966111660003658,9.186046600341797,4.25922441482544
299,7950.0,-2.1966111660003658,9.186046600341797,4.25922441482544
300,8000.0,-2.1966111660003658,9.186046600341797,4.25922441482544
301,8050.0,-2.1966111660003658,9.186046600341797,4.25922441482544
302,8100.0,-2.9527432918548584,8.779266357421875,4.120440483093262
303,8150.0,-2.9527432918548584,8.779266357421875,4.120440483093262
304,8200.0,-2.9527432918548584,8.779266357421875,4.120440483093262
305,8250.0,-2.9527432918548584,8.779266357421875,4.120440483093262
306,8300.0,-2.9527432918548584,8.779266357421875,4.120440483093262
307,8350.0,-2.7804601192474365,7.740781307220459,3.366701364517212
308,8400.0,-2.7804601192474365,7.740781307220459,3.366701364517212
309,8450.0,-2.7804601192474365,7.740781307220459,3.366701364517212
310,8500.0,-2.7804601192474365,7.740781307220459,3.366701364517212
311,8550.0,-3.469593048095703,11.078768730163574,2.187039852142334
312,8600.0,-3.469593048095703,11.078768730163574,2.187039852142334
313,8650.0,-3.469593048095703,11.078768730163574,2.187039852142334
314,8700.0,-3.469593048095703,11.078768730163574,2.187039852142334
315,8750.0,-4.0869412422180185,7.7455668449401855,-1.7874385118484497
316,8800.0,-4.0869412422180185,7.7455668449401855,-1.7874385118484497
317,8850.0,-4.0869412422180185,7.7455668449401855,-1.7874385118484497
318,8900.0,-4.0869412422180185,7.7455668449401855,-1.7874385118484497
319,8950.0,-4.0869412422180185,7.7455668449401855,-1.7874385118484497
320,8000.0,-2.1966111660003658,9.186046600341797,4.25922441482544
321,8050.0,-2.1966111660003658,9.186046600341797,4.25922441482544
322,8100.0,-2.9527432918548584,8.779266357421875,4.120440483093262
323,8150.0,-2.9527432918548584,8.779266357421875,4.120440483093262
324,8200.0,-2.9527432918548584,8.779266357421875,4.120440483093262
325,8250.0,-2.9527432918548584,8.779266357421875,4.120440483093262
326,8300.0,-2.9527432918548584,8.779266357421875,4.120440483093262
327,8350.0,-2.7804601192474365,7.740781307220459,3.366701364517212
328,8400.0,-2.7804601192474365,7.740781307220459,3.366701364517212
329,8450.0,-2.7804601192474365,7.740781307220459,3.366701364517212
330,8500.0,-2.7804601192474365,7.740781307220459,3.366701364517212
331,8550.0,-3.469593048095703,11.078768730163574,2.187039852142334
332,8600.0,-3.469593048095703,11.078768730163574,2.187039852142334
333,8650.0,-3.469593048095703,11.078768730163574,2.187039852142334
334,8700.0,-3.469593048095703,11.078768730163574,2.187039852142334
335,8750.0,-4.0869412422180185,7.7455668449401855,-1.7874385118484497
336,8800.0,-4.0869412422180185,7.7455668449401855,-1.7874385118484497
337,8850.0,-4.0869412422180185,7.7455668449401855,-1.7874385118484497
338,8900.0,-4.0869412422180185,7.7455668449401855,-1.7874385118484497
339,8950.0,-4.0869412422180185,7.7455668449401855,-1.7874385118484497
340,9000.0,-4.115654945373535,6.427121639251709,-6.570690631866455
341,9050.0,-4.115654945373535,6.427121639251709,-6.570690631866455
342,9100.0,-4.115654945373535,6.427121639251709,-6.570690631866455
343,9150.0,-4.115654945373535,6.427121639251709,-6.570690631866455
344,9200.0,-4.115654945373535,6.427121639251709,-6.570690631866455
345,9250.0,-3.383451223373413,10.344171524047852,0.20099709928035736
346,9300.0,-3.383451223373413,10.344171524047852,0.20099709928035736
347,9350.0,-3.383451223373413,10.344171524047852,0.20099709928035736
348,9400.0,-3.383451223373413,10.344171524047852,0.20099709928035736
349,9450.0,-3.383451223373413,10.344171524047852,0.20099709928035736
350,9500.0,-2.455036163330078,10.499706268310547,3.871586799621582
351,9550.0,-2.455036163330078,10.499706268310547,3.871586799621582
352,9600.0,-2.455036163330078,10.499706268310547,3.871586799621582
353,9650.0,-2.455036163330078,10.499706268310547,3.871586799621582
354,9700.0,-3.005385160446167,8.616554260253906,4.833501815795898
355,9750.0,-3.005385160446167,8.616554260253906,4.833501815795898
356,9800.0,-3.005385160446167,8.616554260253906,4.833501815795898
357,9850.0,-3.005385160446167,8.616554260253906,4.833501815795898
358,9900.0,-2.885744333267212,7.767102241516112,3.531806230545044
359,9950.0,-2.885744333267212,7.767102241516112,3.531806230545044
360,9000.0,-4.115654945373535,6.427121639251709,-6.570690631866455
361,9050.0,-4.115654945373535,6.427121639251709,-6.570690631866455
362,9100.0,-4.115654945373535,6.427121639251709,-6.570690631866455
363,9150.0,-4.115654945373535,6.427121639251709,-6.570690631866455
364,9200.0,-4.115654945373535,6.427121639251709,-6.570690631866455
365,9250.0,-3.383451223373413,10.344171524047852,0.20099709928035736
366,9300.0,-3.383451223373413,10.344171524047852,0.20099709928035736
367,9350.0,-3.383451223373413,10.344171524047852,0.20099709928035736
368,9400.0,-3.383451223373413,10.344171524047852,0.20099709928035736
369,9450.0,-3.383451223373413,10.344171524047852,0.20099709928035736
370,9500.0,-2.455036163330078,10.499706268310547,3.871586799621582
371,9550.0,-2.455036163330078,10.499706268310547,3.871586799621582
372,9600.0,-2.455036163330078,10.499706268310547,3.871586799621582
373,9650.0,-2.455036163330078,10.499706268310547,3.871586799621582
374,9700.0,-3.005385160446167,8.616554260253906,4.833501815795898
375,9750.0,-3.005385160446167,8.616554260253906,4.833501815795898
376,9800.0,-3.005385160446167,8.616554260253906,4.833501815795898
377,9850.0,-3.005385160446167,8.616554260253906,4.833501815795898
378,9900.0,-2.885744333267212,7.767102241516112,3.531806230545044
379,9950.0,-2.885744333267212,7.767102241516112,3.531806230545044
380,10000.0,-2.885744333267212,7.767102241516112,3.531806230545044
381,10050.0,-2.885744333267212,7.767102241516112,3.531806230545044
382,10100.0,-2.885744333267212,7.767102241516112,3.531806230545044
383,10150.0,-3.3547375202178955,10.296316146850586,4.840680122375488
384,10200.0,-3.3547375202178955,10.296316146850586,4.840680122375488
385,10250.0,-3.3547375202178955,10.296316146850586,4.840680122375488
386,10300.0,-3.3547375202178955,10.296316146850586,4.840680122375488
387,10350.0,-3.3547375202178955,10.296316146850586,4.840680122375488
388,10400.0,-2.8187451362609863,7.204789161682129,4.646861553192139
389,10450.0,-2.8187451362609863,7.204789161682129,4.646861553192139
390,10500.0,-2.8187451362609863,7.204789161682129,4.646861553192139
391,10550.0,-2.8187451362609863,7.204789161682129,4.646861553192139
392,10600.0,-2.8187451362609863,7.204789161682129,4.646861553192139
393,10650.0,-4.192224979400635,8.61176872253418,1.3040882349014282
394,10700.0,-4.192224979400635,8.61176872253418,1.3040882349014282
395,10750.0,-4.192224979400635,8.61176872253418,1.3040882349014282
396,10800.0,-4.192224979400635,8.61176872253418,1.3040882349014282
397,10850.0,-3.5557346343994136,8.980262756347656,-1.4811571836471558
398,10900.0,-3.5557346343994136,8.980262756347656,-1.4811571836471558
399,10950.0,-3.5557346343994136,8.980262756347656,-1.4811571836471558
400,10000.0,-2.885744333267212,7.767102241516112,3.531806230545044
401,10050.0,-2.885744333267212,7.767102241516112,3.531806230545044
402,10100.0,-2.885744333267212,7.767102241516112,3.531806230545044
403,10150.0,-3.3547375202178955,10.296316146850586,4.840680122375488
404,10200.0,-3.3547375202178955,10.296316146850586,4.840680122375488
405,10250.0,-3.3547375202178955,10.296316146850586,4.840680122375488
406,10300.0,-3.3547375202178955,10.296316146850586,4.840680122375488
407,10350.0,-3.3547375202178955,10.296316146850586,4.840680122375488
408,10400.0,-2.8187451362609863,7.204789161682129,4.646861553192139
409,10450.0,-2.8187451362609863,7.204789161682129,4.646861553192139
410,10500.0,-2.8187451362609863,7.204789161682129,4.646861553192139
411,10550.0,-2.8187451362609863,7.204789161682129,4.646861553192139
412,10600.0,-2.8187451362609863,7.204789161682129,4.646861553192139
413,10650.0,-4.192224979400635,8.61176872253418,1.3040882349014282
414,10700.0,-4.192224979400635,8.61176872253418,1.3040882349014282
415,10750.0,-4.192224979400635,8.61176872253418,1.3040882349014282
416,10800.0,-4.192224979400635,8.61176872253418,1.3040882349014282
417,10850.0,-3.5557346343994136,8.980262756347656,-1.4811571836471558
418,10900.0,-3.5557346343994136,8.980262756347656,-1.4811571836471558
419,10950.0,-3.5557346343994136,8.980262756347656,-1.4811571836471558
420,11000.0,-3.5557346343994136,8.980262756347656,-1.4811571836471558
421,11050.0,-3.5557346343994136,8.980262756347656,-1.4811571836471558
422,11100.0,-3.488735675811768,9.24825954437256,-0.6005984544754028
423,11150.0,-3.488735675811768,9.24825954437256,-0.6005984544754028
424,11200.0,-3.488735675811768,9.24825954437256,-0.6005984544754028
425,11250.0,-3.488735675811768,9.24825954437256,-0.6005984544754028
426,11300.0,-3.5509488582611084,9.152545928955078,-0.5551348924636841
427,11350.0,-3.5509488582611084,9.152545928955078,-0.5551348924636841
428,11400.0,-3.5509488582611084,9.152545928955078,-0.5551348924636841
429,11450.0,-3.5509488582611084,9.152545928955078,-0.5551348924636841
430,11500.0,-3.5509488582611084,9.152545928955078,-0.5551348924636841
431,11550.0,-3.469593048095703,9.183652877807617,-0.7920243144035339
432,11600.0,-3.469593048095703,9.183652877807617,-0.7920243144035339
433,11650.0,-3.469593048095703,9.183652877807617,-0.7920243144035339
434,11700.0,-3.469593048095703,9.183652877807617,-0.7920243144035339
435,11750.0,-3.469593048095703,9.183652877807617,-0.7920243144035339
436,11800.0,-3.608376264572144,8.918049812316895,-0.5168496966362001
437,11850.0,-3.608376264572144,8.918049812316895,-0.5168496966362001
438,11900.0,-3.608376264572144,8.918049812316895,-0.5168496966362001
439,11950.0,-3.608376264572144,8.918049812316895,-0.5168496966362001
440,11000.0,-3.5557346343994136,8.980262756347656,-1.4811571836471558
441,11050.0,-3.5557346343994136,8.980262756347656,-1.4811571836471558
442,11100.0,-3.488735675811768,9.24825954437256,-0.6005984544754028
443,11150.0,-3.488735675811768,9.24825954437256,-0.6005984544754028
444,11200.0,-3.488735675811768,9.24825954437256,-0.6005984544754028
445,11250.0,-3.488735675811768,9.24825954437256,-0.6005984544754028
446,11300.0,-3.5509488582611084,9.152545928955078,-0.5551348924636841
447,11350.0,-3.5509488582611084,9.152545928955078,-0.5551348924636841
448,11400.0,-3.5509488582611084,9.152545928955078,-0.5551348924636841
449,11450.0,-3.5509488582611084,9.152545928955078,-0.5551348924636841
450,11500.0,-3.5509488582611084,9.152545928955078,-0.5551348924636841
451,11550.0,-3.469593048095703,9.183652877807617,-0.7920243144035339
452,11600.0,-3.469593048095703,9.183652877807617,-0.7920243144035339
453,11650.0,-3.469593048095703,9.183652877807617,-0.7920243144035339
454,11700.0,-3.469593048095703,9.183652877807617,-0.7920243144035339
455,11750.0,-3.469593048095703,9.183652877807617,-0.7920243144035339
456,11800.0,-3.608376264572144,8.918049812316895,-0.5168496966362001
457,11850.0,-3.608376264572144,8.918049812316895,-0.5168496966362001
458,11900.0,-3.608376264572144,8.918049812316895,-0.5168496966362001
459,11950.0,-3.608376264572144,8.918049812316895,-0.5168496966362001
460,12000.0,-3.608376264572144,8.918049812316895,-0.5168496966362001
461,12050.0,-3.4073793888092037,9.346364974975586,-0.6388836503028871
462,12100.0,-3.4073793888092037,9.346364974975586,-0.6388836503028871
463,12150.0,-3.4073793888092037,9.346364974975586,-0.6388836503028871
464,12200.0,-3.4073793888092037,9.346364974975586,-0.6388836503028871
465,12250.0,-3.4073793888092037,9.346364974975586,-0.6388836503028871
466,12300.0,-3.517449140548706,9.145368576049805,-0.4881358444690704
467,12350.0,-3.517449140548706,9.145368576049805,-0.4881358444690704
468,12400.0,-3.517449140548706,9.145368576049805,-0.4881358444690704
469,12450.0,-3.517449140548706,9.145368576049805,-0.4881358444690704
470,12500.0,-3.2207393646240234,9.023333549499512,-1.5984054803848269
471,12550.0,-3.2207393646240234,9.023333549499512,-1.5984054803848269
472,12600.0,-3.2207393646240234,9.023333549499512,-1.5984054803848269
473,12650.0,-3.2207393646240234,9.023333549499512,-1.5984054803848269
474,12700.0,-3.2207393646240234,9.023333549499512,-1.5984054803848269
475,12750.0,-3.2207393646240234,9.176474571228027,-1.031306505203247
476,12800.0,-3.2207393646240234,9.176474571228027,-1.031306505203247
477,12850.0,-3.2207393646240234,9.176474571228027,-1.031306505203247
478,12900.0,-3.2207393646240234,9.176474571228027,-1.031306505203247
479,12950.0,-3.2829525470733643,9.174081802368164,-0.794417142868042
480,12000.0,-3.608376264572144,8.918049812316895,-0.5168496966362001
481,12050.0,-3.4073793888092037,9.346364974975586,-0.6388836503028871
482,12100.0,-3.4073793888092037,9.346364974975586,-0.6388836503028871
483,12150.0,-3.4073793888092037,9.346364974975586,-0.6388836503028871
484,12200.0,-3.4073793888092037,9.346364974975586,-0.6388836503028871
485,12250.0,-3.4073793888092037,9.346364974975586,-0.6388836503028871
486,12300.0,-3.517449140548706,9.145368576049805,-0.4881358444690704
487,12350.0,-3.517449140548706,9.145368576049805,-0.4881358444690704
488,12400.0,-3.517449140548706,9.145368576049805,-0.4881358444690704
489,12450.0,-3.517449140548706,9.145368576049805,-0.4881358444690704
490,12500.0,-3.2207393646240234,9.023333549499512,-1.5984054803848269
491,12550.0,-3.2207393646240234,9.023333549499512,-1.5984054803848269
492,12600.0,-3.2207393646240234,9.023333549499512,-1.5984054803848269
493,12650.0,-3.2207393646240234,9.023333549499512,-1.5984054803848269
494,12700.0,-3.2207393646240234,9.023333549499512,-1.5984054803848269
495,12750.0,-3.2207393646240234,9.176474571228027,-1.031306505203247
496,12800.0,-3.2207393646240234,9.176474571228027,-1.031306505203247
497,12850.0,-3.2207393646240234,9.176474571228027,-1.031306505203247
498,12900.0,-3.2207393646240234,9.176474571228027,-1.031306505203247
499,12950.0,-3.2829525470733643,9.174081802368164,-0.794417142868042
500,13000.0,-3.2829525470733643,9.174081802368164,-0.794417142868042
501,13050.0,-3.2829525470733643,9.174081802368164,-0.794417142868042
502,13100.0,-3.2829525470733643,9.174081802368164,-0.794417142868042
503,13150.0,-3.2829525470733643,9.174081802368164,-0.794417142868042
504,13200.0,-3.0149567127227783,9.449256896972656,-0.5551348924636841
505,13250.0,-3.0149567127227783,9.449256896972656,-0.5551348924636841
506,13300.0,-3.0149567127227783,9.449256896972656,-0.5551348924636841
507,13350.0,-3.0149567127227783,9.449256896972656,-0.5551348924636841
508,13400.0,-3.0149567127227783,9.449256896972656,-0.5551348924636841
509,13450.0,-3.2207393646240234,9.284152030944824,-0.5072783827781677
510,13500.0,-3.2207393646240234,9.284152030944824,-0.5072783827781677
511,13550.0,-3.2207393646240234,9.284152030944824,-0.5072783827781677
512,13600.0,-3.2207393646240234,9.284152030944824,-0.5072783827781677
513,13650.0,-3.1585259437561035,9.276973724365234,-0.6915256977081299
514,13700.0,-3.1585259437561035,9.276973724365234,-0.6915256977081299
515,13750.0,-3.1585259437561035,9.276973724365234,-0.6915256977081299
516,13800.0,-3.1585259437561035,9.276973724365234,-0.6915256977081299
517,13850.0,-3.16331148147583,9.274580955505373,-0.6532405614852905
518,13900.0,-3.16331148147583,9.274580955505373,-0.6532405614852905
519,13950.0,-3.16331148147583,9.274580955505373,-0.6532405614852905
520,13000.0,-3.2829525470733643,9.174081802368164,-0.794417142868042
521,13050.0,-3.2829525470733643,9.174081802368164,-0.794417142868042
522,13100.0,-3.2829525470733643,9.174081802368164,-0.794417142868042
523,13150.0,-3.2829525470733643,9.174081802368164,-0.794417142868042
524,13200.0,-3.0149567127227783,9.449256896972656,-0.5551348924636841
525,13250.0,-3.0149567127227783,9.449256896972656,-0.5551348924636841
526,13300.0,-3.0149567127227783,9.449256896972656,-0.5551348924636841
527,13350.0,-3.0149567127227783,9.449256896972656,-0.5551348924636841
528,13400.0,-3.0149567127227783,9.449256896972656,-0.5551348924636841
529,13450.0,-3.2207393646240234,9.284152030944824,-0.5072783827781677
530,13500.0,-3.2207393646240234,9.284152030944824,-0.5072783827781677
531,13550.0,-3.2207393646240234,9.284152030944824,-0.5072783827781677
532,13600.0,-3.2207393646240234,9.284152030944824,-0.5072783827781677
533,13650.0,-3.1585259437561035,9.276973724365234,-0.6915256977081299
534,13700.0,-3.1585259437561035,9.276973724365234,-0.6915256977081299
535,13750.0,-3.1585259437561035,9.276973724365234,-0.6915256977081299
536,13800.0,-3.1585259437561035,9.276973724365234,-0.6915256977081299
537,13850.0,-3.16331148147583,9.274580955505373,-0.6532405614852905
538,13900.0,-3.16331148147583,9.274580955505373,-0.6532405614852905
539,13950.0,-3.16331148147583,9.274580955505373,-0.6532405614852905
540,14000.0,-3.16331148147583,9.274580955505373,-0.6532405614852905
541,14050.0,-3.16331148147583,9.274580955505373,-0.6532405614852905
542,14100.0,-3.38823676109314,9.221939086914062,-0.6939185857772827
543,14150.0,-3.38823676109314,9.221939086914062,-0.6939185857772827
544,14200.0,-3.38823676109314,9.221939086914062,-0.6939185857772827
545,14250.0,-3.38823676109314,9.221939086914062,-0.6939185857772827
546,14300.0,-3.2207393646240234,9.231510162353516,-0.705882728099823
547,14350.0,-3.2207393646240234,9.231510162353516,-0.705882728099823
548,14400.0,-3.2207393646240234,9.231510162353516,-0.705882728099823
549,14450.0,-3.2207393646240234,9.231510162353516,-0.705882728099823
550,14500.0,-3.2207393646240234,9.231510162353516,-0.705882728099823
551,14550.0,-3.28773832321167,9.145368576049805,-0.6125625967979431
552,14600.0,-3.28773832321167,9.145368576049805,-0.6125625967979431
553,14650.0,-3.28773832321167,9.145368576049805,-0.6125625967979431
554,14700.0,-3.28773832321167,9.145368576049805,-0.6125625967979431
555,14750.0,-3.28773832321167,9.145368576049805,-0.6125625967979431
556,14800.0,-3.211168050765991,9.238687515258787,-0.6388836503028871
557,14850.0,-3.211168050765991,9.238687515258787,-0.6388836503028871
558,14900.0,-3.211168050765991,9.238687515258787,-0.6388836503028871
559,14950.0,-3.211168050765991,9.238687515258787,-0.6388836503028871
560,14000.0,-3.16331148147583,9.274580955505373,-0.6532405614852905
561,14050.0,-3.16331148147583,9.274580955505373,-0.6532405614852905
562,14100.0,-3.38823676109314,9.221939086914062,-0.6939185857772827
563,14150.0,-3.38823676109314,9.221939086914062,-0.6939185857772827
564,14200.0,-3.38823676109314,9.221939086914062,-0.6939185857772827
565,14250.0,-3.38823676109314,9.221939086914062,-0.6939185857772827
566,14300.0,-3.2207393646240234,9.231510162353516,-0.705882728099823
567,14350.0,-3.2207393646240234,9.231510162353516,-0.705882728099823
568,14400.0,-3.2207393646240234,9.231510162353516,-0.705882728099823
569,14450.0,-3.2207393646240234,9.231510162353516,-0.705882728099823
570,14500.0,-3.2207393646240234,9.231510162353516,-0.705882728099823
571,14550.0,-3.28773832321167,9.145368576049805,-0.6125625967979431
572,14600.0,-3.28773832321167,9.145368576049805,-0.6125625967979431
573,14650.0,-3.28773832321167,9.145368576049805,-0.6125625967979431
574,14700.0,-3.28773832321167,9.145368576049805,-0.6125625967979431
575,14750.0,-3.28773832321167,9.145368576049805,-0.6125625967979431
576,14800.0,-3.211168050765991,9.238687515258787,-0.6388836503028871
577,14850.0,-3.211168050765991,9.238687515258787,-0.6388836503028871
578,14900.0,-3.211168050765991,9.238687515258787,-0.6388836503028871
579,14950.0,-3.211168050765991,9.238687515258787,-0.6388836503028871
580,15000.0,-3.211168050765991,9.238687515258787,-0.6388836503028871
581,15050.0,-3.3403804302215576,9.028119087219238,-0.605384111404419
582,15100.0,-3.3403804302215576,9.028119087219238,-0.605384111404419
583,15150.0,-3.3403804302215576,9.028119087219238,-0.605384111404419
584,15200.0,-3.3403804302215576,9.028119087219238,-0.605384111404419
585,15250.0,-3.5605196952819824,9.305686950683594,-0.9499505758285522
586,15300.0,-3.5605196952819824,9.305686950683594,-0.9499505758285522
587,15350.0,-3.5605196952819824,9.305686950683594,-0.9499505758285522
588,15400.0,-3.5605196952819824,9.305686950683594,-0.9499505758285522
589,15450.0,-4.364508152008057,9.74835968017578,-1.56969153881073
590,15500.0,-4.364508152008057,9.74835968017578,-1.56969153881073
591,15550.0,-4.364508152008057,9.74835968017578,-1.56969153881073
592,15600.0,-4.364508152008057,9.74835968017578,-1.56969153881073
593,15650.0,-4.364508152008057,9.74835968017578,-1.56969153881073
594,15700.0,-5.331209182739258,7.061219692230225,-3.938585996627808
595,15750.0,-5.331209182739258,7.061219692230225,-3.938585996627808
596,15800.0,-5.331209182739258,7.061219692230225,-3.938585996627808
597,15850.0,-5.331209182739258,7.061219692230225,-3.938585996627808
598,15900.0,-5.331209182739258,7.061219692230225,-3.938585996627808
599,15950.0,-4.828716278076172,3.438485860824585,-7.144968032836914
600,15000.0,-3.211168050765991,9.238687515258787,-0.6388836503028871
601,15050.0,-3.3403804302215576,9.028119087219238,-0.605384111404419
602,15100.0,-3.3403804302215576,9.028119087219238,-0.605384111404419
603,15150.0,-3.3403804302215576,9.028119087219238,-0.605384111404419
604,15200.0,-3.3403804302215576,9.028119087219238,-0.605384111404419
605,15250.0,-3.5605196952819824,9.305686950683594,-0.9499505758285522
606,15300.0,-3.5605196952819824,9.305686950683594,-0.9499505758285522
607,15350.0,-3.5605196952819824,9.305686950683594,-0.9499505758285522
608,15400.0,-3.5605196952819824,9.305686950683594,-0.9499505758285522
609,15450.0,-4.364508152008057,9.74835968017578,-1.56969153881073
610,15500.0,-4.364508152008057,9.74835968017578,-1.56969153881073
611,15550.0,-4.364508152008057,9.74835968017578,-1.56969153881073
612,15600.0,-4.364508152008057,9.74835968017578,-1.56969153881073
613,15650.0,-4.364508152008057,9.74835968017578,-1.56969153881073
614,15700.0,-5.331209182739258,7.061219692230225,-3.938585996627808
615,15750.0,-5.331209182739258,7.061219692230225,-3.938585996627808
616,15800.0,-5.331209182739258,7.061219692230225,-3.938585996627808
617,15850.0,-5.331209182739258,7.061219692230225,-3.938585996627808
618,15900.0,-5.331209182739258,7.061219692230225,-3.938585996627808
619,15950.0,-4.828716278076172,3.438485860824585,-7.144968032836914
620,16000.0,-4.828716278076172,3.438485860824585,-7.144968032836914
621,16050.0,-4.828716278076172,3.438485860824585,-7.144968032836914
622,16100.0,-4.828716278076172,3.438485860824585,-7.144968032836914
623,16150.0,-4.828716278076172,3.438485860824585,-7.144968032836914
624,16200.0,-4.6851468086242685,7.140182495117188,-5.44845724105835
625,16250.0,-4.6851468086242685,7.140182495117188,-5.44845724105835
626,16300.0,-4.6851468086242685,7.140182495117188,-5.44845724105835
627,16350.0,-4.6851468086242685,7.140182495117188,-5.44845724105835
628,16400.0,-3.73758864402771,9.772287368774414,-0.8374879360198975
629,16450.0,-3.73758864402771,9.772287368774414,-0.8374879360198975
630,16500.0,-3.73758864402771,9.772287368774414,-0.8374879360198975
631,16550.0,-3.73758864402771,9.772287368774414,-0.8374879360198975
632,16600.0,-3.73758864402771,9.772287368774414,-0.8374879360198975
633,16650.0,-2.943171739578247,10.147960662841797,0.3397807776927948
634,16700.0,-2.943171739578247,10.147960662841797,0.3397807776927948
635,16750.0,-2.943171739578247,10.147960662841797,0.3397807776927948
636,16800.0,-2.943171739578247,10.147960662841797,0.3397807776927948
637,16850.0,-5.14456844329834,6.8075804710388175,-5.383851051330566
638,16900.0,-5.14456844329834,6.8075804710388175,-5.383851051330566
639,16950.0,-5.14456844329834,6.8075804710388175,-5.383851051330566
640,16000.0,-4.828716278076172,3.438485860824585,-7.144968032836914
641,16050.0,-4.828716278076172,3.438485860824585,-7.144968032836914
642,16100.0,-4.828716278076172,3.438485860824585,-7.144968032836914
643,16150.0,-4.828716278076172,3.438485860824585,-7.144968032836914
644,16200.0,-4.6851468086242685,7.140182495117188,-5.44845724105835
645,16250.0,-4.6851468086242685,7.140182495117188,-5.44845724105835
646,16300.0,-4.6851468086242685,7.140182495117188,-5.44845724105835
647,16350.0,-4.6851468086242685,7.140182495117188,-5.44845724105835
648,16400.0,-3.73758864402771,9.772287368774414,-0.8374879360198975
649,16450.0,-3.73758864402771,9.772287368774414,-0.8374879360198975
650,16500.0,-3.73758864402771,9.772287368774414,-0.8374879360198975
651,16550.0,-3.73758864402771,9.772287368774414,-0.8374879360198975
652,16600.0,-3.73758864402771,9.772287368774414,-0.8374879360198975
653,16650.0,-2.943171739578247,10.147960662841797,0.3397807776927948
654,16700.0,-2.943171739578247,10.147960662841797,0.3397807776927948
655,16750.0,-2.943171739578247,10.147960662841797,0.3397807776927948
656,16800.0,-2.943171739578247,10.147960662841797,0.3397807776927948
657,16850.0,-5.14456844329834,6.8075804710388175,-5.383851051330566
658,16900.0,-5.14456844329834,6.8075804710388175,-5.383851051330566
659,16950.0,-5.14456844329834,6.8075804710388175,-5.383851051330566
660,17000.0,-5.14456844329834,6.8075804710388175,-5.383851051330566
661,17050.0,-5.14456844329834,6.8075804710388175,-5.383851051330566
662,17100.0,-5.106283187866211,3.2997026443481445,-6.967899799346924
663,17150.0,-5.106283187866211,3.2997026443481445,-6.967899799346924
664,17200.0,-5.106283187866211,3.2997026443481445,-6.967899799346924
665,17250.0,-5.106283187866211,3.2997026443481445,-6.967899799346924
666,17300.0,-5.106283187866211,3.2997026443481445,-6.967899799346924
667,17350.0,-3.2255251407623287,-0.06460621207952501,-8.571090698242188
668,17400.0,-3.2255251407623287,-0.06460621207952501,-8.571090698242188
669,17450.0,-3.2255251407623287,-0.06460621207952501,-8.571090698242188
670,17500.0,-3.2255251407623287,-0.06460621207952501,-8.571090698242188
671,17550.0,-3.2255251407623287,-0.06460621207952501,-8.571090698242188
672,17600.0,-4.072584152221681,0.7537391781806946,-8.85105037689209
673,17650.0,-4.072584152221681,0.7537391781806946,-8.85105037689209
674,17700.0,-4.072584152221681,0.7537391781806946,-8.85105037689209
675,17750.0,-4.072584152221681,0.7537391781806946,-8.85105037689209
676,17800.0,-4.292723655700684,4.642076015472412,-6.154339790344237
677,17850.0,-4.292723655700684,4.642076015472412,-6.154339790344237
678,17900.0,-4.292723655700684,4.642076015472412,-6.154339790344237
679,17950.0,-4.292723655700684,4.642076015472412,-6.154339790344237
680,17000.0,-5.14456844329834,6.8075804710388175,-5.383851051330566
681,17050.0,-5.14456844329834,6.8075804710388175,-5.383851051330566
682,17100.0,-5.106283187866211,3.2997026443481445,-6.967899799346924
683,17150.0,-5.106283187866211,3.2997026443481445,-6.967899799346924
684,17200.0,-5.106283187866211,3.2997026443481445,-6.967899799346924
685,17250.0,-5.106283187866211,3.2997026443481445,-6.967899799346924
686,17300.0,-5.106283187866211,3.2997026443481445,-6.967899799346924
687,17350.0,-3.2255251407623287,-0.06460621207952501,-8.571090698242188
688,17400.0,-3.2255251407623287,-0.06460621207952501,-8.571090698242188
689,17450.0,-3.2255251407623287,-0.06460621207952501,-8.571090698242188
690,17500.0,-3.2255251407623287,-0.06460621207952501,-8.571090698242188
691,17550.0,-3.2255251407623287,-0.06460621207952501,-8.571090698242188
692,17600.0,-4.072584152221681,0.7537391781806946,-8.85105037689209
693,17650.0,-4.072584152221681,0.7537391781806946,-8.85105037689209
694,17700.0,-4.072584152221681,0.7537391781806946,-8.85105037689209
695,17750.0,-4.072584152221681,0.7537391781806946,-8.85105037689209
696,17800.0,-4.292723655700684,4.642076015472412,-6.154339790344237
697,17850.0,-4.292723655700684,4.642076015472412,-6.154339790344237
698,17900.0,-4.292723655700684,4.642076015472412,-6.154339790344237
699,17950.0,-4.292723655700684,4.642076015472412,-6.154339790344237
700,18000.0,-3.689732551574707,9.53779125213623,-2.514856576919556
701,18050.0,-3.689732551574707,9.53779125213623,-2.514856576919556
702,18100.0,-3.689732551574707,9.53779125213623,-2.514856576919556
703,18150.0,-3.689732551574707,9.53779125213623,-2.514856576919556
704,18200.0,-3.689732551574707,9.53779125213623,-2.514856576919556
705,18250.0,-2.0865414142608643,9.611968994140623,3.184847116470337
706,18300.0,-2.0865414142608643,9.611968994140623,3.184847116470337
707,18350.0,-2.0865414142608643,9.611968994140623,3.184847116470337
708,18400.0,-2.0865414142608643,9.611968994140623,3.184847116470337
709,18450.0,-2.0865414142608643,9.611968994140623,3.184847116470337
710,18500.0,-2.7182462215423584,9.049654960632324,4.029513359069823
711,18550.0,-2.7182462215423584,9.049654960632324,4.029513359069823
712,18600.0,-2.7182462215423584,9.049654960632324,4.029513359069823
713,18650.0,-2.7182462215423584,9.049654960632324,4.029513359069823
714,18700.0,-2.7182462215423584,9.049654960632324,4.029513359069823
715,18750.0,-3.1537401676177983,9.96131992340088,4.632504463195801
716,18800.0,-3.1537401676177983,9.96131992340088,4.632504463195801
717,18850.0,-3.1537401676177983,9.96131992340088,4.632504463195801
718,18900.0,-3.1537401676177983,9.96131992340088,4.632504463195801
719,18950.0,-3.1537401676177983,9.96131992340088,4.632504463195801
720,18000.0,-3.689732551574707,9.53779125213623,-2.514856576919556
721,18050.0,-3.689732551574707,9.53779125213623,-2.514856576919556
722,18100.0,-3.689732551574707,9.53779125213623,-2.514856576919556
723,18150.0,-3.689732551574707,9.53779125213623,-2.514856576919556
724,18200.0,-3.689732551574707,9.53779125213623,-2.514856576919556
725,18250.0,-2.0865414142608643,9.611968994140623,3.184847116470337
726,18300.0,-2.0865414142608643,9.611968994140623,3.184847116470337
727,18350.0,-2.0865414142608643,9.611968994140623,3.184847116470337
728,18400.0,-2.0865414142608643,9.611968994140623,3.184847116470337
729,18450.0,-2.0865414142608643,9.611968994140623,3.184847116470337
730,18500.0,-2.7182462215423584,9.049654960632324,4.029513359069823
731,18550.0,-2.7182462215423584,9.049654960632324,4.029513359069823
732,18600.0,-2.7182462215423584,9.049654960632324,4.029513359069823
733,18650.0,-2.7182462215423584,9.049654960632324,4.029513359069823
734,18700.0,-2.7182462215423584,9.049654960632324,4.029513359069823
735,18750.0,-3.1537401676177983,9.96131992340088,4.632504463195801
736,18800.0,-3.1537401676177983,9.96131992340088,4.632504463195801
737,18850.0,-3.1537401676177983,9.96131992340088,4.632504463195801
738,18900.0,-3.1537401676177983,9.96131992340088,4.632504463195801
739,18950.0,-3.1537401676177983,9.96131992340088,4.632504463195801
740,19000.0,-3.742374420166016,10.559525489807127,5.26899528503418
741,19050.0,-3.742374420166016,10.559525489807127,5.26899528503418
742,19100.0,-3.742374420166016,10.559525489807127,5.26899528503418
743,19150.0,-3.742374420166016,10.559525489807127,5.26899528503418
744,19200.0,-2.47896409034729,6.400800704956055,3.7902309894561768
745,19250.0,-2.47896409034729,6.400800704956055,3.7902309894561768
746,19300.0,-2.47896409034729,6.400800704956055,3.7902309894561768
747,19350.0,-2.47896409034729,6.400800704956055,3.7902309894561768
748,19400.0,-2.47896409034729,6.400800704956055,3.7902309894561768
749,19450.0,-2.9288151264190674,6.242874622344972,3.7351961135864262
750,19500.0,-2.9288151264190674,6.242874622344972,3.7351961135864262
751,19550.0,-2.9288151264190674,6.242874622344972,3.7351961135864262
752,19600.0,-2.9288151264190674,6.242874622344972,3.7351961135864262
753,19650.0,-2.9288151264190674,6.242874622344972,3.7351961135864262
754,19700.0,-2.416750907897949,6.104090690612793,3.479164123535156
755,19750.0,-2.416750907897949,6.104090690612793,3.479164123535156
756,19800.0,-2.416750907897949,6.104090690612793,3.479164123535156
757,19850.0,-2.416750907897949,6.104090690612793,3.479164123535156
758,19900.0,-2.416750907897949,6.104090690612793,3.479164123535156
759,19950.0,-2.522034883499145,6.616154670715332,4.027120590209962
760,19000.0,-3.742374420166016,10.559525489807127,5.26899528503418
761,19050.0,-3.742374420166016,10.559525489807127,5.26899528503418
762,19100.0,-3.742374420166016,10.559525489807127,5.26899528503418
763,19150.0,-3.742374420166016,10.559525489807127,5.26899528503418
764,19200.0,-2.47896409034729,6.400800704956055,3.7902309894561768
765,19250.0,-2.47896409034729,6.400800704956055,3.7902309894561768
766,19300.0,-2.47896409034729,6.400800704956055,3.7902309894561768
767,19350.0,-2.47896409034729,6.400800704956055,3.7902309894561768
768,19400.0,-2.47896409034729,6.400800704956055,3.7902309894561768
769,19450.0,-2.9288151264190674,6.242874622344972,3.7351961135864262
770,19500.0,-2.9288151264190674,6.242874622344972,3.7351961135864262
771,19550.0,-2.9288151264190674,6.242874622344972,3.7351961135864262
772,19600.0,-2.9288151264190674,6.242874622344972,3.7351961135864262
773,19650.0,-2.9288151264190674,6.242874622344972,3.7351961135864262
774,19700.0,-2.416750907897949,6.104090690612793,3.479164123535156
775,19750.0,-2.416750907897949,6.104090690612793,3.479164123535156
776,19800.0,-2.416750907897949,6.104090690612793,3.479164123535156
777,19850.0,-2.416750907897949,6.104090690612793,3.479164123535156
778,19900.0,-2.416750907897949,6.104090690612793,3.479164123535156
779,19950.0,-2.522034883499145,6.616154670715332,4.027120590209962
780,20000.0,-2.522034883499145,6.616154670715332,4.027120590209962
781,20050.0,-2.522034883499145,6.616154670715332,4.027120590209962
782,20100.0,-2.522034883499145,6.616154670715332,4.027120590209962
783,20150.0,-2.522034883499145,6.616154670715332,4.027120590209962
784,20200.0,-3.16331148147583,9.260223388671877,5.737988471984862
785,20250.0,-3.16331148147583,9.260223388671877,5.737988471984862
786,20300.0,-3.16331148147583,9.260223388671877,5.737988471984862
787,20350.0,-3.16331148147583,9.260223388671877,5.737988471984862
788,20400.0,-3.249453067779541,10.6504545211792,5.72123908996582
789,20450.0,-3.249453067779541,10.6504545211792,5.72123908996582
790,20500.0,-3.249453067779541,10.6504545211792,5.72123908996582
791,20550.0,-3.249453067779541,10.6504545211792,5.72123908996582
792,20600.0,-3.249453067779541,10.6504545211792,5.72123908996582
793,20650.0,-2.5459630489349365,9.602396965026855,5.61116886138916
794,20700.0,-2.5459630489349365,9.602396965026855,5.61116886138916
795,20750.0,-2.5459630489349365,9.602396965026855,5.61116886138916
796,20800.0,-2.5459630489349365,9.602396965026855,5.61116886138916
797,20850.0,-2.8378877639770512,7.77188777923584,4.603790760040283
798,20900.0,-2.8378877639770512,7.77188777923584,4.603790760040283
799,20950.0,-2.8378877639770512,7.77188777923584,4.603790760040283
800,20000.0,-2.522034883499145,6.616154670715332,4.027120590209962
801,20050.0,-2.522034883499145,6.616154670715332,4.027120590209962
802,20100.0,-2.522034883499145,6.616154670715332,4.027120590209962
803,20150.0,-2.522034883499145,6.616154670715332,4.027120590209962
804,20200.0,-3.16331148147583,9.260223388671877,5.737988471984862
805,20250.0,-3.16331148147583,9.260223388671877,5.737988471984862
806,20300.0,-3.16331148147583,9.260223388671877,5.737988471984862
807,20350.0,-3.16331148147583,9.260223388671877,5.737988471984862
808,20400.0,-3.249453067779541,10.6504545211792,5.72123908996582
809,20450.0,-3.249453067779541,10.6504545211792,5.72123908996582
810,20500.0,-3.249453067779541,10.6504545211792,5.72123908996582
811,20550.0,-3.249453067779541,10.6504545211792,5.72123908996582
812,20600.0,-3.249453067779541,10.6504545211792,5.72123908996582
813,20650.0,-2.5459630489349365,9.602396965026855,5.61116886138916
814,20700.0,-2.5459630489349365,9.602396965026855,5.61116886138916
815,20750.0,-2.5459630489349365,9.602396965026855,5.61116886138916
816,20800.0,-2.5459630489349365,9.602396965026855,5.61116886138916
817,20850.0,-2.8378877639770512,7.77188777923584,4.603790760040283
818,20900.0,-2.8378877639770512,7.77188777923584,4.603790760040283
819,20950.0,-2.8378877639770512,7.77188777923584,4.603790760040283
820,21000.0,-2.8378877639770512,7.77188777923584,4.603790760040283
821,21050.0,-2.68953275680542,7.642674922943115,4.47697114944458
822,21100.0,-2.68953275680542,7.642674922943115,4.47697114944458
823,21150.0,-2.68953275680542,7.642674922943115,4.47697114944458
824,21200.0,-2.68953275680542,7.642674922943115,4.47697114944458
825,21250.0,-2.68953275680542,7.642674922943115,4.47697114944458
826,21300.0,-2.244467735290528,8.681159973144531,4.687539577484131
827,21350.0,-2.244467735290528,8.681159973144531,4.687539577484131
828,21400.0,-2.244467735290528,8.681159973144531,4.687539577484131
829,21450.0,-2.244467735290528,8.681159973144531,4.687539577484131
830,21500.0,-2.244467735290528,8.681159973144531,4.687539577484131
831,21550.0,-2.6321046352386475,8.841480255126953,2.486142873764038
832,21600.0,-2.6321046352386475,8.841480255126953,2.486142873764038
833,21650.0,-2.6321046352386475,8.841480255126953,2.486142873764038
834,21700.0,-2.6321046352386475,8.841480255126953,2.486142873764038
835,21750.0,-3.28773832321167,9.166903495788574,3.562912940979004
836,21800.0,-3.28773832321167,9.166903495788574,3.562912940979004
837,21850.0,-3.28773832321167,9.166903495788574,3.562912940979004
838,21900.0,-3.28773832321167,9.166903495788574,3.562912940979004
839,21950.0,-3.2446675300598145,9.049654960632324,2.2061824798583984
840,21000.0,-2.8378877639770512,7.77188777923584,4.603790760040283
841,21050.0,-2.68953275680542,7.642674922943115,4.47697114944458
842,21100.0,-2.68953275680542,7.642674922943115,4.47697114944458
843,21150.0,-2.68953275680542,7.642674922943115,4.47697114944458
844,21200.0,-2.68953275680542,7.642674922943115,4.47697114944458
845,21250.0,-2.68953275680542,7.642674922943115,4.47697114944458
846,21300.0,-2.244467735290528,8.681159973144531,4.687539577484131
847,21350.0,-2.244467735290528,8.681159973144531,4.687539577484131
848,21400.0,-2.244467735290528,8.681159973144531,4.687539577484131
849,21450.0,-2.244467735290528,8.681159973144531,4.687539577484131
850,21500.0,-2.244467735290528,8.681159973144531,4.687539577484131
851,21550.0,-2.6321046352386475,8.841480255126953,2.486142873764038
852,21600.0,-2.6321046352386475,8.841480255126953,2.486142873764038
853,21650.0,-2.6321046352386475,8.841480255126953,2.486142873764038
854,21700.0,-2.6321046352386475,8.841480255126953,2.486142873764038
855,21750.0,-3.28773832321167,9.166903495788574,3.562912940979004
856,21800.0,-3.28773832321167,9.166903495788574,3.562912940979004
857,21850.0,-3.28773832321167,9.166903495788574,3.562912940979004
858,21900.0,-3.28773832321167,9.166903495788574,3.562912940979004
859,21950.0,-3.2446675300598145,9.049654960632324,2.2061824798583984
860,22000.0,-3.2446675300598145,9.049654960632324,2.2061824798583984
861,22050.0,-3.2446675300598145,9.049654960632324,2.2061824798583984
862,22100.0,-3.2446675300598145,9.049654960632324,2.2061824798583984
863,22150.0,-3.2446675300598145,9.049654960632324,2.2061824798583984
864,22200.0,-2.9623143672943115,9.401400566101074,1.6606187820434568
865,22250.0,-2.9623143672943115,9.401400566101074,1.6606187820434568
866,22300.0,-2.9623143672943115,9.401400566101074,1.6606187820434568
867,22350.0,-2.9623143672943115,9.401400566101074,1.6606187820434568
868,22400.0,-3.259024381637573,9.059226989746094,1.8520447015762331
869,22450.0,-3.259024381637573,9.059226989746094,1.8520447015762331
870,22500.0,-3.259024381637573,9.059226989746094,1.8520447015762331
871,22550.0,-3.259024381637573,9.059226989746094,1.8520447015762331
872,22600.0,-3.259024381637573,9.059226989746094,1.8520447015762331
873,22650.0,-2.957528829574585,9.147761344909668,1.2681961059570312
874,22700.0,-2.957528829574585,9.147761344909668,1.2681961059570312
875,22750.0,-2.957528829574585,9.147761344909668,1.2681961059570312
876,22800.0,-2.957528829574585,9.147761344909668,1.2681961059570312
877,22850.0,-2.8378877639770512,9.475577354431152,1.4093725681304932
878,22900.0,-2.8378877639770512,9.475577354431152,1.4093725681304932
879,22950.0,-2.8378877639770512,9.475577354431152,1.4093725681304932
880,22000.0,-3.2446675300598145,9.049654960632324,2.2061824798583984
881,22050.0,-3.2446675300598145,9.049654960632324,2.2061824798583984
882,22100.0,-3.2446675300598145,9.049654960632324,2.2061824798583984
883,22150.0,-3.2446675300598145,9.049654960632324,2.2061824798583984
884,22200.0,-2.9623143672943115,9.401400566101074,1.6606187820434568
885,22250.0,-2.9623143672943115,9.401400566101074,1.6606187820434568
886,22300.0,-2.9623143672943115,9.401400566101074,1.6606187820434568
887,22350.0,-2.9623143672943115,9.401400566101074,1.6606187820434568
888,22400.0,-3.259024381637573,9.059226989746094,1.8520447015762331
889,22450.0,-3.259024381637573,9.059226989746094,1.8520447015762331
890,22500.0,-3.259024381637573,9.059226989746094,1.8520447015762331
891,22550.0,-3.259024381637573,9.059226989746094,1.8520447015762331
892,22600.0,-3.259024381637573,9.059226989746094,1.8520447015762331
893,22650.0,-2.957528829574585,9.147761344909668,1.2681961059570312
894,22700.0,-2.957528829574585,9.147761344909668,1.2681961059570312
895,22750.0,-2.957528829574585,9.147761344909668,1.2681961059570312
896,22800.0,-2.957528829574585,9.147761344909668,1.2681961059570312
897,22850.0,-2.8378877639770512,9.475577354431152,1.4093725681304932
898,22900.0,-2.8378877639770512,9.475577354431152,1.4093725681304932
899,22950.0,-2.8378877639770512,9.475577354431152,1.4093725681304932
900,23000.0,-2.8378877639770512,9.475577354431152,1.4093725681304932
901,23050.0,-2.8378877639770512,9.475577354431152,1.4093725681304932
902,23100.0,-2.8713872432708736,9.4660062789917,1.129412293434143
903,23150.0,-2.8713872432708736,9.4660062789917,1.129412293434143
904,23200.0,-2.8713872432708736,9.4660062789917,1.129412293434143
905,23250.0,-2.8713872432708736,9.4660062789917,1.129412293434143
906,23300.0,-3.847658634185791,8.511269569396973,1.0145567655563354
907,23350.0,-3.847658634185791,8.511269569396973,1.0145567655563354
908,23400.0,-3.847658634185791,8.511269569396973,1.0145567655563354
909,23450.0,-3.847658634185791,8.511269569396973,1.0145567655563354
910,23500.0,-3.847658634185791,8.511269569396973,1.0145567655563354
911,23550.0,-2.8666017055511475,9.434900283813477,-1.6725829839706419
912,23600.0,-2.8666017055511475,9.434900283813477,-1.6725829839706419
913,23650.0,-2.8666017055511475,9.434900283813477,-1.6725829839706419
914,23700.0,-2.8666017055511475,9.434900283813477,-1.6725829839706419
915,23750.0,-2.8426735401153564,9.549755096435547,0.13878372311592102
916,23800.0,-2.8426735401153564,9.549755096435547,0.13878372311592102
917,23850.0,-2.8426735401153564,9.549755096435547,0.13878372311592102
918,23900.0,-2.8426735401153564,9.549755096435547,0.13878372311592102
919,23950.0,-2.8426735401153564,9.549755096435547,0.13878372311592102
920,23000.0,-2.8378877639770512,9.475577354431152,1.4093725681304932
921,23050.0,-2.8378877639770512,9.475577354431152,1.4093725681304932
922,23100.0,-2.8713872432708736,9.4660062789917,1.129412293434143
923,23150.0,-2.8713872432708736,9.4660062789917,1.129412293434143
924,23200.0,-2.8713872432708736,9.4660062789917,1.129412293434143
925,23250.0,-2.8713872432708736,9.4660062789917,1.129412293434143
926,23300.0,-3.847658634185791,8.511269569396973,1.0145567655563354
927,23350.0,-3.847658634185791,8.511269569396973,1.0145567655563354
928,23400.0,-3.847658634185791,8.511269569396973,1.0145567655563354
929,23450.0,-3.847658634185791,8.511269569396973,1.0145567655563354
930,23500.0,-3.847658634185791,8.511269569396973,1.0145567655563354
931,23550.0,-2.8666017055511475,9.434900283813477,-1.6725829839706419
932,23600.0,-2.8666017055511475,9.434900283813477,-1.6725829839706419
933,23650.0,-2.8666017055511475,9.434900283813477,-1.6725829839706419
934,23700.0,-2.8666017055511475,9.434900283813477,-1.6725829839706419
935,23750.0,-2.8426735401153564,9.549755096435547,0.13878372311592102
936,23800.0,-2.8426735401153564,9.549755096435547,0.13878372311592102
937,23850.0,-2.8426735401153564,9.549755096435547,0.13878372311592102
938,23900.0,-2.8426735401153564,9.549755096435547,0.13878372311592102
939,23950.0,-2.8426735401153564,9.549755096435547,0.13878372311592102
940,24000.0,-3.28773832321167,9.353544235229492,0.2464607357978821
941,24050.0,-3.28773832321167,9.353544235229492,0.2464607357978821
942,24100.0,-3.28773832321167,9.353544235229492,0.2464607357978821
943,24150.0,-3.28773832321167,9.353544235229492,0.2464607357978821
944,24200.0,-2.8283162117004395,9.370293617248537,0.25842484831810003
945,24250.0,-2.8283162117004395,9.370293617248537,0.25842484831810003
946,24300.0,-2.8283162117004395,9.370293617248537,0.25842484831810003
947,24350.0,-2.8283162117004395,9.370293617248537,0.25842484831810003
948,24400.0,-2.8283162117004395,9.370293617248537,0.25842484831810003
949,24450.0,-2.9479575157165527,9.372685432434082,0.4378865361213684
950,24500.0,-2.9479575157165527,9.372685432434082,0.4378865361213684
951,24550.0,-2.9479575157165527,9.372685432434082,0.4378865361213684
952,24600.0,-2.9479575157165527,9.372685432434082,0.4378865361213684
953,24650.0,-2.8761727809906006,9.276973724365234,0.0813559740781784
954,24700.0,-2.8761727809906006,9.276973724365234,0.0813559740781784
955,24750.0,-2.8761727809906006,9.276973724365234,0.0813559740781784
956,24800.0,-2.8761727809906006,9.276973724365234,0.0813559740781784
957,24850.0,-2.8761727809906006,9.276973724365234,0.0813559740781784
958,24900.0,-2.943171739578247,9.324830055236816,-0.002392822643741965
959,24950.0,-2.943171739578247,9.324830055236816,-0.002392822643741965
960,24000.0,-3.28773832321167,9.353544235229492,0.2464607357978821
961,24050.0,-3.28773832321167,9.353544235229492,0.2464607357978821
962,24100.0,-3.28773832321167,9.353544235229492,0.2464607357978821
963,24150.0,-3.28773832321167,9.353544235229492,0.2464607357978821
964,24200.0,-2.8283162117004395,9.370293617248537,0.25842484831810003
965,24250.0,-2.8283162117004395,9.370293617248537,0.25842484831810003
966,24300.0,-2.8283162117004395,9.370293617248537,0.25842484831810003
967,24350.0,-2.8283162117004395,9.370293617248537,0.25842484831810003
968,24400.0,-2.8283162117004395,9.370293617248537,0.25842484831810003
969,24450.0,-2.9479575157165527,9.372685432434082,0.4378865361213684
970,24500.0,-2.9479575157165527,9.372685432434082,0.4378865361213684
971,24550.0,-2.9479575157165527,9.372685432434082,0.4378865361213684
972,24600.0,-2.9479575157165527,9.372685432434082,0.4378865361213684
973,24650.0,-2.8761727809906006,9.276973724365234,0.0813559740781784
974,24700.0,-2.8761727809906006,9.276973724365234,0.0813559740781784
975,24750.0,-2.8761727809906006,9.276973724365234,0.0813559740781784
976,24800.0,-2.8761727809906006,9.276973724365234,0.0813559740781784
977,24850.0,-2.8761727809906006,9.276973724365234,0.0813559740781784
978,24900.0,-2.943171739578247,9.324830055236816,-0.002392822643741965
979,24950.0,-2.943171739578247,9.324830055236816,-0.002392822643741965
980,25000.0,-2.943171739578247,9.324830055236816,-0.002392822643741965
981,25050.0,-2.943171739578247,9.324830055236816,-0.002392822643741965
982,25100.0,-2.943171739578247,9.324830055236816,-0.002392822643741965
983,25150.0,-2.770888566970825,9.432506561279297,0.11246266961097716
984,25200.0,-2.770888566970825,9.432506561279297,0.11246266961097716
985,25250.0,-2.770888566970825,9.432506561279297,0.11246266961097716
986,25300.0,-2.770888566970825,9.432506561279297,0.11246266961097716
987,25350.0,-2.957528829574585,9.40379238128662,0.7274181246757507
988,25400.0,-2.957528829574585,9.40379238128662,0.7274181246757507
989,25450.0,-2.957528829574585,9.40379238128662,0.7274181246757507
990,25500.0,-2.957528829574585,9.40379238128662,0.7274181246757507
991,25550.0,-2.957528829574585,9.40379238128662,0.7274181246757507
992,25600.0,-2.9240293502807617,9.360722541809082,0.4594219326972962
993,25650.0,-2.9240293502807617,9.360722541809082,0.4594219326972962
994,25700.0,-2.9240293502807617,9.360722541809082,0.4594219326972962
995,25750.0,-2.9240293502807617,9.360722541809082,0.4594219326972962
996,25800.0,-2.914458036422729,9.33440113067627,0.7585247755050659
997,25850.0,-2.914458036422729,9.33440113067627,0.7585247755050659
998,25900.0,-2.914458036422729,9.33440113067627,0.7585247755050659
999,25950.0,-2.914458036422729,9.33440113067627,0.7585247755050659
1000,25000.0,-2.943171739578247,9.324830055236816,-0.002392822643741965
1001,25050.0,-2.943171739578247,9.324830055236816,-0.002392822643741965
1002,25100.0,-2.943171739578247,9.324830055236816,-0.002392822643741965
1003,25150.0,-2.770888566970825,9.432506561279297,0.11246266961097716
1004,25200.0,-2.770888566970825,9.432506561279297,0.11246266961097716
1005,25250.0,-2.770888566970825,9.432506561279297,0.11246266961097716
1006,25300.0,-2.770888566970825,9.432506561279297,0.11246266961097716
1007,25350.0,-2.957528829574585,9.40379238128662,0.7274181246757507
1008,25400.0,-2.957528829574585,9.40379238128662,0.7274181246757507
1009,25450.0,-2.957528829574585,9.40379238128662,0.7274181246757507
1010,25500.0,-2.957528829574585,9.40379238128662,0.7274181246757507
1011,25550.0,-2.957528829574585,9.40379238128662,0.7274181246757507
1012,25600.0,-2.9240293502807617,9.360722541809082,0.4594219326972962
1013,25650.0,-2.9240293502807617,9.360722541809082,0.4594219326972962
1014,25700.0,-2.9240293502807617,9.360722541809082,0.4594219326972962
1015,25750.0,-2.9240293502807617,9.360722541809082,0.4594219326972962
1016,25800.0,-2.914458036422729,9.33440113067627,0.7585247755050659
1017,25850.0,-2.914458036422729,9.33440113067627,0.7585247755050659
1018,25900.0,-2.914458036422729,9.33440113067627,0.7585247755050659
1019,25950.0,-2.914458036422729,9.33440113067627,0.7585247755050659
1020,26000.0,-2.914458036422729,9.33440113067627,0.7585247755050659
1021,26050.0,-2.943171739578247,9.253045082092283,0.9738788008689879
1022,26100.0,-2.943171739578247,9.253045082092283,0.9738788008689879
1023,26150.0,-2.943171739578247,9.253045082092283,0.9738788008689879
1024,26200.0,-2.943171739578247,9.253045082092283,0.9738788008689879
1025,26250.0,-2.943171739578247,9.253045082092283,0.9738788008689879
1026,26300.0,-2.8953151702880864,9.336793899536133,0.9451649785041808
1027,26350.0,-2.8953151702880864,9.336793899536133,0.9451649785041808
1028,26400.0,-2.8953151702880864,9.336793899536133,0.9451649785041808
1029,26450.0,-2.8953151702880864,9.336793899536133,0.9451649785041808
1030,26500.0,-2.9718859195709233,9.573683738708496,0.8422735333442688
1031,26550.0,-2.9718859195709233,9.573683738708496,0.8422735333442688
1032,26600.0,-2.9718859195709233,9.573683738708496,0.8422735333442688
1033,26650.0,-2.9718859195709233,9.573683738708496,0.8422735333442688
1034,26700.0,-2.9718859195709233,9.573683738708496,0.8422735333442688
1035,26750.0,-3.206382274627685,9.9469633102417,-0.011964112520217896
1036,26800.0,-3.206382274627685,9.9469633102417,-0.011964112520217896
1037,26850.0,-3.206382274627685,9.9469633102417,-0.011964112520217896
1038,26900.0,-3.206382274627685,9.9469633102417,-0.011964112520217896
1039,26950.0,-3.206382274627685,9.9469633102417,-0.011964112520217896
1040,26000.0,-2.914458036422729,9.33440113067627,0.7585247755050659
1041,26050.0,-2.943171739578247,9.253045082092283,0.9738788008689879
1042,26100.0,-2.943171739578247,9.253045082092283,0.9738788008689879
1043,26150.0,-2.943171739578247,9.253045082092283,0.9738788008689879
1044,26200.0,-2.943171739578247,9.253045082092283,0.9738788008689879
1045,26250.0,-2.943171739578247,9.253045082092283,0.9738788008689879
1046,26300.0,-2.8953151702880864,9.336793899536133,0.9451649785041808
1047,26350.0,-2.8953151702880864,9.336793899536133,0.9451649785041808
1048,26400.0,-2.8953151702880864,9.336793899536133,0.9451649785041808
1049,26450.0,-2.8953151702880864,9.336793899536133,0.9451649785041808
1050,26500.0,-2.9718859195709233,9.573683738708496,0.8422735333442688
1051,26550.0,-2.9718859195709233,9.573683738708496,0.8422735333442688
1052,26600.0,-2.9718859195709233,9.573683738708496,0.8422735333442688
1053,26650.0,-2.9718859195709233,9.573683738708496,0.8422735333442688
1054,26700.0,-2.9718859195709233,9.573683738708496,0.8422735333442688
1055,26750.0,-3.206382274627685,9.9469633102417,-0.011964112520217896
1056,26800.0,-3.206382274627685,9.9469633102417,-0.011964112520217896
1057,26850.0,-3.206382274627685,9.9469633102417,-0.011964112520217896
1058,26900.0,-3.206382274627685,9.9469633102417,-0.011964112520217896
1059,26950.0,-3.206382274627685,9.9469633102417,-0.011964112520217896
1060,27000.0,-4.847858428955078,7.700103282928468,-1.7539390325546265
1061,27050.0,-4.847858428955078,7.700103282928468,-1.7539390325546265
1062,27100.0,-4.847858428955078,7.700103282928468,-1.7539390325546265
1063,27150.0,-4.847858428955078,7.700103282928468,-1.7539390325546265
1064,27200.0,-4.847858428955078,7.700103282928468,-1.7539390325546265
1065,27250.0,-5.580062389373778,6.80040168762207,-4.914857387542725
1066,27300.0,-5.580062389373778,6.80040168762207,-4.914857387542725
1067,27350.0,-5.580062389373778,6.80040168762207,-4.914857387542725
1068,27400.0,-5.580062389373778,6.80040168762207,-4.914857387542725
1069,27450.0,-4.953143119812012,6.781259536743164,-5.539384365081787
1070,27500.0,-4.953143119812012,6.781259536743164,-5.539384365081787
1071,27550.0,-4.953143119812012,6.781259536743164,-5.539384365081787
1072,27600.0,-4.953143119812012,6.781259536743164,-5.539384365081787
1073,27650.0,-4.953143119812012,6.781259536743164,-5.539384365081787
1074,27700.0,-1.1676974296569824,2.4885356426239014,-7.970492362976074
1075,27750.0,-1.1676974296569824,2.4885356426239014,-7.970492362976074
1076,27800.0,-1.1676974296569824,2.4885356426239014,-7.970492362976074
1077,27850.0,-1.1676974296569824,2.4885356426239014,-7.970492362976074
1078,27900.0,-4.264009952545166,-1.2251251935958862,-8.453842163085938
1079,27950.0,-4.264009952545166,-1.2251251935958862,-8.453842163085938
1080,27000.0,-4.847858428955078,7.700103282928468,-1.7539390325546265
1081,27050.0,-4.847858428955078,7.700103282928468,-1.7539390325546265
1082,27100.0,-4.847858428955078,7.700103282928468,-1.7539390325546265
1083,27150.0,-4.847858428955078,7.700103282928468,-1.7539390325546265
1084,27200.0,-4.847858428955078,7.700103282928468,-1.7539390325546265
1085,27250.0,-5.580062389373778,6.80040168762207,-4.914857387542725
1086,27300.0,-5.580062389373778,6.80040168762207,-4.914857387542725
1087,27350.0,-5.580062389373778,6.80040168762207,-4.914857387542725
1088,27400.0,-5.580062389373778,6.80040168762207,-4.914857387542725
1089,27450.0,-4.953143119812012,6.781259536743164,-5.539384365081787
1090,27500.0,-4.953143119812012,6.781259536743164,-5.539384365081787
1091,27550.0,-4.953143119812012,6.781259536743164,-5.539384365081787
1092,27600.0,-4.953143119812012,6.781259536743164,-5.539384365081787
1093,27650.0,-4.953143119812012,6.781259536743164,-5.539384365081787
1094,27700.0,-1.1676974296569824,2.4885356426239014,-7.970492362976074
1095,27750.0,-1.1676974296569824,2.4885356426239014,-7.970492362976074
1096,27800.0,-1.1676974296569824,2.4885356426239014,-7.970492362976074
1097,27850.0,-1.1676974296569824,2.4885356426239014,-7.970492362976074
1098,27900.0,-4.264009952545166,-1.2251251935958862,-8.453842163085938
1099,27950.0,-4.264009952545166,-1.2251251935958862,-8.453842163085938
1100,28000.0,-4.264009952545166,-1.2251251935958862,-8.453842163085938
1101,28050.0,-4.264009952545166,-1.2251251935958862,-8.453842163085938
1102,28100.0,-4.35972261428833,-1.7994027137756348,-9.643074989318848
1103,28150.0,-4.35972261428833,-1.7994027137756348,-9.643074989318848
1104,28200.0,-4.35972261428833,-1.7994027137756348,-9.643074989318848
1105,28250.0,-4.35972261428833,-1.7994027137756348,-9.643074989318848
1106,28300.0,-4.3166518211364755,-1.0815558433532717,-8.71466064453125
1107,28350.0,-4.3166518211364755,-1.0815558433532717,-8.71466064453125
1108,28400.0,-4.3166518211364755,-1.0815558433532717,-8.71466064453125
1109,28450.0,-4.3166518211364755,-1.0815558433532717,-8.71466064453125
1110,28500.0,-4.3166518211364755,-1.0815558433532717,-8.71466064453125
1111,28550.0,-5.178067684173584,0.26081767678260803,-8.94676399230957
1112,28600.0,-5.178067684173584,0.26081767678260803,-8.94676399230957
1113,28650.0,-5.178067684173584,0.26081767678260803,-8.94676399230957
1114,28700.0,-5.178067684173584,0.26081767678260803,-8.94676399230957
1115,28750.0,-5.178067684173584,0.26081767678260803,-8.94676399230957
1116,28800.0,-4.488935470581055,2.3401806354522705,-8.176274299621582
1117,28850.0,-4.488935470581055,2.3401806354522705,-8.176274299621582
1118,28900.0,-4.488935470581055,2.3401806354522705,-8.176274299621582
1119,28950.0,-4.488935470581055,2.3401806354522705,-8.176274299621582
1120,28000.0,-4.264009952545166,-1.2251251935958862,-8.453842163085938
1121,28050.0,-4.264009952545166,-1.2251251935958862,-8.453842163085938
1122,28100.0,-4.35972261428833,-1.7994027137756348,-9.643074989318848
1123,28150.0,-4.35972261428833,-1.7994027137756348,-9.643074989318848
1124,28200.0,-4.35972261428833,-1.7994027137756348,-9.643074989318848
1125,28250.0,-4.35972261428833,-1.7994027137756348,-9.643074989318848
1126,28300.0,-4.3166518211364755,-1.0815558433532717,-8.71466064453125
1127,28350.0,-4.3166518211364755,-1.0815558433532717,-8.71466064453125
1128,28400.0,-4.3166518211364755,-1.0815558433532717,-8.71466064453125
1129,28450.0,-4.3166518211364755,-1.0815558433532717,-8.71466064453125
1130,28500.0,-4.3166518211364755,-1.0815558433532717,-8.71466064453125
1131,28550.0,-5.178067684173584,0.26081767678260803,-8.94676399230957
1132,28600.0,-5.178067684173584,0.26081767678260803,-8.94676399230957
1133,28650.0,-5.178067684173584,0.26081767678260803,-8.94676399230957
1134,28700.0,-5.178067684173584,0.26081767678260803,-8.94676399230957
1135,28750.0,-5.178067684173584,0.26081767678260803,-8.94676399230957
1136,28800.0,-4.488935470581055,2.3401806354522705,-8.176274299621582
1137,28850.0,-4.488935470581055,2.3401806354522705,-8.176274299621582
1138,28900.0,-4.488935470581055,2.3401806354522705,-8.176274299621582
1139,28950.0,-4.488935470581055,2.3401806354522705,-8.176274299621582
1140,29000.0,-4.488935470581055,2.3401806354522705,-8.176274299621582
1141,29050.0,-4.354937553405762,-0.2392822504043579,-8.465806007385254
1142,29100.0,-4.354937553405762,-0.2392822504043579,-8.465806007385254
1143,29150.0,-4.354937553405762,-0.2392822504043579,-8.465806007385254
1144,29200.0,-4.354937553405762,-0.2392822504043579,-8.465806007385254
1145,29250.0,-4.354937553405762,-0.2392822504043579,-8.465806007385254
1146,29300.0,-3.9003009796142583,-0.935593605041504,-8.788837432861326
1147,29350.0,-3.9003009796142583,-0.935593605041504,-8.788837432861326
1148,29400.0,-3.9003009796142583,-0.935593605041504,-8.788837432861326
1149,29450.0,-3.9003009796142583,-0.935593605041504,-8.788837432861326
1150,29500.0,-4.201796531677246,-0.6412764191627502,-7.932207107543945
1151,29550.0,-4.201796531677246,-0.6412764191627502,-7.932207107543945
1152,29600.0,-4.201796531677246,-0.6412764191627502,-7.932207107543945
1153,29650.0,-4.201796531677246,-0.6412764191627502,-7.932207107543945
1154,29700.0,-3.369094133377075,1.921436548233032,-8.171488761901855
1155,29750.0,-3.369094133377075,1.921436548233032,-8.171488761901855
1156,29800.0,-3.369094133377075,1.921436548233032,-8.171488761901855
1157,29850.0,-3.369094133377075,1.921436548233032,-8.171488761901855
1158,29900.0,-3.369094133377075,1.921436548233032,-8.171488761901855
1159,29950.0,-4.900500774383545,7.056434154510497,-6.537191867828369
1160,29000.0,-4.488935470581055,2.3401806354522705,-8.176274299621582
1161,29050.0,-4.354937553405762,-0.2392822504043579,-8.465806007385254
1162,29100.0,-4.354937553405762,-0.2392822504043579,-8.465806007385254
1163,29150.0,-4.354937553405762,-0.2392822504043579,-8.465806007385254
1164,29200.0,-4.354937553405762,-0.2392822504043579,-8.465806007385254
1165,29250.0,-4.354937553405762,-0.2392822504043579,-8.465806007385254
1166,29300.0,-3.9003009796142583,-0.935593605041504,-8.788837432861326
1167,29350.0,-3.9003009796142583,-0.935593605041504,-8.788837432861326
1168,29400.0,-3.9003009796142583,-0.935593605041504,-8.788837432861326
1169,29450.0,-3.9003009796142583,-0.935593605041504,-8.788837432861326
1170,29500.0,-4.201796531677246,-0.6412764191627502,-7.932207107543945
1171,29550.0,-4.201796531677246,-0.6412764191627502,-7.932207107543945
1172,29600.0,-4.201796531677246,-0.6412764191627502,-7.932207107543945
1173,29650.0,-4.201796531677246,-0.6412764191627502,-7.932207107543945
1174,29700.0,-3.369094133377075,1.921436548233032,-8.171488761901855
1175,29750.0,-3.369094133377075,1.921436548233032,-8.171488761901855
1176,29800.0,-3.369094133377075,1.921436548233032,-8.171488761901855
1177,29850.0,-3.369094133377075,1.921436548233032,-8.171488761901855
1178,29900.0,-3.369094133377075,1.921436548233032,-8.171488761901855
1179,29950.0,-4.900500774383545,7.056434154510497,-6.537191867828369
1180,30000.0,-4.900500774383545,7.056434154510497,-6.537191867828369
1181,30050.0,-4.900500774383545,7.056434154510497,-6.537191867828369
1182,30100.0,-4.900500774383545,7.056434154510497,-6.537191867828369
1183,30150.0,-4.900500774383545,7.056434154510497,-6.537191867828369
1184,30200.0,-4.465007305145264,7.278966426849365,-5.347958564758301
1185,30250.0,-4.465007305145264,7.278966426849365,-5.347958564758301
1186,30300.0,-4.465007305145264,7.278966426849365,-5.347958564758301
1187,30350.0,-4.465007305145264,7.278966426849365,-5.347958564758301
1188,30400.0,-4.972285747528076,6.070591449737549,-6.0921263694763175
1189,30450.0,-4.972285747528076,6.070591449737549,-6.0921263694763175
1190,30500.0,-4.972285747528076,6.070591449737549,-6.0921263694763175
1191,30550.0,-4.972285747528076,6.070591449737549,-6.0921263694763175
1192,30600.0,-4.972285747528076,6.070591449737549,-6.0921263694763175
1193,30650.0,-5.469992637634277,3.931407451629639,-7.15932559967041
1194,30700.0,-5.469992637634277,3.931407451629639,-7.15932559967041
1195,30750.0,-5.469992637634277,3.931407451629639,-7.15932559967041
1196,30800.0,-5.469992637634277,3.931407451629639,-7.15932559967041
1197,30850.0,-5.331209182739258,4.661218643188477,-6.896114826202393
1198,30900.0,-5.331209182739258,4.661218643188477,-6.896114826202393
1199,30950.0,-5.331209182739258,4.661218643188477,-6.896114826202393
1200,30000.0,-4.900500774383545,7.056434154510497,-6.537191867828369
1201,30050.0,-4.900500774383545,7.056434154510497,-6.537191867828369
1202,30100.0,-4.900500774383545,7.056434154510497,-6.537191867828369
1203,30150.0,-4.900500774383545,7.056434154510497,-6.537191867828369
1204,30200.0,-4.465007305145264,7.278966426849365,-5.347958564758301
1205,30250.0,-4.465007305145264,7.278966426849365,-5.347958564758301
1206,30300.0,-4.465007305145264,7.278966426849365,-5.347958564758301
1207,30350.0,-4.465007305145264,7.278966426849365,-5.347958564758301
1208,30400.0,-4.972285747528076,6.070591449737549,-6.0921263694763175
1209,30450.0,-4.972285747528076,6.070591449737549,-6.0921263694763175
1210,30500.0,-4.972285747528076,6.070591449737549,-6.0921263694763175
1211,30550.0,-4.972285747528076,6.070591449737549,-6.0921263694763175
1212,30600.0,-4.972285747528076,6.070591449737549,-6.0921263694763175
1213,30650.0,-5.469992637634277,3.931407451629639,-7.15932559967041
1214,30700.0,-5.469992637634277,3.931407451629639,-7.15932559967041
1215,30750.0,-5.469992637634277,3.931407451629639,-7.15932559967041
1216,30800.0,-5.469992637634277,3.931407451629639,-7.15932559967041
1217,30850.0,-5.331209182739258,4.661218643188477,-6.896114826202393
1218,30900.0,-5.331209182739258,4.661218643188477,-6.896114826202393
1219,30950.0,-5.331209182739258,4.661218643188477,-6.896114826202393
1220,31000.0,-5.331209182739258,4.661218643188477,-6.896114826202393
1221,31050.0,-5.594419479370117,4.051048755645752,-6.733402729034424
1222,31100.0,-5.594419479370117,4.051048755645752,-6.733402729034424
1223,31150.0,-5.594419479370117,4.051048755645752,-6.733402729034424
1224,31200.0,-5.594419479370117,4.051048755645752,-6.733402729034424
1225,31250.0,-5.594419479370117,4.051048755645752,-6.733402729034424
1226,31300.0,-5.709274768829347,4.000799655914307,-6.829115867614746
1227,31350.0,-5.709274768829347,4.000799655914307,-6.829115867614746
1228,31400.0,-5.709274768829347,4.000799655914307,-6.829115867614746
1229,31450.0,-5.709274768829347,4.000799655914307,-6.829115867614746
1230,31500.0,-5.709274768829347,4.000799655914307,-6.829115867614746
1231,31550.0,-6.082554817199707,4.500899314880371,-6.506085395812987
1232,31600.0,-6.082554817199707,4.500899314880371,-6.506085395812987
1233,31650.0,-6.082554817199707,4.500899314880371,-6.506085395812987
1234,31700.0,-6.082554817199707,4.500899314880371,-6.506085395812987
1235,31750.0,-6.082554817199707,4.500899314880371,-6.506085395812987
1236,31800.0,-6.0538411140441895,4.180261135101318,-6.063412666320801
1237,31850.0,-6.0538411140441895,4.180261135101318,-6.063412666320801
1238,31900.0,-6.0538411140441895,4.180261135101318,-6.063412666320801
1239,31950.0,-6.0538411140441895,4.180261135101318,-6.063412666320801
1240,31000.0,-5.331209182739258,4.661218643188477,-6.896114826202393
1241,31050.0,-5.594419479370117,4.051048755645752,-6.733402729034424
1242,31100.0,-5.594419479370117,4.051048755645752,-6.733402729034424
1243,31150.0,-5.594419479370117,4.051048755645752,-6.733402729034424
1244,31200.0,-5.594419479370117,4.051048755645752,-6.733402729034424
1245,31250.0,-5.594419479370117,4.051048755645752,-6.733402729034424
1246,31300.0,-5.709274768829347,4.000799655914307,-6.829115867614746
1247,31350.0,-5.709274768829347,4.000799655914307,-6.829115867614746
1248,31400.0,-5.709274768829347,4.000799655914307,-6.829115867614746
1249,31450.0,-5.709274768829347,4.000799655914307,-6.829115867614746
1250,31500.0,-5.709274768829347,4.000799655914307,-6.829115867614746
1251,31550.0,-6.082554817199707,4.500899314880371,-6.506085395812987
1252,31600.0,-6.082554817199707,4.500899314880371,-6.506085395812987
1253,31650.0,-6.082554817199707,4.500899314880371,-6.506085395812987
1254,31700.0,-6.082554817199707,4.500899314880371,-6.506085395812987
1255,31750.0,-6.082554817199707,4.500899314880371,-6.506085395812987
1256,31800.0,-6.0538411140441895,4.180261135101318,-6.063412666320801
1257,31850.0,-6.0538411140441895,4.180261135101318,-6.063412666320801
1258,31900.0,-6.0538411140441895,4.180261135101318,-6.063412666320801
1259,31950.0,-6.0538411140441895,4.180261135101318,-6.063412666320801
1260,32000.0,-5.771488666534424,4.840680122375488,-6.546762466430664
1261,32050.0,-5.771488666534424,4.840680122375488,-6.546762466430664
1262,32100.0,-5.771488666534424,4.840680122375488,-6.546762466430664
1263,32150.0,-5.771488666534424,4.840680122375488,-6.546762466430664
1264,32200.0,-5.771488666534424,4.840680122375488,-6.546762466430664
1265,32250.0,-6.226124286651611,4.752145767211914,-5.8265228271484375
1266,32300.0,-6.226124286651611,4.752145767211914,-5.8265228271484375
1267,32350.0,-6.226124286651611,4.752145767211914,-5.8265228271484375
1268,32400.0,-6.226124286651611,4.752145767211914,-5.8265228271484375
1269,32450.0,-5.613561630249023,4.125226020812988,-6.458228588104247
1270,32500.0,-5.613561630249023,4.125226020812988,-6.458228588104247
1271,32550.0,-5.613561630249023,4.125226020812988,-6.458228588104247
1272,32600.0,-5.613561630249023,4.125226020812988,-6.458228588104247
1273,32650.0,-5.613561630249023,4.125226020812988,-6.458228588104247
1274,32700.0,-5.402993679046631,4.589433670043945,-6.64486837387085
1275,32750.0,-5.402993679046631,4.589433670043945,-6.64486837387085
1276,32800.0,-5.402993679046631,4.589433670043945,-6.64486837387085
1277,32850.0,-5.402993679046631,4.589433670043945,-6.64486837387085
1278,32900.0,-5.402993679046631,4.589433670043945,-6.64486837387085
1279,32950.0,-5.264209270477295,4.230510234832764,-7.58524751663208
1280,32000.0,-5.771488666534424,4.840680122375488,-6.546762466430664
1281,32050.0,-5.771488666534424,4.840680122375488,-6.546762466430664
1282,32100.0,-5.771488666534424,4.840680122375488,-6.546762466430664
1283,32150.0,-5.771488666534424,4.840680122375488,-6.546762466430664
1284,32200.0,-5.771488666534424,4.840680122375488,-6.546762466430664
1285,32250.0,-6.226124286651611,4.752145767211914,-5.8265228271484375
1286,32300.0,-6.226124286651611,4.752145767211914,-5.8265228271484375
1287,32350.0,-6.226124286651611,4.752145767211914,-5.8265228271484375
1288,32400.0,-6.226124286651611,4.752145767211914,-5.8265228271484375
1289,32450.0,-5.613561630249023,4.125226020812988,-6.458228588104247
1290,32500.0,-5.613561630249023,4.125226020812988,-6.458228588104247
1291,32550.0,-5.613561630249023,4.125226020812988,-6.458228588104247
1292,32600.0,-5.613561630249023,4.125226020812988,-6.458228588104247
1293,32650.0,-5.613561630249023,4.125226020812988,-6.458228588104247
1294,32700.0,-5.402993679046631,4.589433670043945,-6.64486837387085
1295,32750.0,-5.402993679046631,4.589433670043945,-6.64486837387085
1296,32800.0,-5.402993679046631,4.589433670043945,-6.64486837387085
1297,32850.0,-5.402993679046631,4.589433670043945,-6.64486837387085
1298,32900.0,-5.402993679046631,4.589433670043945,-6.64486837387085
1299,32950.0,-5.264209270477295,4.230510234832764,-7.58524751663208
1300,33000.0,-5.264209270477295,4.230510234832764,-7.58524751663208
1301,33050.0,-5.264209270477295,4.230510234832764,-7.58524751663208
1302,33100.0,-5.264209270477295,4.230510234832764,-7.58524751663208
1303,33150.0,-5.264209270477295,4.230510234832764,-7.58524751663208
1304,33200.0,-4.2065820693969735,4.838287353515625,-7.207180976867676
1305,33250.0,-4.2065820693969735,4.838287353515625,-7.207180976867676
1306,33300.0,-4.2065820693969735,4.838287353515625,-7.207180976867676
1307,33350.0,-4.2065820693969735,4.838287353515625,-7.207180976867676
1308,33400.0,-4.144368648529054,4.747360229492188,-7.563712120056152
1309,33450.0,-4.144368648529054,4.747360229492188,-7.563712120056152
1310,33500.0,-4.144368648529054,4.747360229492188,-7.563712120056152
1311,33550.0,-4.144368648529054,4.747360229492188,-7.563712120056152
1312,33600.0,-4.144368648529054,4.747360229492188,-7.563712120056152
1313,33650.0,-4.522434711456299,4.790431022644043,-7.216752529144287
1314,33700.0,-4.522434711456299,4.790431022644043,-7.216752529144287
1315,33750.0,-4.522434711456299,4.790431022644043,-7.216752529144287
1316,33800.0,-4.522434711456299,4.790431022644043,-7.216752529144287
1317,33850.0,-5.493920803070068,3.7184462547302246,-6.905685901641847
1318,33900.0,-5.493920803070068,3.7184462547302246,-6.905685901641847
1319,33950.0,-5.493920803070068,3.7184462547302246,-6.905685901641847
1320,33000.0,-5.264209270477295,4.230510234832764,-7.58524751663208
1321,33050.0,-5.264209270477295,4.230510234832764,-7.58524751663208
1322,33100.0,-5.264209270477295,4.230510234832764,-7.58524751663208
1323,33150.0,-5.264209270477295,4.230510234832764,-7.58524751663208
1324,33200.0,-4.2065820693969735,4.838287353515625,-7.207180976867676
1325,33250.0,-4.2065820693969735,4.838287353515625,-7.207180976867676
1326,33300.0,-4.2065820693969735,4.838287353515625,-7.207180976867676
1327,33350.0,-4.2065820693969735,4.838287353515625,-7.207180976867676
1328,33400.0,-4.144368648529054,4.747360229492188,-7.563712120056152
1329,33450.0,-4.144368648529054,4.747360229492188,-7.563712120056152
1330,33500.0,-4.144368648529054,4.747360229492188,-7.563712120056152
1331,33550.0,-4.144368648529054,4.747360229492188,-7.563712120056152
1332,33600.0,-4.144368648529054,4.747360229492188,-7.563712120056152
1333,33650.0,-4.522434711456299,4.790431022644043,-7.216752529144287
1334,33700.0,-4.522434711456299,4.790431022644043,-7.216752529144287
1335,33750.0,-4.522434711456299,4.790431022644043,-7.216752529144287
1336,33800.0,-4.522434711456299,4.790431022644043,-7.216752529144287
1337,33850.0,-5.493920803070068,3.7184462547302246,-6.905685901641847
1338,33900.0,-5.493920803070068,3.7184462547302246,-6.905685901641847
1339,33950.0,-5.493920803070068,3.7184462547302246,-6.905685901641847
1340,34000.0,-5.493920803070068,3.7184462547302246,-6.905685901641847
1341,34050.0,-5.493920803070068,3.7184462547302246,-6.905685901641847
1342,34100.0,-5.149354457855225,2.940778970718384,-7.008577823638916
1343,34150.0,-5.149354457855225,2.940778970718384,-7.008577823638916
1344,34200.0,-5.149354457855225,2.940778970718384,-7.008577823638916
1345,34250.0,-5.149354457855225,2.940778970718384,-7.008577823638916
1346,34300.0,-4.6995038986206055,1.739582061767578,-8.109275817871094
1347,34350.0,-4.6995038986206055,1.739582061767578,-8.109275817871094
1348,34400.0,-4.6995038986206055,1.739582061767578,-8.109275817871094
1349,34450.0,-4.6995038986206055,1.739582061767578,-8.109275817871094
1350,34500.0,-4.6995038986206055,1.739582061767578,-8.109275817871094
1351,34550.0,-3.924229145050049,6.372087001800537,-8.676375389099121
1352,34600.0,-3.924229145050049,6.372087001800537,-8.676375389099121
1353,34650.0,-3.924229145050049,6.372087001800537,-8.676375389099121
1354,34700.0,-3.924229145050049,6.372087001800537,-8.676375389099121
1355,34750.0,-3.924229145050049,6.372087001800537,-8.676375389099121
1356,34800.0,-5.857630252838135,4.6061835289001465,-6.386443614959718
1357,34850.0,-5.857630252838135,4.6061835289001465,-6.386443614959718
1358,34900.0,-5.857630252838135,4.6061835289001465,-6.386443614959718
1359,34950.0,-5.857630252838135,4.6061835289001465,-6.386443614959718
1360,34000.0,-5.493920803070068,3.7184462547302246,-6.905685901641847
1361,34050.0,-5.493920803070068,3.7184462547302246,-6.905685901641847
1362,34100.0,-5.149354457855225,2.940778970718384,-7.008577823638916
1363,34150.0,-5.149354457855225,2.940778970718384,-7.008577823638916
1364,34200.0,-5.149354457855225,2.940778970718384,-7.008577823638916
1365,34250.0,-5.149354457855225,2.940778970718384,-7.008577823638916
1366,34300.0,-4.6995038986206055,1.739582061767578,-8.109275817871094
1367,34350.0,-4.6995038986206055,1.739582061767578,-8.109275817871094
1368,34400.0,-4.6995038986206055,1.739582061767578,-8.109275817871094
1369,34450.0,-4.6995038986206055,1.739582061767578,-8.109275817871094
1370,34500.0,-4.6995038986206055,1.739582061767578,-8.109275817871094
1371,34550.0,-3.924229145050049,6.372087001800537,-8.676375389099121
1372,34600.0,-3.924229145050049,6.372087001800537,-8.676375389099121
1373,34650.0,-3.924229145050049,6.372087001800537,-8.676375389099121
1374,34700.0,-3.924229145050049,6.372087001800537,-8.676375389099121
1375,34750.0,-3.924229145050049,6.372087001800537,-8.676375389099121
1376,34800.0,-5.857630252838135,4.6061835289001465,-6.386443614959718
1377,34850.0,-5.857630252838135,4.6061835289001465,-6.386443614959718
1378,34900.0,-5.857630252838135,4.6061835289001465,-6.386443614959718
1379,34950.0,-5.857630252838135,4.6061835289001465,-6.386443614959718
1380,35000.0,-5.857630252838135,4.6061835289001465,-6.386443614959718
1381,35050.0,-4.3310089111328125,-0.48574298620224,-7.913064479827881
1382,35100.0,-4.3310089111328125,-0.48574298620224,-7.913064479827881
1383,35150.0,-4.3310089111328125,-0.48574298620224,-7.913064479827881
1384,35200.0,-4.3310089111328125,-0.48574298620224,-7.913064479827881
1385,35250.0,-4.551148891448975,0.48574298620224,-8.01356315612793
1386,35300.0,-4.551148891448975,0.48574298620224,-8.01356315612793
1387,35350.0,-4.551148891448975,0.48574298620224,-8.01356315612793
1388,35400.0,-4.551148891448975,0.48574298620224,-8.01356315612793
1389,35450.0,-3.8668015003204346,5.678168296813965,-7.436892509460449
1390,35500.0,-3.8668015003204346,5.678168296813965,-7.436892509460449
1391,35550.0,-3.8668015003204346,5.678168296813965,-7.436892509460449
1392,35600.0,-3.8668015003204346,5.678168296813965,-7.436892509460449
1393,35650.0,-3.8668015003204346,5.678168296813965,-7.436892509460449
1394,35700.0,-3.273381233215332,8.83669376373291,-2.51007080078125
1395,35750.0,-3.273381233215332,8.83669376373291,-2.51007080078125
1396,35800.0,-3.273381233215332,8.83669376373291,-2.51007080078125
1397,35850.0,-3.273381233215332,8.83669376373291,-2.51007080078125
1398,35900.0,-3.273381233215332,8.83669376373291,-2.51007080078125
1399,35950.0,-2.1726830005645748,9.71485996246338,3.036492109298706
1400,35000.0,-5.857630252838135,4.6061835289001465,-6.386443614959718
1401,35050.0,-4.3310089111328125,-0.48574298620224,-7.913064479827881
1402,35100.0,-4.3310089111328125,-0.48574298620224,-7.913064479827881
1403,35150.0,-4.3310089111328125,-0.48574298620224,-7.913064479827881
1404,35200.0,-4.3310089111328125,-0.48574298620224,-7.913064479827881
1405,35250.0,-4.551148891448975,0.48574298620224,-8.01356315612793
1406,35300.0,-4.551148891448975,0.48574298620224,-8.01356315612793
1407,35350.0,-4.551148891448975,0.48574298620224,-8.01356315612793
1408,35400.0,-4.551148891448975,0.48574298620224,-8.01356315612793
1409,35450.0,-3.8668015003204346,5.678168296813965,-7.436892509460449
1410,35500.0,-3.8668015003204346,5.678168296813965,-7.436892509460449
1411,35550.0,-3.8668015003204346,5.678168296813965,-7.436892509460449
1412,35600.0,-3.8668015003204346,5.678168296813965,-7.436892509460449
1413,35650.0,-3.8668015003204346,5.678168296813965,-7.436892509460449
1414,35700.0,-3.273381233215332,8.83669376373291,-2.51007080078125
1415,35750.0,-3.273381233215332,8.83669376373291,-2.51007080078125
1416,35800.0,-3.273381233215332,8.83669376373291,-2.51007080078125
1417,35850.0,-3.273381233215332,8.83669376373291,-2.51007080078125
1418,35900.0,-3.273381233215332,8.83669376373291,-2.51007080078125
1419,35950.0,-2.1726830005645748,9.71485996246338,3.036492109298706
1420,36000.0,-2.1726830005645748,9.71485996246338,3.036492109298706
1421,36050.0,-2.1726830005645748,9.71485996246338,3.036492109298706
1422,36100.0,-2.1726830005645748,9.71485996246338,3.036492109298706
1423,36150.0,-2.1726830005645748,9.71485996246338,3.036492109298706
1424,36200.0,-2.1535403728485107,8.671588897705076,4.666004180908203
1425,36250.0,-2.1535403728485107,8.671588897705076,4.666004180908203
1426,36300.0,-2.1535403728485107,8.671588897705076,4.666004180908203
1427,36350.0,-2.1535403728485107,8.671588897705076,4.666004180908203
1428,36400.0,-2.0673987865448002,8.48734188079834,4.867001533508301
1429,36450.0,-2.0673987865448002,8.48734188079834,4.867001533508301
1430,36500.0,-2.0673987865448002,8.48734188079834,4.867001533508301
1431,36550.0,-2.0673987865448002,8.48734188079834,4.867001533508301
1432,36600.0,-2.0673987865448002,8.48734188079834,4.867001533508301
1433,36650.0,-2.5459630489349365,11.042876243591307,3.160918712615967
1434,36700.0,-2.5459630489349365,11.042876243591307,3.160918712615967
1435,36750.0,-2.5459630489349365,11.042876243591307,3.160918712615967
1436,36800.0,-2.5459630489349365,11.042876243591307,3.160918712615967
1437,36850.0,-4.35972261428833,6.362515449523926,-5.257031440734863
1438,36900.0,-4.35972261428833,6.362515449523926,-5.257031440734863
1439,36950.0,-4.35972261428833,6.362515449523926,-5.257031440734863
1440,36000.0,-2.1726830005645748,9.71485996246338,3.036492109298706
1441,36050.0,-2.1726830005645748,9.71485996246338,3.036492109298706
1442,36100.0,-2.1726830005645748,9.71485996246338,3.036492109298706
1443,36150.0,-2.1726830005645748,9.71485996246338,3.036492109298706
1444,36200.0,-2.1535403728485107,8.671588897705076,4.666004180908203
1445,36250.0,-2.1535403728485107,8.671588897705076,4.666004180908203
1446,36300.0,-2.1535403728485107,8.671588897705076,4.666004180908203
1447,36350.0,-2.1535403728485107,8.671588897705076,4.666004180908203
1448,36400.0,-2.0673987865448002,8.48734188079834,4.867001533508301
1449,36450.0,-2.0673987865448002,8.48734188079834,4.867001533508301
1450,36500.0,-2.0673987865448002,8.48734188079834,4.867001533508301
1451,36550.0,-2.0673987865448002,8.48734188079834,4.867001533508301
1452,36600.0,-2.0673987865448002,8.48734188079834,4.867001533508301
1453,36650.0,-2.5459630489349365,11.042876243591307,3.160918712615967
1454,36700.0,-2.5459630489349365,11.042876243591307,3.160918712615967
1455,36750.0,-2.5459630489349365,11.042876243591307,3.160918712615967
1456,36800.0,-2.5459630489349365,11.042876243591307,3.160918712615967
1457,36850.0,-4.35972261428833,6.362515449523926,-5.257031440734863
1458,36900.0,-4.35972261428833,6.362515449523926,-5.257031440734863
1459,36950.0,-4.35972261428833,6.362515449523926,-5.257031440734863
1460,37000.0,-4.35972261428833,6.362515449523926,-5.257031440734863
1461,37050.0,-4.35972261428833,6.362515449523926,-5.257031440734863
1462,37100.0,-4.800002098083496,0.4881358444690704,-7.111469268798827
1463,37150.0,-4.800002098083496,0.4881358444690704,-7.111469268798827
1464,37200.0,-4.800002098083496,0.4881358444690704,-7.111469268798827
1465,37250.0,-4.800002098083496,0.4881358444690704,-7.111469268798827
1466,37300.0,-4.800002098083496,0.4881358444690704,-7.111469268798827
1467,37350.0,-2.5555346012115483,-1.3974084854125977,-8.841480255126953
1468,37400.0,-2.5555346012115483,-1.3974084854125977,-8.841480255126953
1469,37450.0,-2.5555346012115483,-1.3974084854125977,-8.841480255126953
1470,37500.0,-2.5555346012115483,-1.3974084854125977,-8.841480255126953
1471,37550.0,-2.5555346012115483,-1.3974084854125977,-8.841480255126953
1472,37600.0,-3.804587841033936,3.5270204544067383,-8.590232849121094
1473,37650.0,-3.804587841033936,3.5270204544067383,-8.590232849121094
1474,37700.0,-3.804587841033936,3.5270204544067383,-8.590232849121094
1475,37750.0,-3.804587841033936,3.5270204544067383,-8.590232849121094
1476,37800.0,-2.407179594039917,9.238687515258787,-3.9744782447814937
1477,37850.0,-2.407179594039917,9.238687515258787,-3.9744782447814937
1478,37900.0,-2.407179594039917,9.238687515258787,-3.9744782447814937
1479,37950.0,-2.407179594039917,9.238687515258787,-3.9744782447814937
1480,37000.0,-4.35972261428833,6.362515449523926,-5.257031440734863
1481,37050.0,-4.35972261428833,6.362515449523926,-5.257031440734863
1482,37100.0,-4.800002098083496,0.4881358444690704,-7.111469268798827
1483,37150.0,-4.800002098083496,0.4881358444690704,-7.111469268798827
1484,37200.0,-4.800002098083496,0.4881358444690704,-7.111469268798827
1485,37250.0,-4.800002098083496,0.4881358444690704,-7.111469268798827
1486,37300.0,-4.800002098083496,0.4881358444690704,-7.111469268798827
1487,37350.0,-2.5555346012115483,-1.3974084854125977,-8.841480255126953
1488,37400.0,-2.5555346012115483,-1.3974084854125977,-8.841480255126953
1489,37450.0,-2.5555346012115483,-1.3974084854125977,-8.841480255126953
1490,37500.0,-2.5555346012115483,-1.3974084854125977,-8.841480255126953
1491,37550.0,-2.5555346012115483,-1.3974084854125977,-8.841480255126953
1492,37600.0,-3.804587841033936,3.5270204544067383,-8.590232849121094
1493,37650.0,-3.804587841033936,3.5270204544067383,-8.590232849121094
1494,37700.0,-3.804587841033936,3.5270204544067383,-8.590232849121094
1495,37750.0,-3.804587841033936,3.5270204544067383,-8.590232849121094
1496,37800.0,-2.407179594039917,9.238687515258787,-3.9744782447814937
1497,37850.0,-2.407179594039917,9.238687515258787,-3.9744782447814937
1498,37900.0,-2.407179594039917,9.238687515258787,-3.9744782447814937
1499,37950.0,-2.407179594039917,9.238687515258787,-3.9744782447814937
1500,38000.0,-2.407179594039917,9.238687515258787,-3.9744782447814937
1501,38050.0,-1.9094725847244265,8.992227554321289,2.2875385284423833
1502,38100.0,-1.9094725847244265,8.992227554321289,2.2875385284423833
1503,38150.0,-1.9094725847244265,8.992227554321289,2.2875385284423833
1504,38200.0,-1.9094725847244265,8.992227554321289,2.2875385284423833
1505,38250.0,-2.12961220741272,9.241080284118652,4.522434711456299
1506,38300.0,-2.12961220741272,9.241080284118652,4.522434711456299
1507,38350.0,-2.12961220741272,9.241080284118652,4.522434711456299
1508,38400.0,-2.12961220741272,9.241080284118652,4.522434711456299
1509,38450.0,-2.187039852142334,9.016156196594238,4.967499732971191
1510,38500.0,-2.187039852142334,9.016156196594238,4.967499732971191
1511,38550.0,-2.187039852142334,9.016156196594238,4.967499732971191
1512,38600.0,-2.187039852142334,9.016156196594238,4.967499732971191
1513,38650.0,-2.187039852142334,9.016156196594238,4.967499732971191
1514,38700.0,-2.493321180343628,9.62393283843994,5.532205581665039
1515,38750.0,-2.493321180343628,9.62393283843994,5.532205581665039
1516,38800.0,-2.493321180343628,9.62393283843994,5.532205581665039
1517,38850.0,-2.493321180343628,9.62393283843994,5.532205581665039
1518,38900.0,-3.1489543914794917,9.643074989318848,5.735595226287843
1519,38950.0,-3.1489543914794917,9.643074989318848,5.735595226287843
1520,38000.0,-2.407179594039917,9.238687515258787,-3.9744782447814937
1521,38050.0,-1.9094725847244265,8.992227554321289,2.2875385284423833
1522,38100.0,-1.9094725847244265,8.992227554321289,2.2875385284423833
1523,38150.0,-1.9094725847244265,8.992227554321289,2.2875385284423833
1524,38200.0,-1.9094725847244265,8.992227554321289,2.2875385284423833
1525,38250.0,-2.12961220741272,9.241080284118652,4.522434711456299
1526,38300.0,-2.12961220741272,9.241080284118652,4.522434711456299
1527,38350.0,-2.12961220741272,9.241080284118652,4.522434711456299
1528,38400.0,-2.12961220741272,9.241080284118652,4.522434711456299
1529,38450.0,-2.187039852142334,9.016156196594238,4.967499732971191
1530,38500.0,-2.187039852142334,9.016156196594238,4.967499732971191
1531,38550.0,-2.187039852142334,9.016156196594238,4.967499732971191
1532,38600.0,-2.187039852142334,9.016156196594238,4.967499732971191
1533,38650.0,-2.187039852142334,9.016156196594238,4.967499732971191
1534,38700.0,-2.493321180343628,9.62393283843994,5.532205581665039
1535,38750.0,-2.493321180343628,9.62393283843994,5.532205581665039
1536,38800.0,-2.493321180343628,9.62393283843994,5.532205581665039
1537,38850.0,-2.493321180343628,9.62393283843994,5.532205581665039
1538,38900.0,-3.1489543914794917,9.643074989318848,5.735595226287843
1539,38950.0,-3.1489543914794917,9.643074989318848,5.735595226287843
1540,39000.0,-3.1489543914794917,9.643074989318848,5.735595226287843
1541,39050.0,-3.1489543914794917,9.643074989318848,5.735595226287843
1542,39100.0,-3.1489543914794917,9.643074989318848,5.735595226287843
1543,39150.0,-3.192025184631348,8.382057189941406,5.1732821464538565
1544,39200.0,-3.192025184631348,8.382057189941406,5.1732821464538565
1545,39250.0,-3.192025184631348,8.382057189941406,5.1732821464538565
1546,39300.0,-3.192025184631348,8.382057189941406,5.1732821464538565
1547,39350.0,-3.192025184631348,8.382057189941406,5.1732821464538565
1548,39400.0,-3.838087558746338,7.999206066131593,4.864608287811278
1549,39450.0,-3.838087558746338,7.999206066131593,4.864608287811278
1550,39500.0,-3.838087558746338,7.999206066131593,4.864608287811278
1551,39550.0,-3.838087558746338,7.999206066131593,4.864608287811278
1552,39600.0,-3.8524444103240967,7.8245296478271475,4.488935470581055
1553,39650.0,-3.8524444103240967,7.8245296478271475,4.488935470581055
1554,39700.0,-3.8524444103240967,7.8245296478271475,4.488935470581055
1555,39750.0,-3.8524444103240967,7.8245296478271475,4.488935470581055
1556,39800.0,-4.292723655700684,7.420143127441406,3.6251261234283447
1557,39850.0,-4.292723655700684,7.420143127441406,3.6251261234283447
1558,39900.0,-4.292723655700684,7.420143127441406,3.6251261234283447
1559,39950.0,-4.292723655700684,7.420143127441406,3.6251261234283447
1560,39000.0,-3.1489543914794917,9.643074989318848,5.735595226287843
1561,39050.0,-3.1489543914794917,9.643074989318848,5.735595226287843
1562,39100.0,-3.1489543914794917,9.643074989318848,5.735595226287843
1563,39150.0,-3.192025184631348,8.382057189941406,5.1732821464538565
1564,39200.0,-3.192025184631348,8.382057189941406,5.1732821464538565
1565,39250.0,-3.192025184631348,8.382057189941406,5.1732821464538565
1566,39300.0,-3.192025184631348,8.382057189941406,5.1732821464538565
1567,39350.0,-3.192025184631348,8.382057189941406,5.1732821464538565
1568,39400.0,-3.838087558746338,7.999206066131593,4.864608287811278
1569,39450.0,-3.838087558746338,7.999206066131593,4.864608287811278
1570,39500.0,-3.838087558746338,7.999206066131593,4.864608287811278
1571,39550.0,-3.838087558746338,7.999206066131593,4.864608287811278
1572,39600.0,-3.8524444103240967,7.8245296478271475,4.488935470581055
1573,39650.0,-3.8524444103240967,7.8245296478271475,4.488935470581055
1574,39700.0,-3.8524444103240967,7.8245296478271475,4.488935470581055
1575,39750.0,-3.8524444103240967,7.8245296478271475,4.488935470581055
1576,39800.0,-4.292723655700684,7.420143127441406,3.6251261234283447
1577,39850.0,-4.292723655700684,7.420143127441406,3.6251261234283447
1578,39900.0,-4.292723655700684,7.420143127441406,3.6251261234283447
1579,39950.0,-4.292723655700684,7.420143127441406,3.6251261234283447
1580,40000.0,-4.292723655700684,7.420143127441406,3.6251261234283447
1581,40050.0,-3.531806230545044,7.027719974517822,3.608376264572144
1582,40100.0,-3.531806230545044,7.027719974517822,3.608376264572144
1583,40150.0,-3.531806230545044,7.027719974517822,3.608376264572144
1584,40200.0,-3.531806230545044,7.027719974517822,3.608376264572144
1585,40250.0,-3.531806230545044,7.027719974517822,3.608376264572144
1586,40300.0,-3.680161237716675,9.090332984924316,4.816751956939697
1587,40350.0,-3.680161237716675,9.090332984924316,4.816751956939697
1588,40400.0,-3.680161237716675,9.090332984924316,4.816751956939697
1589,40450.0,-3.680161237716675,9.090332984924316,4.816751956939697
1590,40500.0,-3.177668571472168,8.47059154510498,4.051048755645752
1591,40550.0,-3.177668571472168,8.47059154510498,4.051048755645752
1592,40600.0,-3.177668571472168,8.47059154510498,4.051048755645752
1593,40650.0,-3.177668571472168,8.47059154510498,4.051048755645752
1594,40700.0,-3.177668571472168,8.47059154510498,4.051048755645752
1595,40750.0,-2.699103832244873,8.71466064453125,4.271188735961913
1596,40800.0,-2.699103832244873,8.71466064453125,4.271188735961913
1597,40850.0,-2.699103832244873,8.71466064453125,4.271188735961913
1598,40900.0,-2.699103832244873,8.71466064453125,4.271188735961913
1599,40950.0,-2.6081764698028564,8.394021987915039,4.469792366027832
1600,40000.0,-4.292723655700684,7.420143127441406,3.6251261234283447
1601,40050.0,-3.531806230545044,7.027719974517822,3.608376264572144
1602,40100.0,-3.531806230545044,7.027719974517822,3.608376264572144
1603,40150.0,-3.531806230545044,7.027719974517822,3.608376264572144
1604,40200.0,-3.531806230545044,7.027719974517822,3.608376264572144
1605,40250.0,-3.531806230545044,7.027719974517822,3.608376264572144
1606,40300.0,-3.680161237716675,9.090332984924316,4.816751956939697
1607,40350.0,-3.680161237716675,9.090332984924316,4.816751956939697
1608,40400.0,-3.680161237716675,9.090332984924316,4.816751956939697
1609,40450.0,-3.680161237716675,9.090332984924316,4.816751956939697
1610,40500.0,-3.177668571472168,8.47059154510498,4.051048755645752
1611,40550.0,-3.177668571472168,8.47059154510498,4.051048755645752
1612,40600.0,-3.177668571472168,8.47059154510498,4.051048755645752
1613,40650.0,-3.177668571472168,8.47059154510498,4.051048755645752
1614,40700.0,-3.177668571472168,8.47059154510498,4.051048755645752
1615,40750.0,-2.699103832244873,8.71466064453125,4.271188735961913
1616,40800.0,-2.699103832244873,8.71466064453125,4.271188735961913
1617,40850.0,-2.699103832244873,8.71466064453125,4.271188735961913
1618,40900.0,-2.699103832244873,8.71466064453125,4.271188735961913
1619,40950.0,-2.6081764698028564,8.394021987915039,4.469792366027832
1620,41000.0,-2.6081764698028564,8.394021987915039,4.469792366027832
1621,41050.0,-2.6081764698028564,8.394021987915039,4.469792366027832
1622,41100.0,-2.6081764698028564,8.394021987915039,4.469792366027832
1623,41150.0,-2.6081764698028564,8.394021987915039,4.469792366027832
1624,41200.0,-2.957528829574585,8.185846328735353,4.25922441482544
1625,41250.0,-2.957528829574585,8.185846328735353,4.25922441482544
1626,41300.0,-2.957528829574585,8.185846328735353,4.25922441482544
1627,41350.0,-2.957528829574585,8.185846328735353,4.25922441482544
1628,41400.0,-2.407179594039917,8.606983184814451,3.5509488582611084
1629,41450.0,-2.407179594039917,8.606983184814451,3.5509488582611084
1630,41500.0,-2.407179594039917,8.606983184814451,3.5509488582611084
1631,41550.0,-2.407179594039917,8.606983184814451,3.5509488582611084
1632,41600.0,-2.407179594039917,8.606983184814451,3.5509488582611084
1633,41650.0,-1.8520447015762331,9.176474571228027,4.632504463195801
1634,41700.0,-1.8520447015762331,9.176474571228027,4.632504463195801
1635,41750.0,-1.8520447015762331,9.176474571228027,4.632504463195801
1636,41800.0,-1.8520447015762331,9.176474571228027,4.632504463195801
1637,41850.0,-1.8520447015762331,9.176474571228027,4.632504463195801
1638,41900.0,-1.9908283948898315,9.868000030517578,0.27756744623184204
1639,41950.0,-1.9908283948898315,9.868000030517578,0.27756744623184204
1640,41000.0,-2.6081764698028564,8.394021987915039,4.469792366027832
1641,41050.0,-2.6081764698028564,8.394021987915039,4.469792366027832
1642,41100.0,-2.6081764698028564,8.394021987915039,4.469792366027832
1643,41150.0,-2.6081764698028564,8.394021987915039,4.469792366027832
1644,41200.0,-2.957528829574585,8.185846328735353,4.25922441482544
1645,41250.0,-2.957528829574585,8.185846328735353,4.25922441482544
1646,41300.0,-2.957528829574585,8.185846328735353,4.25922441482544
1647,41350.0,-2.957528829574585,8.185846328735353,4.25922441482544
1648,41400.0,-2.407179594039917,8.606983184814451,3.5509488582611084
1649,41450.0,-2.407179594039917,8.606983184814451,3.5509488582611084
1650,41500.0,-2.407179594039917,8.606983184814451,3.5509488582611084
1651,41550.0,-2.407179594039917,8.606983184814451,3.5509488582611084
1652,41600.0,-2.407179594039917,8.606983184814451,3.5509488582611084
1653,41650.0,-1.8520447015762331,9.176474571228027,4.632504463195801
1654,41700.0,-1.8520447015762331,9.176474571228027,4.632504463195801
1655,41750.0,-1.8520447015762331,9.176474571228027,4.632504463195801
1656,41800.0,-1.8520447015762331,9.176474571228027,4.632504463195801
1657,41850.0,-1.8520447015762331,9.176474571228027,4.632504463195801
1658,41900.0,-1.9908283948898315,9.868000030517578,0.27756744623184204
1659,41950.0,-1.9908283948898315,9.868000030517578,0.27756744623184204
1660,42000.0,-1.9908283948898315,9.868000030517578,0.27756744623184204
1661,42050.0,-1.9908283948898315,9.868000030517578,0.27756744623184204
1662,42100.0,-1.9908283948898315,9.868000030517578,0.27756744623184204
1663,42150.0,-4.101297855377196,7.5014991760253915,-3.8213374614715576
1664,42200.0,-4.101297855377196,7.5014991760253915,-3.8213374614715576
1665,42250.0,-4.101297855377196,7.5014991760253915,-3.8213374614715576
1666,42300.0,-4.101297855377196,7.5014991760253915,-3.8213374614715576
1667,42350.0,-4.613362312316895,5.536991596221924,-4.524827480316162
1668,42400.0,-4.613362312316895,5.536991596221924,-4.524827480316162
1669,42450.0,-4.613362312316895,5.536991596221924,-4.524827480316162
1670,42500.0,-4.613362312316895,5.536991596221924,-4.524827480316162
1671,42550.0,-4.613362312316895,5.536991596221924,-4.524827480316162
1672,42600.0,-4.35972261428833,8.233702659606934,-3.103491306304932
1673,42650.0,-4.35972261428833,8.233702659606934,-3.103491306304932
1674,42700.0,-4.35972261428833,8.233702659606934,-3.103491306304932
1675,42750.0,-4.35972261428833,8.233702659606934,-3.103491306304932
1676,42800.0,-3.948157548904419,9.300901412963867,-3.522234916687012
1677,42850.0,-3.948157548904419,9.300901412963867,-3.522234916687012
1678,42900.0,-3.948157548904419,9.300901412963867,-3.522234916687012
1679,42950.0,-3.948157548904419,9.300901412963867,-3.522234916687012
1680,42000.0,-1.9908283948898315,9.868000030517578,0.27756744623184204
1681,42050.0,-1.9908283948898315,9.868000030517578,0.27756744623184204
1682,42100.0,-1.9908283948898315,9.868000030517578,0.27756744623184204
1683,42150.0,-4.101297855377196,7.5014991760253915,-3.8213374614715576
1684,42200.0,-4.101297855377196,7.5014991760253915,-3.8213374614715576
1685,42250.0,-4.101297855377196,7.5014991760253915,-3.8213374614715576
1686,42300.0,-4.101297855377196,7.5014991760253915,-3.8213374614715576
1687,42350.0,-4.613362312316895,5.536991596221924,-4.524827480316162
1688,42400.0,-4.613362312316895,5.536991596221924,-4.524827480316162
1689,42450.0,-4.613362312316895,5.536991596221924,-4.524827480316162
1690,42500.0,-4.613362312316895,5.536991596221924,-4.524827480316162
1691,42550.0,-4.613362312316895,5.536991596221924,-4.524827480316162
1692,42600.0,-4.35972261428833,8.233702659606934,-3.103491306304932
1693,42650.0,-4.35972261428833,8.233702659606934,-3.103491306304932
1694,42700.0,-4.35972261428833,8.233702659606934,-3.103491306304932
1695,42750.0,-4.35972261428833,8.233702659606934,-3.103491306304932
1696,42800.0,-3.948157548904419,9.300901412963867,-3.522234916687012
1697,42850.0,-3.948157548904419,9.300901412963867,-3.522234916687012
1698,42900.0,-3.948157548904419,9.300901412963867,-3.522234916687012
1699,42950.0,-3.948157548904419,9.300901412963867,-3.522234916687012
1700,43000.0,-3.948157548904419,9.300901412963867,-3.522234916687012
1701,43050.0,-3.962514162063599,8.47298526763916,-2.411965131759644
1702,43100.0,-3.962514162063599,8.47298526763916,-2.411965131759644
1703,43150.0,-3.962514162063599,8.47298526763916,-2.411965131759644
1704,43200.0,-3.962514162063599,8.47298526763916,-2.411965131759644
1705,43250.0,-3.962514162063599,8.47298526763916,-2.411965131759644
1706,43300.0,-3.6514470577239986,8.958727836608887,-2.9790639877319336
1707,43350.0,-3.6514470577239986,8.958727836608887,-2.9790639877319336
1708,43400.0,-3.6514470577239986,8.958727836608887,-2.9790639877319336
1709,43450.0,-3.6514470577239986,8.958727836608887,-2.9790639877319336
1710,43500.0,-3.6514470577239986,8.958727836608887,-2.9790639877319336
1711,43550.0,-4.149154186248778,8.475377082824707,-2.249253273010254
1712,43600.0,-4.149154186248778,8.475377082824707,-2.249253273010254
1713,43650.0,-4.149154186248778,8.475377082824707,-2.249253273010254
1714,43700.0,-4.149154186248778,8.475377082824707,-2.249253273010254
1715,43750.0,-4.01037073135376,9.10229778289795,-2.4287149906158447
1716,43800.0,-4.01037073135376,9.10229778289795,-2.4287149906158447
1717,43850.0,-4.01037073135376,9.10229778289795,-2.4287149906158447
1718,43900.0,-4.01037073135376,9.10229778289795,-2.4287149906158447
1719,43950.0,-4.01037073135376,9.10229778289795,-2.4287149906158447
1720,43000.0,-3.948157548904419,9.300901412963867,-3.522234916687012
1721,43050.0,-3.962514162063599,8.47298526763916,-2.411965131759644
1722,43100.0,-3.962514162063599,8.47298526763916,-2.411965131759644
1723,43150.0,-3.962514162063599,8.47298526763916,-2.411965131759644
1724,43200.0,-3.962514162063599,8.47298526763916,-2.411965131759644
1725,43250.0,-3.962514162063599,8.47298526763916,-2.411965131759644
1726,43300.0,-3.6514470577239986,8.958727836608887,-2.9790639877319336
1727,43350.0,-3.6514470577239986,8.958727836608887,-2.9790639877319336
1728,43400.0,-3.6514470577239986,8.958727836608887,-2.9790639877319336
1729,43450.0,-3.6514470577239986,8.958727836608887,-2.9790639877319336
1730,43500.0,-3.6514470577239986,8.958727836608887,-2.9790639877319336
1731,43550.0,-4.149154186248778,8.475377082824707,-2.249253273010254
1732,43600.0,-4.149154186248778,8.475377082824707,-2.249253273010254
1733,43650.0,-4.149154186248778,8.475377082824707,-2.249253273010254
1734,43700.0,-4.149154186248778,8.475377082824707,-2.249253273010254
1735,43750.0,-4.01037073135376,9.10229778289795,-2.4287149906158447
1736,43800.0,-4.01037073135376,9.10229778289795,-2.4287149906158447
1737,43850.0,-4.01037073135376,9.10229778289795,-2.4287149906158447
1738,43900.0,-4.01037073135376,9.10229778289795,-2.4287149906158447
1739,43950.0,-4.01037073135376,9.10229778289795,-2.4287149906158447
1740,44000.0,-4.201796531677246,8.685946464538574,-2.5292134284973145
1741,44050.0,-4.201796531677246,8.685946464538574,-2.5292134284973145
1742,44100.0,-4.201796531677246,8.685946464538574,-2.5292134284973145
1743,44150.0,-4.201796531677246,8.685946464538574,-2.5292134284973145
1744,44200.0,-5.115854740142822,8.204988479614258,-2.933600425720215
1745,44250.0,-5.115854740142822,8.204988479614258,-2.933600425720215
1746,44300.0,-5.115854740142822,8.204988479614258,-2.933600425720215
1747,44350.0,-5.115854740142822,8.204988479614258,-2.933600425720215
1748,44400.0,-5.115854740142822,8.204988479614258,-2.933600425720215
1749,44450.0,-4.713860511779785,7.697710037231445,-2.177468776702881
1750,44500.0,-4.713860511779785,7.697710037231445,-2.177468776702881
1751,44550.0,-4.713860511779785,7.697710037231445,-2.177468776702881
