,timestamp,ax,ay,az
0,0.0,9.633503913879396,-0.5623133182525635,-1.7467604875564575
1,100.0,9.633503913879396,-0.5623133182525635,-1.7467604875564575
2,200.0,9.633503913879396,-0.5623133182525635,-1.7467604875564575
3,300.0,8.465806007385254,-0.3397807776927948,-3.4672000408172607
4,400.0,8.465806007385254,-0.3397807776927948,-3.4672000408172607
5,500.0,8.738588333129883,-0.1627119481563568,-3.4289150238037114
6,600.0,8.738588333129883,-0.1627119481563568,-3.4289150238037114
7,700.0,8.738588333129883,-0.1627119481563568,-3.4289150238037114
8,800.0,9.31765079498291,0.057427741587162025,-3.3978083133697514
9,900.0,9.31765079498291,0.057427741587162025,-3.3978083133697514
10,1000.0,10.418350219726562,1.246660590171814,-3.32602334022522
11,1100.0,10.418350219726562,1.246660590171814,-3.32602334022522
12,1200.0,10.614561080932617,1.6606187820434568,-1.6582260131835938
13,1300.0,10.614561080932617,1.6606187820434568,-1.6582260131835938
14,1400.0,9.231510162353516,1.5026925802230835,-1.325623631477356
15,1500.0,9.231510162353516,1.5026925802230835,-1.325623631477356
16,1600.0,8.322237014770508,1.6677974462509155,-1.9884356260299685
17,1700.0,8.322237014770508,1.6677974462509155,-1.9884356260299685
18,1800.0,8.322237014770508,1.6677974462509155,-1.9884356260299685
19,1900.0,9.279366493225098,2.2133607864379883,-2.665604591369629
20,2000.0,9.279366493225098,2.2133607864379883,-2.665604591369629
21,2100.0,10.418350219726562,2.048256158828736,-1.938186287879944
22,2200.0,10.418350219726562,2.048256158828736,-1.938186287879944
23,2300.0,9.63828945159912,1.66301167011261,-2.1750757694244385
24,2400.0,9.63828945159912,1.66301167011261,-2.1750757694244385
25,2500.0,9.63828945159912,1.66301167011261,-2.1750757694244385
26,2600.0,10.112068176269533,1.529013752937317,-2.1535403728485107
27,2700.0,10.112068176269533,1.529013752937317,-2.1535403728485107
28,2800.0,10.284351348876953,0.5383850932121277,-2.2133607864379883
29,2900.0,10.284351348876953,0.5383850932121277,-2.2133607864379883
30,1500.0,9.231510162353516,1.5026925802230835,-1.325623631477356
31,1600.0,8.322237014770508,1.6677974462509155,-1.9884356260299685
32,1700.0,8.322237014770508,1.6677974462509155,-1.9884356260299685
33,1800.0,8.322237014770508,1.6677974462509155,-1.9884356260299685
34,1900.0,9.279366493225098,2.2133607864379883,-2.665604591369629
35,2000.0,9.279366493225098,2.2133607864379883,-2.665604591369629
36,2100.0,10.418350219726562,2.048256158828736,-1.938186287879944
37,2200.0,10.418350219726562,2.048256158828736,-1.938186287879944
38,2300.0,9.63828945159912,1.66301167011261,-2.1750757694244385
39,2400.0,9.63828945159912,1.66301167011261,-2.1750757694244385
40,2500.0,9.63828945159912,1.66301167011261,-2.1750757694244385
41,2600.0,10.112068176269533,1.529013752937317,-2.1535403728485107
42,2700.0,10.112068176269533,1.529013752937317,-2.1535403728485107
43,2800.0,10.284351348876953,0.5383850932121277,-2.2133607864379883
44,2900.0,10.284351348876953,0.5383850932121277,-2.2133607864379883
45,3000.0,8.528019905090332,0.26081767678260803,-2.524427890777588
46,3100.0,8.528019905090332,0.26081767678260803,-2.524427890777588
47,3200.0,8.528019905090332,0.26081767678260803,-2.524427890777588
48,3300.0,8.02074146270752,0.9140582084655762,-3.0317063331604004
49,3400.0,8.02074146270752,0.9140582084655762,-3.0317063331604004
50,3500.0,8.958727836608887,1.1820544004440308,-3.3738799095153813
51,3600.0,8.958727836608887,1.1820544004440308,-3.3738799095153813
52,3700.0,10.193424224853516,1.4787644147872925,-3.232703685760498
53,3800.0,10.193424224853516,1.4787644147872925,-3.232703685760498
54,3900.0,10.293922424316406,1.6725829839706419,-3.0436704158782963
55,4000.0,10.293922424316406,1.6725829839706419,-3.0436704158782963
56,4100.0,10.293922424316406,1.6725829839706419,-3.0436704158782963
57,4200.0,9.561718940734863,0.9858429431915284,-2.1990041732788086
58,4300.0,9.561718940734863,0.9858429431915284,-2.1990041732788086
59,4400.0,8.690732002258299,1.8400806188583372,-0.97148597240448
60,3000.0,8.528019905090332,0.26081767678260803,-2.524427890777588
61,3100.0,8.528019905090332,0.26081767678260803,-2.524427890777588
62,3200.0,8.528019905090332,0.26081767678260803,-2.524427890777588
63,3300.0,8.02074146270752,0.9140582084655762,-3.0317063331604004
64,3400.0,8.02074146270752,0.9140582084655762,-3.0317063331604004
65,3500.0,8.958727836608887,1.1820544004440308,-3.3738799095153813
66,3600.0,8.958727836608887,1.1820544004440308,-3.3738799095153813
67,3700.0,10.193424224853516,1.4787644147872925,-3.232703685760498
68,3800.0,10.193424224853516,1.4787644147872925,-3.232703685760498
69,3900.0,10.293922424316406,1.6725829839706419,-3.0436704158782963
70,4000.0,10.293922424316406,1.6725829839706419,-3.0436704158782963
71,4100.0,10.293922424316406,1.6725829839706419,-3.0436704158782963
72,4200.0,9.561718940734863,0.9858429431915284,-2.1990041732788086
73,4300.0,9.561718940734863,0.9858429431915284,-2.1990041732788086
74,4400.0,8.690732002258299,1.8400806188583372,-0.97148597240448
75,4500.0,8.690732002258299,1.8400806188583372,-0.97148597240448
76,4600.0,9.097511291503906,1.5481561422348022,-1.3423734903335571
77,4700.0,9.097511291503906,1.5481561422348022,-1.3423734903335571
78,4800.0,9.260223388671877,1.7802598476409912,-2.1511476039886475
79,4900.0,9.260223388671877,1.7802598476409912,-2.1511476039886475
80,5000.0,10.920842170715332,1.5553346872329712,-2.0889341831207275
81,5100.0,10.920842170715332,1.5553346872329712,-2.0889341831207275
82,5200.0,10.920842170715332,1.5553346872329712,-2.0889341831207275
83,5300.0,10.15035343170166,0.3900300860404968,-1.727617859840393
84,5400.0,10.15035343170166,0.3900300860404968,-1.727617859840393
85,5500.0,8.724230766296388,0.4522434771060944,-2.2157537937164307
86,5600.0,8.724230766296388,0.4522434771060944,-2.2157537937164307
87,5700.0,8.724230766296388,0.4522434771060944,-2.2157537937164307
88,5800.0,8.834300994873047,1.2083754539489746,-2.665604591369629
89,5900.0,8.834300994873047,1.2083754539489746,-2.665604591369629
90,4500.0,8.690732002258299,1.8400806188583372,-0.97148597240448
91,4600.0,9.097511291503906,1.5481561422348022,-1.3423734903335571
92,4700.0,9.097511291503906,1.5481561422348022,-1.3423734903335571
93,4800.0,9.260223388671877,1.7802598476409912,-2.1511476039886475
94,4900.0,9.260223388671877,1.7802598476409912,-2.1511476039886475
95,5000.0,10.920842170715332,1.5553346872329712,-2.0889341831207275
96,5100.0,10.920842170715332,1.5553346872329712,-2.0889341831207275
97,5200.0,10.920842170715332,1.5553346872329712,-2.0889341831207275
98,5300.0,10.15035343170166,0.3900300860404968,-1.727617859840393
99,5400.0,10.15035343170166,0.3900300860404968,-1.727617859840393
100,5500.0,8.724230766296388,0.4522434771060944,-2.2157537937164307
101,5600.0,8.724230766296388,0.4522434771060944,-2.2157537937164307
102,5700.0,8.724230766296388,0.4522434771060944,-2.2157537937164307
103,5800.0,8.834300994873047,1.2083754539489746,-2.665604591369629
104,5900.0,8.834300994873047,1.2083754539489746,-2.665604591369629
105,6000.0,9.174081802368164,0.9738788008689879,-2.8426735401153564
106,6100.0,9.174081802368164,0.9738788008689879,-2.8426735401153564
107,6200.0,9.4660062789917,0.9930213689804076,-2.8402805328369136
108,6300.0,9.4660062789917,0.9930213689804076,-2.8402805328369136
109,6400.0,9.4660062789917,0.9930213689804076,-2.8402805328369136
110,6500.0,10.772488594055176,1.5457634925842283,-2.57228422164917
111,6600.0,10.772488594055176,1.5457634925842283,-2.57228422164917
112,6700.0,8.609375953674316,1.1748759746551514,-1.4787644147872925
113,6800.0,8.609375953674316,1.1748759746551514,-1.4787644147872925
114,6900.0,8.609375953674316,1.1748759746551514,-1.4787644147872925
115,7000.0,8.441878318786621,1.4739787578582764,-2.091326951980591
116,7100.0,8.441878318786621,1.4739787578582764,-2.091326951980591
117,7200.0,9.116654396057127,1.6295121908187866,-2.337787628173828
118,7300.0,9.116654396057127,1.6295121908187866,-2.337787628173828
119,7400.0,10.030712127685547,1.5314064025878906,-2.364108800888061
120,6000.0,9.174081802368164,0.9738788008689879,-2.8426735401153564
121,6100.0,9.174081802368164,0.9738788008689879,-2.8426735401153564
122,6200.0,9.4660062789917,0.9930213689804076,-2.8402805328369136
123,6300.0,9.4660062789917,0.9930213689804076,-2.8402805328369136
124,6400.0,9.4660062789917,0.9930213689804076,-2.8402805328369136
125,6500.0,10.772488594055176,1.5457634925842283,-2.57228422164917
126,6600.0,10.772488594055176,1.5457634925842283,-2.57228422164917
127,6700.0,8.609375953674316,1.1748759746551514,-1.4787644147872925
128,6800.0,8.609375953674316,1.1748759746551514,-1.4787644147872925
129,6900.0,8.609375953674316,1.1748759746551514,-1.4787644147872925
130,7000.0,8.441878318786621,1.4739787578582764,-2.091326951980591
131,7100.0,8.441878318786621,1.4739787578582764,-2.091326951980591
132,7200.0,9.116654396057127,1.6295121908187866,-2.337787628173828
133,7300.0,9.116654396057127,1.6295121908187866,-2.337787628173828
134,7400.0,10.030712127685547,1.5314064025878906,-2.364108800888061
135,7500.0,10.030712127685547,1.5314064025878906,-2.364108800888061
136,7600.0,10.030712127685547,1.5314064025878906,-2.364108800888061
137,7700.0,12.0933256149292,0.7920243144035339,-1.1341978311538696
138,7800.0,12.0933256149292,0.7920243144035339,-1.1341978311538696
139,7900.0,8.609375953674316,0.11724831163883208,-2.084148406982422
140,8000.0,8.609375953674316,0.11724831163883208,-2.084148406982422
141,8100.0,8.609375953674316,0.11724831163883208,-2.084148406982422
142,8200.0,8.413164138793945,1.3998013734817505,-3.146562099456787
143,8300.0,8.413164138793945,1.3998013734817505,-3.146562099456787
144,8400.0,9.805787086486816,1.5242280960083008,-2.7278177738189697
145,8500.0,9.805787086486816,1.5242280960083008,-2.7278177738189697
146,8600.0,10.786844253540039,1.497907042503357,-2.414358139038086
147,8700.0,10.786844253540039,1.497907042503357,-2.414358139038086
148,8800.0,9.796216011047363,1.356730580329895,-2.09850549697876
149,8900.0,9.796216011047363,1.356730580329895,-2.09850549697876
150,7500.0,10.030712127685547,1.5314064025878906,-2.364108800888061
151,7600.0,10.030712127685547,1.5314064025878906,-2.364108800888061
152,7700.0,12.0933256149292,0.7920243144035339,-1.1341978311538696
153,7800.0,12.0933256149292,0.7920243144035339,-1.1341978311538696
154,7900.0,8.609375953674316,0.11724831163883208,-2.084148406982422
155,8000.0,8.609375953674316,0.11724831163883208,-2.084148406982422
156,8100.0,8.609375953674316,0.11724831163883208,-2.084148406982422
157,8200.0,8.413164138793945,1.3998013734817505,-3.146562099456787
158,8300.0,8.413164138793945,1.3998013734817505,-3.146562099456787
159,8400.0,9.805787086486816,1.5242280960083008,-2.7278177738189697
160,8500.0,9.805787086486816,1.5242280960083008,-2.7278177738189697
161,8600.0,10.786844253540039,1.497907042503357,-2.414358139038086
162,8700.0,10.786844253540039,1.497907042503357,-2.414358139038086
163,8800.0,9.796216011047363,1.356730580329895,-2.09850549697876
164,8900.0,9.796216011047363,1.356730580329895,-2.09850549697876
165,9000.0,9.796216011047363,1.356730580329895,-2.09850549697876
166,9100.0,8.178668022155763,1.5074783563613892,-1.7635102272033691
167,9200.0,8.178668022155763,1.5074783563613892,-1.7635102272033691
168,9300.0,9.3128662109375,2.3736801147460938,-0.906879723072052
169,9400.0,9.3128662109375,2.3736801147460938,-0.906879723072052
170,9500.0,9.896714210510254,2.3473589420318604,-1.8831514120101929
171,9600.0,9.896714210510254,2.3473589420318604,-1.8831514120101929
172,9700.0,9.896714210510254,2.3473589420318604,-1.8831514120101929
173,9800.0,9.80100154876709,2.4191436767578125,-2.4741785526275635
174,9900.0,9.80100154876709,2.4191436767578125,-2.4741785526275635
175,10000.0,10.705488204956056,1.964507341384888,-1.761117458343506
176,10100.0,10.705488204956056,1.964507341384888,-1.761117458343506
177,10200.0,9.250652313232422,0.3780659735202789,-1.6127625703811646
178,10300.0,9.250652313232422,0.3780659735202789,-1.6127625703811646
179,10400.0,9.250652313232422,0.3780659735202789,-1.6127625703811646
180,9000.0,9.796216011047363,1.356730580329895,-2.09850549697876
181,9100.0,8.178668022155763,1.5074783563613892,-1.7635102272033691
182,9200.0,8.178668022155763,1.5074783563613892,-1.7635102272033691
183,9300.0,9.3128662109375,2.3736801147460938,-0.906879723072052
184,9400.0,9.3128662109375,2.3736801147460938,-0.906879723072052
185,9500.0,9.896714210510254,2.3473589420318604,-1.8831514120101929
186,9600.0,9.896714210510254,2.3473589420318604,-1.8831514120101929
187,9700.0,9.896714210510254,2.3473589420318604,-1.8831514120101929
188,9800.0,9.80100154876709,2.4191436767578125,-2.4741785526275635
189,9900.0,9.80100154876709,2.4191436767578125,-2.4741785526275635
190,10000.0,10.705488204956056,1.964507341384888,-1.761117458343506
191,10100.0,10.705488204956056,1.964507341384888,-1.761117458343506
192,10200.0,9.250652313232422,0.3780659735202789,-1.6127625703811646
193,10300.0,9.250652313232422,0.3780659735202789,-1.6127625703811646
194,10400.0,9.250652313232422,0.3780659735202789,-1.6127625703811646
195,10500.0,6.8721866607666025,0.5072783827781677,-2.1391832828521733
196,10600.0,6.8721866607666025,0.5072783827781677,-2.1391832828521733
197,10700.0,8.623733520507812,0.28235307335853577,-3.3930225372314453
198,10800.0,8.623733520507812,0.28235307335853577,-3.3930225372314453
199,10900.0,9.944571495056152,1.3902300596237185,-3.053241729736328
200,11000.0,9.944571495056152,1.3902300596237185,-3.053241729736328
201,11100.0,10.308279991149902,2.0003998279571533,-3.479164123535156
202,11200.0,10.308279991149902,2.0003998279571533,-3.479164123535156
203,11300.0,10.308279991149902,2.0003998279571533,-3.479164123535156
204,11400.0,9.757929801940918,1.706082463264465,-2.940778970718384
205,11500.0,9.757929801940918,1.706082463264465,-2.940778970718384
206,11600.0,10.07378387451172,1.6247265338897705,-0.8494520783424377
207,11700.0,10.07378387451172,1.6247265338897705,-0.8494520783424377
208,11800.0,10.07378387451172,1.6247265338897705,-0.8494520783424377
209,11900.0,7.810173511505128,1.3902300596237185,-1.2323036193847656
210,10500.0,6.8721866607666025,0.5072783827781677,-2.1391832828521733
211,10600.0,6.8721866607666025,0.5072783827781677,-2.1391832828521733
212,10700.0,8.623733520507812,0.28235307335853577,-3.3930225372314453
213,10800.0,8.623733520507812,0.28235307335853577,-3.3930225372314453
214,10900.0,9.944571495056152,1.3902300596237185,-3.053241729736328
215,11000.0,9.944571495056152,1.3902300596237185,-3.053241729736328
216,11100.0,10.308279991149902,2.0003998279571533,-3.479164123535156
217,11200.0,10.308279991149902,2.0003998279571533,-3.479164123535156
218,11300.0,10.308279991149902,2.0003998279571533,-3.479164123535156
219,11400.0,9.757929801940918,1.706082463264465,-2.940778970718384
220,11500.0,9.757929801940918,1.706082463264465,-2.940778970718384
221,11600.0,10.07378387451172,1.6247265338897705,-0.8494520783424377
222,11700.0,10.07378387451172,1.6247265338897705,-0.8494520783424377
223,11800.0,10.07378387451172,1.6247265338897705,-0.8494520783424377
224,11900.0,7.810173511505128,1.3902300596237185,-1.2323036193847656
225,12000.0,7.810173511505128,1.3902300596237185,-1.2323036193847656
226,12100.0,8.906085968017578,2.2396819591522217,-2.4358932971954346
227,12200.0,8.906085968017578,2.2396819591522217,-2.4358932971954346
228,12300.0,11.676974296569824,1.0887343883514404,-2.9623143672943115
229,12400.0,11.676974296569824,1.0887343883514404,-2.9623143672943115
230,12500.0,7.747959613800049,1.2705888748168943,-1.6031911373138428
231,12600.0,7.747959613800049,1.2705888748168943,-1.6031911373138428
232,12700.0,7.747959613800049,1.2705888748168943,-1.6031911373138428
233,12800.0,7.144968032836914,1.1365907192230225,-2.447857618331909
234,12900.0,7.144968032836914,1.1365907192230225,-2.447857618331909
235,13000.0,9.456435203552246,1.2610174417495728,-3.1513471603393555
236,13100.0,9.456435203552246,1.2610174417495728,-3.1513471603393555
237,13200.0,8.901299476623535,1.6390833854675293,-2.5196423530578613
238,13300.0,8.901299476623535,1.6390833854675293,-2.5196423530578613
239,13400.0,10.236495971679688,1.184447169303894,-3.060420036315918
240,12000.0,7.810173511505128,1.3902300596237185,-1.2323036193847656
241,12100.0,8.906085968017578,2.2396819591522217,-2.4358932971954346
242,12200.0,8.906085968017578,2.2396819591522217,-2.4358932971954346
243,12300.0,11.676974296569824,1.0887343883514404,-2.9623143672943115
244,12400.0,11.676974296569824,1.0887343883514404,-2.9623143672943115
245,12500.0,7.747959613800049,1.2705888748168943,-1.6031911373138428
246,12600.0,7.747959613800049,1.2705888748168943,-1.6031911373138428
247,12700.0,7.747959613800049,1.2705888748168943,-1.6031911373138428
248,12800.0,7.144968032836914,1.1365907192230225,-2.447857618331909
249,12900.0,7.144968032836914,1.1365907192230225,-2.447857618331909
250,13000.0,9.456435203552246,1.2610174417495728,-3.1513471603393555
251,13100.0,9.456435203552246,1.2610174417495728,-3.1513471603393555
252,13200.0,8.901299476623535,1.6390833854675293,-2.5196423530578613
253,13300.0,8.901299476623535,1.6390833854675293,-2.5196423530578613
254,13400.0,10.236495971679688,1.184447169303894,-3.060420036315918
255,13500.0,10.236495971679688,1.184447169303894,-3.060420036315918
256,13600.0,10.236495971679688,1.184447169303894,-3.060420036315918
257,13700.0,9.968499183654783,1.3280165195465088,-2.414358139038086
258,13800.0,9.968499183654783,1.3280165195465088,-2.414358139038086
259,13900.0,9.561718940734863,1.4045867919921875,-2.033899307250977
260,14000.0,9.561718940734863,1.4045867919921875,-2.033899307250977
261,14100.0,8.95394229888916,1.8903299570083616,-1.2658032178878784
262,14200.0,8.95394229888916,1.8903299570083616,-1.2658032178878784
263,14300.0,9.231510162353516,1.8424735069274905,-1.1198409795761108
264,14400.0,9.231510162353516,1.8424735069274905,-1.1198409795761108
265,14500.0,9.231510162353516,1.8424735069274905,-1.1198409795761108
266,14600.0,9.93978500366211,2.0817556381225586,-1.7132610082626345
267,14700.0,9.93978500366211,2.0817556381225586,-1.7132610082626345
268,14800.0,9.57607650756836,1.8185452222824097,-1.8185452222824097
269,14900.0,9.57607650756836,1.8185452222824097,-1.8185452222824097
270,13500.0,10.236495971679688,1.184447169303894,-3.060420036315918
271,13600.0,10.236495971679688,1.184447169303894,-3.060420036315918
272,13700.0,9.968499183654783,1.3280165195465088,-2.414358139038086
273,13800.0,9.968499183654783,1.3280165195465088,-2.414358139038086
274,13900.0,9.561718940734863,1.4045867919921875,-2.033899307250977
275,14000.0,9.561718940734863,1.4045867919921875,-2.033899307250977
276,14100.0,8.95394229888916,1.8903299570083616,-1.2658032178878784
277,14200.0,8.95394229888916,1.8903299570083616,-1.2658032178878784
278,14300.0,9.231510162353516,1.8424735069274905,-1.1198409795761108
279,14400.0,9.231510162353516,1.8424735069274905,-1.1198409795761108
280,14500.0,9.231510162353516,1.8424735069274905,-1.1198409795761108
281,14600.0,9.93978500366211,2.0817556381225586,-1.7132610082626345
282,14700.0,9.93978500366211,2.0817556381225586,-1.7132610082626345
283,14800.0,9.57607650756836,1.8185452222824097,-1.8185452222824097
284,14900.0,9.57607650756836,1.8185452222824097,-1.8185452222824097
285,15000.0,9.57607650756836,1.8185452222824097,-1.8185452222824097
286,15100.0,10.045069694519043,1.1102697849273682,-2.1942183971405034
287,15200.0,10.045069694519043,1.1102697849273682,-2.1942183971405034
288,15300.0,8.910871505737305,0.17946170270442965,-2.1343977451324463
289,15400.0,8.910871505737305,0.17946170270442965,-2.1343977451324463
290,15500.0,8.551947593688965,0.9451649785041808,-2.629711866378784
291,15600.0,8.551947593688965,0.9451649785041808,-2.629711866378784
292,15700.0,9.308080673217773,1.643869161605835,-3.1369905471801762
293,15800.0,9.308080673217773,1.643869161605835,-3.1369905471801762
294,15900.0,9.308080673217773,1.643869161605835,-3.1369905471801762
295,16000.0,9.446864128112793,1.6342979669570925,-3.5294132232666016
296,16100.0,9.446864128112793,1.6342979669570925,-3.5294132232666016
297,16200.0,9.652647018432617,1.3399806022644043,-2.4717857837677
298,16300.0,9.652647018432617,1.3399806022644043,-2.4717857837677
299,16400.0,9.561718940734863,1.0360921621322632,-1.6701902151107788
300,15000.0,9.57607650756836,1.8185452222824097,-1.8185452222824097
301,15100.0,10.045069694519043,1.1102697849273682,-2.1942183971405034
302,15200.0,10.045069694519043,1.1102697849273682,-2.1942183971405034
303,15300.0,8.910871505737305,0.17946170270442965,-2.1343977451324463
304,15400.0,8.910871505737305,0.17946170270442965,-2.1343977451324463
305,15500.0,8.551947593688965,0.9451649785041808,-2.629711866378784
306,15600.0,8.551947593688965,0.9451649785041808,-2.629711866378784
307,15700.0,9.308080673217773,1.643869161605835,-3.1369905471801762
308,15800.0,9.308080673217773,1.643869161605835,-3.1369905471801762
309,15900.0,9.308080673217773,1.643869161605835,-3.1369905471801762
310,16000.0,9.446864128112793,1.6342979669570925,-3.5294132232666016
311,16100.0,9.446864128112793,1.6342979669570925,-3.5294132232666016
312,16200.0,9.652647018432617,1.3399806022644043,-2.4717857837677
313,16300.0,9.652647018432617,1.3399806022644043,-2.4717857837677
314,16400.0,9.561718940734863,1.0360921621322632,-1.6701902151107788
315,16500.0,9.561718940734863,1.0360921621322632,-1.6701902151107788
316,16600.0,9.561718940734863,1.0360921621322632,-1.6701902151107788
317,16700.0,8.709875106811522,1.6175479888916016,-1.495514154434204
318,16800.0,8.709875106811522,1.6175479888916016,-1.495514154434204
319,16900.0,8.556733131408691,1.7850456237792969,-1.5912269353866575
320,17000.0,8.556733131408691,1.7850456237792969,-1.5912269353866575
321,17100.0,9.509077072143556,1.6007983684539795,-2.1104695796966557
322,17200.0,9.509077072143556,1.6007983684539795,-2.1104695796966557
323,17300.0,10.542776107788086,1.636690616607666,-1.88075852394104
324,17400.0,10.542776107788086,1.636690616607666,-1.88075852394104
325,17500.0,10.542776107788086,1.636690616607666,-1.88075852394104
326,17600.0,8.255237579345701,0.9643075466156006,-2.177468776702881
327,17700.0,8.255237579345701,0.9643075466156006,-2.177468776702881
328,17800.0,7.666603565216064,0.2464607357978821,-2.4047868251800537
329,17900.0,7.666603565216064,0.2464607357978821,-2.4047868251800537
330,16500.0,9.561718940734863,1.0360921621322632,-1.6701902151107788
331,16600.0,9.561718940734863,1.0360921621322632,-1.6701902151107788
332,16700.0,8.709875106811522,1.6175479888916016,-1.495514154434204
333,16800.0,8.709875106811522,1.6175479888916016,-1.495514154434204
334,16900.0,8.556733131408691,1.7850456237792969,-1.5912269353866575
335,17000.0,8.556733131408691,1.7850456237792969,-1.5912269353866575
336,17100.0,9.509077072143556,1.6007983684539795,-2.1104695796966557
337,17200.0,9.509077072143556,1.6007983684539795,-2.1104695796966557
338,17300.0,10.542776107788086,1.636690616607666,-1.88075852394104
339,17400.0,10.542776107788086,1.636690616607666,-1.88075852394104
340,17500.0,10.542776107788086,1.636690616607666,-1.88075852394104
341,17600.0,8.255237579345701,0.9643075466156006,-2.177468776702881
342,17700.0,8.255237579345701,0.9643075466156006,-2.177468776702881
343,17800.0,7.666603565216064,0.2464607357978821,-2.4047868251800537
344,17900.0,7.666603565216064,0.2464607357978821,-2.4047868251800537
345,18000.0,8.556733131408691,0.6101697683334351,-2.763710021972656
346,18100.0,8.556733131408691,0.6101697683334351,-2.763710021972656
347,18200.0,8.556733131408691,0.6101697683334351,-2.763710021972656
348,18300.0,8.791230201721191,1.0743772983551023,-3.0149567127227783
349,18400.0,8.791230201721191,1.0743772983551023,-3.0149567127227783
350,18500.0,9.987641334533693,1.813759446144104,-3.2279179096221924
351,18600.0,9.987641334533693,1.813759446144104,-3.2279179096221924
352,18700.0,9.868000030517578,1.3902300596237185,-2.0027925968170166
353,18800.0,9.868000030517578,1.3902300596237185,-2.0027925968170166
354,18900.0,9.868000030517578,1.3902300596237185,-2.0027925968170166
355,19000.0,9.044869422912598,1.3854442834854126,-1.6965112686157229
356,19100.0,9.044869422912598,1.3854442834854126,-1.6965112686157229
357,19200.0,8.307880401611326,1.8065810203552248,-1.1676974296569824
358,19300.0,8.307880401611326,1.8065810203552248,-1.1676974296569824
359,19400.0,9.20279598236084,1.868794322013855,-1.8161523342132568
360,18000.0,8.556733131408691,0.6101697683334351,-2.763710021972656
361,18100.0,8.556733131408691,0.6101697683334351,-2.763710021972656
362,18200.0,8.556733131408691,0.6101697683334351,-2.763710021972656
363,18300.0,8.791230201721191,1.0743772983551023,-3.0149567127227783
364,18400.0,8.791230201721191,1.0743772983551023,-3.0149567127227783
365,18500.0,9.987641334533693,1.813759446144104,-3.2279179096221924
366,18600.0,9.987641334533693,1.813759446144104,-3.2279179096221924
367,18700.0,9.868000030517578,1.3902300596237185,-2.0027925968170166
368,18800.0,9.868000030517578,1.3902300596237185,-2.0027925968170166
369,18900.0,9.868000030517578,1.3902300596237185,-2.0027925968170166
370,19000.0,9.044869422912598,1.3854442834854126,-1.6965112686157229
371,19100.0,9.044869422912598,1.3854442834854126,-1.6965112686157229
372,19200.0,8.307880401611326,1.8065810203552248,-1.1676974296569824
373,19300.0,8.307880401611326,1.8065810203552248,-1.1676974296569824
374,19400.0,9.20279598236084,1.868794322013855,-1.8161523342132568
375,19500.0,9.20279598236084,1.868794322013855,-1.8161523342132568
376,19600.0,9.20279598236084,1.868794322013855,-1.8161523342132568
377,19700.0,10.705488204956056,2.3186452388763428,-2.380858421325684
378,19800.0,10.705488204956056,2.3186452388763428,-2.380858421325684
379,19900.0,9.743573188781738,1.4859429597854614,-2.8713872432708736
380,20000.0,9.743573188781738,1.4859429597854614,-2.8713872432708736
381,20100.0,8.590232849121094,0.7106683850288391,-2.0027925968170166
382,20200.0,8.590232849121094,0.7106683850288391,-2.0027925968170166
383,20300.0,8.590232849121094,0.7106683850288391,-2.0027925968170166
384,20400.0,7.781459331512451,0.7322037816047668,-2.438286304473877
385,20500.0,7.781459331512451,0.7322037816047668,-2.438286304473877
386,20600.0,8.628519058227539,1.758724570274353,-3.2255251407623287
387,20700.0,8.628519058227539,1.758724570274353,-3.2255251407623287
388,20800.0,10.628917694091797,1.4021940231323242,-3.3212375640869136
389,20900.0,10.628917694091797,1.4021940231323242,-3.3212375640869136
390,19500.0,9.20279598236084,1.868794322013855,-1.8161523342132568
391,19600.0,9.20279598236084,1.868794322013855,-1.8161523342132568
392,19700.0,10.705488204956056,2.3186452388763428,-2.380858421325684
393,19800.0,10.705488204956056,2.3186452388763428,-2.380858421325684
394,19900.0,9.743573188781738,1.4859429597854614,-2.8713872432708736
395,20000.0,9.743573188781738,1.4859429597854614,-2.8713872432708736
396,20100.0,8.590232849121094,0.7106683850288391,-2.0027925968170166
397,20200.0,8.590232849121094,0.7106683850288391,-2.0027925968170166
398,20300.0,8.590232849121094,0.7106683850288391,-2.0027925968170166
399,20400.0,7.781459331512451,0.7322037816047668,-2.438286304473877
400,20500.0,7.781459331512451,0.7322037816047668,-2.438286304473877
401,20600.0,8.628519058227539,1.758724570274353,-3.2255251407623287
402,20700.0,8.628519058227539,1.758724570274353,-3.2255251407623287
403,20800.0,10.628917694091797,1.4021940231323242,-3.3212375640869136
404,20900.0,10.628917694091797,1.4021940231323242,-3.3212375640869136
405,21000.0,10.628917694091797,1.4021940231323242,-3.3212375640869136
406,21100.0,9.69093132019043,2.117647886276245,-2.833101987838745
407,21200.0,9.69093132019043,2.117647886276245,-2.833101987838745
408,21300.0,9.446864128112793,2.548356056213379,-1.2179466485977173
409,21400.0,9.446864128112793,2.548356056213379,-1.2179466485977173
410,21500.0,9.647860527038574,1.8855443000793457,-1.0169496536254885
411,21600.0,9.647860527038574,1.8855443000793457,-1.0169496536254885
412,21700.0,9.647860527038574,1.8855443000793457,-1.0169496536254885
413,21800.0,8.915657043457031,1.9812570810317995,-1.6031911373138428
414,21900.0,8.915657043457031,1.9812570810317995,-1.6031911373138428
415,22000.0,9.757929801940918,1.8185452222824097,-2.069791555404663
416,22100.0,9.757929801940918,1.8185452222824097,-2.069791555404663
417,22200.0,12.91167163848877,1.9286150932312007,-1.801795244216919
418,22300.0,12.91167163848877,1.9286150932312007,-1.801795244216919
419,22400.0,8.709875106811522,1.2299107313156128,-1.8376877307891848
420,21000.0,10.628917694091797,1.4021940231323242,-3.3212375640869136
421,21100.0,9.69093132019043,2.117647886276245,-2.833101987838745
422,21200.0,9.69093132019043,2.117647886276245,-2.833101987838745
423,21300.0,9.446864128112793,2.548356056213379,-1.2179466485977173
424,21400.0,9.446864128112793,2.548356056213379,-1.2179466485977173
425,21500.0,9.647860527038574,1.8855443000793457,-1.0169496536254885
426,21600.0,9.647860527038574,1.8855443000793457,-1.0169496536254885
427,21700.0,9.647860527038574,1.8855443000793457,-1.0169496536254885
428,21800.0,8.915657043457031,1.9812570810317995,-1.6031911373138428
429,21900.0,8.915657043457031,1.9812570810317995,-1.6031911373138428
430,22000.0,9.757929801940918,1.8185452222824097,-2.069791555404663
431,22100.0,9.757929801940918,1.8185452222824097,-2.069791555404663
432,22200.0,12.91167163848877,1.9286150932312007,-1.801795244216919
433,22300.0,12.91167163848877,1.9286150932312007,-1.801795244216919
434,22400.0,8.709875106811522,1.2299107313156128,-1.8376877307891848
435,22500.0,8.709875106811522,1.2299107313156128,-1.8376877307891848
436,22600.0,8.709875106811522,1.2299107313156128,-1.8376877307891848
437,22700.0,7.5804619789123535,1.215553879737854,-2.411965131759644
438,22800.0,7.5804619789123535,1.215553879737854,-2.411965131759644
439,22900.0,8.676375389099121,0.6412764191627502,-2.562713146209717
440,23000.0,8.676375389099121,0.6412764191627502,-2.562713146209717
441,23100.0,8.676375389099121,0.6412764191627502,-2.562713146209717
442,23200.0,10.590633392333984,1.4500504732131958,-2.1439690589904785
443,23300.0,10.590633392333984,1.4500504732131958,-2.1439690589904785
444,23400.0,10.293922424316406,2.1942183971405034,-1.856830358505249
445,23500.0,10.293922424316406,2.1942183971405034,-1.856830358505249
446,23600.0,8.930014610290527,1.9716858863830569,-1.4715858697891235
447,23700.0,8.930014610290527,1.9716858863830569,-1.4715858697891235
448,23800.0,8.930014610290527,1.9716858863830569,-1.4715858697891235
449,23900.0,7.561319828033447,1.998006820678711,-1.0743772983551023
450,22500.0,8.709875106811522,1.2299107313156128,-1.8376877307891848
451,22600.0,8.709875106811522,1.2299107313156128,-1.8376877307891848
452,22700.0,7.5804619789123535,1.215553879737854,-2.411965131759644
453,22800.0,7.5804619789123535,1.215553879737854,-2.411965131759644
454,22900.0,8.676375389099121,0.6412764191627502,-2.562713146209717
455,23000.0,8.676375389099121,0.6412764191627502,-2.562713146209717
456,23100.0,8.676375389099121,0.6412764191627502,-2.562713146209717
457,23200.0,10.590633392333984,1.4500504732131958,-2.1439690589904785
458,23300.0,10.590633392333984,1.4500504732131958,-2.1439690589904785
459,23400.0,10.293922424316406,2.1942183971405034,-1.856830358505249
460,23500.0,10.293922424316406,2.1942183971405034,-1.856830358505249
461,23600.0,8.930014610290527,1.9716858863830569,-1.4715858697891235
462,23700.0,8.930014610290527,1.9716858863830569,-1.4715858697891235
463,23800.0,8.930014610290527,1.9716858863830569,-1.4715858697891235
464,23900.0,7.561319828033447,1.998006820678711,-1.0743772983551023
465,24000.0,7.561319828033447,1.998006820678711,-1.0743772983551023
466,24100.0,9.853643417358398,2.522034883499145,-1.0719845294952393
467,24200.0,9.853643417358398,2.522034883499145,-1.0719845294952393
468,24300.0,10.293922424316406,2.258824586868286,-1.428515076637268
469,24400.0,10.293922424316406,2.258824586868286,-1.428515076637268
470,24500.0,10.293922424316406,2.258824586868286,-1.428515076637268
471,24600.0,9.561718940734863,2.6321046352386475,-1.9716858863830569
472,24700.0,9.561718940734863,2.6321046352386475,-1.9716858863830569
473,24800.0,11.590832710266113,1.155733346939087,-2.304288148880005
474,24900.0,11.590832710266113,1.155733346939087,-2.304288148880005
475,25000.0,8.068597793579103,0.6460621356964111,-2.25403904914856
476,25100.0,8.068597793579103,0.6460621356964111,-2.25403904914856
477,25200.0,8.068597793579103,0.6460621356964111,-2.25403904914856
478,25300.0,7.714460372924805,0.5694918036460876,-3.2255251407623287
479,25400.0,7.714460372924805,0.5694918036460876,-3.2255251407623287
480,24000.0,7.561319828033447,1.998006820678711,-1.0743772983551023
481,24100.0,9.853643417358398,2.522034883499145,-1.0719845294952393
482,24200.0,9.853643417358398,2.522034883499145,-1.0719845294952393
483,24300.0,10.293922424316406,2.258824586868286,-1.428515076637268
484,24400.0,10.293922424316406,2.258824586868286,-1.428515076637268
485,24500.0,10.293922424316406,2.258824586868286,-1.428515076637268
486,24600.0,9.561718940734863,2.6321046352386475,-1.9716858863830569
487,24700.0,9.561718940734863,2.6321046352386475,-1.9716858863830569
488,24800.0,11.590832710266113,1.155733346939087,-2.304288148880005
489,24900.0,11.590832710266113,1.155733346939087,-2.304288148880005
490,25000.0,8.068597793579103,0.6460621356964111,-2.25403904914856
491,25100.0,8.068597793579103,0.6460621356964111,-2.25403904914856
492,25200.0,8.068597793579103,0.6460621356964111,-2.25403904914856
493,25300.0,7.714460372924805,0.5694918036460876,-3.2255251407623287
494,25400.0,7.714460372924805,0.5694918036460876,-3.2255251407623287
495,25500.0,9.868000030517578,2.493321180343628,-3.294916868209839
496,25600.0,9.868000030517578,2.493321180343628,-3.294916868209839
497,25700.0,11.17926788330078,2.1846470832824707,-3.828516006469727
498,25800.0,11.17926788330078,2.1846470832824707,-3.828516006469727
499,25900.0,11.17926788330078,2.1846470832824707,-3.828516006469727
500,26000.0,9.571290969848633,1.4620146751403809,-2.256431579589844
501,26100.0,9.571290969848633,1.4620146751403809,-2.256431579589844
502,26200.0,8.992227554321289,1.3471590280532837,-1.7802598476409912
503,26300.0,8.992227554321289,1.3471590280532837,-1.7802598476409912
504,26400.0,8.394021987915039,2.9671001434326167,-1.8065810203552248
505,26500.0,8.394021987915039,2.9671001434326167,-1.8065810203552248
506,26600.0,8.394021987915039,2.9671001434326167,-1.8065810203552248
507,26700.0,8.61894702911377,3.1824538707733154,-3.242274522781372
508,26800.0,8.61894702911377,3.1824538707733154,-3.242274522781372
509,26900.0,10.336994171142578,1.9716858863830569,-3.2973096370697017
510,25500.0,9.868000030517578,2.493321180343628,-3.294916868209839
511,25600.0,9.868000030517578,2.493321180343628,-3.294916868209839
512,25700.0,11.17926788330078,2.1846470832824707,-3.828516006469727
513,25800.0,11.17926788330078,2.1846470832824707,-3.828516006469727
514,25900.0,11.17926788330078,2.1846470832824707,-3.828516006469727
515,26000.0,9.571290969848633,1.4620146751403809,-2.256431579589844
516,26100.0,9.571290969848633,1.4620146751403809,-2.256431579589844
517,26200.0,8.992227554321289,1.3471590280532837,-1.7802598476409912
518,26300.0,8.992227554321289,1.3471590280532837,-1.7802598476409912
519,26400.0,8.394021987915039,2.9671001434326167,-1.8065810203552248
520,26500.0,8.394021987915039,2.9671001434326167,-1.8065810203552248
521,26600.0,8.394021987915039,2.9671001434326167,-1.8065810203552248
522,26700.0,8.61894702911377,3.1824538707733154,-3.242274522781372
523,26800.0,8.61894702911377,3.1824538707733154,-3.242274522781372
524,26900.0,10.336994171142578,1.9716858863830569,-3.2973096370697017
525,27000.0,10.336994171142578,1.9716858863830569,-3.2973096370697017
526,27100.0,9.40379238128662,0.9762716889381408,-2.560320377349853
527,27200.0,9.40379238128662,0.9762716889381408,-2.560320377349853
528,27300.0,8.461020469665527,1.2346963882446291,-2.2085752487182617
529,27400.0,8.461020469665527,1.2346963882446291,-2.2085752487182617
530,27500.0,8.461020469665527,1.2346963882446291,-2.2085752487182617
531,27600.0,8.968299865722656,1.4931212663650513,-3.0652055740356445
532,27700.0,8.968299865722656,1.4931212663650513,-3.0652055740356445
533,27800.0,8.518448829650879,2.091326951980591,-3.263810157775879
534,27900.0,8.518448829650879,2.091326951980591,-3.263810157775879
535,28000.0,8.518448829650879,2.091326951980591,-3.263810157775879
536,28100.0,10.533205032348633,2.0817556381225586,-3.1704900264739986
537,28200.0,10.533205032348633,2.0817556381225586,-3.1704900264739986
538,28300.0,8.327022552490233,0.27756744623184204,-0.9044869542121888
539,28400.0,8.327022552490233,0.27756744623184204,-0.9044869542121888
540,27000.0,10.336994171142578,1.9716858863830569,-3.2973096370697017
541,27100.0,9.40379238128662,0.9762716889381408,-2.560320377349853
542,27200.0,9.40379238128662,0.9762716889381408,-2.560320377349853
543,27300.0,8.461020469665527,1.2346963882446291,-2.2085752487182617
544,27400.0,8.461020469665527,1.2346963882446291,-2.2085752487182617
545,27500.0,8.461020469665527,1.2346963882446291,-2.2085752487182617
546,27600.0,8.968299865722656,1.4931212663650513,-3.0652055740356445
547,27700.0,8.968299865722656,1.4931212663650513,-3.0652055740356445
548,27800.0,8.518448829650879,2.091326951980591,-3.263810157775879
549,27900.0,8.518448829650879,2.091326951980591,-3.263810157775879
550,28000.0,8.518448829650879,2.091326951980591,-3.263810157775879
551,28100.0,10.533205032348633,2.0817556381225586,-3.1704900264739986
552,28200.0,10.533205032348633,2.0817556381225586,-3.1704900264739986
553,28300.0,8.327022552490233,0.27756744623184204,-0.9044869542121888
554,28400.0,8.327022552490233,0.27756744623184204,-0.9044869542121888
555,28500.0,9.609575271606444,1.1748759746551514,-0.8757730722427368
556,28600.0,9.609575271606444,1.1748759746551514,-0.8757730722427368
557,28700.0,8.102097511291504,2.739781856536865,-2.2995026111602783
558,28800.0,8.102097511291504,2.739781856536865,-2.2995026111602783
559,28900.0,8.102097511291504,2.739781856536865,-2.2995026111602783
560,29000.0,7.858029365539551,3.273381233215332,-3.060420036315918
561,29100.0,7.858029365539551,3.273381233215332,-3.060420036315918
562,29200.0,9.45164966583252,2.648854732513428,-2.9072794914245605
563,29300.0,9.45164966583252,2.648854732513428,-2.9072794914245605
564,29400.0,9.45164966583252,2.648854732513428,-2.9072794914245605
565,29500.0,10.279565811157227,0.5982056856155396,-1.5601203441619873
566,29600.0,10.279565811157227,0.5982056856155396,-1.5601203441619873
567,29700.0,6.742973804473878,-0.21774686872959134,-1.5242280960083008
568,29800.0,6.742973804473878,-0.21774686872959134,-1.5242280960083008
569,29900.0,8.796016693115233,1.4261221885681152,-2.4981069564819336
570,28500.0,9.609575271606444,1.1748759746551514,-0.8757730722427368
571,28600.0,9.609575271606444,1.1748759746551514,-0.8757730722427368
572,28700.0,8.102097511291504,2.739781856536865,-2.2995026111602783
573,28800.0,8.102097511291504,2.739781856536865,-2.2995026111602783
574,28900.0,8.102097511291504,2.739781856536865,-2.2995026111602783
575,29000.0,7.858029365539551,3.273381233215332,-3.060420036315918
576,29100.0,7.858029365539551,3.273381233215332,-3.060420036315918
577,29200.0,9.45164966583252,2.648854732513428,-2.9072794914245605
578,29300.0,9.45164966583252,2.648854732513428,-2.9072794914245605
579,29400.0,9.45164966583252,2.648854732513428,-2.9072794914245605
580,29500.0,10.279565811157227,0.5982056856155396,-1.5601203441619873
581,29600.0,10.279565811157227,0.5982056856155396,-1.5601203441619873
582,29700.0,6.742973804473878,-0.21774686872959134,-1.5242280960083008
583,29800.0,6.742973804473878,-0.21774686872959134,-1.5242280960083008
584,29900.0,8.796016693115233,1.4261221885681152,-2.4981069564819336
585,30000.0,8.796016693115233,1.4261221885681152,-2.4981069564819336
586,30100.0,9.77707290649414,1.7443678379058838,-2.44067907333374
587,30200.0,9.77707290649414,1.7443678379058838,-2.44067907333374
588,30300.0,9.77707290649414,1.7443678379058838,-2.44067907333374
589,30400.0,12.256037712097168,1.4548362493515017,-2.730210542678833
590,30500.0,12.256037712097168,1.4548362493515017,-2.730210542678833
591,30600.0,8.575876235961914,1.3160523176193235,-1.4668002128601074
592,30700.0,8.575876235961914,1.3160523176193235,-1.4668002128601074
593,30800.0,8.575876235961914,1.3160523176193235,-1.4668002128601074
594,30900.0,8.111669540405272,1.710868239402771,-1.1629117727279663
595,31000.0,8.111669540405272,1.710868239402771,-1.1629117727279663
596,31100.0,10.097711563110352,1.8448662757873533,-1.124626636505127
597,31200.0,10.097711563110352,1.8448662757873533,-1.124626636505127
598,31300.0,9.360722541809082,2.311466693878174,-1.6031911373138428
599,31400.0,9.360722541809082,2.311466693878174,-1.6031911373138428
600,30000.0,8.796016693115233,1.4261221885681152,-2.4981069564819336
601,30100.0,9.77707290649414,1.7443678379058838,-2.44067907333374
602,30200.0,9.77707290649414,1.7443678379058838,-2.44067907333374
603,30300.0,9.77707290649414,1.7443678379058838,-2.44067907333374
604,30400.0,12.256037712097168,1.4548362493515017,-2.730210542678833
605,30500.0,12.256037712097168,1.4548362493515017,-2.730210542678833
606,30600.0,8.575876235961914,1.3160523176193235,-1.4668002128601074
607,30700.0,8.575876235961914,1.3160523176193235,-1.4668002128601074
608,30800.0,8.575876235961914,1.3160523176193235,-1.4668002128601074
609,30900.0,8.111669540405272,1.710868239402771,-1.1629117727279663
610,31000.0,8.111669540405272,1.710868239402771,-1.1629117727279663
611,31100.0,10.097711563110352,1.8448662757873533,-1.124626636505127
612,31200.0,10.097711563110352,1.8448662757873533,-1.124626636505127
613,31300.0,9.360722541809082,2.311466693878174,-1.6031911373138428
614,31400.0,9.360722541809082,2.311466693878174,-1.6031911373138428
615,31500.0,9.360722541809082,2.311466693878174,-1.6031911373138428
616,31600.0,9.805787086486816,2.7732813358306885,-1.7084753513336182
617,31700.0,9.805787086486816,2.7732813358306885,-1.7084753513336182
618,31800.0,11.021341323852539,1.782652735710144,-1.0887343883514404
619,31900.0,11.021341323852539,1.782652735710144,-1.0887343883514404
620,32000.0,10.533205032348633,0.6101697683334351,-1.495514154434204
621,32100.0,10.533205032348633,0.6101697683334351,-1.495514154434204
622,32200.0,10.533205032348633,0.6101697683334351,-1.495514154434204
623,32300.0,8.695517539978027,-0.5503491759300232,-2.1918253898620605
624,32400.0,8.695517539978027,-0.5503491759300232,-2.1918253898620605
625,32500.0,8.437092781066895,1.0456634759902954,-1.8376877307891848
626,32600.0,8.437092781066895,1.0456634759902954,-1.8376877307891848
627,32700.0,9.221939086914062,1.6151552200317385,-2.47896409034729
628,32800.0,9.221939086914062,1.6151552200317385,-2.47896409034729
629,32900.0,9.767501831054688,1.8831514120101929,-3.160918712615967
630,31500.0,9.360722541809082,2.311466693878174,-1.6031911373138428
631,31600.0,9.805787086486816,2.7732813358306885,-1.7084753513336182
632,31700.0,9.805787086486816,2.7732813358306885,-1.7084753513336182
633,31800.0,11.021341323852539,1.782652735710144,-1.0887343883514404
634,31900.0,11.021341323852539,1.782652735710144,-1.0887343883514404
635,32000.0,10.533205032348633,0.6101697683334351,-1.495514154434204
636,32100.0,10.533205032348633,0.6101697683334351,-1.495514154434204
637,32200.0,10.533205032348633,0.6101697683334351,-1.495514154434204
638,32300.0,8.695517539978027,-0.5503491759300232,-2.1918253898620605
639,32400.0,8.695517539978027,-0.5503491759300232,-2.1918253898620605
640,32500.0,8.437092781066895,1.0456634759902954,-1.8376877307891848
641,32600.0,8.437092781066895,1.0456634759902954,-1.8376877307891848
642,32700.0,9.221939086914062,1.6151552200317385,-2.47896409034729
643,32800.0,9.221939086914062,1.6151552200317385,-2.47896409034729
644,32900.0,9.767501831054688,1.8831514120101929,-3.160918712615967
645,33000.0,9.767501831054688,1.8831514120101929,-3.160918712615967
646,33100.0,9.600004196166992,1.741974949836731,-2.311466693878174
647,33200.0,9.600004196166992,1.741974949836731,-2.311466693878174
648,33300.0,9.600004196166992,1.741974949836731,-2.311466693878174
649,33400.0,11.030912399291992,1.5720844268798828,-1.3399806022644043
650,33500.0,11.030912399291992,1.5720844268798828,-1.3399806022644043
651,33600.0,7.355536937713622,1.9525433778762815,-1.2562319040298462
652,33700.0,7.355536937713622,1.9525433778762815,-1.2562319040298462
653,33800.0,8.915657043457031,2.1702899932861333,-1.526620864868164
654,33900.0,8.915657043457031,2.1702899932861333,-1.526620864868164
655,34000.0,11.34676456451416,2.069791555404663,-2.3090739250183105
656,34100.0,11.34676456451416,2.069791555404663,-2.3090739250183105
657,34200.0,11.968899726867676,-0.18424734473228452,-1.0863415002822876
658,34300.0,11.968899726867676,-0.18424734473228452,-1.0863415002822876
659,34400.0,8.508876800537111,0.2488535493612289,-1.3112668991088867
660,33000.0,9.767501831054688,1.8831514120101929,-3.160918712615967
661,33100.0,9.600004196166992,1.741974949836731,-2.311466693878174
662,33200.0,9.600004196166992,1.741974949836731,-2.311466693878174
663,33300.0,9.600004196166992,1.741974949836731,-2.311466693878174
664,33400.0,11.030912399291992,1.5720844268798828,-1.3399806022644043
665,33500.0,11.030912399291992,1.5720844268798828,-1.3399806022644043
666,33600.0,7.355536937713622,1.9525433778762815,-1.2562319040298462
667,33700.0,7.355536937713622,1.9525433778762815,-1.2562319040298462
668,33800.0,8.915657043457031,2.1702899932861333,-1.526620864868164
669,33900.0,8.915657043457031,2.1702899932861333,-1.526620864868164
670,34000.0,11.34676456451416,2.069791555404663,-2.3090739250183105
671,34100.0,11.34676456451416,2.069791555404663,-2.3090739250183105
672,34200.0,11.968899726867676,-0.18424734473228452,-1.0863415002822876
673,34300.0,11.968899726867676,-0.18424734473228452,-1.0863415002822876
674,34400.0,8.508876800537111,0.2488535493612289,-1.3112668991088867
675,34500.0,8.508876800537111,0.2488535493612289,-1.3112668991088867
676,34600.0,8.508876800537111,0.2488535493612289,-1.3112668991088867
677,34700.0,8.499305725097656,0.8542376756668091,-2.8809585571289062
678,34800.0,8.499305725097656,0.8542376756668091,-2.8809585571289062
679,34900.0,9.327221870422363,1.244267821311951,-2.931207656860352
680,35000.0,9.327221870422363,1.244267821311951,-2.931207656860352
681,35100.0,10.313065528869627,1.1820544004440308,-2.785245418548584
682,35200.0,10.313065528869627,1.1820544004440308,-2.785245418548584
683,35300.0,10.155139923095703,1.2825528383255005,-2.3234307765960693
684,35400.0,10.155139923095703,1.2825528383255005,-2.3234307765960693
685,35500.0,10.155139923095703,1.2825528383255005,-2.3234307765960693
686,35600.0,8.60459041595459,1.380658507347107,-1.1389836072921753
687,35700.0,8.60459041595459,1.380658507347107,-1.1389836072921753
688,35800.0,9.360722541809082,1.804188132286072,-1.3232309818267822
689,35900.0,9.360722541809082,1.804188132286072,-1.3232309818267822
690,34500.0,8.508876800537111,0.2488535493612289,-1.3112668991088867
691,34600.0,8.508876800537111,0.2488535493612289,-1.3112668991088867
692,34700.0,8.499305725097656,0.8542376756668091,-2.8809585571289062
693,34800.0,8.499305725097656,0.8542376756668091,-2.8809585571289062
694,34900.0,9.327221870422363,1.244267821311951,-2.931207656860352
695,35000.0,9.327221870422363,1.244267821311951,-2.931207656860352
696,35100.0,10.313065528869627,1.1820544004440308,-2.785245418548584
697,35200.0,10.313065528869627,1.1820544004440308,-2.785245418548584
698,35300.0,10.155139923095703,1.2825528383255005,-2.3234307765960693
699,35400.0,10.155139923095703,1.2825528383255005,-2.3234307765960693
700,35500.0,10.155139923095703,1.2825528383255005,-2.3234307765960693
701,35600.0,8.60459041595459,1.380658507347107,-1.1389836072921753
702,35700.0,8.60459041595459,1.380658507347107,-1.1389836072921753
703,35800.0,9.360722541809082,1.804188132286072,-1.3232309818267822
704,35900.0,9.360722541809082,1.804188132286072,-1.3232309818267822
705,36000.0,10.021141052246094,1.7180466651916504,-0.5670989155769348
706,36100.0,10.021141052246094,1.7180466651916504,-0.5670989155769348
707,36200.0,10.021141052246094,1.7180466651916504,-0.5670989155769348
708,36300.0,11.064411163330078,1.3040882349014282,-0.7776673436164856
709,36400.0,11.064411163330078,1.3040882349014282,-0.7776673436164856
710,36500.0,9.60478973388672,0.18903298676013947,-2.0410776138305664
711,36600.0,9.60478973388672,0.18903298676013947,-2.0410776138305664
712,36700.0,8.59501838684082,0.6149553656578064,-2.4813570976257324
713,36800.0,8.59501838684082,0.6149553656578064,-2.4813570976257324
714,36900.0,8.59501838684082,0.6149553656578064,-2.4813570976257324
715,37000.0,9.489934921264648,0.7537391781806946,-2.1631116867065434
716,37100.0,9.489934921264648,0.7537391781806946,-2.1631116867065434
717,37200.0,8.389235496520996,0.430708110332489,-2.5363922119140625
718,37300.0,8.389235496520996,0.430708110332489,-2.5363922119140625
719,37400.0,10.341779708862305,1.0839486122131348,-2.89052963256836
720,36000.0,10.021141052246094,1.7180466651916504,-0.5670989155769348
721,36100.0,10.021141052246094,1.7180466651916504,-0.5670989155769348
722,36200.0,10.021141052246094,1.7180466651916504,-0.5670989155769348
723,36300.0,11.064411163330078,1.3040882349014282,-0.7776673436164856
724,36400.0,11.064411163330078,1.3040882349014282,-0.7776673436164856
725,36500.0,9.60478973388672,0.18903298676013947,-2.0410776138305664
726,36600.0,9.60478973388672,0.18903298676013947,-2.0410776138305664
727,36700.0,8.59501838684082,0.6149553656578064,-2.4813570976257324
728,36800.0,8.59501838684082,0.6149553656578064,-2.4813570976257324
729,36900.0,8.59501838684082,0.6149553656578064,-2.4813570976257324
730,37000.0,9.489934921264648,0.7537391781806946,-2.1631116867065434
731,37100.0,9.489934921264648,0.7537391781806946,-2.1631116867065434
732,37200.0,8.389235496520996,0.430708110332489,-2.5363922119140625
733,37300.0,8.389235496520996,0.430708110332489,-2.5363922119140625
734,37400.0,10.341779708862305,1.0839486122131348,-2.89052963256836
735,37500.0,10.341779708862305,1.0839486122131348,-2.89052963256836
736,37600.0,10.341779708862305,1.0839486122131348,-2.89052963256836
737,37700.0,10.327423095703123,1.4524433612823486,-2.400001049041748
738,37800.0,10.327423095703123,1.4524433612823486,-2.400001049041748
739,37900.0,8.690732002258299,2.167897224426269,-1.2825528383255005
740,38000.0,8.690732002258299,2.167897224426269,-1.2825528383255005
741,38100.0,10.021141052246094,1.9501504898071291,-1.124626636505127
742,38200.0,10.021141052246094,1.9501504898071291,-1.124626636505127
743,38300.0,10.021141052246094,1.9501504898071291,-1.124626636505127
744,38400.0,8.810372352600098,1.8376877307891848,-1.3543376922607422
745,38500.0,8.810372352600098,1.8376877307891848,-1.3543376922607422
746,38600.0,11.648260116577148,1.3902300596237185,-2.344966173171997
747,38700.0,11.648260116577148,1.3902300596237185,-2.344966173171997
748,38800.0,9.150154113769533,0.9308080077171326,-1.7635102272033691
749,38900.0,9.150154113769533,0.9308080077171326,-1.7635102272033691
750,37500.0,10.341779708862305,1.0839486122131348,-2.89052963256836
751,37600.0,10.341779708862305,1.0839486122131348,-2.89052963256836
752,37700.0,10.327423095703123,1.4524433612823486,-2.400001049041748
753,37800.0,10.327423095703123,1.4524433612823486,-2.400001049041748
754,37900.0,8.690732002258299,2.167897224426269,-1.2825528383255005
755,38000.0,8.690732002258299,2.167897224426269,-1.2825528383255005
756,38100.0,10.021141052246094,1.9501504898071291,-1.124626636505127
757,38200.0,10.021141052246094,1.9501504898071291,-1.124626636505127
758,38300.0,10.021141052246094,1.9501504898071291,-1.124626636505127
759,38400.0,8.810372352600098,1.8376877307891848,-1.3543376922607422
760,38500.0,8.810372352600098,1.8376877307891848,-1.3543376922607422
761,38600.0,11.648260116577148,1.3902300596237185,-2.344966173171997
762,38700.0,11.648260116577148,1.3902300596237185,-2.344966173171997
763,38800.0,9.150154113769533,0.9308080077171326,-1.7635102272033691
764,38900.0,9.150154113769533,0.9308080077171326,-1.7635102272033691
765,39000.0,7.8867435455322275,1.0719845294952393,-2.0650060176849365
766,39100.0,7.8867435455322275,1.0719845294952393,-2.0650060176849365
767,39200.0,8.738588333129883,1.6677974462509155,-2.902493953704834
768,39300.0,8.738588333129883,1.6677974462509155,-2.902493953704834
769,39400.0,8.738588333129883,1.6677974462509155,-2.902493953704834
770,39500.0,9.55214786529541,1.9118653535842896,-2.878565788269043
771,39600.0,9.55214786529541,1.9118653535842896,-2.878565788269043
772,39700.0,11.528619766235352,1.674975872039795,-2.1367905139923096
773,39800.0,11.528619766235352,1.674975872039795,-2.1367905139923096
774,39900.0,9.81535816192627,1.4333008527755735,-1.2993026971817017
775,40000.0,9.81535816192627,1.4333008527755735,-1.2993026971817017
776,40100.0,9.81535816192627,1.4333008527755735,-1.2993026971817017
777,40200.0,7.594818592071532,1.9477576017379759,-0.8398807048797607
778,40300.0,7.594818592071532,1.9477576017379759,-0.8398807048797607
779,40400.0,10.356135368347168,2.1607186794281006,-1.368694543838501
780,39000.0,7.8867435455322275,1.0719845294952393,-2.0650060176849365
781,39100.0,7.8867435455322275,1.0719845294952393,-2.0650060176849365
782,39200.0,8.738588333129883,1.6677974462509155,-2.902493953704834
783,39300.0,8.738588333129883,1.6677974462509155,-2.902493953704834
784,39400.0,8.738588333129883,1.6677974462509155,-2.902493953704834
785,39500.0,9.55214786529541,1.9118653535842896,-2.878565788269043
786,39600.0,9.55214786529541,1.9118653535842896,-2.878565788269043
787,39700.0,11.528619766235352,1.674975872039795,-2.1367905139923096
788,39800.0,11.528619766235352,1.674975872039795,-2.1367905139923096
789,39900.0,9.81535816192627,1.4333008527755735,-1.2993026971817017
790,40000.0,9.81535816192627,1.4333008527755735,-1.2993026971817017
791,40100.0,9.81535816192627,1.4333008527755735,-1.2993026971817017
792,40200.0,7.594818592071532,1.9477576017379759,-0.8398807048797607
793,40300.0,7.594818592071532,1.9477576017379759,-0.8398807048797607
794,40400.0,10.356135368347168,2.1607186794281006,-1.368694543838501
795,40500.0,10.356135368347168,2.1607186794281006,-1.368694543838501
796,40600.0,11.83489990234375,1.7252250909805298,-1.4356936216354368
797,40700.0,11.83489990234375,1.7252250909805298,-1.4356936216354368
798,40800.0,10.48534870147705,2.2995026111602783,-2.4670000076293945
799,40900.0,10.48534870147705,2.2995026111602783,-2.4670000076293945
800,41000.0,10.48534870147705,2.2995026111602783,-2.4670000076293945
801,41100.0,8.910871505737305,0.9810572862625122,-2.093719720840454
802,41200.0,8.910871505737305,0.9810572862625122,-2.093719720840454
803,41300.0,8.891729354858398,1.1198409795761108,-2.069791555404663
804,41400.0,8.891729354858398,1.1198409795761108,-2.069791555404663
805,41500.0,8.891729354858398,1.1198409795761108,-2.069791555404663
806,41600.0,7.680960178375244,1.155733346939087,-2.596212387084961
807,41700.0,7.680960178375244,1.155733346939087,-2.596212387084961
808,41800.0,12.705887794494627,1.7802598476409912,-2.368894338607788
809,41900.0,12.705887794494627,1.7802598476409912,-2.368894338607788
810,40500.0,10.356135368347168,2.1607186794281006,-1.368694543838501
811,40600.0,11.83489990234375,1.7252250909805298,-1.4356936216354368
812,40700.0,11.83489990234375,1.7252250909805298,-1.4356936216354368
813,40800.0,10.48534870147705,2.2995026111602783,-2.4670000076293945
814,40900.0,10.48534870147705,2.2995026111602783,-2.4670000076293945
815,41000.0,10.48534870147705,2.2995026111602783,-2.4670000076293945
816,41100.0,8.910871505737305,0.9810572862625122,-2.093719720840454
817,41200.0,8.910871505737305,0.9810572862625122,-2.093719720840454
818,41300.0,8.891729354858398,1.1198409795761108,-2.069791555404663
819,41400.0,8.891729354858398,1.1198409795761108,-2.069791555404663
820,41500.0,8.891729354858398,1.1198409795761108,-2.069791555404663
821,41600.0,7.680960178375244,1.155733346939087,-2.596212387084961
822,41700.0,7.680960178375244,1.155733346939087,-2.596212387084961
823,41800.0,12.705887794494627,1.7802598476409912,-2.368894338607788
824,41900.0,12.705887794494627,1.7802598476409912,-2.368894338607788
825,42000.0,9.020941734313963,1.782652735710144,-2.2372891902923584
826,42100.0,9.020941734313963,1.782652735710144,-2.2372891902923584
827,42200.0,9.040083885192873,2.5986053943634038,-1.6199408769607544
828,42300.0,9.040083885192873,2.5986053943634038,-1.6199408769607544
829,42400.0,9.040083885192873,2.5986053943634038,-1.6199408769607544
830,42500.0,9.442078590393066,2.021935224533081,-0.8662018179893494
831,42600.0,9.442078590393066,2.021935224533081,-0.8662018179893494
832,42700.0,8.676375389099121,1.916650891304016,-1.2370892763137815
833,42800.0,8.676375389099121,1.916650891304016,-1.2370892763137815
834,42900.0,8.676375389099121,1.916650891304016,-1.2370892763137815
835,43000.0,11.27019500732422,1.6103696823120115,-1.935793399810791
836,43100.0,11.27019500732422,1.6103696823120115,-1.935793399810791
837,43200.0,8.599804878234862,0.7202396392822266,-1.8616160154342647
838,43300.0,8.599804878234862,0.7202396392822266,-1.8616160154342647
839,43400.0,7.948956489562987,0.7704889178276062,-1.674975872039795
840,42000.0,9.020941734313963,1.782652735710144,-2.2372891902923584
841,42100.0,9.020941734313963,1.782652735710144,-2.2372891902923584
842,42200.0,9.040083885192873,2.5986053943634038,-1.6199408769607544
843,42300.0,9.040083885192873,2.5986053943634038,-1.6199408769607544
844,42400.0,9.040083885192873,2.5986053943634038,-1.6199408769607544
845,42500.0,9.442078590393066,2.021935224533081,-0.8662018179893494
846,42600.0,9.442078590393066,2.021935224533081,-0.8662018179893494
847,42700.0,8.676375389099121,1.916650891304016,-1.2370892763137815
848,42800.0,8.676375389099121,1.916650891304016,-1.2370892763137815
849,42900.0,8.676375389099121,1.916650891304016,-1.2370892763137815
850,43000.0,11.27019500732422,1.6103696823120115,-1.935793399810791
851,43100.0,11.27019500732422,1.6103696823120115,-1.935793399810791
852,43200.0,8.599804878234862,0.7202396392822266,-1.8616160154342647
853,43300.0,8.599804878234862,0.7202396392822266,-1.8616160154342647
854,43400.0,7.948956489562987,0.7704889178276062,-1.674975872039795
855,43500.0,7.948956489562987,0.7704889178276062,-1.674975872039795
856,43600.0,8.791230201721191,1.7874385118484497,-2.995814085006714
857,43700.0,8.791230201721191,1.7874385118484497,-2.995814085006714
858,43800.0,8.791230201721191,1.7874385118484497,-2.995814085006714
859,43900.0,8.925228118896484,1.5960125923156738,-2.699103832244873
860,44000.0,8.925228118896484,1.5960125923156738,-2.699103832244873
861,44100.0,11.638689994812012,1.7084753513336182,-2.179861307144165
862,44200.0,11.638689994812012,1.7084753513336182,-2.179861307144165
863,44300.0,11.638689994812012,1.7084753513336182,-2.179861307144165
864,44400.0,9.241080284118652,1.3328022956848145,-1.8400806188583372
865,44500.0,9.241080284118652,1.3328022956848145,-1.8400806188583372
866,44600.0,7.8867435455322275,1.6989041566848757,-0.97148597240448
867,44700.0,7.8867435455322275,1.6989041566848757,-0.97148597240448
868,44800.0,9.15493869781494,2.029113531112671,-1.3663017749786377
869,44900.0,9.15493869781494,2.029113531112671,-1.3663017749786377
870,43500.0,7.948956489562987,0.7704889178276062,-1.674975872039795
871,43600.0,8.791230201721191,1.7874385118484497,-2.995814085006714
872,43700.0,8.791230201721191,1.7874385118484497,-2.995814085006714
873,43800.0,8.791230201721191,1.7874385118484497,-2.995814085006714
874,43900.0,8.925228118896484,1.5960125923156738,-2.699103832244873
875,44000.0,8.925228118896484,1.5960125923156738,-2.699103832244873
876,44100.0,11.638689994812012,1.7084753513336182,-2.179861307144165
877,44200.0,11.638689994812012,1.7084753513336182,-2.179861307144165
878,44300.0,11.638689994812012,1.7084753513336182,-2.179861307144165
879,44400.0,9.241080284118652,1.3328022956848145,-1.8400806188583372
880,44500.0,9.241080284118652,1.3328022956848145,-1.8400806188583372
881,44600.0,7.8867435455322275,1.6989041566848757,-0.97148597240448
882,44700.0,7.8867435455322275,1.6989041566848757,-0.97148597240448
883,44800.0,9.15493869781494,2.029113531112671,-1.3663017749786377
884,44900.0,9.15493869781494,2.029113531112671,-1.3663017749786377
885,45000.0,10.274779319763184,2.1750757694244385,-1.2131611108779907
886,45100.0,10.274779319763184,2.1750757694244385,-1.2131611108779907
887,45200.0,10.753345489501953,1.9334007501602173,-1.706082463264465
888,45300.0,10.753345489501953,1.9334007501602173,-1.706082463264465
889,45400.0,10.753345489501953,1.9334007501602173,-1.706082463264465
890,45500.0,7.3363938331604,0.4881358444690704,-2.093719720840454
891,45600.0,7.3363938331604,0.4881358444690704,-2.093719720840454
892,45700.0,8.60459041595459,1.0217353105545044,-2.5555346012115483
893,45800.0,8.60459041595459,1.0217353105545044,-2.5555346012115483
894,45900.0,8.293522834777832,1.3280165195465088,-3.2997026443481445
895,46000.0,8.293522834777832,1.3280165195465088,-3.2997026443481445
896,46100.0,8.293522834777832,1.3280165195465088,-3.2997026443481445
897,46200.0,7.5804619789123535,1.0456634759902954,-3.3762726783752437
898,46300.0,7.5804619789123535,1.0456634759902954,-3.3762726783752437
899,46400.0,11.437692642211914,1.2777673006057741,-3.653840303421021
900,45000.0,10.274779319763184,2.1750757694244385,-1.2131611108779907
901,45100.0,10.274779319763184,2.1750757694244385,-1.2131611108779907
902,45200.0,10.753345489501953,1.9334007501602173,-1.706082463264465
903,45300.0,10.753345489501953,1.9334007501602173,-1.706082463264465
904,45400.0,10.753345489501953,1.9334007501602173,-1.706082463264465
905,45500.0,7.3363938331604,0.4881358444690704,-2.093719720840454
906,45600.0,7.3363938331604,0.4881358444690704,-2.093719720840454
907,45700.0,8.60459041595459,1.0217353105545044,-2.5555346012115483
908,45800.0,8.60459041595459,1.0217353105545044,-2.5555346012115483
909,45900.0,8.293522834777832,1.3280165195465088,-3.2997026443481445
910,46000.0,8.293522834777832,1.3280165195465088,-3.2997026443481445
911,46100.0,8.293522834777832,1.3280165195465088,-3.2997026443481445
912,46200.0,7.5804619789123535,1.0456634759902954,-3.3762726783752437
913,46300.0,7.5804619789123535,1.0456634759902954,-3.3762726783752437
914,46400.0,11.437692642211914,1.2777673006057741,-3.653840303421021
915,46500.0,11.437692642211914,1.2777673006057741,-3.653840303421021
916,46600.0,10.470992088317873,2.1631116867065434,-1.9477576017379759
917,46700.0,10.470992088317873,2.1631116867065434,-1.9477576017379759
918,46800.0,7.690531730651855,1.4739787578582764,-0.9332008361816406
919,46900.0,7.690531730651855,1.4739787578582764,-0.9332008361816406
920,47000.0,9.62393283843994,2.007578134536743,-1.887937068939209
921,47100.0,9.62393283843994,2.007578134536743,-1.887937068939209
922,47200.0,9.62393283843994,2.007578134536743,-1.887937068939209
923,47300.0,11.772686958312988,2.665604591369629,-2.1607186794281006
924,47400.0,11.772686958312988,2.665604591369629,-2.1607186794281006
925,47500.0,6.881758213043213,2.0027925968170166,-0.8973084688186646
926,47600.0,6.881758213043213,2.0027925968170166,-0.8973084688186646
927,47700.0,7.752745151519775,0.2871387302875519,-1.7371891736984253
928,47800.0,7.752745151519775,0.2871387302875519,-1.7371891736984253
929,47900.0,7.752745151519775,0.2871387302875519,-1.7371891736984253
930,46500.0,11.437692642211914,1.2777673006057741,-3.653840303421021
931,46600.0,10.470992088317873,2.1631116867065434,-1.9477576017379759
932,46700.0,10.470992088317873,2.1631116867065434,-1.9477576017379759
933,46800.0,7.690531730651855,1.4739787578582764,-0.9332008361816406
934,46900.0,7.690531730651855,1.4739787578582764,-0.9332008361816406
935,47000.0,9.62393283843994,2.007578134536743,-1.887937068939209
936,47100.0,9.62393283843994,2.007578134536743,-1.887937068939209
937,47200.0,9.62393283843994,2.007578134536743,-1.887937068939209
938,47300.0,11.772686958312988,2.665604591369629,-2.1607186794281006
939,47400.0,11.772686958312988,2.665604591369629,-2.1607186794281006
940,47500.0,6.881758213043213,2.0027925968170166,-0.8973084688186646
941,47600.0,6.881758213043213,2.0027925968170166,-0.8973084688186646
942,47700.0,7.752745151519775,0.2871387302875519,-1.7371891736984253
943,47800.0,7.752745151519775,0.2871387302875519,-1.7371891736984253
944,47900.0,7.752745151519775,0.2871387302875519,-1.7371891736984253
945,48000.0,8.078168869018555,2.007578134536743,-2.431107759475708
946,48100.0,8.078168869018555,2.007578134536743,-2.431107759475708
947,48200.0,12.844672203063965,2.124826431274414,-4.264009952545166
948,48300.0,12.844672203063965,2.124826431274414,-4.264009952545166
949,48400.0,8.652446746826174,1.6127625703811646,-0.41156551241874695
950,48500.0,8.652446746826174,1.6127625703811646,-0.41156551241874695
951,48600.0,8.652446746826174,1.6127625703811646,-0.41156551241874695
952,48700.0,10.083355903625488,1.6510475873947144,-0.8063812851905823
953,48800.0,10.083355903625488,1.6510475873947144,-0.8063812851905823
954,48900.0,9.60478973388672,2.4957141876220703,-1.813759446144104
955,49000.0,9.60478973388672,2.4957141876220703,-1.813759446144104
956,49100.0,8.236095428466799,3.0939197540283203,-2.5196423530578613
957,49200.0,8.236095428466799,3.0939197540283203,-2.5196423530578613
958,49300.0,8.236095428466799,3.0939197540283203,-2.5196423530578613
959,49400.0,10.85384464263916,2.548356056213379,-2.390429735183716
960,48000.0,8.078168869018555,2.007578134536743,-2.431107759475708
961,48100.0,8.078168869018555,2.007578134536743,-2.431107759475708
962,48200.0,12.844672203063965,2.124826431274414,-4.264009952545166
963,48300.0,12.844672203063965,2.124826431274414,-4.264009952545166
964,48400.0,8.652446746826174,1.6127625703811646,-0.41156551241874695
965,48500.0,8.652446746826174,1.6127625703811646,-0.41156551241874695
966,48600.0,8.652446746826174,1.6127625703811646,-0.41156551241874695
967,48700.0,10.083355903625488,1.6510475873947144,-0.8063812851905823
968,48800.0,10.083355903625488,1.6510475873947144,-0.8063812851905823
969,48900.0,9.60478973388672,2.4957141876220703,-1.813759446144104
970,49000.0,9.60478973388672,2.4957141876220703,-1.813759446144104
971,49100.0,8.236095428466799,3.0939197540283203,-2.5196423530578613
972,49200.0,8.236095428466799,3.0939197540283203,-2.5196423530578613
973,49300.0,8.236095428466799,3.0939197540283203,-2.5196423530578613
974,49400.0,10.85384464263916,2.548356056213379,-2.390429735183716
975,49500.0,10.85384464263916,2.548356056213379,-2.390429735183716
976,49600.0,9.164510726928713,0.8494520783424377,-2.524427890777588
977,49700.0,9.164510726928713,0.8494520783424377,-2.524427890777588
978,49800.0,7.915457248687744,1.8185452222824097,-1.6175479888916016
979,49900.0,7.915457248687744,1.8185452222824097,-1.6175479888916016
980,50000.0,7.915457248687744,1.8185452222824097,-1.6175479888916016
981,50100.0,9.159724235534668,1.6127625703811646,-3.091526985168457
982,50200.0,9.159724235534668,1.6127625703811646,-3.091526985168457
983,50300.0,9.8871431350708,1.722832441329956,-2.8761727809906006
984,50400.0,9.8871431350708,1.722832441329956,-2.8761727809906006
985,50500.0,10.26520824432373,1.526620864868164,-1.9286150932312007
986,50600.0,10.26520824432373,1.526620864868164,-1.9286150932312007
987,50700.0,10.26520824432373,1.526620864868164,-1.9286150932312007
988,50800.0,9.001798629760742,1.529013752937317,-0.9595218896865844
989,50900.0,9.001798629760742,1.529013752937317,-0.9595218896865844
990,49500.0,10.85384464263916,2.548356056213379,-2.390429735183716
991,49600.0,9.164510726928713,0.8494520783424377,-2.524427890777588
992,49700.0,9.164510726928713,0.8494520783424377,-2.524427890777588
993,49800.0,7.915457248687744,1.8185452222824097,-1.6175479888916016
994,49900.0,7.915457248687744,1.8185452222824097,-1.6175479888916016
995,50000.0,7.915457248687744,1.8185452222824097,-1.6175479888916016
996,50100.0,9.159724235534668,1.6127625703811646,-3.091526985168457
997,50200.0,9.159724235534668,1.6127625703811646,-3.091526985168457
998,50300.0,9.8871431350708,1.722832441329956,-2.8761727809906006
999,50400.0,9.8871431350708,1.722832441329956,-2.8761727809906006
1000,50500.0,10.26520824432373,1.526620864868164,-1.9286150932312007
1001,50600.0,10.26520824432373,1.526620864868164,-1.9286150932312007
1002,50700.0,10.26520824432373,1.526620864868164,-1.9286150932312007
1003,50800.0,9.001798629760742,1.529013752937317,-0.9595218896865844
1004,50900.0,9.001798629760742,1.529013752937317,-0.9595218896865844
1005,51000.0,8.513663291931152,1.7204395532608032,-0.9284151792526244
1006,51100.0,8.513663291931152,1.7204395532608032,-0.9284151792526244
1007,51200.0,9.80100154876709,1.5960125923156738,-1.7539390325546265
1008,51300.0,9.80100154876709,1.5960125923156738,-1.7539390325546265
1009,51400.0,9.80100154876709,1.5960125923156738,-1.7539390325546265
1010,51500.0,9.930214881896973,1.8831514120101929,-1.9884356260299685
1011,51600.0,9.930214881896973,1.8831514120101929,-1.9884356260299685
1012,51700.0,9.442078590393066,1.6342979669570925,-1.6510475873947144
1013,51800.0,9.442078590393066,1.6342979669570925,-1.6510475873947144
1014,51900.0,10.260422706604004,0.5216353535652161,-2.0721843242645264
1015,52000.0,10.260422706604004,0.5216353535652161,-2.0721843242645264
1016,52100.0,10.260422706604004,0.5216353535652161,-2.0721843242645264
1017,52200.0,8.465806007385254,-0.15553347766399386,-1.5792629718780518
1018,52300.0,8.465806007385254,-0.15553347766399386,-1.5792629718780518
1019,52400.0,8.317451477050781,0.7322037816047668,-2.2253248691558842
1020,51000.0,8.513663291931152,1.7204395532608032,-0.9284151792526244
1021,51100.0,8.513663291931152,1.7204395532608032,-0.9284151792526244
1022,51200.0,9.80100154876709,1.5960125923156738,-1.7539390325546265
1023,51300.0,9.80100154876709,1.5960125923156738,-1.7539390325546265
1024,51400.0,9.80100154876709,1.5960125923156738,-1.7539390325546265
1025,51500.0,9.930214881896973,1.8831514120101929,-1.9884356260299685
1026,51600.0,9.930214881896973,1.8831514120101929,-1.9884356260299685
1027,51700.0,9.442078590393066,1.6342979669570925,-1.6510475873947144
1028,51800.0,9.442078590393066,1.6342979669570925,-1.6510475873947144
1029,51900.0,10.260422706604004,0.5216353535652161,-2.0721843242645264
1030,52000.0,10.260422706604004,0.5216353535652161,-2.0721843242645264
1031,52100.0,10.260422706604004,0.5216353535652161,-2.0721843242645264
1032,52200.0,8.465806007385254,-0.15553347766399386,-1.5792629718780518
1033,52300.0,8.465806007385254,-0.15553347766399386,-1.5792629718780518
1034,52400.0,8.317451477050781,0.7322037816047668,-2.2253248691558842
1035,52500.0,8.317451477050781,0.7322037816047668,-2.2253248691558842
1036,52600.0,9.858428955078123,1.6462620496749878,-2.6392831802368164
1037,52700.0,9.858428955078123,1.6462620496749878,-2.6392831802368164
1038,52800.0,9.858428955078123,1.6462620496749878,-2.6392831802368164
1039,52900.0,10.724631309509276,1.7012970447540283,-3.5676987171173096
1040,53000.0,10.724631309509276,1.7012970447540283,-3.5676987171173096
1041,53100.0,9.968499183654783,1.5122638940811155,-1.902293920516968
1042,53200.0,9.968499183654783,1.5122638940811155,-1.902293920516968
1043,53300.0,8.973085403442383,2.3617160320281982,-0.5647061467170715
1044,53400.0,8.973085403442383,2.3617160320281982,-0.5647061467170715
1045,53500.0,8.973085403442383,2.3617160320281982,-0.5647061467170715
1046,53600.0,8.236095428466799,2.108076810836792,-0.9140582084655762
1047,53700.0,8.236095428466799,2.108076810836792,-0.9140582084655762
1048,53800.0,9.020941734313963,1.9621145725250244,-1.131805181503296
1049,53900.0,9.020941734313963,1.9621145725250244,-1.131805181503296
1050,52500.0,8.317451477050781,0.7322037816047668,-2.2253248691558842
1051,52600.0,9.858428955078123,1.6462620496749878,-2.6392831802368164
1052,52700.0,9.858428955078123,1.6462620496749878,-2.6392831802368164
1053,52800.0,9.858428955078123,1.6462620496749878,-2.6392831802368164
1054,52900.0,10.724631309509276,1.7012970447540283,-3.5676987171173096
1055,53000.0,10.724631309509276,1.7012970447540283,-3.5676987171173096
1056,53100.0,9.968499183654783,1.5122638940811155,-1.902293920516968
1057,53200.0,9.968499183654783,1.5122638940811155,-1.902293920516968
1058,53300.0,8.973085403442383,2.3617160320281982,-0.5647061467170715
1059,53400.0,8.973085403442383,2.3617160320281982,-0.5647061467170715
1060,53500.0,8.973085403442383,2.3617160320281982,-0.5647061467170715
1061,53600.0,8.236095428466799,2.108076810836792,-0.9140582084655762
1062,53700.0,8.236095428466799,2.108076810836792,-0.9140582084655762
1063,53800.0,9.020941734313963,1.9621145725250244,-1.131805181503296
1064,53900.0,9.020941734313963,1.9621145725250244,-1.131805181503296
1065,54000.0,11.016555786132812,1.835294842720032,-2.029113531112671
1066,54100.0,11.016555786132812,1.835294842720032,-2.029113531112671
1067,54200.0,11.016555786132812,1.835294842720032,-2.029113531112671
1068,54300.0,11.509476661682127,1.0767701864242554,-0.6843472719192505
1069,54400.0,11.509476661682127,1.0767701864242554,-0.6843472719192505
1070,54500.0,8.38444995880127,0.4043869972229004,-2.100898265838623
1071,54600.0,8.38444995880127,0.4043869972229004,-2.100898265838623
1072,54700.0,9.375079154968262,0.4187439680099487,-2.3425734043121342
1073,54800.0,9.375079154968262,0.4187439680099487,-2.3425734043121342
1074,54900.0,9.375079154968262,0.4187439680099487,-2.3425734043121342
1075,55000.0,9.169296264648438,0.6987042427062988,-2.830709218978882
1076,55100.0,9.169296264648438,0.6987042427062988,-2.830709218978882
1077,55200.0,7.570890426635742,0.8685945868492126,-3.002992391586304
1078,55300.0,7.570890426635742,0.8685945868492126,-3.002992391586304
1079,55400.0,10.169495582580566,1.4452648162841797,-3.8572301864624015
1080,54000.0,11.016555786132812,1.835294842720032,-2.029113531112671
1081,54100.0,11.016555786132812,1.835294842720032,-2.029113531112671
1082,54200.0,11.016555786132812,1.835294842720032,-2.029113531112671
1083,54300.0,11.509476661682127,1.0767701864242554,-0.6843472719192505
1084,54400.0,11.509476661682127,1.0767701864242554,-0.6843472719192505
1085,54500.0,8.38444995880127,0.4043869972229004,-2.100898265838623
1086,54600.0,8.38444995880127,0.4043869972229004,-2.100898265838623
1087,54700.0,9.375079154968262,0.4187439680099487,-2.3425734043121342
1088,54800.0,9.375079154968262,0.4187439680099487,-2.3425734043121342
1089,54900.0,9.375079154968262,0.4187439680099487,-2.3425734043121342
1090,55000.0,9.169296264648438,0.6987042427062988,-2.830709218978882
1091,55100.0,9.169296264648438,0.6987042427062988,-2.830709218978882
1092,55200.0,7.570890426635742,0.8685945868492126,-3.002992391586304
1093,55300.0,7.570890426635742,0.8685945868492126,-3.002992391586304
1094,55400.0,10.169495582580566,1.4452648162841797,-3.8572301864624015
1095,55500.0,10.169495582580566,1.4452648162841797,-3.8572301864624015
1096,55600.0,10.169495582580566,1.4452648162841797,-3.8572301864624015
1097,55700.0,9.078369140625,0.8327022790908813,-1.1270195245742798
1098,55800.0,9.078369140625,0.8327022790908813,-1.1270195245742798
1099,55900.0,8.848658561706543,0.7920243144035339,-0.7680960297584534
1100,56000.0,8.848658561706543,0.7920243144035339,-0.7680960297584534
1101,56100.0,9.18843936920166,0.2392822504043579,-0.705882728099823
1102,56200.0,9.18843936920166,0.2392822504043579,-0.705882728099823
1103,56300.0,9.18843936920166,0.2392822504043579,-0.705882728099823
1104,56400.0,10.365707397460938,0.397208571434021,-0.8398807048797607
1105,56500.0,10.365707397460938,0.397208571434021,-0.8398807048797607
1106,56600.0,10.054640769958496,0.2512463629245758,-0.9475577473640442
1107,56700.0,10.054640769958496,0.2512463629245758,-0.9475577473640442
1108,56800.0,9.987641334533693,0.2512463629245758,-1.1653046607971191
1109,56900.0,9.987641334533693,0.2512463629245758,-1.1653046607971191
1110,55500.0,10.169495582580566,1.4452648162841797,-3.8572301864624015
1111,55600.0,10.169495582580566,1.4452648162841797,-3.8572301864624015
1112,55700.0,9.078369140625,0.8327022790908813,-1.1270195245742798
1113,55800.0,9.078369140625,0.8327022790908813,-1.1270195245742798
1114,55900.0,8.848658561706543,0.7920243144035339,-0.7680960297584534
1115,56000.0,8.848658561706543,0.7920243144035339,-0.7680960297584534
1116,56100.0,9.18843936920166,0.2392822504043579,-0.705882728099823
1117,56200.0,9.18843936920166,0.2392822504043579,-0.705882728099823
1118,56300.0,9.18843936920166,0.2392822504043579,-0.705882728099823
1119,56400.0,10.365707397460938,0.397208571434021,-0.8398807048797607
1120,56500.0,10.365707397460938,0.397208571434021,-0.8398807048797607
1121,56600.0,10.054640769958496,0.2512463629245758,-0.9475577473640442
1122,56700.0,10.054640769958496,0.2512463629245758,-0.9475577473640442
1123,56800.0,9.987641334533693,0.2512463629245758,-1.1653046607971191
1124,56900.0,9.987641334533693,0.2512463629245758,-1.1653046607971191
1125,57000.0,9.987641334533693,0.2512463629245758,-1.1653046607971191
1126,57100.0,10.011569023132324,-0.20099709928035736,-1.529013752937317
1127,57200.0,10.011569023132324,-0.20099709928035736,-1.529013752937317
1128,57300.0,8.035098075866701,-0.23449662327766416,-0.9762716889381408
1129,57400.0,8.035098075866701,-0.23449662327766416,-0.9762716889381408
1130,57500.0,9.183652877807617,0.0047856452874839315,-1.8927226066589355
1131,57600.0,9.183652877807617,0.0047856452874839315,-1.8927226066589355
1132,57700.0,9.183652877807617,0.0047856452874839315,-1.8927226066589355
1133,57800.0,9.633503913879396,0.7130610942840576,-3.1992037296295166
1134,57900.0,9.633503913879396,0.7130610942840576,-3.1992037296295166
1135,58000.0,11.897113800048828,0.397208571434021,-2.4358932971954346
1136,58100.0,11.897113800048828,0.397208571434021,-2.4358932971954346
1137,58200.0,9.753145217895508,1.2227323055267334,-1.4572290182113647
1138,58300.0,9.753145217895508,1.2227323055267334,-1.4572290182113647
1139,58400.0,9.753145217895508,1.2227323055267334,-1.4572290182113647
1140,57000.0,9.987641334533693,0.2512463629245758,-1.1653046607971191
1141,57100.0,10.011569023132324,-0.20099709928035736,-1.529013752937317
1142,57200.0,10.011569023132324,-0.20099709928035736,-1.529013752937317
1143,57300.0,8.035098075866701,-0.23449662327766416,-0.9762716889381408
1144,57400.0,8.035098075866701,-0.23449662327766416,-0.9762716889381408
1145,57500.0,9.183652877807617,0.0047856452874839315,-1.8927226066589355
1146,57600.0,9.183652877807617,0.0047856452874839315,-1.8927226066589355
1147,57700.0,9.183652877807617,0.0047856452874839315,-1.8927226066589355
1148,57800.0,9.633503913879396,0.7130610942840576,-3.1992037296295166
1149,57900.0,9.633503913879396,0.7130610942840576,-3.1992037296295166
1150,58000.0,11.897113800048828,0.397208571434021,-2.4358932971954346
1151,58100.0,11.897113800048828,0.397208571434021,-2.4358932971954346
1152,58200.0,9.753145217895508,1.2227323055267334,-1.4572290182113647
1153,58300.0,9.753145217895508,1.2227323055267334,-1.4572290182113647
1154,58400.0,9.753145217895508,1.2227323055267334,-1.4572290182113647
1155,58500.0,8.551947593688965,1.7682960033416748,-1.9453648328781128
1156,58600.0,8.551947593688965,1.7682960033416748,-1.9453648328781128
1157,58700.0,8.465806007385254,1.8975083827972408,-2.6081764698028564
1158,58800.0,8.465806007385254,1.8975083827972408,-2.6081764698028564
1159,58900.0,10.212566375732422,1.902293920516968,-2.792424201965332
1160,59000.0,10.212566375732422,1.902293920516968,-2.792424201965332
1161,59100.0,10.212566375732422,1.902293920516968,-2.792424201965332
1162,59200.0,11.155338287353516,0.9212367534637452,-2.249253273010254
1163,59300.0,11.155338287353516,0.9212367534637452,-2.249253273010254
1164,59400.0,8.906085968017578,0.14835500717163086,-2.380858421325684
1165,59500.0,8.906085968017578,0.14835500717163086,-2.380858421325684
1166,59600.0,8.216952323913574,0.11964112520217896,-2.476571559906006
1167,59700.0,8.216952323913574,0.11964112520217896,-2.476571559906006
1168,59800.0,9.016156196594238,0.8949156999588013,-3.1585259437561035
1169,59900.0,9.016156196594238,0.8949156999588013,-3.1585259437561035
1170,58500.0,8.551947593688965,1.7682960033416748,-1.9453648328781128
1171,58600.0,8.551947593688965,1.7682960033416748,-1.9453648328781128
1172,58700.0,8.465806007385254,1.8975083827972408,-2.6081764698028564
1173,58800.0,8.465806007385254,1.8975083827972408,-2.6081764698028564
1174,58900.0,10.212566375732422,1.902293920516968,-2.792424201965332
1175,59000.0,10.212566375732422,1.902293920516968,-2.792424201965332
1176,59100.0,10.212566375732422,1.902293920516968,-2.792424201965332
1177,59200.0,11.155338287353516,0.9212367534637452,-2.249253273010254
1178,59300.0,11.155338287353516,0.9212367534637452,-2.249253273010254
1179,59400.0,8.906085968017578,0.14835500717163086,-2.380858421325684
1180,59500.0,8.906085968017578,0.14835500717163086,-2.380858421325684
1181,59600.0,8.216952323913574,0.11964112520217896,-2.476571559906006
1182,59700.0,8.216952323913574,0.11964112520217896,-2.476571559906006
1183,59800.0,9.016156196594238,0.8949156999588013,-3.1585259437561035
1184,59900.0,9.016156196594238,0.8949156999588013,-3.1585259437561035
1185,60000.0,9.016156196594238,0.8949156999588013,-3.1585259437561035
1186,60100.0,9.06879711151123,1.1270195245742798,-3.0987055301666264
1187,60200.0,9.06879711151123,1.1270195245742798,-3.0987055301666264
1188,60300.0,11.0835542678833,1.6031911373138428,-2.7828526496887207
1189,60400.0,11.0835542678833,1.6031911373138428,-2.7828526496887207
1190,60500.0,10.557132720947266,1.1748759746551514,-1.4787644147872925
1191,60600.0,10.557132720947266,1.1748759746551514,-1.4787644147872925
1192,60700.0,10.557132720947266,1.1748759746551514,-1.4787644147872925
1193,60800.0,7.915457248687744,1.813759446144104,-1.0791629552841189
1194,60900.0,7.915457248687744,1.813759446144104,-1.0791629552841189
1195,61000.0,9.10229778289795,2.1655044555664062,-0.935593605041504
1196,61100.0,9.10229778289795,2.1655044555664062,-0.935593605041504
1197,61200.0,9.820144653320312,1.8113667964935305,-2.1726830005645748
1198,61300.0,9.820144653320312,1.8113667964935305,-2.1726830005645748
1199,61400.0,10.85862922668457,2.390429735183716,-2.0889341831207275
1200,60000.0,9.016156196594238,0.8949156999588013,-3.1585259437561035
1201,60100.0,9.06879711151123,1.1270195245742798,-3.0987055301666264
1202,60200.0,9.06879711151123,1.1270195245742798,-3.0987055301666264
1203,60300.0,11.0835542678833,1.6031911373138428,-2.7828526496887207
1204,60400.0,11.0835542678833,1.6031911373138428,-2.7828526496887207
1205,60500.0,10.557132720947266,1.1748759746551514,-1.4787644147872925
1206,60600.0,10.557132720947266,1.1748759746551514,-1.4787644147872925
1207,60700.0,10.557132720947266,1.1748759746551514,-1.4787644147872925
1208,60800.0,7.915457248687744,1.813759446144104,-1.0791629552841189
1209,60900.0,7.915457248687744,1.813759446144104,-1.0791629552841189
1210,61000.0,9.10229778289795,2.1655044555664062,-0.935593605041504
1211,61100.0,9.10229778289795,2.1655044555664062,-0.935593605041504
1212,61200.0,9.820144653320312,1.8113667964935305,-2.1726830005645748
1213,61300.0,9.820144653320312,1.8113667964935305,-2.1726830005645748
1214,61400.0,10.85862922668457,2.390429735183716,-2.0889341831207275
1215,61500.0,10.85862922668457,2.390429735183716,-2.0889341831207275
1216,61600.0,10.85862922668457,2.390429735183716,-2.0889341831207275
1217,61700.0,10.03549861907959,0.6819544434547424,-2.00518536567688
1218,61800.0,10.03549861907959,0.6819544434547424,-2.00518536567688
1219,61900.0,7.7048888206481925,-0.3780659735202789,-2.1750757694244385
1220,62000.0,7.7048888206481925,-0.3780659735202789,-2.1750757694244385
1221,62100.0,7.7048888206481925,-0.3780659735202789,-2.1750757694244385
1222,62200.0,8.71466064453125,0.39960137009620667,-2.3784656524658203
1223,62300.0,8.71466064453125,0.39960137009620667,-2.3784656524658203
1224,62400.0,8.934800148010254,1.1629117727279663,-2.8977081775665283
1225,62500.0,8.934800148010254,1.1629117727279663,-2.8977081775665283
1226,62600.0,9.42772102355957,1.06480610370636,-3.4360933303833012
1227,62700.0,9.42772102355957,1.06480610370636,-3.4360933303833012
1228,62800.0,9.820144653320312,1.7682960033416748,-2.266003131866455
1229,62900.0,9.820144653320312,1.7682960033416748,-2.266003131866455
1230,61500.0,10.85862922668457,2.390429735183716,-2.0889341831207275
1231,61600.0,10.85862922668457,2.390429735183716,-2.0889341831207275
1232,61700.0,10.03549861907959,0.6819544434547424,-2.00518536567688
1233,61800.0,10.03549861907959,0.6819544434547424,-2.00518536567688
1234,61900.0,7.7048888206481925,-0.3780659735202789,-2.1750757694244385
1235,62000.0,7.7048888206481925,-0.3780659735202789,-2.1750757694244385
1236,62100.0,7.7048888206481925,-0.3780659735202789,-2.1750757694244385
1237,62200.0,8.71466064453125,0.39960137009620667,-2.3784656524658203
1238,62300.0,8.71466064453125,0.39960137009620667,-2.3784656524658203
1239,62400.0,8.934800148010254,1.1629117727279663,-2.8977081775665283
1240,62500.0,8.934800148010254,1.1629117727279663,-2.8977081775665283
1241,62600.0,9.42772102355957,1.06480610370636,-3.4360933303833012
1242,62700.0,9.42772102355957,1.06480610370636,-3.4360933303833012
1243,62800.0,9.820144653320312,1.7682960033416748,-2.266003131866455
1244,62900.0,9.820144653320312,1.7682960033416748,-2.266003131866455
1245,63000.0,9.820144653320312,1.7682960033416748,-2.266003131866455
1246,63100.0,10.303494453430176,1.9262222051620483,-0.8518448472023009
1247,63200.0,10.303494453430176,1.9262222051620483,-0.8518448472023009
1248,63300.0,9.06401252746582,1.9932212829589844,-0.6699903011322021
1249,63400.0,9.06401252746582,1.9932212829589844,-0.6699903011322021
1250,63500.0,8.307880401611326,0.20338992774486545,-2.3425734043121342
1251,63600.0,8.307880401611326,0.20338992774486545,-2.3425734043121342
1252,63700.0,8.307880401611326,0.20338992774486545,-2.3425734043121342
1253,63800.0,9.78664493560791,0.6029912829399109,-2.6009981632232666
1254,63900.0,9.78664493560791,0.6029912829399109,-2.6009981632232666
1255,64000.0,10.762916564941406,0.03589234128594398,-2.3569302558898926
1256,64100.0,10.762916564941406,0.03589234128594398,-2.3569302558898926
1257,64200.0,8.776873588562013,-0.20817556977272034,-2.5938196182250977
1258,64300.0,8.776873588562013,-0.20817556977272034,-2.5938196182250977
1259,64400.0,8.776873588562013,-0.20817556977272034,-2.5938196182250977
1260,63000.0,9.820144653320312,1.7682960033416748,-2.266003131866455
1261,63100.0,10.303494453430176,1.9262222051620483,-0.8518448472023009
1262,63200.0,10.303494453430176,1.9262222051620483,-0.8518448472023009
1263,63300.0,9.06401252746582,1.9932212829589844,-0.6699903011322021
1264,63400.0,9.06401252746582,1.9932212829589844,-0.6699903011322021
1265,63500.0,8.307880401611326,0.20338992774486545,-2.3425734043121342
1266,63600.0,8.307880401611326,0.20338992774486545,-2.3425734043121342
1267,63700.0,8.307880401611326,0.20338992774486545,-2.3425734043121342
1268,63800.0,9.78664493560791,0.6029912829399109,-2.6009981632232666
1269,63900.0,9.78664493560791,0.6029912829399109,-2.6009981632232666
1270,64000.0,10.762916564941406,0.03589234128594398,-2.3569302558898926
1271,64100.0,10.762916564941406,0.03589234128594398,-2.3569302558898926
1272,64200.0,8.776873588562013,-0.20817556977272034,-2.5938196182250977
1273,64300.0,8.776873588562013,-0.20817556977272034,-2.5938196182250977
1274,64400.0,8.776873588562013,-0.20817556977272034,-2.5938196182250977
1275,64500.0,9.245866775512695,-0.8590233325958252,-2.493321180343628
1276,64600.0,9.245866775512695,-0.8590233325958252,-2.493321180343628
1277,64700.0,7.982456684112549,-0.5838487148284912,-2.7661027908325195
1278,64800.0,7.982456684112549,-0.5838487148284912,-2.7661027908325195
1279,64900.0,7.982456684112549,-0.5838487148284912,-2.7661027908325195
1280,65000.0,7.29810905456543,-0.07178468257188797,-3.6251261234283447
1281,65100.0,7.29810905456543,-0.07178468257188797,-3.6251261234283447
1282,65200.0,10.202995300292967,0.03828516229987145,-4.005585193634033
1283,65300.0,10.202995300292967,0.03828516229987145,-4.005585193634033
1284,65400.0,10.155139923095703,0.7274181246757507,-2.423929214477539
1285,65500.0,10.155139923095703,0.7274181246757507,-2.423929214477539
1286,65600.0,9.164510726928713,2.0362920761108403,-1.3280165195465088
1287,65700.0,9.164510726928713,2.0362920761108403,-1.3280165195465088
1288,65800.0,9.164510726928713,2.0362920761108403,-1.3280165195465088
1289,65900.0,9.456435203552246,2.2085752487182617,-1.3136597871780396
1290,64500.0,9.245866775512695,-0.8590233325958252,-2.493321180343628
1291,64600.0,9.245866775512695,-0.8590233325958252,-2.493321180343628
1292,64700.0,7.982456684112549,-0.5838487148284912,-2.7661027908325195
1293,64800.0,7.982456684112549,-0.5838487148284912,-2.7661027908325195
1294,64900.0,7.982456684112549,-0.5838487148284912,-2.7661027908325195
1295,65000.0,7.29810905456543,-0.07178468257188797,-3.6251261234283447
1296,65100.0,7.29810905456543,-0.07178468257188797,-3.6251261234283447
1297,65200.0,10.202995300292967,0.03828516229987145,-4.005585193634033
1298,65300.0,10.202995300292967,0.03828516229987145,-4.005585193634033
1299,65400.0,10.155139923095703,0.7274181246757507,-2.423929214477539
1300,65500.0,10.155139923095703,0.7274181246757507,-2.423929214477539
1301,65600.0,9.164510726928713,2.0362920761108403,-1.3280165195465088
1302,65700.0,9.164510726928713,2.0362920761108403,-1.3280165195465088
1303,65800.0,9.164510726928713,2.0362920761108403,-1.3280165195465088
1304,65900.0,9.456435203552246,2.2085752487182617,-1.3136597871780396
1305,66000.0,9.456435203552246,2.2085752487182617,-1.3136597871780396
1306,66100.0,9.74835968017578,1.739582061767578,-1.4811571836471558
1307,66200.0,9.74835968017578,1.739582061767578,-1.4811571836471558
1308,66300.0,9.74835968017578,1.739582061767578,-1.4811571836471558
1309,66400.0,8.910871505737305,1.514656662940979,-2.1224336624145512
1310,66500.0,8.910871505737305,1.514656662940979,-2.1224336624145512
1311,66600.0,11.097911834716797,1.380658507347107,-3.086741209030152
1312,66700.0,11.097911834716797,1.380658507347107,-3.086741209030152
1313,66800.0,9.236295700073242,0.0526420958340168,-2.6536402702331543
1314,66900.0,9.236295700073242,0.0526420958340168,-2.6536402702331543
1315,67000.0,7.341179370880128,1.3328022956848145,-1.5337992906570437
1316,67100.0,7.341179370880128,1.3328022956848145,-1.5337992906570437
1317,67200.0,7.341179370880128,1.3328022956848145,-1.5337992906570437
1318,67300.0,9.62393283843994,0.30149564146995544,-3.548555850982666
1319,67400.0,9.62393283843994,0.30149564146995544,-3.548555850982666
1320,66000.0,9.456435203552246,2.2085752487182617,-1.3136597871780396
1321,66100.0,9.74835968017578,1.739582061767578,-1.4811571836471558
1322,66200.0,9.74835968017578,1.739582061767578,-1.4811571836471558
1323,66300.0,9.74835968017578,1.739582061767578,-1.4811571836471558
1324,66400.0,8.910871505737305,1.514656662940979,-2.1224336624145512
1325,66500.0,8.910871505737305,1.514656662940979,-2.1224336624145512
1326,66600.0,11.097911834716797,1.380658507347107,-3.086741209030152
1327,66700.0,11.097911834716797,1.380658507347107,-3.086741209030152
1328,66800.0,9.236295700073242,0.0526420958340168,-2.6536402702331543
1329,66900.0,9.236295700073242,0.0526420958340168,-2.6536402702331543
1330,67000.0,7.341179370880128,1.3328022956848145,-1.5337992906570437
1331,67100.0,7.341179370880128,1.3328022956848145,-1.5337992906570437
1332,67200.0,7.341179370880128,1.3328022956848145,-1.5337992906570437
1333,67300.0,9.62393283843994,0.30149564146995544,-3.548555850982666
1334,67400.0,9.62393283843994,0.30149564146995544,-3.548555850982666
1335,67500.0,8.786444664001465,-0.3086740970611572,-3.1441688537597656
1336,67600.0,8.786444664001465,-0.3086740970611572,-3.1441688537597656
1337,67700.0,11.787044525146484,-0.7896314859390259,-0.6580261588096619
1338,67800.0,11.787044525146484,-0.7896314859390259,-0.6580261588096619
1339,67900.0,11.787044525146484,-0.7896314859390259,-0.6580261588096619
1340,68000.0,9.62393283843994,-1.368694543838501,1.3040882349014282
1341,68100.0,9.62393283843994,-1.368694543838501,1.3040882349014282
1342,68200.0,9.614361763000488,0.7393822073936462,-1.2227323055267334
1343,68300.0,9.614361763000488,0.7393822073936462,-1.2227323055267334
1344,68400.0,9.035298347473145,1.1126624345779421,-2.0961124897003174
1345,68500.0,9.035298347473145,1.1126624345779421,-2.0961124897003174
1346,68600.0,11.432907104492188,0.9427721500396729,-2.2683956623077397
1347,68700.0,11.432907104492188,0.9427721500396729,-2.2683956623077397
1348,68800.0,11.432907104492188,0.9427721500396729,-2.2683956623077397
1349,68900.0,8.465806007385254,-1.191625714302063,-2.4741785526275635
1350,67500.0,8.786444664001465,-0.3086740970611572,-3.1441688537597656
1351,67600.0,8.786444664001465,-0.3086740970611572,-3.1441688537597656
1352,67700.0,11.787044525146484,-0.7896314859390259,-0.6580261588096619
1353,67800.0,11.787044525146484,-0.7896314859390259,-0.6580261588096619
1354,67900.0,11.787044525146484,-0.7896314859390259,-0.6580261588096619
1355,68000.0,9.62393283843994,-1.368694543838501,1.3040882349014282
1356,68100.0,9.62393283843994,-1.368694543838501,1.3040882349014282
1357,68200.0,9.614361763000488,0.7393822073936462,-1.2227323055267334
1358,68300.0,9.614361763000488,0.7393822073936462,-1.2227323055267334
1359,68400.0,9.035298347473145,1.1126624345779421,-2.0961124897003174
1360,68500.0,9.035298347473145,1.1126624345779421,-2.0961124897003174
1361,68600.0,11.432907104492188,0.9427721500396729,-2.2683956623077397
1362,68700.0,11.432907104492188,0.9427721500396729,-2.2683956623077397
1363,68800.0,11.432907104492188,0.9427721500396729,-2.2683956623077397
1364,68900.0,8.465806007385254,-1.191625714302063,-2.4741785526275635
1365,69000.0,8.465806007385254,-1.191625714302063,-2.4741785526275635
1366,69100.0,8.872586250305176,1.3854442834854126,-2.543570280075073
1367,69200.0,8.872586250305176,1.3854442834854126,-2.543570280075073
1368,69300.0,9.049654960632324,1.062413215637207,-3.0197420120239262
1369,69400.0,9.049654960632324,1.062413215637207,-3.0197420120239262
1370,69500.0,10.423135757446287,0.6747759580612183,-2.359323024749756
1371,69600.0,10.423135757446287,0.6747759580612183,-2.359323024749756
1372,69700.0,10.423135757446287,0.6747759580612183,-2.359323024749756
1373,69800.0,10.001997947692873,0.3732803165912628,-1.1509476900100708
1374,69900.0,10.001997947692873,0.3732803165912628,-1.1509476900100708
1375,70000.0,9.241080284118652,0.9571290016174316,-0.9810572862625122
1376,70100.0,9.241080284118652,0.9571290016174316,-0.9810572862625122
1377,70200.0,9.140583038330078,1.581655740737915,-1.5074783563613892
1378,70300.0,9.140583038330078,1.581655740737915,-1.5074783563613892
1379,70400.0,9.140583038330078,1.581655740737915,-1.5074783563613892
1380,69000.0,8.465806007385254,-1.191625714302063,-2.4741785526275635
1381,69100.0,8.872586250305176,1.3854442834854126,-2.543570280075073
1382,69200.0,8.872586250305176,1.3854442834854126,-2.543570280075073
1383,69300.0,9.049654960632324,1.062413215637207,-3.0197420120239262
1384,69400.0,9.049654960632324,1.062413215637207,-3.0197420120239262
1385,69500.0,10.423135757446287,0.6747759580612183,-2.359323024749756
1386,69600.0,10.423135757446287,0.6747759580612183,-2.359323024749756
1387,69700.0,10.423135757446287,0.6747759580612183,-2.359323024749756
1388,69800.0,10.001997947692873,0.3732803165912628,-1.1509476900100708
1389,69900.0,10.001997947692873,0.3732803165912628,-1.1509476900100708
1390,70000.0,9.241080284118652,0.9571290016174316,-0.9810572862625122
1391,70100.0,9.241080284118652,0.9571290016174316,-0.9810572862625122
1392,70200.0,9.140583038330078,1.581655740737915,-1.5074783563613892
1393,70300.0,9.140583038330078,1.581655740737915,-1.5074783563613892
1394,70400.0,9.140583038330078,1.581655740737915,-1.5074783563613892
1395,70500.0,8.992227554321289,1.9501504898071291,-2.4095723628997803
1396,70600.0,8.992227554321289,1.9501504898071291,-2.4095723628997803
1397,70700.0,10.030712127685547,1.9118653535842896,-2.96949315071106
1398,70800.0,10.030712127685547,1.9118653535842896,-2.96949315071106
1399,70900.0,10.07378387451172,1.1150553226470947,-2.4430718421936035
1400,71000.0,10.07378387451172,1.1150553226470947,-2.4430718421936035
1401,71100.0,10.07378387451172,1.1150553226470947,-2.4430718421936035
1402,71200.0,9.824929237365724,1.1772687435150146,-2.560320377349853
1403,71300.0,9.824929237365724,1.1772687435150146,-2.560320377349853
1404,71400.0,7.365108013153076,1.0743772983551023,-1.7635102272033691
1405,71500.0,7.365108013153076,1.0743772983551023,-1.7635102272033691
1406,71600.0,9.073582649230957,1.3112668991088867,-3.0939197540283203
1407,71700.0,9.073582649230957,1.3112668991088867,-3.0939197540283203
1408,71800.0,9.073582649230957,1.3112668991088867,-3.0939197540283203
1409,71900.0,9.442078590393066,1.3304094076156616,-2.9671001434326167
1410,70500.0,8.992227554321289,1.9501504898071291,-2.4095723628997803
1411,70600.0,8.992227554321289,1.9501504898071291,-2.4095723628997803
1412,70700.0,10.030712127685547,1.9118653535842896,-2.96949315071106
1413,70800.0,10.030712127685547,1.9118653535842896,-2.96949315071106
1414,70900.0,10.07378387451172,1.1150553226470947,-2.4430718421936035
1415,71000.0,10.07378387451172,1.1150553226470947,-2.4430718421936035
1416,71100.0,10.07378387451172,1.1150553226470947,-2.4430718421936035
1417,71200.0,9.824929237365724,1.1772687435150146,-2.560320377349853
1418,71300.0,9.824929237365724,1.1772687435150146,-2.560320377349853
1419,71400.0,7.365108013153076,1.0743772983551023,-1.7635102272033691
1420,71500.0,7.365108013153076,1.0743772983551023,-1.7635102272033691
1421,71600.0,9.073582649230957,1.3112668991088867,-3.0939197540283203
1422,71700.0,9.073582649230957,1.3112668991088867,-3.0939197540283203
1423,71800.0,9.073582649230957,1.3112668991088867,-3.0939197540283203
1424,71900.0,9.442078590393066,1.3304094076156616,-2.9671001434326167
1425,72000.0,9.442078590393066,1.3304094076156616,-2.9671001434326167
1426,72100.0,10.504491806030273,1.308874011039734,-2.1846470832824707
1427,72200.0,10.504491806030273,1.308874011039734,-2.1846470832824707
1428,72300.0,9.523433685302734,2.462214469909668,-2.187039852142334
1429,72400.0,9.523433685302734,2.462214469909668,-2.187039852142334
1430,72500.0,9.523433685302734,2.462214469909668,-2.187039852142334
1431,72600.0,8.169095993041992,2.227717876434326,-1.7491532564163208
1432,72700.0,8.169095993041992,2.227717876434326,-1.7491532564163208
1433,72800.0,8.346165657043457,1.9812570810317995,-1.9501504898071291
1434,72900.0,8.346165657043457,1.9812570810317995,-1.9501504898071291
1435,73000.0,9.360722541809082,1.931007981300354,-2.2396819591522217
1436,73100.0,9.360722541809082,1.931007981300354,-2.2396819591522217
1437,73200.0,9.360722541809082,1.931007981300354,-2.2396819591522217
1438,73300.0,11.265408515930176,1.4045867919921875,-1.9884356260299685
1439,73400.0,11.265408515930176,1.4045867919921875,-1.9884356260299685
1440,72000.0,9.442078590393066,1.3304094076156616,-2.9671001434326167
1441,72100.0,10.504491806030273,1.308874011039734,-2.1846470832824707
1442,72200.0,10.504491806030273,1.308874011039734,-2.1846470832824707
1443,72300.0,9.523433685302734,2.462214469909668,-2.187039852142334
1444,72400.0,9.523433685302734,2.462214469909668,-2.187039852142334
1445,72500.0,9.523433685302734,2.462214469909668,-2.187039852142334
1446,72600.0,8.169095993041992,2.227717876434326,-1.7491532564163208
1447,72700.0,8.169095993041992,2.227717876434326,-1.7491532564163208
1448,72800.0,8.346165657043457,1.9812570810317995,-1.9501504898071291
1449,72900.0,8.346165657043457,1.9812570810317995,-1.9501504898071291
1450,73000.0,9.360722541809082,1.931007981300354,-2.2396819591522217
1451,73100.0,9.360722541809082,1.931007981300354,-2.2396819591522217
1452,73200.0,9.360722541809082,1.931007981300354,-2.2396819591522217
1453,73300.0,11.265408515930176,1.4045867919921875,-1.9884356260299685
1454,73400.0,11.265408515930176,1.4045867919921875,-1.9884356260299685
1455,73500.0,8.508876800537111,-0.4091726541519165,-1.581655740737915
1456,73600.0,8.508876800537111,-0.4091726541519165,-1.581655740737915
1457,73700.0,8.111669540405272,0.23449662327766416,-2.100898265838623
1458,73800.0,8.111669540405272,0.23449662327766416,-2.100898265838623
1459,73900.0,8.111669540405272,0.23449662327766416,-2.100898265838623
1460,74000.0,9.135796546936037,0.4426721632480621,-2.8187451362609863
1461,74100.0,9.135796546936037,0.4426721632480621,-2.8187451362609863
1462,74200.0,9.087940216064453,0.906879723072052,-3.1752755641937256
1463,74300.0,9.087940216064453,0.906879723072052,-3.1752755641937256
1464,74400.0,9.135796546936037,1.4189438819885254,-3.005385160446167
1465,74500.0,9.135796546936037,1.4189438819885254,-3.005385160446167
1466,74600.0,9.135796546936037,1.4189438819885254,-3.005385160446167
1467,74700.0,10.207781791687012,1.6965112686157229,-2.1846470832824707
1468,74800.0,10.207781791687012,1.6965112686157229,-2.1846470832824707
1469,74900.0,9.116654396057127,1.5960125923156738,-1.722832441329956
1470,73500.0,8.508876800537111,-0.4091726541519165,-1.581655740737915
1471,73600.0,8.508876800537111,-0.4091726541519165,-1.581655740737915
1472,73700.0,8.111669540405272,0.23449662327766416,-2.100898265838623
1473,73800.0,8.111669540405272,0.23449662327766416,-2.100898265838623
1474,73900.0,8.111669540405272,0.23449662327766416,-2.100898265838623
1475,74000.0,9.135796546936037,0.4426721632480621,-2.8187451362609863
1476,74100.0,9.135796546936037,0.4426721632480621,-2.8187451362609863
1477,74200.0,9.087940216064453,0.906879723072052,-3.1752755641937256
1478,74300.0,9.087940216064453,0.906879723072052,-3.1752755641937256
1479,74400.0,9.135796546936037,1.4189438819885254,-3.005385160446167
1480,74500.0,9.135796546936037,1.4189438819885254,-3.005385160446167
1481,74600.0,9.135796546936037,1.4189438819885254,-3.005385160446167
1482,74700.0,10.207781791687012,1.6965112686157229,-2.1846470832824707
1483,74800.0,10.207781791687012,1.6965112686157229,-2.1846470832824707
1484,74900.0,9.116654396057127,1.5960125923156738,-1.722832441329956
1485,75000.0,9.116654396057127,1.5960125923156738,-1.722832441329956
1486,75100.0,9.030512809753418,1.6175479888916016,-1.294516921043396
1487,75200.0,9.030512809753418,1.6175479888916016,-1.294516921043396
1488,75300.0,9.030512809753418,1.6175479888916016,-1.294516921043396
1489,75400.0,8.987441062927246,2.007578134536743,-1.2083754539489746
1490,75500.0,8.987441062927246,2.007578134536743,-1.2083754539489746
1491,75600.0,9.667003631591797,1.7539390325546265,-2.050648927688598
1492,75700.0,9.667003631591797,1.7539390325546265,-2.050648927688598
1493,75800.0,9.968499183654783,1.7682960033416748,-1.4668002128601074
1494,75900.0,9.968499183654783,1.7682960033416748,-1.4668002128601074
1495,76000.0,11.825328826904295,1.3375877141952517,-2.069791555404663
1496,76100.0,11.825328826904295,1.3375877141952517,-2.069791555404663
1497,76200.0,7.52303409576416,0.33738797903060913,-2.2133607864379883
1498,76300.0,7.52303409576416,0.33738797903060913,-2.2133607864379883
1499,76400.0,7.2885379791259775,1.0671988725662231,-1.8305093050003047
1500,75000.0,9.116654396057127,1.5960125923156738,-1.722832441329956
1501,75100.0,9.030512809753418,1.6175479888916016,-1.294516921043396
1502,75200.0,9.030512809753418,1.6175479888916016,-1.294516921043396
1503,75300.0,9.030512809753418,1.6175479888916016,-1.294516921043396
1504,75400.0,8.987441062927246,2.007578134536743,-1.2083754539489746
1505,75500.0,8.987441062927246,2.007578134536743,-1.2083754539489746
1506,75600.0,9.667003631591797,1.7539390325546265,-2.050648927688598
1507,75700.0,9.667003631591797,1.7539390325546265,-2.050648927688598
1508,75800.0,9.968499183654783,1.7682960033416748,-1.4668002128601074
1509,75900.0,9.968499183654783,1.7682960033416748,-1.4668002128601074
1510,76000.0,11.825328826904295,1.3375877141952517,-2.069791555404663
1511,76100.0,11.825328826904295,1.3375877141952517,-2.069791555404663
1512,76200.0,7.52303409576416,0.33738797903060913,-2.2133607864379883
1513,76300.0,7.52303409576416,0.33738797903060913,-2.2133607864379883
1514,76400.0,7.2885379791259775,1.0671988725662231,-1.8305093050003047
1515,76500.0,7.2885379791259775,1.0671988725662231,-1.8305093050003047
1516,76600.0,7.2885379791259775,1.0671988725662231,-1.8305093050003047
1517,76700.0,9.336793899536133,1.6031911373138428,-2.1655044555664062
1518,76800.0,9.336793899536133,1.6031911373138428,-2.1655044555664062
1519,76900.0,9.293723106384276,1.722832441329956,-2.8546373844146733
1520,77000.0,9.293723106384276,1.722832441329956,-2.8546373844146733
1521,77100.0,9.590433120727539,1.8376877307891848,-2.514856576919556
1522,77200.0,9.590433120727539,1.8376877307891848,-2.514856576919556
1523,77300.0,9.590433120727539,1.8376877307891848,-2.514856576919556
1524,77400.0,10.207781791687012,1.6151552200317385,-2.5076780319213867
1525,77500.0,10.207781791687012,1.6151552200317385,-2.5076780319213867
1526,77600.0,9.92542839050293,1.4811571836471558,-1.7252250909805298
1527,77700.0,9.92542839050293,1.4811571836471558,-1.7252250909805298
1528,77800.0,7.925028324127197,1.797009825706482,-1.3830513954162598
1529,77900.0,7.925028324127197,1.797009825706482,-1.3830513954162598
1530,76500.0,7.2885379791259775,1.0671988725662231,-1.8305093050003047
1531,76600.0,7.2885379791259775,1.0671988725662231,-1.8305093050003047
1532,76700.0,9.336793899536133,1.6031911373138428,-2.1655044555664062
1533,76800.0,9.336793899536133,1.6031911373138428,-2.1655044555664062
1534,76900.0,9.293723106384276,1.722832441329956,-2.8546373844146733
1535,77000.0,9.293723106384276,1.722832441329956,-2.8546373844146733
1536,77100.0,9.590433120727539,1.8376877307891848,-2.514856576919556
1537,77200.0,9.590433120727539,1.8376877307891848,-2.514856576919556
1538,77300.0,9.590433120727539,1.8376877307891848,-2.514856576919556
1539,77400.0,10.207781791687012,1.6151552200317385,-2.5076780319213867
1540,77500.0,10.207781791687012,1.6151552200317385,-2.5076780319213867
1541,77600.0,9.92542839050293,1.4811571836471558,-1.7252250909805298
1542,77700.0,9.92542839050293,1.4811571836471558,-1.7252250909805298
1543,77800.0,7.925028324127197,1.797009825706482,-1.3830513954162598
1544,77900.0,7.925028324127197,1.797009825706482,-1.3830513954162598
1545,78000.0,8.164310455322267,1.7204395532608032,-1.6582260131835938
1546,78100.0,8.164310455322267,1.7204395532608032,-1.6582260131835938
1547,78200.0,8.164310455322267,1.7204395532608032,-1.6582260131835938
1548,78300.0,9.772287368774414,2.029113531112671,-1.428515076637268
1549,78400.0,9.772287368774414,2.029113531112671,-1.428515076637268
1550,78500.0,10.207781791687012,1.9118653535842896,-2.3401806354522705
1551,78600.0,10.207781791687012,1.9118653535842896,-2.3401806354522705
1552,78700.0,10.207781791687012,1.9118653535842896,-2.3401806354522705
1553,78800.0,10.997413635253906,2.266003131866455,-2.115255117416382
1554,78900.0,10.997413635253906,2.266003131866455,-2.115255117416382
1555,79000.0,10.762916564941406,1.2681961059570312,-2.47896409034729
1556,79100.0,10.762916564941406,1.2681961059570312,-2.47896409034729
1557,79200.0,7.52303409576416,0.4211367666721344,-1.959721684455872
1558,79300.0,7.52303409576416,0.4211367666721344,-1.959721684455872
1559,79400.0,7.52303409576416,0.4211367666721344,-1.959721684455872
1560,78000.0,8.164310455322267,1.7204395532608032,-1.6582260131835938
1561,78100.0,8.164310455322267,1.7204395532608032,-1.6582260131835938
1562,78200.0,8.164310455322267,1.7204395532608032,-1.6582260131835938
1563,78300.0,9.772287368774414,2.029113531112671,-1.428515076637268
1564,78400.0,9.772287368774414,2.029113531112671,-1.428515076637268
1565,78500.0,10.207781791687012,1.9118653535842896,-2.3401806354522705
1566,78600.0,10.207781791687012,1.9118653535842896,-2.3401806354522705
1567,78700.0,10.207781791687012,1.9118653535842896,-2.3401806354522705
1568,78800.0,10.997413635253906,2.266003131866455,-2.115255117416382
1569,78900.0,10.997413635253906,2.266003131866455,-2.115255117416382
1570,79000.0,10.762916564941406,1.2681961059570312,-2.47896409034729
1571,79100.0,10.762916564941406,1.2681961059570312,-2.47896409034729
1572,79200.0,7.52303409576416,0.4211367666721344,-1.959721684455872
1573,79300.0,7.52303409576416,0.4211367666721344,-1.959721684455872
1574,79400.0,7.52303409576416,0.4211367666721344,-1.959721684455872
1575,79500.0,8.532805442810059,0.5264209508895874,-2.8115665912628174
1576,79600.0,8.532805442810059,0.5264209508895874,-2.8115665912628174
1577,79700.0,9.91107177734375,1.0839486122131348,-3.1944179534912114
1578,79800.0,9.91107177734375,1.0839486122131348,-3.1944179534912114
1579,79900.0,9.949356079101562,2.3545374870300293,-3.0221347808837886
1580,80000.0,9.949356079101562,2.3545374870300293,-3.0221347808837886
1581,80100.0,10.059426307678224,1.56251323223114,-3.0747771263122563
1582,80200.0,10.059426307678224,1.56251323223114,-3.0747771263122563
1583,80300.0,10.059426307678224,1.56251323223114,-3.0747771263122563
1584,80400.0,9.968499183654783,1.191625714302063,-1.2370892763137815
1585,80500.0,9.968499183654783,1.191625714302063,-1.2370892763137815
1586,80600.0,8.800802230834961,2.091326951980591,-1.0193424224853516
1587,80700.0,8.800802230834961,2.091326951980591,-1.0193424224853516
1588,80800.0,7.99681282043457,1.7443678379058838,-1.4333008527755735
1589,80900.0,7.99681282043457,1.7443678379058838,-1.4333008527755735
1590,79500.0,8.532805442810059,0.5264209508895874,-2.8115665912628174
1591,79600.0,8.532805442810059,0.5264209508895874,-2.8115665912628174
1592,79700.0,9.91107177734375,1.0839486122131348,-3.1944179534912114
1593,79800.0,9.91107177734375,1.0839486122131348,-3.1944179534912114
1594,79900.0,9.949356079101562,2.3545374870300293,-3.0221347808837886
1595,80000.0,9.949356079101562,2.3545374870300293,-3.0221347808837886
1596,80100.0,10.059426307678224,1.56251323223114,-3.0747771263122563
1597,80200.0,10.059426307678224,1.56251323223114,-3.0747771263122563
1598,80300.0,10.059426307678224,1.56251323223114,-3.0747771263122563
1599,80400.0,9.968499183654783,1.191625714302063,-1.2370892763137815
1600,80500.0,9.968499183654783,1.191625714302063,-1.2370892763137815
1601,80600.0,8.800802230834961,2.091326951980591,-1.0193424224853516
1602,80700.0,8.800802230834961,2.091326951980591,-1.0193424224853516
1603,80800.0,7.99681282043457,1.7443678379058838,-1.4333008527755735
1604,80900.0,7.99681282043457,1.7443678379058838,-1.4333008527755735
1605,81000.0,7.99681282043457,1.7443678379058838,-1.4333008527755735
1606,81100.0,9.781858444213867,2.234896183013916,-1.983649969100952
1607,81200.0,9.781858444213867,2.234896183013916,-1.983649969100952
1608,81300.0,11.743972778320312,1.6247265338897705,-1.5481561422348022
1609,81400.0,11.743972778320312,1.6247265338897705,-1.5481561422348022
1610,81500.0,11.743972778320312,1.6247265338897705,-1.5481561422348022
1611,81600.0,10.552348136901855,0.9667003750801086,-0.6364907622337341
1612,81700.0,10.552348136901855,0.9667003750801086,-0.6364907622337341
1613,81800.0,8.082954406738281,0.42831525206565857,-2.8977081775665283
1614,81900.0,8.082954406738281,0.42831525206565857,-2.8977081775665283
1615,82000.0,9.078369140625,0.8901299238204956,-3.2207393646240234
1616,82100.0,9.078369140625,0.8901299238204956,-3.2207393646240234
1617,82200.0,9.078369140625,0.8901299238204956,-3.2207393646240234
1618,82300.0,9.3128662109375,1.4069796800613403,-2.8283162117004395
1619,82400.0,9.3128662109375,1.4069796800613403,-2.8283162117004395
1620,81000.0,7.99681282043457,1.7443678379058838,-1.4333008527755735
1621,81100.0,9.781858444213867,2.234896183013916,-1.983649969100952
1622,81200.0,9.781858444213867,2.234896183013916,-1.983649969100952
1623,81300.0,11.743972778320312,1.6247265338897705,-1.5481561422348022
1624,81400.0,11.743972778320312,1.6247265338897705,-1.5481561422348022
1625,81500.0,11.743972778320312,1.6247265338897705,-1.5481561422348022
1626,81600.0,10.552348136901855,0.9667003750801086,-0.6364907622337341
1627,81700.0,10.552348136901855,0.9667003750801086,-0.6364907622337341
1628,81800.0,8.082954406738281,0.42831525206565857,-2.8977081775665283
1629,81900.0,8.082954406738281,0.42831525206565857,-2.8977081775665283
1630,82000.0,9.078369140625,0.8901299238204956,-3.2207393646240234
1631,82100.0,9.078369140625,0.8901299238204956,-3.2207393646240234
1632,82200.0,9.078369140625,0.8901299238204956,-3.2207393646240234
1633,82300.0,9.3128662109375,1.4069796800613403,-2.8283162117004395
1634,82400.0,9.3128662109375,1.4069796800613403,-2.8283162117004395
1635,82500.0,9.365508079528807,1.6941183805465698,-1.7922240495681765
1636,82600.0,9.365508079528807,1.6941183805465698,-1.7922240495681765
1637,82700.0,8.671588897705076,1.4165509939193726,-1.0767701864242554
1638,82800.0,8.671588897705076,1.4165509939193726,-1.0767701864242554
1639,82900.0,8.671588897705076,1.4165509939193726,-1.0767701864242554
1640,83000.0,9.111868858337402,1.9956141710281368,-0.8135597109794617
1641,83100.0,9.111868858337402,1.9956141710281368,-0.8135597109794617
1642,83200.0,9.944571495056152,1.935793399810791,-1.2370892763137815
1643,83300.0,9.944571495056152,1.935793399810791,-1.2370892763137815
1644,83400.0,10.011569023132324,2.0123636722564697,-1.3016955852508545
1645,83500.0,10.011569023132324,2.0123636722564697,-1.3016955852508545
1646,83600.0,11.767902374267578,0.7274181246757507,-1.2059825658798218
1647,83700.0,11.767902374267578,0.7274181246757507,-1.2059825658798218
1648,83800.0,11.767902374267578,0.7274181246757507,-1.2059825658798218
1649,83900.0,10.030712127685547,-0.2273181527853012,-2.1607186794281006
1650,82500.0,9.365508079528807,1.6941183805465698,-1.7922240495681765
1651,82600.0,9.365508079528807,1.6941183805465698,-1.7922240495681765
1652,82700.0,8.671588897705076,1.4165509939193726,-1.0767701864242554
1653,82800.0,8.671588897705076,1.4165509939193726,-1.0767701864242554
1654,82900.0,8.671588897705076,1.4165509939193726,-1.0767701864242554
1655,83000.0,9.111868858337402,1.9956141710281368,-0.8135597109794617
1656,83100.0,9.111868858337402,1.9956141710281368,-0.8135597109794617
1657,83200.0,9.944571495056152,1.935793399810791,-1.2370892763137815
1658,83300.0,9.944571495056152,1.935793399810791,-1.2370892763137815
1659,83400.0,10.011569023132324,2.0123636722564697,-1.3016955852508545
1660,83500.0,10.011569023132324,2.0123636722564697,-1.3016955852508545
1661,83600.0,11.767902374267578,0.7274181246757507,-1.2059825658798218
1662,83700.0,11.767902374267578,0.7274181246757507,-1.2059825658798218
1663,83800.0,11.767902374267578,0.7274181246757507,-1.2059825658798218
1664,83900.0,10.030712127685547,-0.2273181527853012,-2.1607186794281006
1665,84000.0,10.030712127685547,-0.2273181527853012,-2.1607186794281006
1666,84100.0,8.288737297058105,1.1653046607971191,-2.553141593933105
1667,84200.0,8.288737297058105,1.1653046607971191,-2.553141593933105
1668,84300.0,6.5659050941467285,3.4983065128326416,-4.462614059448242
1669,84400.0,6.5659050941467285,3.4983065128326416,-4.462614059448242
1670,84500.0,6.5659050941467285,3.4983065128326416,-4.462614059448242
1671,84600.0,7.738388061523437,3.041277408599853,-4.108476161956787
1672,84700.0,7.738388061523437,3.041277408599853,-4.108476161956787
1673,84800.0,12.55274772644043,1.9884356260299685,-2.048256158828736
1674,84900.0,12.55274772644043,1.9884356260299685,-2.048256158828736
1675,85000.0,8.949156761169434,1.031306505203247,-0.3086740970611572
1676,85100.0,8.949156761169434,1.031306505203247,-0.3086740970611572
1677,85200.0,8.709875106811522,2.368894338607788,-1.8855443000793457
1678,85300.0,8.709875106811522,2.368894338607788,-1.8855443000793457
1679,85400.0,10.03549861907959,2.1415762901306152,-2.0554347038269043
1680,84000.0,10.030712127685547,-0.2273181527853012,-2.1607186794281006
1681,84100.0,8.288737297058105,1.1653046607971191,-2.553141593933105
1682,84200.0,8.288737297058105,1.1653046607971191,-2.553141593933105
1683,84300.0,6.5659050941467285,3.4983065128326416,-4.462614059448242
1684,84400.0,6.5659050941467285,3.4983065128326416,-4.462614059448242
1685,84500.0,6.5659050941467285,3.4983065128326416,-4.462614059448242
1686,84600.0,7.738388061523437,3.041277408599853,-4.108476161956787
1687,84700.0,7.738388061523437,3.041277408599853,-4.108476161956787
1688,84800.0,12.55274772644043,1.9884356260299685,-2.048256158828736
1689,84900.0,12.55274772644043,1.9884356260299685,-2.048256158828736
1690,85000.0,8.949156761169434,1.031306505203247,-0.3086740970611572
1691,85100.0,8.949156761169434,1.031306505203247,-0.3086740970611572
1692,85200.0,8.709875106811522,2.368894338607788,-1.8855443000793457
1693,85300.0,8.709875106811522,2.368894338607788,-1.8855443000793457
1694,85400.0,10.03549861907959,2.1415762901306152,-2.0554347038269043
1695,85500.0,10.03549861907959,2.1415762901306152,-2.0554347038269043
1696,85600.0,10.03549861907959,2.1415762901306152,-2.0554347038269043
1697,85700.0,9.365508079528807,1.2562319040298462,-1.959721684455872
1698,85800.0,9.365508079528807,1.2562319040298462,-1.959721684455872
1699,85900.0,9.346364974975586,-0.055034920573234565,-2.2253248691558842
1700,86000.0,9.346364974975586,-0.055034920573234565,-2.2253248691558842
1701,86100.0,9.164510726928713,1.0743772983551023,-2.366501569747925
1702,86200.0,9.164510726928713,1.0743772983551023,-2.366501569747925
1703,86300.0,9.164510726928713,1.0743772983551023,-2.366501569747925
1704,86400.0,10.499706268310547,1.4668002128601074,-2.9934213161468506
1705,86500.0,10.499706268310547,1.4668002128601074,-2.9934213161468506
1706,86600.0,9.74835968017578,0.729810893535614,-2.1415762901306152
1707,86700.0,9.74835968017578,0.729810893535614,-2.1415762901306152
1708,86800.0,9.355937004089355,1.1365907192230225,-0.7920243144035339
1709,86900.0,9.355937004089355,1.1365907192230225,-0.7920243144035339
1710,85500.0,10.03549861907959,2.1415762901306152,-2.0554347038269043
1711,85600.0,10.03549861907959,2.1415762901306152,-2.0554347038269043
1712,85700.0,9.365508079528807,1.2562319040298462,-1.959721684455872
1713,85800.0,9.365508079528807,1.2562319040298462,-1.959721684455872
1714,85900.0,9.346364974975586,-0.055034920573234565,-2.2253248691558842
1715,86000.0,9.346364974975586,-0.055034920573234565,-2.2253248691558842
1716,86100.0,9.164510726928713,1.0743772983551023,-2.366501569747925
1717,86200.0,9.164510726928713,1.0743772983551023,-2.366501569747925
1718,86300.0,9.164510726928713,1.0743772983551023,-2.366501569747925
1719,86400.0,10.499706268310547,1.4668002128601074,-2.9934213161468506
1720,86500.0,10.499706268310547,1.4668002128601074,-2.9934213161468506
1721,86600.0,9.74835968017578,0.729810893535614,-2.1415762901306152
1722,86700.0,9.74835968017578,0.729810893535614,-2.1415762901306152
1723,86800.0,9.355937004089355,1.1365907192230225,-0.7920243144035339
1724,86900.0,9.355937004089355,1.1365907192230225,-0.7920243144035339
1725,87000.0,10.351350784301758,1.8855443000793457,-1.3878371715545654
1726,87100.0,10.351350784301758,1.8855443000793457,-1.3878371715545654
1727,87200.0,10.351350784301758,1.8855443000793457,-1.3878371715545654
1728,87300.0,9.121439933776855,1.8855443000793457,-1.3136597871780396
1729,87400.0,9.121439933776855,1.8855443000793457,-1.3136597871780396
1730,87500.0,9.226724624633787,2.3066811561584477,-2.5052852630615234
1731,87600.0,9.226724624633787,2.3066811561584477,-2.5052852630615234
1732,87700.0,11.16012477874756,1.1988041400909424,-1.430907964706421
1733,87800.0,11.16012477874756,1.1988041400909424,-1.430907964706421
1734,87900.0,9.8871431350708,0.5647061467170715,-1.294516921043396
1735,88000.0,9.8871431350708,0.5647061467170715,-1.294516921043396
1736,88100.0,9.8871431350708,0.5647061467170715,-1.294516921043396
1737,88200.0,7.9106712341308585,0.7585247755050659,-2.177468776702881
1738,88300.0,7.9106712341308585,0.7585247755050659,-2.177468776702881
1739,88400.0,9.30329418182373,1.4883356094360352,-2.935993194580078
1740,87000.0,10.351350784301758,1.8855443000793457,-1.3878371715545654
1741,87100.0,10.351350784301758,1.8855443000793457,-1.3878371715545654
