,timestamp,grx,gry,grz,timestamp,pressure,timestamp,mx,my,mz,timestamp,gx,gy,gz,timestamp,lax,lay,laz,timestamp,ax,ay,az
0,5000.0,-4.636548042297363,-8.627033233642576,0.4970949590206146,5000.0,1002.3599853515624,5000.0,-32.79399871826172,-134.83700561523438,-13.284000396728516,5000.0,-1.2406673431396484,-1.5412130355834959,-0.8582656979560852,5000.0,1.3494055271148682,5.382102012634277,1.8315385580062864,5000.0,-0.9995791912078856,-3.933074951171875,0.444722980260849
1,5100.0,-4.636548042297363,-8.627033233642576,0.4970949590206146,5100.0,1002.3599853515624,5100.0,-30.31599998474121,-133.32600402832028,-13.284000396728516,5100.0,-1.2406673431396484,-1.5412130355834959,-0.8582656979560852,5100.0,1.3494055271148682,5.382102012634277,1.8315385580062864,5100.0,-0.9995791912078856,-3.933074951171875,0.444722980260849
2,5200.0,-4.636548042297363,-8.627033233642576,0.4970949590206146,5200.0,1002.3599853515624,5200.0,-30.69099998474121,-134.49000549316406,-13.284000396728516,5200.0,-1.2406673431396484,-1.5412130355834959,-0.8582656979560852,5200.0,1.3494055271148682,5.382102012634277,1.8315385580062864,5200.0,-0.9995791912078856,-3.933074951171875,0.444722980260849
3,5300.0,-4.770121097564697,-8.535863876342772,0.7452210187911987,5300.0,1002.4099731445312,5300.0,-30.69099998474121,-134.82200622558594,-15.968000411987305,5300.0,-1.3668110370635986,2.299907684326172,-1.4895949363708496,5300.0,-1.838651657104492,-4.90059757232666,-3.5440735816955566,5300.0,-3.4207155704498287,-3.153762102127075,2.5767595767974854
4,5400.0,-4.770121097564697,-8.535863876342772,0.7452210187911987,5400.0,1002.4099731445312,5400.0,-30.69099998474121,-137.22900390625,-18.283000946044922,5400.0,-1.3668110370635986,2.299907684326172,-1.4895949363708496,5400.0,-1.838651657104492,-4.90059757232666,-3.5440735816955566,5400.0,-3.4207155704498287,-3.153762102127075,2.5767595767974854
5,5500.0,-4.705300331115723,-8.598509788513184,0.3101055324077606,5500.0,1002.3599853515624,5500.0,-31.125999450683594,-138.72200012207028,-17.604000091552734,5500.0,-1.0067058801650999,1.3658946752548218,0.010384709574282171,5500.0,1.2038187980651855,2.608171939849853,1.0083900690078735,5500.0,-6.543951988220215,-13.499107360839846,-3.2339680194854736
6,5600.0,-4.722696781158447,-8.583500862121582,0.4359121620655061,5600.0,1002.4600219726564,5600.0,-31.50399971008301,-138.71099853515622,-17.988000869750977,5600.0,-0.2620611786842346,-0.3488040566444397,-0.4602869749069214,5600.0,-3.033355712890625,-1.251516342163086,-0.025343120098114014,5600.0,-3.5188779830932617,-5.9753289222717285,1.4443022012710571
7,5700.0,-4.722696781158447,-8.583500862121582,0.4359121620655061,5700.0,1002.4600219726564,5700.0,-31.87100028991699,-138.71099853515622,-18.645999908447266,5700.0,-0.2620611786842346,-0.3488040566444397,-0.4602869749069214,5700.0,-3.033355712890625,-1.251516342163086,-0.025343120098114014,5700.0,-3.5188779830932617,-5.9753289222717285,1.4443022012710571
8,5800.0,-4.921379566192627,-8.471935272216799,0.420386403799057,5800.0,1002.469970703125,5800.0,-32.194000244140625,-139.01899719238278,-18.988000869750977,5800.0,1.8487836122512813,0.013744467869400978,0.3430008292198181,5800.0,0.5938487052917479,-3.8291292190551762,4.715609073638916,5800.0,-7.954735279083253,-9.723451614379883,0.395043283700943
9,5900.0,-4.921379566192627,-8.471935272216799,0.420386403799057,5900.0,1002.469970703125,5900.0,-32.86999893188477,-139.01899719238278,-19.30299949645996,5900.0,1.8487836122512813,0.013744467869400978,0.3430008292198181,5900.0,0.5938487052917479,-3.8291292190551762,4.715609073638916,5900.0,-7.954735279083253,-9.723451614379883,0.395043283700943
10,6000.0,-4.67775821685791,-8.571040153503418,0.908969521522522,6000.0,1002.3400268554688,6000.0,-33.5989990234375,-135.27000427246094,-20.65699958801269,6000.0,0.6035348773002625,-0.3814853429794312,1.8805487155914309,6000.0,1.248997449874878,2.075358867645264,-0.6122744083404541,6000.0,-4.083909511566162,-12.400169372558596,5.624578475952148
11,6100.0,-4.67775821685791,-8.571040153503418,0.908969521522522,6100.0,1002.3400268554688,6100.0,-33.5989990234375,-129.27999877929688,-26.32099914550781,6100.0,0.6035348773002625,-0.3814853429794312,1.8805487155914309,6100.0,1.248997449874878,2.075358867645264,-0.6122744083404541,6100.0,-4.083909511566162,-12.400169372558596,5.624578475952148
12,6200.0,-4.669713020324707,-8.579806327819824,0.8666583299636841,6200.0,1002.4000244140624,6200.0,-33.041000366210945,-126.7509994506836,-28.645999908447266,6200.0,-0.4196644127368927,-1.5149458646774292,-0.28130343556404114,6200.0,2.833970546722412,7.222630500793457,2.8776564598083496,6200.0,-3.4207155704498287,-6.5044474601745605,0.25438392162323004
13,6300.0,-4.669713020324707,-8.579806327819824,0.8666583299636841,6300.0,1002.4000244140624,6300.0,-32.650001525878906,-125.9749984741211,-28.32699966430664,6300.0,-0.4196644127368927,-1.5149458646774292,-0.28130343556404114,6300.0,2.833970546722412,7.222630500793457,2.8776564598083496,6300.0,-3.4207155704498287,-6.5044474601745605,0.25438392162323004
14,6400.0,-4.7487335205078125,-8.482579231262207,1.2906489372253418,6400.0,1002.3300170898438,6400.0,-31.391000747680664,-125.59300231933594,-28.63999938964844,6400.0,-1.5238033533096311,-0.1991420686244965,-1.4223997592926023,6400.0,4.797463417053223,5.645819664001465,1.4074748754501345,6400.0,-1.9147628545761108,-1.2599486112594604,4.168305397033691
15,6500.0,-4.7487335205078125,-8.482579231262207,1.2906489372253418,6500.0,1002.280029296875,6500.0,-31.05599975585937,-125.9000015258789,-28.981000900268555,6500.0,-1.130406141281128,-1.380555510520935,-0.18997909128665924,6500.0,-0.7990851402282715,3.1027426719665527,-1.9537732601165767,6500.0,-1.9147628545761108,-1.2599486112594604,4.168305397033691
16,6600.0,-4.563430309295653,-8.532628059387207,1.5936568975448608,6600.0,1002.280029296875,6600.0,-33.450000762939446,-125.9000015258789,-28.981000900268555,6600.0,-1.130406141281128,-1.380555510520935,-0.18997909128665924,6600.0,-0.7990851402282715,3.1027426719665527,-1.9537732601165767,6600.0,0.2340332120656967,-2.8868086338043213,3.001131772994995
17,6700.0,-4.82968282699585,-8.420863151550293,1.3905372619628906,6700.0,1002.3499755859376,6700.0,-34.583999633789055,-125.9000015258789,-28.617000579833984,6700.0,-0.17318029701709747,-0.6362161636352539,-0.5598580241203308,6700.0,-2.2180094718933105,-0.8126125335693359,-2.0850172042846684,6700.0,-5.628767967224121,-5.31812047958374,-0.5632359385490417
18,6800.0,-4.82968282699585,-8.420863151550293,1.3905372619628906,6800.0,1002.3499755859376,6800.0,-35.20199966430664,-126.23999786376952,-27.9060001373291,6800.0,-0.17318029701709747,-0.6362161636352539,-0.5598580241203308,6800.0,-2.2180094718933105,-0.8126125335693359,-2.0850172042846684,6800.0,-5.628767967224121,-5.31812047958374,-0.5632359385490417
19,6900.0,-5.015472412109375,-8.35538387298584,1.0968103408813477,6900.0,1002.3400268554688,6900.0,-35.7140007019043,-126.6520004272461,-27.9060001373291,6900.0,0.7113525867462158,0.3588833212852478,0.384845107793808,6900.0,-0.14289093017578125,-3.0523958206176762,3.424378633499145,6900.0,-7.233481884002685,-9.167996406555176,-0.9882067441940308
20,7000.0,-5.015472412109375,-8.35538387298584,1.0968103408813477,7000.0,1002.3400268554688,7000.0,-39.0989990234375,-127.9980010986328,-29.832000732421875,7000.0,0.7113525867462158,0.3588833212852478,0.384845107793808,7000.0,-0.14289093017578125,-3.0523958206176762,3.424378633499145,7000.0,-7.233481884002685,-9.167996406555176,-0.9882067441940308
21,7100.0,-4.839442729949951,-8.402063369750978,1.468172311782837,7100.0,1002.3099975585938,7100.0,-42.097999572753906,-131.27799987792972,-34.867000579833984,7100.0,0.6630942225456238,-0.4758640229701996,2.106263399124145,7100.0,-1.1999773979187012,1.0203742980957031,-2.3317553997039795,7100.0,-4.9823336601257315,-11.454459190368652,4.8925509452819815
22,7200.0,-4.839442729949951,-8.402063369750978,1.468172311782837,7200.0,1002.3099975585938,7200.0,-43.54700088500977,-129.39100646972656,-30.54800033569336,7200.0,0.6630942225456238,-0.4758640229701996,2.106263399124145,7200.0,-1.1999773979187012,1.0203742980957031,-2.3317553997039795,7200.0,-4.9823336601257315,-11.454459190368652,4.8925509452819815
23,7300.0,-5.018961429595947,-8.339448928833008,1.197502374649048,7300.0,1002.25,7300.0,-43.66999816894531,-127.08100128173828,-27.5049991607666,7300.0,-0.5348125100135803,-0.22510384023189545,-0.07208210229873657,7300.0,4.367265701293944,7.107953071594237,1.4682296514511108,7300.0,-6.2189388275146475,-7.319074630737305,-1.1342530250549316
24,7400.0,-4.986765384674072,-8.305652618408201,1.5227268934249878,7400.0,1002.260009765625,7400.0,-43.66999816894531,-126.2020034790039,-28.256000518798828,7400.0,-1.2205088138580322,-0.2822197377681732,-1.9431623220443728,7400.0,2.0374743938446045,-0.05048942565917969,-1.5395267009735107,7400.0,-0.6194996833801271,-1.1976994276046753,2.990956544876098
25,7500.0,-4.986765384674072,-8.305652618408201,1.5227268934249878,7500.0,1002.260009765625,7500.0,-43.986000061035156,-127.33599853515624,-31.25900077819824,7500.0,-1.2205088138580322,-0.2822197377681732,-1.9431623220443728,7500.0,2.0374743938446045,-0.05048942565917969,-1.5395267009735107,7500.0,-0.6194996833801271,-1.1976994276046753,2.990956544876098
26,7600.0,-4.7979888916015625,-8.446532249450684,1.343800663948059,7600.0,1002.27001953125,7600.0,-44.32500076293945,-128.75,-30.31399917602539,7600.0,-0.616973876953125,-0.8035932183265686,-0.35735616087913513,7600.0,0.8228874206542969,3.4622392654418945,-1.077863693237305,7600.0,-2.760514497756958,-8.497021675109862,-0.19572599232196808
27,7700.0,-4.7979888916015625,-8.446532249450684,1.343800663948059,7700.0,1002.27001953125,7700.0,-44.67399978637695,-129.24400329589844,-31.658000946044922,7700.0,-0.616973876953125,-0.8035932183265686,-0.35735616087913513,7700.0,0.8228874206542969,3.4622392654418945,-1.077863693237305,7700.0,-2.760514497756958,-8.497021675109862,-0.19572599232196808
28,7800.0,-4.920563697814941,-8.388309478759767,1.2628157138824463,7800.0,1002.2999877929688,7800.0,-44.67399978637695,-128.82200622558594,-32.61800003051758,7800.0,-0.015271631069481371,0.6918048858642578,-0.4838052690029144,7800.0,-4.157233238220215,-0.6416549682617188,-0.9616005420684814,7800.0,-4.0976762771606445,-4.926070213317871,0.1849520802497864
29,7900.0,-4.920563697814941,-8.388309478759767,1.2628157138824463,7900.0,1002.2999877929688,7900.0,-43.8759994506836,-129.48399353027344,-35.16899871826172,7900.0,-0.015271631069481371,0.6918048858642578,-0.4838052690029144,7900.0,-4.157233238220215,-0.6416549682617188,-0.9616005420684814,7900.0,-4.0976762771606445,-4.926070213317871,0.1849520802497864
30,6500.0,-4.7487335205078125,-8.482579231262207,1.2906489372253418,6500.0,1002.280029296875,6500.0,-31.05599975585937,-125.9000015258789,-28.981000900268555,6500.0,-1.130406141281128,-1.380555510520935,-0.18997909128665924,6500.0,-0.7990851402282715,3.1027426719665527,-1.9537732601165767,6500.0,-1.9147628545761108,-1.2599486112594604,4.168305397033691
31,6600.0,-4.563430309295653,-8.532628059387207,1.5936568975448608,6600.0,1002.280029296875,6600.0,-33.450000762939446,-125.9000015258789,-28.981000900268555,6600.0,-1.130406141281128,-1.380555510520935,-0.18997909128665924,6600.0,-0.7990851402282715,3.1027426719665527,-1.9537732601165767,6600.0,0.2340332120656967,-2.8868086338043213,3.001131772994995
32,6700.0,-4.82968282699585,-8.420863151550293,1.3905372619628906,6700.0,1002.3499755859376,6700.0,-34.583999633789055,-125.9000015258789,-28.617000579833984,6700.0,-0.17318029701709747,-0.6362161636352539,-0.5598580241203308,6700.0,-2.2180094718933105,-0.8126125335693359,-2.0850172042846684,6700.0,-5.628767967224121,-5.31812047958374,-0.5632359385490417
33,6800.0,-4.82968282699585,-8.420863151550293,1.3905372619628906,6800.0,1002.3499755859376,6800.0,-35.20199966430664,-126.23999786376952,-27.9060001373291,6800.0,-0.17318029701709747,-0.6362161636352539,-0.5598580241203308,6800.0,-2.2180094718933105,-0.8126125335693359,-2.0850172042846684,6800.0,-5.628767967224121,-5.31812047958374,-0.5632359385490417
34,6900.0,-5.015472412109375,-8.35538387298584,1.0968103408813477,6900.0,1002.3400268554688,6900.0,-35.7140007019043,-126.6520004272461,-27.9060001373291,6900.0,0.7113525867462158,0.3588833212852478,0.384845107793808,6900.0,-0.14289093017578125,-3.0523958206176762,3.424378633499145,6900.0,-7.233481884002685,-9.167996406555176,-0.9882067441940308
35,7000.0,-5.015472412109375,-8.35538387298584,1.0968103408813477,7000.0,1002.3400268554688,7000.0,-39.0989990234375,-127.9980010986328,-29.832000732421875,7000.0,0.7113525867462158,0.3588833212852478,0.384845107793808,7000.0,-0.14289093017578125,-3.0523958206176762,3.424378633499145,7000.0,-7.233481884002685,-9.167996406555176,-0.9882067441940308
36,7100.0,-4.839442729949951,-8.402063369750978,1.468172311782837,7100.0,1002.3099975585938,7100.0,-42.097999572753906,-131.27799987792972,-34.867000579833984,7100.0,0.6630942225456238,-0.4758640229701996,2.106263399124145,7100.0,-1.1999773979187012,1.0203742980957031,-2.3317553997039795,7100.0,-4.9823336601257315,-11.454459190368652,4.8925509452819815
37,7200.0,-4.839442729949951,-8.402063369750978,1.468172311782837,7200.0,1002.3099975585938,7200.0,-43.54700088500977,-129.39100646972656,-30.54800033569336,7200.0,0.6630942225456238,-0.4758640229701996,2.106263399124145,7200.0,-1.1999773979187012,1.0203742980957031,-2.3317553997039795,7200.0,-4.9823336601257315,-11.454459190368652,4.8925509452819815
38,7300.0,-5.018961429595947,-8.339448928833008,1.197502374649048,7300.0,1002.25,7300.0,-43.66999816894531,-127.08100128173828,-27.5049991607666,7300.0,-0.5348125100135803,-0.22510384023189545,-0.07208210229873657,7300.0,4.367265701293944,7.107953071594237,1.4682296514511108,7300.0,-6.2189388275146475,-7.319074630737305,-1.1342530250549316
39,7400.0,-4.986765384674072,-8.305652618408201,1.5227268934249878,7400.0,1002.260009765625,7400.0,-43.66999816894531,-126.2020034790039,-28.256000518798828,7400.0,-1.2205088138580322,-0.2822197377681732,-1.9431623220443728,7400.0,2.0374743938446045,-0.05048942565917969,-1.5395267009735107,7400.0,-0.6194996833801271,-1.1976994276046753,2.990956544876098
40,7500.0,-4.986765384674072,-8.305652618408201,1.5227268934249878,7500.0,1002.260009765625,7500.0,-43.986000061035156,-127.33599853515624,-31.25900077819824,7500.0,-1.2205088138580322,-0.2822197377681732,-1.9431623220443728,7500.0,2.0374743938446045,-0.05048942565917969,-1.5395267009735107,7500.0,-0.6194996833801271,-1.1976994276046753,2.990956544876098
41,7600.0,-4.7979888916015625,-8.446532249450684,1.343800663948059,7600.0,1002.27001953125,7600.0,-44.32500076293945,-128.75,-30.31399917602539,7600.0,-0.616973876953125,-0.8035932183265686,-0.35735616087913513,7600.0,0.8228874206542969,3.4622392654418945,-1.077863693237305,7600.0,-2.760514497756958,-8.497021675109862,-0.19572599232196808
42,7700.0,-4.7979888916015625,-8.446532249450684,1.343800663948059,7700.0,1002.27001953125,7700.0,-44.67399978637695,-129.24400329589844,-31.658000946044922,7700.0,-0.616973876953125,-0.8035932183265686,-0.35735616087913513,7700.0,0.8228874206542969,3.4622392654418945,-1.077863693237305,7700.0,-2.760514497756958,-8.497021675109862,-0.19572599232196808
43,7800.0,-4.920563697814941,-8.388309478759767,1.2628157138824463,7800.0,1002.2999877929688,7800.0,-44.67399978637695,-128.82200622558594,-32.61800003051758,7800.0,-0.015271631069481371,0.6918048858642578,-0.4838052690029144,7800.0,-4.157233238220215,-0.6416549682617188,-0.9616005420684814,7800.0,-4.0976762771606445,-4.926070213317871,0.1849520802497864
44,7900.0,-4.920563697814941,-8.388309478759767,1.2628157138824463,7900.0,1002.2999877929688,7900.0,-43.8759994506836,-129.48399353027344,-35.16899871826172,7900.0,-0.015271631069481371,0.6918048858642578,-0.4838052690029144,7900.0,-4.157233238220215,-0.6416549682617188,-0.9616005420684814,7900.0,-4.0976762771606445,-4.926070213317871,0.1849520802497864
45,8000.0,-5.2878923416137695,-8.18576717376709,1.0962743759155271,8000.0,1002.239990234375,8000.0,-43.84600067138672,-129.08000183105472,-35.80400085449219,8000.0,3.765678882598877,0.598647952079773,0.7907650470733643,8000.0,-0.4605083465576172,-1.000523567199707,-2.435586929321289,8000.0,-9.445125579833984,-8.827422142028809,0.1346738487482071
46,8100.0,-5.2878923416137695,-8.18576717376709,1.0962743759155271,8100.0,1002.239990234375,8100.0,-43.1349983215332,-126.47699737548828,-43.4109992980957,8100.0,3.765678882598877,0.598647952079773,0.7907650470733643,8100.0,-0.4605083465576172,-1.000523567199707,-2.435586929321289,8100.0,-9.445125579833984,-8.827422142028809,0.1346738487482071
47,8200.0,-5.287970066070557,-8.221940994262695,0.7793979644775391,8200.0,1002.0399780273438,8200.0,-42.82799911499024,-117.68699645996094,-48.07799911499024,8200.0,0.2871066629886627,-0.6771441102027893,1.2971723079681396,8200.0,4.006867408752441,4.513355731964111,-0.14769643545150754,8200.0,-5.748478412628174,-9.222464561462402,-1.6561890840530396
48,8300.0,-5.181223392486572,-8.285420417785645,0.8228613138198853,8300.0,1002.25,8300.0,-45.42900085449219,-115.15299987792969,-45.94800186157226,8300.0,-1.0079276561737058,-1.5989397764205933,-1.38849675655365,8300.0,0.3690023422241211,1.903450012207032,5.74289083480835,8300.0,-1.1743559837341309,-3.772064685821533,0.6751648783683777
49,8400.0,-5.181223392486572,-8.285420417785645,0.8228613138198853,8400.0,1002.25,8400.0,-44.96900177001953,-113.13700103759766,-43.165000915527344,8400.0,-1.0079276561737058,-1.5989397764205933,-1.38849675655365,8400.0,0.3690023422241211,1.903450012207032,5.74289083480835,8400.0,-1.1743559837341309,-3.772064685821533,0.6751648783683777
50,8500.0,-5.208282470703125,-8.154111862182617,1.5983301401138306,8500.0,1002.260009765625,8500.0,-39.50600051879883,-112.7509994506836,-42.303001403808594,8500.0,-0.636521577835083,1.2125675678253174,-1.8310685157775881,8500.0,1.338977336883545,-4.655052185058594,-2.325429201126098,8500.0,-4.839280128479004,-6.250661849975586,7.3412208557128915
51,8600.0,-5.208282470703125,-8.154111862182617,1.5983301401138306,8600.0,1002.260009765625,8600.0,-42.84600067138672,-113.6729965209961,-39.55799865722656,8600.0,-0.636521577835083,1.2125675678253174,-1.8310685157775881,8600.0,1.338977336883545,-4.655052185058594,-2.325429201126098,8600.0,-4.839280128479004,-6.250661849975586,7.3412208557128915
52,8700.0,-4.845884323120117,-8.434048652648926,1.246841311454773,8700.0,1002.1900024414064,8700.0,-40.21699905395508,-113.6729965209961,-44.2760009765625,8700.0,-0.2290744632482529,1.3243558406829834,0.08429940044879912,8700.0,-1.967335224151612,2.589775562286377,-0.6716139316558838,8700.0,-3.5069069862365723,-13.08910083770752,-1.0785878896713257
53,8800.0,-4.845884323120117,-8.434048652648926,1.246841311454773,8800.0,1002.1900024414064,8800.0,-39.47100067138672,-113.6729965209961,-44.49599838256836,8800.0,-0.2290744632482529,1.3243558406829834,0.08429940044879912,8800.0,-1.967335224151612,2.589775562286377,-0.6716139316558838,8800.0,-3.5069069862365723,-13.08910083770752,-1.0785878896713257
54,8900.0,-5.173371315002441,-8.246675491333008,1.1827759742736816,8900.0,1002.1799926757812,8900.0,-36.53400039672852,-114.35299682617188,-42.48899841308594,8900.0,-0.5189300179481506,0.9159924387931824,-0.6166684627532959,8900.0,-2.089824676513672,-4.1050024032592765,-1.5823627710342407,8900.0,-7.140706539154053,-5.656899929046631,0.5111620426177979
55,9000.0,-5.173371315002441,-8.246675491333008,1.1827759742736816,9000.0,1002.1799926757812,9000.0,-34.65700149536133,-115.71099853515624,-42.76399993896485,9000.0,-0.5189300179481506,0.9159924387931824,-0.6166684627532959,9000.0,-2.089824676513672,-4.1050024032592765,-1.5823627710342407,9000.0,-7.140706539154053,-5.656899929046631,0.5111620426177979
56,9100.0,-5.1466498374938965,-8.295166969299316,0.9341326355934144,9100.0,1002.2000122070312,9100.0,-30.110000610351573,-125.56600189208984,-52.89300155639648,9100.0,2.977967977523804,0.32559117674827576,2.353358268737793,9100.0,-2.8355154991149902,4.62907600402832,-0.883580207824707,9100.0,-7.2364745140075675,-12.400169372558596,-0.6482301354408264
57,9200.0,-5.637564182281494,-7.978564262390138,0.8548498153686523,9200.0,1002.0999755859376,9200.0,-21.69099998474121,-126.56199645996094,-63.32699966430664,9200.0,1.5247195959091189,0.7211264371871948,1.8594738245010376,9200.0,3.9508342742919917,5.749447345733643,-1.4609528779983518,9200.0,-8.473079681396483,-3.3494882583618164,-0.028730420395731926
58,9300.0,-5.637564182281494,-7.978564262390138,0.8548498153686523,9300.0,1002.0999755859376,9300.0,-17.068000793457028,-122.93299865722656,-66.33300018310547,9300.0,1.5247195959091189,0.7211264371871948,1.8594738245010376,9300.0,3.9508342742919917,5.749447345733643,-1.4609528779983518,9300.0,-8.473079681396483,-3.3494882583618164,-0.028730420395731926
59,9400.0,-5.652513027191162,-7.979047775268555,0.744488000869751,9400.0,1002.1500244140624,9400.0,-8.361000061035156,-95.58799743652344,-182.6580047607422,9400.0,-0.24709498882293696,1.3637566566467283,-1.2852604389190674,9400.0,-1.0907001495361328,0.4024648666381836,-2.779231548309326,9400.0,-1.7016788721084597,-2.229600429534912,-0.7164648771286011
60,8000.0,-5.2878923416137695,-8.18576717376709,1.0962743759155271,8000.0,1002.239990234375,8000.0,-43.84600067138672,-129.08000183105472,-35.80400085449219,8000.0,3.765678882598877,0.598647952079773,0.7907650470733643,8000.0,-0.4605083465576172,-1.000523567199707,-2.435586929321289,8000.0,-9.445125579833984,-8.827422142028809,0.1346738487482071
61,8100.0,-5.2878923416137695,-8.18576717376709,1.0962743759155271,8100.0,1002.239990234375,8100.0,-43.1349983215332,-126.47699737548828,-43.4109992980957,8100.0,3.765678882598877,0.598647952079773,0.7907650470733643,8100.0,-0.4605083465576172,-1.000523567199707,-2.435586929321289,8100.0,-9.445125579833984,-8.827422142028809,0.1346738487482071
62,8200.0,-5.287970066070557,-8.221940994262695,0.7793979644775391,8200.0,1002.0399780273438,8200.0,-42.82799911499024,-117.68699645996094,-48.07799911499024,8200.0,0.2871066629886627,-0.6771441102027893,1.2971723079681396,8200.0,4.006867408752441,4.513355731964111,-0.14769643545150754,8200.0,-5.748478412628174,-9.222464561462402,-1.6561890840530396
63,8300.0,-5.181223392486572,-8.285420417785645,0.8228613138198853,8300.0,1002.25,8300.0,-45.42900085449219,-115.15299987792969,-45.94800186157226,8300.0,-1.0079276561737058,-1.5989397764205933,-1.38849675655365,8300.0,0.3690023422241211,1.903450012207032,5.74289083480835,8300.0,-1.1743559837341309,-3.772064685821533,0.6751648783683777
64,8400.0,-5.181223392486572,-8.285420417785645,0.8228613138198853,8400.0,1002.25,8400.0,-44.96900177001953,-113.13700103759766,-43.165000915527344,8400.0,-1.0079276561737058,-1.5989397764205933,-1.38849675655365,8400.0,0.3690023422241211,1.903450012207032,5.74289083480835,8400.0,-1.1743559837341309,-3.772064685821533,0.6751648783683777
65,8500.0,-5.208282470703125,-8.154111862182617,1.5983301401138306,8500.0,1002.260009765625,8500.0,-39.50600051879883,-112.7509994506836,-42.303001403808594,8500.0,-0.636521577835083,1.2125675678253174,-1.8310685157775881,8500.0,1.338977336883545,-4.655052185058594,-2.325429201126098,8500.0,-4.839280128479004,-6.250661849975586,7.3412208557128915
66,8600.0,-5.208282470703125,-8.154111862182617,1.5983301401138306,8600.0,1002.260009765625,8600.0,-42.84600067138672,-113.6729965209961,-39.55799865722656,8600.0,-0.636521577835083,1.2125675678253174,-1.8310685157775881,8600.0,1.338977336883545,-4.655052185058594,-2.325429201126098,8600.0,-4.839280128479004,-6.250661849975586,7.3412208557128915
67,8700.0,-4.845884323120117,-8.434048652648926,1.246841311454773,8700.0,1002.1900024414064,8700.0,-40.21699905395508,-113.6729965209961,-44.2760009765625,8700.0,-0.2290744632482529,1.3243558406829834,0.08429940044879912,8700.0,-1.967335224151612,2.589775562286377,-0.6716139316558838,8700.0,-3.5069069862365723,-13.08910083770752,-1.0785878896713257
68,8800.0,-4.845884323120117,-8.434048652648926,1.246841311454773,8800.0,1002.1900024414064,8800.0,-39.47100067138672,-113.6729965209961,-44.49599838256836,8800.0,-0.2290744632482529,1.3243558406829834,0.08429940044879912,8800.0,-1.967335224151612,2.589775562286377,-0.6716139316558838,8800.0,-3.5069069862365723,-13.08910083770752,-1.0785878896713257
69,8900.0,-5.173371315002441,-8.246675491333008,1.1827759742736816,8900.0,1002.1799926757812,8900.0,-36.53400039672852,-114.35299682617188,-42.48899841308594,8900.0,-0.5189300179481506,0.9159924387931824,-0.6166684627532959,8900.0,-2.089824676513672,-4.1050024032592765,-1.5823627710342407,8900.0,-7.140706539154053,-5.656899929046631,0.5111620426177979
70,9000.0,-5.173371315002441,-8.246675491333008,1.1827759742736816,9000.0,1002.1799926757812,9000.0,-34.65700149536133,-115.71099853515624,-42.76399993896485,9000.0,-0.5189300179481506,0.9159924387931824,-0.6166684627532959,9000.0,-2.089824676513672,-4.1050024032592765,-1.5823627710342407,9000.0,-7.140706539154053,-5.656899929046631,0.5111620426177979
71,9100.0,-5.1466498374938965,-8.295166969299316,0.9341326355934144,9100.0,1002.2000122070312,9100.0,-30.110000610351573,-125.56600189208984,-52.89300155639648,9100.0,2.977967977523804,0.32559117674827576,2.353358268737793,9100.0,-2.8355154991149902,4.62907600402832,-0.883580207824707,9100.0,-7.2364745140075675,-12.400169372558596,-0.6482301354408264
72,9200.0,-5.637564182281494,-7.978564262390138,0.8548498153686523,9200.0,1002.0999755859376,9200.0,-21.69099998474121,-126.56199645996094,-63.32699966430664,9200.0,1.5247195959091189,0.7211264371871948,1.8594738245010376,9200.0,3.9508342742919917,5.749447345733643,-1.4609528779983518,9200.0,-8.473079681396483,-3.3494882583618164,-0.028730420395731926
73,9300.0,-5.637564182281494,-7.978564262390138,0.8548498153686523,9300.0,1002.0999755859376,9300.0,-17.068000793457028,-122.93299865722656,-66.33300018310547,9300.0,1.5247195959091189,0.7211264371871948,1.8594738245010376,9300.0,3.9508342742919917,5.749447345733643,-1.4609528779983518,9300.0,-8.473079681396483,-3.3494882583618164,-0.028730420395731926
74,9400.0,-5.652513027191162,-7.979047775268555,0.744488000869751,9400.0,1002.1500244140624,9400.0,-8.361000061035156,-95.58799743652344,-182.6580047607422,9400.0,-0.24709498882293696,1.3637566566467283,-1.2852604389190674,9400.0,-1.0907001495361328,0.4024648666381836,-2.779231548309326,9400.0,-1.7016788721084597,-2.229600429534912,-0.7164648771286011
75,9500.0,-5.652513027191162,-7.979047775268555,0.744488000869751,9500.0,1002.1500244140624,9500.0,-26.32500076293945,-74.59200286865234,-81.90899658203125,9500.0,-0.24709498882293696,1.3637566566467283,-1.2852604389190674,9500.0,-1.0907001495361328,0.4024648666381836,-2.779231548309326,9500.0,-1.7016788721084597,-2.229600429534912,-0.7164648771286011
76,9600.0,-5.781257152557372,-7.91187858581543,0.3868255019187927,9600.0,1002.239990234375,9600.0,-12.765000343322756,-109.0770034790039,-58.13399887084961,9600.0,1.1078041791915894,2.219884395599365,0.2617557644844055,9600.0,4.280748367309569,-0.13934326171875,-2.7351667881011963,9600.0,-6.871957302093506,-7.509413719177246,-2.3924059867858887
77,9700.0,-5.781257152557372,-7.91187858581543,0.3868255019187927,9700.0,1002.239990234375,9700.0,-7.427000045776367,-114.2300033569336,-52.90800094604492,9700.0,1.1078041791915894,2.219884395599365,0.2617557644844055,9700.0,4.280748367309569,-0.13934326171875,-2.7351667881011963,9700.0,-6.871957302093506,-7.509413719177246,-2.3924059867858887
78,9800.0,-5.407220363616943,-8.181106567382812,0.04288695752620697,9800.0,1002.1699829101564,9800.0,3.6559998989105225,-117.20999908447266,-53.88000106811523,9800.0,0.6820310354232788,0.8326093554496765,-1.0430524349212646,9800.0,-3.431999683380127,0.26822757720947266,-3.0163445472717285,9800.0,-1.1264718770980835,-8.320449829101562,-2.692279815673828
79,9900.0,-5.407220363616943,-8.181106567382812,0.04288695752620697,9900.0,1002.1699829101564,9900.0,6.556000232696532,-121.96299743652344,-55.85900115966797,9900.0,0.6820310354232788,0.8326093554496765,-1.0430524349212646,9900.0,-3.431999683380127,0.26822757720947266,-3.0163445472717285,9900.0,-1.1264718770980835,-8.320449829101562,-2.692279815673828
80,10000.0,-5.714449405670166,-7.962593078613281,-0.33553779125213623,10000.0,1002.4199829101564,10000.0,15.890000343322756,-124.16000366210938,-46.05199813842773,10000.0,2.61939024925232,0.9828822016716005,1.7528778314590454,10000.0,-1.5891165733337402,0.1529541015625,-0.8300473690032959,10000.0,-9.146449089050293,-7.694365501403809,-3.3518824577331543
81,10100.0,-5.848471164703369,-7.859889507293701,-0.4334925413131714,10100.0,1002.1500244140624,10100.0,11.70300006866455,-130.69900512695312,-39.24399948120117,10100.0,2.06411361694336,1.5625933408737185,2.666121244430542,10100.0,-7.7089762687683105,-6.2561564445495605,2.3308048248291016,10100.0,-7.437587738037107,-7.706935405731201,-1.2635399103164673
82,10200.0,-5.848471164703369,-7.859889507293701,-0.4334925413131714,10200.0,1002.1500244140624,10200.0,6.997000217437744,-143.79100036621094,-35.505001068115234,10200.0,2.06411361694336,1.5625933408737185,2.666121244430542,10200.0,-7.7089762687683105,-6.2561564445495605,2.3308048248291016,10200.0,-7.437587738037107,-7.706935405731201,-1.2635399103164673
83,10300.0,-6.064267635345459,-7.705630779266357,-0.13532178103923798,10300.0,1002.1099853515624,10300.0,-3.788000106811523,-154.51499938964844,-32.639999389648445,10300.0,1.056491494178772,-0.8326093554496765,0.6450737118721008,10300.0,4.346517562866212,9.144572257995604,2.4051549434661865,10300.0,-13.77324390411377,-13.961787223815918,2.1954829692840576
84,10400.0,-6.064267635345459,-7.705630779266357,-0.13532178103923798,10400.0,1002.1099853515624,10400.0,-6.86899995803833,-162.052001953125,-28.572999954223643,10400.0,1.056491494178772,-0.8326093554496765,0.6450737118721008,10400.0,4.346517562866212,9.144572257995604,2.4051549434661865,10400.0,-13.77324390411377,-13.961787223815918,2.1954829692840576
85,10500.0,-6.276244163513184,-7.533873081207275,0.14107845723628998,10500.0,1002.219970703125,10500.0,-4.468999862670898,-165.60000610351562,-28.59600067138672,10500.0,-1.560455322265625,-1.3946053981781006,-1.7095063924789429,10500.0,-13.21074676513672,-12.279061317443848,11.36147689819336,10500.0,-1.9297266006469729,1.61069917678833,2.5462334156036377
86,10600.0,-6.276244163513184,-7.533873081207275,0.14107845723628998,10600.0,1002.219970703125,10600.0,2.0580000877380367,-166.3249969482422,-30.434999465942386,10600.0,-1.560455322265625,-1.3946053981781006,-1.7095063924789429,10600.0,-13.21074676513672,-12.279061317443848,11.36147689819336,10600.0,-1.9297266006469729,1.61069917678833,2.5462334156036377
87,10700.0,-6.398362636566162,-7.329449653625487,1.2290312051773071,10700.0,1002.2100219726564,10700.0,4.184999942779541,-166.09100341796875,-30.75200080871582,10700.0,-0.4691445231437683,1.7666223049163818,0.39095374941825867,10700.0,-1.06097412109375,1.8788251876831048,5.468024253845215,10700.0,-19.60910987854004,-19.608510971069336,12.590508460998535
88,10800.0,-6.398362636566162,-7.329449653625487,1.2290312051773071,10800.0,1002.2100219726564,10800.0,6.613999843597412,-165.4510040283203,-30.191999435424805,10800.0,-0.4691445231437683,1.7666223049163818,0.39095374941825867,10800.0,-1.06097412109375,1.8788251876831048,5.468024253845215,10800.0,-19.60910987854004,-19.608510971069336,12.590508460998535
89,10900.0,-6.493929386138916,-7.132302284240723,1.7690490484237669,10900.0,1002.239990234375,10900.0,7.5879998207092285,-165.81500244140625,-28.770000457763672,10900.0,0.10842858254909517,-0.2929098904132843,-0.15515977144241333,10900.0,-0.591888427734375,-2.9754929542541504,-2.439694404602051,10900.0,-7.554903507232666,-5.253477096557617,7.237073421478271
90,9500.0,-5.652513027191162,-7.979047775268555,0.744488000869751,9500.0,1002.1500244140624,9500.0,-26.32500076293945,-74.59200286865234,-81.90899658203125,9500.0,-0.24709498882293696,1.3637566566467283,-1.2852604389190674,9500.0,-1.0907001495361328,0.4024648666381836,-2.779231548309326,9500.0,-1.7016788721084597,-2.229600429534912,-0.7164648771286011
91,9600.0,-5.781257152557372,-7.91187858581543,0.3868255019187927,9600.0,1002.239990234375,9600.0,-12.765000343322756,-109.0770034790039,-58.13399887084961,9600.0,1.1078041791915894,2.219884395599365,0.2617557644844055,9600.0,4.280748367309569,-0.13934326171875,-2.7351667881011963,9600.0,-6.871957302093506,-7.509413719177246,-2.3924059867858887
92,9700.0,-5.781257152557372,-7.91187858581543,0.3868255019187927,9700.0,1002.239990234375,9700.0,-7.427000045776367,-114.2300033569336,-52.90800094604492,9700.0,1.1078041791915894,2.219884395599365,0.2617557644844055,9700.0,4.280748367309569,-0.13934326171875,-2.7351667881011963,9700.0,-6.871957302093506,-7.509413719177246,-2.3924059867858887
93,9800.0,-5.407220363616943,-8.181106567382812,0.04288695752620697,9800.0,1002.1699829101564,9800.0,3.6559998989105225,-117.20999908447266,-53.88000106811523,9800.0,0.6820310354232788,0.8326093554496765,-1.0430524349212646,9800.0,-3.431999683380127,0.26822757720947266,-3.0163445472717285,9800.0,-1.1264718770980835,-8.320449829101562,-2.692279815673828
94,9900.0,-5.407220363616943,-8.181106567382812,0.04288695752620697,9900.0,1002.1699829101564,9900.0,6.556000232696532,-121.96299743652344,-55.85900115966797,9900.0,0.6820310354232788,0.8326093554496765,-1.0430524349212646,9900.0,-3.431999683380127,0.26822757720947266,-3.0163445472717285,9900.0,-1.1264718770980835,-8.320449829101562,-2.692279815673828
95,10000.0,-5.714449405670166,-7.962593078613281,-0.33553779125213623,10000.0,1002.4199829101564,10000.0,15.890000343322756,-124.16000366210938,-46.05199813842773,10000.0,2.61939024925232,0.9828822016716005,1.7528778314590454,10000.0,-1.5891165733337402,0.1529541015625,-0.8300473690032959,10000.0,-9.146449089050293,-7.694365501403809,-3.3518824577331543
96,10100.0,-5.848471164703369,-7.859889507293701,-0.4334925413131714,10100.0,1002.1500244140624,10100.0,11.70300006866455,-130.69900512695312,-39.24399948120117,10100.0,2.06411361694336,1.5625933408737185,2.666121244430542,10100.0,-7.7089762687683105,-6.2561564445495605,2.3308048248291016,10100.0,-7.437587738037107,-7.706935405731201,-1.2635399103164673
97,10200.0,-5.848471164703369,-7.859889507293701,-0.4334925413131714,10200.0,1002.1500244140624,10200.0,6.997000217437744,-143.79100036621094,-35.505001068115234,10200.0,2.06411361694336,1.5625933408737185,2.666121244430542,10200.0,-7.7089762687683105,-6.2561564445495605,2.3308048248291016,10200.0,-7.437587738037107,-7.706935405731201,-1.2635399103164673
98,10300.0,-6.064267635345459,-7.705630779266357,-0.13532178103923798,10300.0,1002.1099853515624,10300.0,-3.788000106811523,-154.51499938964844,-32.639999389648445,10300.0,1.056491494178772,-0.8326093554496765,0.6450737118721008,10300.0,4.346517562866212,9.144572257995604,2.4051549434661865,10300.0,-13.77324390411377,-13.961787223815918,2.1954829692840576
99,10400.0,-6.064267635345459,-7.705630779266357,-0.13532178103923798,10400.0,1002.1099853515624,10400.0,-6.86899995803833,-162.052001953125,-28.572999954223643,10400.0,1.056491494178772,-0.8326093554496765,0.6450737118721008,10400.0,4.346517562866212,9.144572257995604,2.4051549434661865,10400.0,-13.77324390411377,-13.961787223815918,2.1954829692840576
100,10500.0,-6.276244163513184,-7.533873081207275,0.14107845723628998,10500.0,1002.219970703125,10500.0,-4.468999862670898,-165.60000610351562,-28.59600067138672,10500.0,-1.560455322265625,-1.3946053981781006,-1.7095063924789429,10500.0,-13.21074676513672,-12.279061317443848,11.36147689819336,10500.0,-1.9297266006469729,1.61069917678833,2.5462334156036377
101,10600.0,-6.276244163513184,-7.533873081207275,0.14107845723628998,10600.0,1002.219970703125,10600.0,2.0580000877380367,-166.3249969482422,-30.434999465942386,10600.0,-1.560455322265625,-1.3946053981781006,-1.7095063924789429,10600.0,-13.21074676513672,-12.279061317443848,11.36147689819336,10600.0,-1.9297266006469729,1.61069917678833,2.5462334156036377
102,10700.0,-6.398362636566162,-7.329449653625487,1.2290312051773071,10700.0,1002.2100219726564,10700.0,4.184999942779541,-166.09100341796875,-30.75200080871582,10700.0,-0.4691445231437683,1.7666223049163818,0.39095374941825867,10700.0,-1.06097412109375,1.8788251876831048,5.468024253845215,10700.0,-19.60910987854004,-19.608510971069336,12.590508460998535
103,10800.0,-6.398362636566162,-7.329449653625487,1.2290312051773071,10800.0,1002.2100219726564,10800.0,6.613999843597412,-165.4510040283203,-30.191999435424805,10800.0,-0.4691445231437683,1.7666223049163818,0.39095374941825867,10800.0,-1.06097412109375,1.8788251876831048,5.468024253845215,10800.0,-19.60910987854004,-19.608510971069336,12.590508460998535
104,10900.0,-6.493929386138916,-7.132302284240723,1.7690490484237669,10900.0,1002.239990234375,10900.0,7.5879998207092285,-165.81500244140625,-28.770000457763672,10900.0,0.10842858254909517,-0.2929098904132843,-0.15515977144241333,10900.0,-0.591888427734375,-2.9754929542541504,-2.439694404602051,10900.0,-7.554903507232666,-5.253477096557617,7.237073421478271
105,11000.0,-6.41115140914917,-7.269296169281006,1.4915906190872192,11000.0,1002.260009765625,11000.0,7.5879998207092285,-166.16200256347656,-26.82900047302246,11000.0,2.0219640731811523,1.3078625202178955,1.0051788091659546,11000.0,-0.591888427734375,-2.9754929542541504,-2.439694404602051,11000.0,-7.003039836883545,-10.244789123535156,-0.9481038451194764
106,11100.0,-6.41115140914917,-7.269296169281006,1.4915906190872192,11100.0,1002.260009765625,11100.0,7.5879998207092285,-170.3679962158203,-25.197999954223643,11100.0,2.0219640731811523,1.3078625202178955,1.0051788091659546,11100.0,-1.296654224395752,-4.726977825164795,2.8205623626708984,11100.0,-7.003039836883545,-10.244789123535156,-0.9481038451194764
107,11200.0,-6.235504150390625,-7.378105640411378,1.6889166831970217,11200.0,1002.2000122070312,11200.0,-1.159000039100647,-176.35299682617188,-14.708999633789064,11200.0,1.1047497987747192,-0.1814269721508026,1.1493430137634275,11200.0,1.0169363021850586,1.8028864860534668,-2.5384900569915767,11200.0,-7.532158374786378,-12.105083465576172,4.50947904586792
108,11300.0,-6.235504150390625,-7.378105640411378,1.6889166831970217,11300.0,1002.2000122070312,11300.0,-5.690999984741211,-177.6909942626953,-11.027000427246094,11300.0,1.1047497987747192,-0.1814269721508026,1.1493430137634275,11300.0,1.0169363021850586,1.8028864860534668,-2.5384900569915767,11300.0,-7.532158374786378,-12.105083465576172,4.50947904586792
109,11400.0,-6.286574363708496,-7.379580974578857,1.4802528619766235,11400.0,1002.0999755859376,11400.0,-9.14900016784668,-177.6909942626953,-6.802999973297119,11400.0,-0.4276056587696075,-1.303586483001709,-0.8243626356124878,11400.0,1.6222004890441897,9.403279304504396,0.7443944215774536,11400.0,-5.2696380615234375,-5.5766944885253915,-1.0582371950149536
110,11500.0,-6.286574363708496,-7.379580974578857,1.4802528619766235,11500.0,1002.0999755859376,11500.0,-10.20199966430664,-177.43499755859375,-6.234000205993652,11500.0,-0.4276056587696075,-1.303586483001709,-0.8243626356124878,11500.0,1.6222004890441897,9.403279304504396,0.7443944215774536,11500.0,-5.2696380615234375,-5.5766944885253915,-1.0582371950149536
111,11600.0,-4.214522361755371,-8.794553756713867,1.0315046310424805,11600.0,1002.1500244140624,11600.0,-7.934000015258789,-178.3730010986328,-10.251999855041504,11600.0,-1.2513574361801147,0.7965682744979858,-1.4550809860229492,11600.0,0.7767115831375122,4.113152503967285,1.3444150686264038,11600.0,-2.5923218727111816,0.6087257862091064,1.775899052619934
112,11700.0,-4.214522361755371,-8.794553756713867,1.0315046310424805,11700.0,1002.1500244140624,11700.0,-7.881999969482423,-180.78399658203125,-13.496000289916992,11700.0,-1.2513574361801147,0.7965682744979858,-1.4550809860229492,11700.0,0.7767115831375122,4.113152503967285,1.3444150686264038,11700.0,-2.5923218727111816,0.6087257862091064,1.775899052619934
113,11800.0,-1.890613913536072,-9.52045726776123,-1.3988831043243408,11800.0,1002.1099853515624,11800.0,-5.296000003814697,-180.8769989013672,-15.288999557495115,11800.0,-0.2693915665149689,-0.6676757335662842,0.03878994286060333,11800.0,0.2522244453430176,2.635687828063965,-0.538826584815979,11800.0,-1.1139023303985596,-5.407304763793945,-0.05446808785200119
114,11900.0,-6.277233123779298,-7.248715877532959,2.0549547672271733,11900.0,1002.260009765625,11900.0,-5.296000003814697,-181.3070068359375,-15.182000160217285,11900.0,0.007941247895359993,0.5555819272994995,-0.5079344511032104,11900.0,-5.133707523345947,0.4264192581176758,0.4428990483283997,11900.0,-6.025008678436277,-4.613028049468994,1.5161281824111938
115,12000.0,-6.277233123779298,-7.248715877532959,2.0549547672271733,12000.0,1002.260009765625,12000.0,-5.710999965667725,-181.66900634765625,-15.461000442504885,12000.0,0.007941247895359993,0.5555819272994995,-0.5079344511032104,12000.0,-5.133707523345947,0.4264192581176758,0.4428990483283997,12000.0,-6.025008678436277,-4.613028049468994,1.5161281824111938
116,12100.0,-6.2022385597229,-7.537796974182129,0.9403509497642516,12100.0,1002.1300048828124,12100.0,-5.035999774932861,-181.66900634765625,-15.760000228881836,12100.0,3.5329391956329346,0.30573806166648865,1.3041973114013672,12100.0,1.3346357345581057,-5.361975193023682,-5.1806254386901855,12100.0,-11.335946083068848,-7.111377716064452,1.3832499980926514
117,12200.0,-6.2022385597229,-7.537796974182129,0.9403509497642516,12200.0,1002.1300048828124,12200.0,-7.090000152587893,-181.66900634765625,-15.760000228881836,12200.0,3.5329391956329346,0.30573806166648865,1.3041973114013672,12200.0,1.3346357345581057,-5.361975193023682,-5.1806254386901855,12200.0,-11.335946083068848,-7.111377716064452,1.3832499980926514
118,12300.0,-8.068327903747559,-3.5360751152038574,4.309135913848877,12300.0,1001.969970703125,12300.0,-13.505000114440918,-176.89199829101562,-6.915999889373777,12300.0,0.07391469180583954,-1.608102798461914,0.7678576111793518,12300.0,6.578744411468506,-1.3029279708862305,-7.552379131317139,12300.0,-6.733692169189452,-8.898050308227539,-0.871489405632019
119,12400.0,-8.068327903747559,-3.5360751152038574,4.309135913848877,12400.0,1001.969970703125,12400.0,-16.791999816894528,-171.4290008544922,-6.2829999923706055,12400.0,0.07391469180583954,-1.608102798461914,0.7678576111793518,12400.0,6.578744411468506,-1.3029279708862305,-7.552379131317139,12400.0,-6.733692169189452,-8.898050308227539,-0.871489405632019
120,11000.0,-6.41115140914917,-7.269296169281006,1.4915906190872192,11000.0,1002.260009765625,11000.0,7.5879998207092285,-166.16200256347656,-26.82900047302246,11000.0,2.0219640731811523,1.3078625202178955,1.0051788091659546,11000.0,-0.591888427734375,-2.9754929542541504,-2.439694404602051,11000.0,-7.003039836883545,-10.244789123535156,-0.9481038451194764
121,11100.0,-6.41115140914917,-7.269296169281006,1.4915906190872192,11100.0,1002.260009765625,11100.0,7.5879998207092285,-170.3679962158203,-25.197999954223643,11100.0,2.0219640731811523,1.3078625202178955,1.0051788091659546,11100.0,-1.296654224395752,-4.726977825164795,2.8205623626708984,11100.0,-7.003039836883545,-10.244789123535156,-0.9481038451194764
122,11200.0,-6.235504150390625,-7.378105640411378,1.6889166831970217,11200.0,1002.2000122070312,11200.0,-1.159000039100647,-176.35299682617188,-14.708999633789064,11200.0,1.1047497987747192,-0.1814269721508026,1.1493430137634275,11200.0,1.0169363021850586,1.8028864860534668,-2.5384900569915767,11200.0,-7.532158374786378,-12.105083465576172,4.50947904586792
123,11300.0,-6.235504150390625,-7.378105640411378,1.6889166831970217,11300.0,1002.2000122070312,11300.0,-5.690999984741211,-177.6909942626953,-11.027000427246094,11300.0,1.1047497987747192,-0.1814269721508026,1.1493430137634275,11300.0,1.0169363021850586,1.8028864860534668,-2.5384900569915767,11300.0,-7.532158374786378,-12.105083465576172,4.50947904586792
124,11400.0,-6.286574363708496,-7.379580974578857,1.4802528619766235,11400.0,1002.0999755859376,11400.0,-9.14900016784668,-177.6909942626953,-6.802999973297119,11400.0,-0.4276056587696075,-1.303586483001709,-0.8243626356124878,11400.0,1.6222004890441897,9.403279304504396,0.7443944215774536,11400.0,-5.2696380615234375,-5.5766944885253915,-1.0582371950149536
125,11500.0,-6.286574363708496,-7.379580974578857,1.4802528619766235,11500.0,1002.0999755859376,11500.0,-10.20199966430664,-177.43499755859375,-6.234000205993652,11500.0,-0.4276056587696075,-1.303586483001709,-0.8243626356124878,11500.0,1.6222004890441897,9.403279304504396,0.7443944215774536,11500.0,-5.2696380615234375,-5.5766944885253915,-1.0582371950149536
126,11600.0,-4.214522361755371,-8.794553756713867,1.0315046310424805,11600.0,1002.1500244140624,11600.0,-7.934000015258789,-178.3730010986328,-10.251999855041504,11600.0,-1.2513574361801147,0.7965682744979858,-1.4550809860229492,11600.0,0.7767115831375122,4.113152503967285,1.3444150686264038,11600.0,-2.5923218727111816,0.6087257862091064,1.775899052619934
127,11700.0,-4.214522361755371,-8.794553756713867,1.0315046310424805,11700.0,1002.1500244140624,11700.0,-7.881999969482423,-180.78399658203125,-13.496000289916992,11700.0,-1.2513574361801147,0.7965682744979858,-1.4550809860229492,11700.0,0.7767115831375122,4.113152503967285,1.3444150686264038,11700.0,-2.5923218727111816,0.6087257862091064,1.775899052619934
128,11800.0,-1.890613913536072,-9.52045726776123,-1.3988831043243408,11800.0,1002.1099853515624,11800.0,-5.296000003814697,-180.8769989013672,-15.288999557495115,11800.0,-0.2693915665149689,-0.6676757335662842,0.03878994286060333,11800.0,0.2522244453430176,2.635687828063965,-0.538826584815979,11800.0,-1.1139023303985596,-5.407304763793945,-0.05446808785200119
129,11900.0,-6.277233123779298,-7.248715877532959,2.0549547672271733,11900.0,1002.260009765625,11900.0,-5.296000003814697,-181.3070068359375,-15.182000160217285,11900.0,0.007941247895359993,0.5555819272994995,-0.5079344511032104,11900.0,-5.133707523345947,0.4264192581176758,0.4428990483283997,11900.0,-6.025008678436277,-4.613028049468994,1.5161281824111938
130,12000.0,-6.277233123779298,-7.248715877532959,2.0549547672271733,12000.0,1002.260009765625,12000.0,-5.710999965667725,-181.66900634765625,-15.461000442504885,12000.0,0.007941247895359993,0.5555819272994995,-0.5079344511032104,12000.0,-5.133707523345947,0.4264192581176758,0.4428990483283997,12000.0,-6.025008678436277,-4.613028049468994,1.5161281824111938
131,12100.0,-6.2022385597229,-7.537796974182129,0.9403509497642516,12100.0,1002.1300048828124,12100.0,-5.035999774932861,-181.66900634765625,-15.760000228881836,12100.0,3.5329391956329346,0.30573806166648865,1.3041973114013672,12100.0,1.3346357345581057,-5.361975193023682,-5.1806254386901855,12100.0,-11.335946083068848,-7.111377716064452,1.3832499980926514
132,12200.0,-6.2022385597229,-7.537796974182129,0.9403509497642516,12200.0,1002.1300048828124,12200.0,-7.090000152587893,-181.66900634765625,-15.760000228881836,12200.0,3.5329391956329346,0.30573806166648865,1.3041973114013672,12200.0,1.3346357345581057,-5.361975193023682,-5.1806254386901855,12200.0,-11.335946083068848,-7.111377716064452,1.3832499980926514
133,12300.0,-8.068327903747559,-3.5360751152038574,4.309135913848877,12300.0,1001.969970703125,12300.0,-13.505000114440918,-176.89199829101562,-6.915999889373777,12300.0,0.07391469180583954,-1.608102798461914,0.7678576111793518,12300.0,6.578744411468506,-1.3029279708862305,-7.552379131317139,12300.0,-6.733692169189452,-8.898050308227539,-0.871489405632019
134,12400.0,-8.068327903747559,-3.5360751152038574,4.309135913848877,12400.0,1001.969970703125,12400.0,-16.791999816894528,-171.4290008544922,-6.2829999923706055,12400.0,0.07391469180583954,-1.608102798461914,0.7678576111793518,12400.0,6.578744411468506,-1.3029279708862305,-7.552379131317139,12400.0,-6.733692169189452,-8.898050308227539,-0.871489405632019
135,12500.0,-6.922910690307617,-2.2997469902038574,6.553997039794923,12500.0,1002.1699829101564,12500.0,-18.57900047302246,-169.447998046875,-6.7729997634887695,12500.0,-0.8552113175392151,-1.8167132139205933,-1.8054121732711792,12500.0,-5.960643291473389,-3.2155370712280287,-7.53526496887207,12500.0,-0.34416648745536804,-3.602674961090088,-0.9983820915222168
136,12600.0,-6.922910690307617,-2.2997469902038574,6.553997039794923,12600.0,1002.1699829101564,12600.0,-18.57900047302246,-171.72300720214844,-7.666999816894531,12600.0,-0.8552113175392151,-1.8167132139205933,-1.8054121732711792,12600.0,-5.960643291473389,-3.2155370712280287,-7.53526496887207,12600.0,-0.34416648745536804,-3.602674961090088,-0.9983820915222168
137,12700.0,-3.6658434867858887,-9.069710731506348,0.6872496008872986,12700.0,1002.1699829101564,12700.0,-18.048999786376953,-171.72300720214844,-13.229000091552734,12700.0,-1.066265344619751,2.057699680328369,-0.2638937830924988,12700.0,-1.8665513992309568,0.3782124519348145,8.470302581787111,12700.0,-9.626486778259276,-12.285247802734375,-6.848015308380128
138,12800.0,-5.836194038391112,-7.347135066986084,-2.851111650466919,12800.0,1002.1699829101564,12800.0,-18.048999786376953,-171.34800720214844,-17.11199951171875,12800.0,-0.2657263875007629,-1.7055357694625854,-0.27122417092323303,12800.0,-1.22825288772583,-0.00827646255493164,-2.7679309844970703,12800.0,-7.70274543762207,-6.9689226150512695,5.6191911697387695
139,12900.0,-5.836194038391112,-7.347135066986084,-2.851111650466919,12900.0,1002.1699829101564,12900.0,-18.048999786376953,-171.34800720214844,-20.045000076293945,12900.0,-0.2657263875007629,-1.7055357694625854,-0.27122417092323303,12900.0,-1.22825288772583,-0.00827646255493164,-2.7679309844970703,12900.0,-7.70274543762207,-6.9689226150512695,5.6191911697387695
140,13000.0,-5.781371116638184,-7.598102569580077,2.239410877227783,13000.0,1002.0999755859376,13000.0,-17.732999801635742,-171.6719970703125,-20.61100006103516,13000.0,0.4999932050704956,0.3029891550540924,0.2464841306209564,13000.0,-3.3488354682922363,-2.0747818946838383,-1.560805082321167,13000.0,-7.009624004364014,-7.60637903213501,-0.5285200476646423
141,13100.0,-5.781371116638184,-7.598102569580077,2.239410877227783,13100.0,1002.0999755859376,13100.0,-17.732999801635742,-171.27499389648438,-20.527000427246094,13100.0,0.4999932050704956,0.3029891550540924,0.2464841306209564,13100.0,-3.3488354682922363,-2.0747818946838383,-1.560805082321167,13100.0,-7.009624004364014,-7.60637903213501,-0.5285200476646423
142,13200.0,-7.066540241241455,-6.752640247344973,0.797653317451477,13200.0,1002.1199951171876,13200.0,-22.80200004577637,-165.0449981689453,-19.66200065612793,13200.0,-0.7235698699951172,-0.960280179977417,0.2977968156337738,13200.0,-6.516280651092527,0.02558612823486328,4.836914539337158,13200.0,-10.415375709533693,-8.827422142028809,-0.7631517648696899
143,13300.0,-7.066540241241455,-6.752640247344973,0.797653317451477,13300.0,1002.1199951171876,13300.0,-25.5049991607666,-159.7830047607422,-16.346000671386722,13300.0,-0.7235698699951172,-0.960280179977417,0.2977968156337738,13300.0,-6.516280651092527,0.02558612823486328,4.836914539337158,13300.0,-10.415375709533693,-8.827422142028809,-0.7631517648696899
144,13400.0,-7.221648693084718,-6.479755401611327,1.4251198768615725,13400.0,1002.0999755859376,13400.0,-26.6200008392334,-153.34100341796875,-13.616000175476074,13400.0,-0.2935207486152649,-0.26664268970489496,0.6475171446800232,13400.0,4.785919189453125,3.0006263256073,0.2864933013916016,13400.0,-13.737929344177244,-6.454169273376465,6.2620344161987305
145,13500.0,-7.221648693084718,-6.479755401611327,1.4251198768615725,13500.0,1002.0999755859376,13500.0,-26.23900032043457,-149.3979949951172,-12.272000312805176,13500.0,-0.2935207486152649,-0.26664268970489496,0.6475171446800232,13500.0,4.785919189453125,3.0006263256073,0.2864933013916016,13500.0,-13.737929344177244,-6.454169273376465,6.2620344161987305
146,13600.0,-7.920527935028076,-5.577385902404785,1.525917410850525,13600.0,1002.1099853515624,13600.0,-26.65500068664551,-149.656005859375,-13.522000312805176,13600.0,-0.3136793076992035,0.007635815534740685,-0.3988949954509735,13600.0,3.957941293716431,1.5291643142700195,-0.6569706201553345,13600.0,-3.134608507156372,-2.5767595767974854,1.8124107122421265
147,13700.0,-7.570791721343994,-6.108075141906737,1.242951512336731,13700.0,1002.0900268554688,13700.0,-26.992000579833984,-150.5489959716797,-13.522000312805176,13700.0,-0.8332201838493347,1.0436632633209229,-0.4734205603599548,13700.0,-2.074115753173828,2.1427245140075684,2.4058663845062256,13700.0,-3.612850427627564,-4.578910827636719,0.5859808921813965
148,13800.0,-7.570791721343994,-6.108075141906737,1.242951512336731,13800.0,1002.0900268554688,13800.0,-26.992000579833984,-150.18600463867188,-15.027999877929688,13800.0,-0.8332201838493347,1.0436632633209229,-0.4734205603599548,13800.0,-2.074115753173828,2.1427245140075684,2.4058663845062256,13800.0,-3.612850427627564,-4.578910827636719,0.5859808921813965
149,13900.0,-6.617434501647949,-7.146007537841798,-1.1465163230895996,13900.0,1002.0599975585938,13900.0,-26.67600059509277,-150.18600463867188,-16.63599967956543,13900.0,-0.22052235901355746,1.0858129262924194,-0.3549126982688904,13900.0,-0.3211598396301269,0.4677624702453613,0.03916251659393311,13900.0,-8.691550254821777,-5.0032830238342285,1.259350061416626
150,12500.0,-6.922910690307617,-2.2997469902038574,6.553997039794923,12500.0,1002.1699829101564,12500.0,-18.57900047302246,-169.447998046875,-6.7729997634887695,12500.0,-0.8552113175392151,-1.8167132139205933,-1.8054121732711792,12500.0,-5.960643291473389,-3.2155370712280287,-7.53526496887207,12500.0,-0.34416648745536804,-3.602674961090088,-0.9983820915222168
151,12600.0,-6.922910690307617,-2.2997469902038574,6.553997039794923,12600.0,1002.1699829101564,12600.0,-18.57900047302246,-171.72300720214844,-7.666999816894531,12600.0,-0.8552113175392151,-1.8167132139205933,-1.8054121732711792,12600.0,-5.960643291473389,-3.2155370712280287,-7.53526496887207,12600.0,-0.34416648745536804,-3.602674961090088,-0.9983820915222168
152,12700.0,-3.6658434867858887,-9.069710731506348,0.6872496008872986,12700.0,1002.1699829101564,12700.0,-18.048999786376953,-171.72300720214844,-13.229000091552734,12700.0,-1.066265344619751,2.057699680328369,-0.2638937830924988,12700.0,-1.8665513992309568,0.3782124519348145,8.470302581787111,12700.0,-9.626486778259276,-12.285247802734375,-6.848015308380128
153,12800.0,-5.836194038391112,-7.347135066986084,-2.851111650466919,12800.0,1002.1699829101564,12800.0,-18.048999786376953,-171.34800720214844,-17.11199951171875,12800.0,-0.2657263875007629,-1.7055357694625854,-0.27122417092323303,12800.0,-1.22825288772583,-0.00827646255493164,-2.7679309844970703,12800.0,-7.70274543762207,-6.9689226150512695,5.6191911697387695
154,12900.0,-5.836194038391112,-7.347135066986084,-2.851111650466919,12900.0,1002.1699829101564,12900.0,-18.048999786376953,-171.34800720214844,-20.045000076293945,12900.0,-0.2657263875007629,-1.7055357694625854,-0.27122417092323303,12900.0,-1.22825288772583,-0.00827646255493164,-2.7679309844970703,12900.0,-7.70274543762207,-6.9689226150512695,5.6191911697387695
155,13000.0,-5.781371116638184,-7.598102569580077,2.239410877227783,13000.0,1002.0999755859376,13000.0,-17.732999801635742,-171.6719970703125,-20.61100006103516,13000.0,0.4999932050704956,0.3029891550540924,0.2464841306209564,13000.0,-3.3488354682922363,-2.0747818946838383,-1.560805082321167,13000.0,-7.009624004364014,-7.60637903213501,-0.5285200476646423
156,13100.0,-5.781371116638184,-7.598102569580077,2.239410877227783,13100.0,1002.0999755859376,13100.0,-17.732999801635742,-171.27499389648438,-20.527000427246094,13100.0,0.4999932050704956,0.3029891550540924,0.2464841306209564,13100.0,-3.3488354682922363,-2.0747818946838383,-1.560805082321167,13100.0,-7.009624004364014,-7.60637903213501,-0.5285200476646423
157,13200.0,-7.066540241241455,-6.752640247344973,0.797653317451477,13200.0,1002.1199951171876,13200.0,-22.80200004577637,-165.0449981689453,-19.66200065612793,13200.0,-0.7235698699951172,-0.960280179977417,0.2977968156337738,13200.0,-6.516280651092527,0.02558612823486328,4.836914539337158,13200.0,-10.415375709533693,-8.827422142028809,-0.7631517648696899
158,13300.0,-7.066540241241455,-6.752640247344973,0.797653317451477,13300.0,1002.1199951171876,13300.0,-25.5049991607666,-159.7830047607422,-16.346000671386722,13300.0,-0.7235698699951172,-0.960280179977417,0.2977968156337738,13300.0,-6.516280651092527,0.02558612823486328,4.836914539337158,13300.0,-10.415375709533693,-8.827422142028809,-0.7631517648696899
159,13400.0,-7.221648693084718,-6.479755401611327,1.4251198768615725,13400.0,1002.0999755859376,13400.0,-26.6200008392334,-153.34100341796875,-13.616000175476074,13400.0,-0.2935207486152649,-0.26664268970489496,0.6475171446800232,13400.0,4.785919189453125,3.0006263256073,0.2864933013916016,13400.0,-13.737929344177244,-6.454169273376465,6.2620344161987305
160,13500.0,-7.221648693084718,-6.479755401611327,1.4251198768615725,13500.0,1002.0999755859376,13500.0,-26.23900032043457,-149.3979949951172,-12.272000312805176,13500.0,-0.2935207486152649,-0.26664268970489496,0.6475171446800232,13500.0,4.785919189453125,3.0006263256073,0.2864933013916016,13500.0,-13.737929344177244,-6.454169273376465,6.2620344161987305
161,13600.0,-7.920527935028076,-5.577385902404785,1.525917410850525,13600.0,1002.1099853515624,13600.0,-26.65500068664551,-149.656005859375,-13.522000312805176,13600.0,-0.3136793076992035,0.007635815534740685,-0.3988949954509735,13600.0,3.957941293716431,1.5291643142700195,-0.6569706201553345,13600.0,-3.134608507156372,-2.5767595767974854,1.8124107122421265
162,13700.0,-7.570791721343994,-6.108075141906737,1.242951512336731,13700.0,1002.0900268554688,13700.0,-26.992000579833984,-150.5489959716797,-13.522000312805176,13700.0,-0.8332201838493347,1.0436632633209229,-0.4734205603599548,13700.0,-2.074115753173828,2.1427245140075684,2.4058663845062256,13700.0,-3.612850427627564,-4.578910827636719,0.5859808921813965
163,13800.0,-7.570791721343994,-6.108075141906737,1.242951512336731,13800.0,1002.0900268554688,13800.0,-26.992000579833984,-150.18600463867188,-15.027999877929688,13800.0,-0.8332201838493347,1.0436632633209229,-0.4734205603599548,13800.0,-2.074115753173828,2.1427245140075684,2.4058663845062256,13800.0,-3.612850427627564,-4.578910827636719,0.5859808921813965
164,13900.0,-6.617434501647949,-7.146007537841798,-1.1465163230895996,13900.0,1002.0599975585938,13900.0,-26.67600059509277,-150.18600463867188,-16.63599967956543,13900.0,-0.22052235901355746,1.0858129262924194,-0.3549126982688904,13900.0,-0.3211598396301269,0.4677624702453613,0.03916251659393311,13900.0,-8.691550254821777,-5.0032830238342285,1.259350061416626
165,14000.0,-6.617434501647949,-7.146007537841798,-1.1465163230895996,14000.0,1002.0599975585938,14000.0,-26.28400039672852,-150.49400329589844,-16.972999572753903,14000.0,-0.22052235901355746,1.0858129262924194,-0.3549126982688904,14000.0,-0.3211598396301269,0.4677624702453613,0.03916251659393311,14000.0,-8.691550254821777,-5.0032830238342285,1.259350061416626
166,14100.0,-6.821342468261719,-7.017699718475343,-0.6257419586181641,14100.0,1002.0700073242188,14100.0,-25.54400062561035,-150.8249969482422,-17.43899917602539,14100.0,0.3585779070854187,0.618195652961731,0.20311269164085388,14100.0,-0.4370236396789551,-3.1076936721801762,-0.752950131893158,14100.0,-7.142502307891848,-6.5499372482299805,-0.586579442024231
167,14200.0,-6.821342468261719,-7.017699718475343,-0.6257419586181641,14200.0,1002.0700073242188,14200.0,-24.707000732421875,-150.8249969482422,-17.80299949645996,14200.0,0.3585779070854187,0.618195652961731,0.20311269164085388,14200.0,-0.4370236396789551,-3.1076936721801762,-0.752950131893158,14200.0,-7.142502307891848,-6.5499372482299805,-0.586579442024231
168,14300.0,-7.432717323303223,-6.377534866333008,0.5021575093269348,14300.0,1002.0800170898438,14300.0,-23.97900009155273,-150.20700073242188,-18.11899948120117,14300.0,1.4559973478317259,-0.3338378667831421,0.685390830039978,14300.0,-1.9262018203735352,-4.733975887298584,2.2250263690948486,14300.0,-7.869740962982178,-9.485228538513184,-0.25079262256622314
169,14400.0,-7.432717323303223,-6.377534866333008,0.5021575093269348,14400.0,1002.0800170898438,14400.0,-20.63400077819824,-148.66700744628906,-16.499000549316403,14400.0,1.4559973478317259,-0.3338378667831421,0.685390830039978,14400.0,-1.9262018203735352,-4.733975887298584,2.2250263690948486,14400.0,-7.869740962982178,-9.485228538513184,-0.25079262256622314
170,14500.0,-7.651802062988281,-5.173829555511475,3.2942073345184326,14500.0,1001.7999877929688,14500.0,-17.416000366210938,-147.86199951171875,-15.538999557495115,14500.0,0.6688974499702454,0.8665123581886292,1.0503827333450315,14500.0,5.031322479248047,0.008088111877441406,-1.1862765550613403,14500.0,-9.578003883361816,-9.90780544281006,5.519233703613281
171,14600.0,-8.948236465454102,-3.11276912689209,2.53181791305542,14600.0,1002.030029296875,14600.0,-15.895999908447266,-147.5019989013672,-15.538999557495115,14600.0,-0.4792237877845764,-0.9673051238059998,-1.7486017942428589,14600.0,-8.19996166229248,-7.134689807891848,-5.19223690032959,14600.0,-3.916913986206055,-3.1046810150146484,1.3455413579940796
172,14700.0,-8.948236465454102,-3.11276912689209,2.53181791305542,14700.0,1002.030029296875,14700.0,-15.895999908447266,-146.76800537109375,-14.821999549865724,14700.0,-0.4792237877845764,-0.9673051238059998,-1.7486017942428589,14700.0,-8.19996166229248,-7.134689807891848,-5.19223690032959,14700.0,-3.916913986206055,-3.1046810150146484,1.3455413579940796
173,14800.0,-7.085819244384768,-5.758086681365968,3.5785448551177983,14800.0,1002.010009765625,14800.0,-15.895999908447266,-146.76800537109375,-14.821999549865724,14800.0,-0.8994990587234497,2.2907447814941406,-0.2217440903186798,14800.0,-5.3785667419433585,-5.335151195526123,-1.17891263961792,14800.0,-15.285780906677244,-12.892776489257812,-1.6136919260025024
174,14900.0,-7.085819244384768,-5.758086681365968,3.5785448551177983,14900.0,1002.010009765625,14900.0,-15.255000114440918,-146.46099853515625,-15.175999641418455,14900.0,-0.8994990587234497,2.2907447814941406,-0.2217440903186798,14900.0,-5.3785667419433585,-5.335151195526123,-1.17891263961792,14900.0,-15.285780906677244,-12.892776489257812,-1.6136919260025024
175,15000.0,-6.27101993560791,-6.705289363861084,-3.447283744812012,15000.0,1002.0499877929688,15000.0,-14.914999961853027,-146.46099853515625,-15.972000122070312,15000.0,-0.6163630485534668,-0.26511552929878235,-0.19578230381011968,15000.0,0.7065458297729492,1.4137277603149414,-0.8663207888603209,15000.0,-11.64958667755127,-12.040440559387207,-4.626196384429932
176,15100.0,-6.27101993560791,-6.705289363861084,-3.447283744812012,15100.0,1002.0499877929688,15100.0,-14.543999671936035,-146.46099853515625,-16.732000350952152,15100.0,-0.6163630485534668,-0.26511552929878235,-0.19578230381011968,15100.0,0.7065458297729492,1.4137277603149414,-0.8663207888603209,15100.0,-11.64958667755127,-12.040440559387207,-4.626196384429932
177,15200.0,-6.95660924911499,-6.9114131927490225,-0.09135989844799043,15200.0,1002.0499877929688,15200.0,-13.847000122070312,-146.46099853515625,-17.472000122070312,15200.0,0.04520402848720551,0.3781255781650543,-0.6594290137290955,15200.0,-3.4521093368530287,1.5540709495544434,-0.02272897958755493,15200.0,-6.250063419342041,-5.497685432434082,-0.9576807022094728
178,15300.0,-6.95660924911499,-6.9114131927490225,-0.09135989844799043,15300.0,1002.0499877929688,15300.0,-13.517000198364258,-146.46099853515625,-18.150999069213867,15300.0,0.04520402848720551,0.3781255781650543,-0.6594290137290955,15300.0,-3.4521093368530287,1.5540709495544434,-0.02272897958755493,15300.0,-6.250063419342041,-5.497685432434082,-0.9576807022094728
179,15400.0,-6.549668312072754,-7.297760963439941,-0.1221202164888382,15400.0,1002.0700073242188,15400.0,-12.798999786376953,-146.46099853515625,-18.55699920654297,15400.0,3.0915889739990234,0.20799961686134336,0.8662069439888,15400.0,0.31153011322021484,-4.436511039733887,-1.197716474533081,15400.0,-10.00177764892578,-5.743690013885497,-0.14484919607639313
180,14000.0,-6.617434501647949,-7.146007537841798,-1.1465163230895996,14000.0,1002.0599975585938,14000.0,-26.28400039672852,-150.49400329589844,-16.972999572753903,14000.0,-0.22052235901355746,1.0858129262924194,-0.3549126982688904,14000.0,-0.3211598396301269,0.4677624702453613,0.03916251659393311,14000.0,-8.691550254821777,-5.0032830238342285,1.259350061416626
181,14100.0,-6.821342468261719,-7.017699718475343,-0.6257419586181641,14100.0,1002.0700073242188,14100.0,-25.54400062561035,-150.8249969482422,-17.43899917602539,14100.0,0.3585779070854187,0.618195652961731,0.20311269164085388,14100.0,-0.4370236396789551,-3.1076936721801762,-0.752950131893158,14100.0,-7.142502307891848,-6.5499372482299805,-0.586579442024231
182,14200.0,-6.821342468261719,-7.017699718475343,-0.6257419586181641,14200.0,1002.0700073242188,14200.0,-24.707000732421875,-150.8249969482422,-17.80299949645996,14200.0,0.3585779070854187,0.618195652961731,0.20311269164085388,14200.0,-0.4370236396789551,-3.1076936721801762,-0.752950131893158,14200.0,-7.142502307891848,-6.5499372482299805,-0.586579442024231
183,14300.0,-7.432717323303223,-6.377534866333008,0.5021575093269348,14300.0,1002.0800170898438,14300.0,-23.97900009155273,-150.20700073242188,-18.11899948120117,14300.0,1.4559973478317259,-0.3338378667831421,0.685390830039978,14300.0,-1.9262018203735352,-4.733975887298584,2.2250263690948486,14300.0,-7.869740962982178,-9.485228538513184,-0.25079262256622314
184,14400.0,-7.432717323303223,-6.377534866333008,0.5021575093269348,14400.0,1002.0800170898438,14400.0,-20.63400077819824,-148.66700744628906,-16.499000549316403,14400.0,1.4559973478317259,-0.3338378667831421,0.685390830039978,14400.0,-1.9262018203735352,-4.733975887298584,2.2250263690948486,14400.0,-7.869740962982178,-9.485228538513184,-0.25079262256622314
185,14500.0,-7.651802062988281,-5.173829555511475,3.2942073345184326,14500.0,1001.7999877929688,14500.0,-17.416000366210938,-147.86199951171875,-15.538999557495115,14500.0,0.6688974499702454,0.8665123581886292,1.0503827333450315,14500.0,5.031322479248047,0.008088111877441406,-1.1862765550613403,14500.0,-9.578003883361816,-9.90780544281006,5.519233703613281
186,14600.0,-8.948236465454102,-3.11276912689209,2.53181791305542,14600.0,1002.030029296875,14600.0,-15.895999908447266,-147.5019989013672,-15.538999557495115,14600.0,-0.4792237877845764,-0.9673051238059998,-1.7486017942428589,14600.0,-8.19996166229248,-7.134689807891848,-5.19223690032959,14600.0,-3.916913986206055,-3.1046810150146484,1.3455413579940796
187,14700.0,-8.948236465454102,-3.11276912689209,2.53181791305542,14700.0,1002.030029296875,14700.0,-15.895999908447266,-146.76800537109375,-14.821999549865724,14700.0,-0.4792237877845764,-0.9673051238059998,-1.7486017942428589,14700.0,-8.19996166229248,-7.134689807891848,-5.19223690032959,14700.0,-3.916913986206055,-3.1046810150146484,1.3455413579940796
188,14800.0,-7.085819244384768,-5.758086681365968,3.5785448551177983,14800.0,1002.010009765625,14800.0,-15.895999908447266,-146.76800537109375,-14.821999549865724,14800.0,-0.8994990587234497,2.2907447814941406,-0.2217440903186798,14800.0,-5.3785667419433585,-5.335151195526123,-1.17891263961792,14800.0,-15.285780906677244,-12.892776489257812,-1.6136919260025024
189,14900.0,-7.085819244384768,-5.758086681365968,3.5785448551177983,14900.0,1002.010009765625,14900.0,-15.255000114440918,-146.46099853515625,-15.175999641418455,14900.0,-0.8994990587234497,2.2907447814941406,-0.2217440903186798,14900.0,-5.3785667419433585,-5.335151195526123,-1.17891263961792,14900.0,-15.285780906677244,-12.892776489257812,-1.6136919260025024
190,15000.0,-6.27101993560791,-6.705289363861084,-3.447283744812012,15000.0,1002.0499877929688,15000.0,-14.914999961853027,-146.46099853515625,-15.972000122070312,15000.0,-0.6163630485534668,-0.26511552929878235,-0.19578230381011968,15000.0,0.7065458297729492,1.4137277603149414,-0.8663207888603209,15000.0,-11.64958667755127,-12.040440559387207,-4.626196384429932
191,15100.0,-6.27101993560791,-6.705289363861084,-3.447283744812012,15100.0,1002.0499877929688,15100.0,-14.543999671936035,-146.46099853515625,-16.732000350952152,15100.0,-0.6163630485534668,-0.26511552929878235,-0.19578230381011968,15100.0,0.7065458297729492,1.4137277603149414,-0.8663207888603209,15100.0,-11.64958667755127,-12.040440559387207,-4.626196384429932
192,15200.0,-6.95660924911499,-6.9114131927490225,-0.09135989844799043,15200.0,1002.0499877929688,15200.0,-13.847000122070312,-146.46099853515625,-17.472000122070312,15200.0,0.04520402848720551,0.3781255781650543,-0.6594290137290955,15200.0,-3.4521093368530287,1.5540709495544434,-0.02272897958755493,15200.0,-6.250063419342041,-5.497685432434082,-0.9576807022094728
193,15300.0,-6.95660924911499,-6.9114131927490225,-0.09135989844799043,15300.0,1002.0499877929688,15300.0,-13.517000198364258,-146.46099853515625,-18.150999069213867,15300.0,0.04520402848720551,0.3781255781650543,-0.6594290137290955,15300.0,-3.4521093368530287,1.5540709495544434,-0.02272897958755493,15300.0,-6.250063419342041,-5.497685432434082,-0.9576807022094728
194,15400.0,-6.549668312072754,-7.297760963439941,-0.1221202164888382,15400.0,1002.0700073242188,15400.0,-12.798999786376953,-146.46099853515625,-18.55699920654297,15400.0,3.0915889739990234,0.20799961686134336,0.8662069439888,15400.0,0.31153011322021484,-4.436511039733887,-1.197716474533081,15400.0,-10.00177764892578,-5.743690013885497,-0.14484919607639313
195,15500.0,-8.193242073059082,-4.335245132446288,3.2010648250579834,15500.0,1001.97998046875,15500.0,-12.42300033569336,-146.46099853515625,-18.886999130249023,15500.0,0.8344419002532959,-1.7870862483978271,1.3542882204055786,15500.0,5.6001296043396,-3.8570716381073,-5.64005184173584,15500.0,-7.881711959838867,-8.771756172180176,2.0033483505249023
196,15600.0,-8.193242073059082,-4.335245132446288,3.2010648250579834,15600.0,1001.97998046875,15600.0,-11.697999954223633,-146.46099853515625,-19.202999114990234,15600.0,0.8344419002532959,-1.7870862483978271,1.3542882204055786,15600.0,5.6001296043396,-3.8570716381073,-5.64005184173584,15600.0,-7.881711959838867,-8.771756172180176,2.0033483505249023
197,15700.0,-7.448453426361084,-1.629241704940796,6.167374610900879,15700.0,1002.0,15700.0,-11.388999938964846,-146.46099853515625,-19.910999298095703,15700.0,0.4996877610683441,-1.2311989068984983,-0.2428189367055893,15700.0,1.5468416213989258,0.16946375370025635,-4.4731101989746085,15700.0,-1.8483237028121948,-5.486313343048097,0.5273229479789734
198,15800.0,-7.448453426361084,-1.629241704940796,6.167374610900879,15800.0,1002.0,15800.0,-11.388999938964846,-147.14599609375,-19.910999298095703,15800.0,0.4996877610683441,-1.2311989068984983,-0.2428189367055893,15800.0,1.5468416213989258,0.16946375370025635,-4.4731101989746085,15800.0,-1.8483237028121948,-5.486313343048097,0.5273229479789734
199,15900.0,-5.830068588256836,-1.158867597579956,7.799853801727295,15900.0,1002.0399780273438,15900.0,-11.699999809265135,-147.47999572753906,-19.910999298095703,15900.0,-0.4624249935150146,0.16523905098438266,-0.9657779335975648,15900.0,-9.041330337524414,-10.244499206542967,-6.406003952026367,15900.0,-4.28322696685791,-0.9894038438796996,3.3267433643341064
200,16000.0,-5.830068588256836,-1.158867597579956,7.799853801727295,16000.0,1002.0399780273438,16000.0,-11.699999809265135,-147.47999572753906,-19.910999298095703,16000.0,-0.4624249935150146,0.16523905098438266,-0.9657779335975648,16000.0,-9.041330337524414,-10.244499206542967,-6.406003952026367,16000.0,-4.28322696685791,-0.9894038438796996,3.3267433643341064
201,16100.0,-5.734485626220702,-2.68239426612854,7.489380359649657,16100.0,1002.030029296875,16100.0,-11.083000183105467,-147.47999572753906,-19.910999298095703,16100.0,0.7660250067710876,2.3961188793182373,0.27061331272125244,16100.0,1.5462942123413086,3.5549650192260738,-1.1985245943069458,16100.0,-14.775815963745115,-12.92689323425293,1.0833762884140017
202,16200.0,-5.734485626220702,-2.68239426612854,7.489380359649657,16200.0,1002.030029296875,16200.0,-10.432000160217283,-146.79200744628906,-19.910999298095703,16200.0,0.7660250067710876,2.3961188793182373,0.27061331272125244,16200.0,1.5462942123413086,3.5549650192260738,-1.1985245943069458,16200.0,-14.775815963745115,-12.92689323425293,1.0833762884140017
203,16300.0,-7.407299995422362,-6.149082660675049,-1.8684478998184204,16300.0,1002.0499877929688,16300.0,-9.76200008392334,-146.45799255371094,-19.910999298095703,16300.0,0.2788599729537964,1.2916746139526367,0.35155296325683594,16300.0,3.3646082878112797,0.1621713638305664,1.4606772661209106,16300.0,-5.861005783081055,-2.5941176414489746,-3.066972494125366
204,16400.0,-7.655017852783202,-6.048914909362793,-0.9908151626586914,16400.0,1002.1199951171876,16400.0,-9.375,-146.1540069580078,-19.910999298095703,16400.0,1.4844025373458862,2.75194787979126,-0.2871066629886627,16400.0,-1.8491945266723635,0.5739622116088867,-1.019896149635315,16400.0,-4.290409564971924,-5.8867435455322275,0.4698620736598969
205,16500.0,-7.655017852783202,-6.048914909362793,-0.9908151626586914,16500.0,1002.1199951171876,16500.0,-9.375,-145.80499267578125,-19.910999298095703,16500.0,1.4844025373458862,2.75194787979126,-0.2871066629886627,16500.0,-1.8491945266723635,0.5739622116088867,-1.019896149635315,16500.0,-4.290409564971924,-5.8867435455322275,0.4698620736598969
206,16600.0,-6.70289421081543,-6.999401092529298,-1.500001072883606,16600.0,1001.9299926757812,16600.0,-9.77400016784668,-142.5030059814453,-19.56599998474121,16600.0,2.3499987125396733,0.93095862865448,2.244318962097168,16600.0,1.9907360076904297,-9.374258041381836,1.4003480672836304,16600.0,-8.552088737487793,-6.42543888092041,-2.519897222518921
207,16700.0,-6.70289421081543,-6.999401092529298,-1.500001072883606,16700.0,1001.9299926757812,16700.0,-17.514999389648438,-135.31399536132812,-14.598999977111815,16700.0,2.3499987125396733,0.93095862865448,2.244318962097168,16700.0,1.9907360076904297,-9.374258041381836,1.4003480672836304,16700.0,-8.552088737487793,-6.42543888092041,-2.519897222518921
208,16800.0,-9.212246894836426,-3.169563770294189,1.1219433546066284,16800.0,1001.9000244140624,16800.0,-23.47800064086914,-125.99700164794922,-14.60200023651123,16800.0,1.7437148094177246,-1.0372492074966428,0.6206390857696533,16800.0,6.619691371917725,-3.1335353851318364,-3.1337664127349854,16800.0,-7.221510887145996,-12.543821334838867,2.5222914218902592
209,16900.0,-9.212246894836426,-3.169563770294189,1.1219433546066284,16900.0,1001.9000244140624,16900.0,-28.64800071716309,-119.55799865722656,-13.031000137329102,16900.0,1.7437148094177246,-1.0372492074966428,0.6206390857696533,16900.0,6.619691371917725,-3.1335353851318364,-3.1337664127349854,16900.0,-7.221510887145996,-12.543821334838867,2.5222914218902592
210,15500.0,-8.193242073059082,-4.335245132446288,3.2010648250579834,15500.0,1001.97998046875,15500.0,-12.42300033569336,-146.46099853515625,-18.886999130249023,15500.0,0.8344419002532959,-1.7870862483978271,1.3542882204055786,15500.0,5.6001296043396,-3.8570716381073,-5.64005184173584,15500.0,-7.881711959838867,-8.771756172180176,2.0033483505249023
211,15600.0,-8.193242073059082,-4.335245132446288,3.2010648250579834,15600.0,1001.97998046875,15600.0,-11.697999954223633,-146.46099853515625,-19.202999114990234,15600.0,0.8344419002532959,-1.7870862483978271,1.3542882204055786,15600.0,5.6001296043396,-3.8570716381073,-5.64005184173584,15600.0,-7.881711959838867,-8.771756172180176,2.0033483505249023
212,15700.0,-7.448453426361084,-1.629241704940796,6.167374610900879,15700.0,1002.0,15700.0,-11.388999938964846,-146.46099853515625,-19.910999298095703,15700.0,0.4996877610683441,-1.2311989068984983,-0.2428189367055893,15700.0,1.5468416213989258,0.16946375370025635,-4.4731101989746085,15700.0,-1.8483237028121948,-5.486313343048097,0.5273229479789734
213,15800.0,-7.448453426361084,-1.629241704940796,6.167374610900879,15800.0,1002.0,15800.0,-11.388999938964846,-147.14599609375,-19.910999298095703,15800.0,0.4996877610683441,-1.2311989068984983,-0.2428189367055893,15800.0,1.5468416213989258,0.16946375370025635,-4.4731101989746085,15800.0,-1.8483237028121948,-5.486313343048097,0.5273229479789734
214,15900.0,-5.830068588256836,-1.158867597579956,7.799853801727295,15900.0,1002.0399780273438,15900.0,-11.699999809265135,-147.47999572753906,-19.910999298095703,15900.0,-0.4624249935150146,0.16523905098438266,-0.9657779335975648,15900.0,-9.041330337524414,-10.244499206542967,-6.406003952026367,15900.0,-4.28322696685791,-0.9894038438796996,3.3267433643341064
215,16000.0,-5.830068588256836,-1.158867597579956,7.799853801727295,16000.0,1002.0399780273438,16000.0,-11.699999809265135,-147.47999572753906,-19.910999298095703,16000.0,-0.4624249935150146,0.16523905098438266,-0.9657779335975648,16000.0,-9.041330337524414,-10.244499206542967,-6.406003952026367,16000.0,-4.28322696685791,-0.9894038438796996,3.3267433643341064
216,16100.0,-5.734485626220702,-2.68239426612854,7.489380359649657,16100.0,1002.030029296875,16100.0,-11.083000183105467,-147.47999572753906,-19.910999298095703,16100.0,0.7660250067710876,2.3961188793182373,0.27061331272125244,16100.0,1.5462942123413086,3.5549650192260738,-1.1985245943069458,16100.0,-14.775815963745115,-12.92689323425293,1.0833762884140017
217,16200.0,-5.734485626220702,-2.68239426612854,7.489380359649657,16200.0,1002.030029296875,16200.0,-10.432000160217283,-146.79200744628906,-19.910999298095703,16200.0,0.7660250067710876,2.3961188793182373,0.27061331272125244,16200.0,1.5462942123413086,3.5549650192260738,-1.1985245943069458,16200.0,-14.775815963745115,-12.92689323425293,1.0833762884140017
218,16300.0,-7.407299995422362,-6.149082660675049,-1.8684478998184204,16300.0,1002.0499877929688,16300.0,-9.76200008392334,-146.45799255371094,-19.910999298095703,16300.0,0.2788599729537964,1.2916746139526367,0.35155296325683594,16300.0,3.3646082878112797,0.1621713638305664,1.4606772661209106,16300.0,-5.861005783081055,-2.5941176414489746,-3.066972494125366
219,16400.0,-7.655017852783202,-6.048914909362793,-0.9908151626586914,16400.0,1002.1199951171876,16400.0,-9.375,-146.1540069580078,-19.910999298095703,16400.0,1.4844025373458862,2.75194787979126,-0.2871066629886627,16400.0,-1.8491945266723635,0.5739622116088867,-1.019896149635315,16400.0,-4.290409564971924,-5.8867435455322275,0.4698620736598969
220,16500.0,-7.655017852783202,-6.048914909362793,-0.9908151626586914,16500.0,1002.1199951171876,16500.0,-9.375,-145.80499267578125,-19.910999298095703,16500.0,1.4844025373458862,2.75194787979126,-0.2871066629886627,16500.0,-1.8491945266723635,0.5739622116088867,-1.019896149635315,16500.0,-4.290409564971924,-5.8867435455322275,0.4698620736598969
221,16600.0,-6.70289421081543,-6.999401092529298,-1.500001072883606,16600.0,1001.9299926757812,16600.0,-9.77400016784668,-142.5030059814453,-19.56599998474121,16600.0,2.3499987125396733,0.93095862865448,2.244318962097168,16600.0,1.9907360076904297,-9.374258041381836,1.4003480672836304,16600.0,-8.552088737487793,-6.42543888092041,-2.519897222518921
222,16700.0,-6.70289421081543,-6.999401092529298,-1.500001072883606,16700.0,1001.9299926757812,16700.0,-17.514999389648438,-135.31399536132812,-14.598999977111815,16700.0,2.3499987125396733,0.93095862865448,2.244318962097168,16700.0,1.9907360076904297,-9.374258041381836,1.4003480672836304,16700.0,-8.552088737487793,-6.42543888092041,-2.519897222518921
223,16800.0,-9.212246894836426,-3.169563770294189,1.1219433546066284,16800.0,1001.9000244140624,16800.0,-23.47800064086914,-125.99700164794922,-14.60200023651123,16800.0,1.7437148094177246,-1.0372492074966428,0.6206390857696533,16800.0,6.619691371917725,-3.1335353851318364,-3.1337664127349854,16800.0,-7.221510887145996,-12.543821334838867,2.5222914218902592
224,16900.0,-9.212246894836426,-3.169563770294189,1.1219433546066284,16900.0,1001.9000244140624,16900.0,-28.64800071716309,-119.55799865722656,-13.031000137329102,16900.0,1.7437148094177246,-1.0372492074966428,0.6206390857696533,16900.0,6.619691371917725,-3.1335353851318364,-3.1337664127349854,16900.0,-7.221510887145996,-12.543821334838867,2.5222914218902592
225,17000.0,-9.040827751159668,-1.267605900764465,3.5814821720123287,17000.0,1002.0,17000.0,-30.368999481201172,-120.16400146484376,-11.62399959564209,17000.0,0.02443460933864117,-0.2703078687191009,-0.5681046843528748,17000.0,-8.546228408813478,4.331721305847168,2.366729736328125,17000.0,-2.421136379241944,-4.401141166687012,0.44771572947502136
226,17100.0,-9.040827751159668,-1.267605900764465,3.5814821720123287,17100.0,1002.0,17100.0,-32.87900161743164,-125.7519989013672,-10.696999549865724,17100.0,0.02443460933864117,-0.2703078687191009,-0.5681046843528748,17100.0,-8.546228408813478,4.331721305847168,2.366729736328125,17100.0,-2.421136379241944,-4.401141166687012,0.44771572947502136
227,17200.0,-6.858065605163574,-6.927634239196777,1.0701466798782349,17200.0,1002.0499877929688,17200.0,-34.92100143432617,-126.11900329589844,-12.687000274658205,17200.0,2.2928826808929443,2.028072595596313,0.049174651503562934,17200.0,2.4019556045532227,-0.29169273376464844,-8.552083015441895,17200.0,-15.40429401397705,-2.5959131717681885,3.4368765354156494
228,17300.0,-7.419005393981934,-6.4072837829589835,-0.2747401297092438,17300.0,1002.010009765625,17300.0,-37.13199996948242,-126.48600006103516,-17.565000534057614,17300.0,2.2928826808929443,2.028072595596313,0.049174651503562934,17300.0,2.4019556045532227,-0.29169273376464844,-8.552083015441895,17300.0,-5.017049789428711,-6.698976516723633,-8.826823234558105
229,17400.0,-7.419005393981934,-6.4072837829589835,-0.2747401297092438,17400.0,1002.010009765625,17400.0,-39.01499938964844,-127.7699966430664,-19.808000564575195,17400.0,0.07483099400997162,1.8961256742477417,0.2440406680107117,17400.0,0.03213930130004883,-0.9858098030090332,2.2250046730041504,17400.0,-5.017049789428711,-6.698976516723633,-8.826823234558105
230,17500.0,-7.193795204162598,-6.112998008728027,-2.655362367630005,17500.0,1002.030029296875,17500.0,-38.06700134277344,-127.5199966430664,-26.07999992370605,17500.0,1.3353514671325684,2.7226264476776123,-0.3188716471195221,17500.0,-2.8961000442504883,2.7243633270263667,0.999153733253479,17500.0,-7.161655902862549,-7.0988078117370605,-0.4303577542304993
231,17600.0,-7.193795204162598,-6.112998008728027,-2.655362367630005,17600.0,1002.030029296875,17600.0,-38.45600128173828,-130.02299499511722,-31.42799949645996,17600.0,1.3353514671325684,2.7226264476776123,-0.3188716471195221,17600.0,-2.8961000442504883,2.7243633270263667,0.999153733253479,17600.0,-7.161655902862549,-7.0988078117370605,-0.4303577542304993
232,17700.0,-6.611274719238281,-6.896858215332031,-2.2124154567718506,17700.0,1002.0499877929688,17700.0,-38.45600128173828,-134.64300537109378,-36.48799896240234,17700.0,2.25317645072937,0.9269880056381226,0.9056077003479004,17700.0,-1.939962387084961,-1.8678755760192869,-1.5419578552246094,17700.0,-9.50737476348877,-4.172494888305663,-1.2132617235183716
233,17800.0,-6.611274719238281,-6.896858215332031,-2.2124154567718506,17800.0,1002.0499877929688,17800.0,-38.45600128173828,-138.02099609375,-39.50299835205078,17800.0,2.25317645072937,0.9269880056381226,0.9056077003479004,17800.0,-1.939962387084961,-1.8678755760192869,-1.5419578552246094,17800.0,-9.50737476348877,-4.172494888305663,-1.2132617235183716
234,17900.0,-8.583152770996094,-4.7221646308898935,0.4484061598777771,17900.0,1001.9500122070312,17900.0,-42.08599853515625,-138.40400695800778,-41.361000061035156,17900.0,0.6875288486480713,-0.6884451508522034,1.4074335098266602,17900.0,0.29799938201904297,-0.8184025287628174,-1.4026504755020142,17900.0,-10.523115158081056,-6.59004020690918,-1.0935516357421875
235,18000.0,-8.583152770996094,-4.7221646308898935,0.4484061598777771,18000.0,1001.9500122070312,18000.0,-48.928001403808594,-134.22300720214844,-40.38600158691406,18000.0,0.6875288486480713,-0.6884451508522034,1.4074335098266602,18000.0,0.29799938201904297,-0.8184025287628174,-1.4026504755020142,18000.0,-10.523115158081056,-6.59004020690918,-1.0935516357421875
236,18100.0,-8.990148544311523,-3.703645944595337,1.2769548892974854,18100.0,1001.8699951171876,18100.0,-52.49300003051758,-126.17400360107422,-39.15399932861328,18100.0,0.01618792861700058,-1.730581283569336,0.7904596328735352,18100.0,4.650517463684082,1.379253625869751,-2.488104820251465,18100.0,-8.69214916229248,-4.522048473358153,-0.1256955862045288
237,18200.0,-8.618308067321777,-2.32436466217041,4.061095237731934,18200.0,1001.9600219726564,18200.0,-53.57799911499024,-120.76399993896484,-34.60800170898437,18200.0,-0.2480112910270691,-0.8866708874702454,-1.7238616943359375,18200.0,4.650517463684082,1.379253625869751,-2.488104820251465,18200.0,-3.9677908420562735,-0.9451110959053041,1.5729905366897583
238,18300.0,-8.618308067321777,-2.32436466217041,4.061095237731934,18300.0,1001.9600219726564,18300.0,-54.43500137329102,-121.50800323486328,-35.755001068115234,18300.0,-0.2480112910270691,-0.8866708874702454,-1.7238616943359375,18300.0,-12.825227737426758,-5.361018180847168,-6.290283203125,18300.0,-3.9677908420562735,-0.9451110959053041,1.5729905366897583
239,18400.0,-6.783881664276122,-4.827507019042969,5.181169509887695,18400.0,1002.0499877929688,18400.0,-53.59099960327149,-125.96499633789064,-41.479000091552734,18400.0,-0.1466076523065567,2.1621575355529785,-0.4379903674125672,18400.0,-3.969496250152588,-1.3949427604675293,4.544060230255127,18400.0,-19.60910987854004,-10.188525199890137,-1.1091139316558838
240,17000.0,-9.040827751159668,-1.267605900764465,3.5814821720123287,17000.0,1002.0,17000.0,-30.368999481201172,-120.16400146484376,-11.62399959564209,17000.0,0.02443460933864117,-0.2703078687191009,-0.5681046843528748,17000.0,-8.546228408813478,4.331721305847168,2.366729736328125,17000.0,-2.421136379241944,-4.401141166687012,0.44771572947502136
241,17100.0,-9.040827751159668,-1.267605900764465,3.5814821720123287,17100.0,1002.0,17100.0,-32.87900161743164,-125.7519989013672,-10.696999549865724,17100.0,0.02443460933864117,-0.2703078687191009,-0.5681046843528748,17100.0,-8.546228408813478,4.331721305847168,2.366729736328125,17100.0,-2.421136379241944,-4.401141166687012,0.44771572947502136
242,17200.0,-6.858065605163574,-6.927634239196777,1.0701466798782349,17200.0,1002.0499877929688,17200.0,-34.92100143432617,-126.11900329589844,-12.687000274658205,17200.0,2.2928826808929443,2.028072595596313,0.049174651503562934,17200.0,2.4019556045532227,-0.29169273376464844,-8.552083015441895,17200.0,-15.40429401397705,-2.5959131717681885,3.4368765354156494
243,17300.0,-7.419005393981934,-6.4072837829589835,-0.2747401297092438,17300.0,1002.010009765625,17300.0,-37.13199996948242,-126.48600006103516,-17.565000534057614,17300.0,2.2928826808929443,2.028072595596313,0.049174651503562934,17300.0,2.4019556045532227,-0.29169273376464844,-8.552083015441895,17300.0,-5.017049789428711,-6.698976516723633,-8.826823234558105
244,17400.0,-7.419005393981934,-6.4072837829589835,-0.2747401297092438,17400.0,1002.010009765625,17400.0,-39.01499938964844,-127.7699966430664,-19.808000564575195,17400.0,0.07483099400997162,1.8961256742477417,0.2440406680107117,17400.0,0.03213930130004883,-0.9858098030090332,2.2250046730041504,17400.0,-5.017049789428711,-6.698976516723633,-8.826823234558105
245,17500.0,-7.193795204162598,-6.112998008728027,-2.655362367630005,17500.0,1002.030029296875,17500.0,-38.06700134277344,-127.5199966430664,-26.07999992370605,17500.0,1.3353514671325684,2.7226264476776123,-0.3188716471195221,17500.0,-2.8961000442504883,2.7243633270263667,0.999153733253479,17500.0,-7.161655902862549,-7.0988078117370605,-0.4303577542304993
246,17600.0,-7.193795204162598,-6.112998008728027,-2.655362367630005,17600.0,1002.030029296875,17600.0,-38.45600128173828,-130.02299499511722,-31.42799949645996,17600.0,1.3353514671325684,2.7226264476776123,-0.3188716471195221,17600.0,-2.8961000442504883,2.7243633270263667,0.999153733253479,17600.0,-7.161655902862549,-7.0988078117370605,-0.4303577542304993
247,17700.0,-6.611274719238281,-6.896858215332031,-2.2124154567718506,17700.0,1002.0499877929688,17700.0,-38.45600128173828,-134.64300537109378,-36.48799896240234,17700.0,2.25317645072937,0.9269880056381226,0.9056077003479004,17700.0,-1.939962387084961,-1.8678755760192869,-1.5419578552246094,17700.0,-9.50737476348877,-4.172494888305663,-1.2132617235183716
248,17800.0,-6.611274719238281,-6.896858215332031,-2.2124154567718506,17800.0,1002.0499877929688,17800.0,-38.45600128173828,-138.02099609375,-39.50299835205078,17800.0,2.25317645072937,0.9269880056381226,0.9056077003479004,17800.0,-1.939962387084961,-1.8678755760192869,-1.5419578552246094,17800.0,-9.50737476348877,-4.172494888305663,-1.2132617235183716
249,17900.0,-8.583152770996094,-4.7221646308898935,0.4484061598777771,17900.0,1001.9500122070312,17900.0,-42.08599853515625,-138.40400695800778,-41.361000061035156,17900.0,0.6875288486480713,-0.6884451508522034,1.4074335098266602,17900.0,0.29799938201904297,-0.8184025287628174,-1.4026504755020142,17900.0,-10.523115158081056,-6.59004020690918,-1.0935516357421875
250,18000.0,-8.583152770996094,-4.7221646308898935,0.4484061598777771,18000.0,1001.9500122070312,18000.0,-48.928001403808594,-134.22300720214844,-40.38600158691406,18000.0,0.6875288486480713,-0.6884451508522034,1.4074335098266602,18000.0,0.29799938201904297,-0.8184025287628174,-1.4026504755020142,18000.0,-10.523115158081056,-6.59004020690918,-1.0935516357421875
251,18100.0,-8.990148544311523,-3.703645944595337,1.2769548892974854,18100.0,1001.8699951171876,18100.0,-52.49300003051758,-126.17400360107422,-39.15399932861328,18100.0,0.01618792861700058,-1.730581283569336,0.7904596328735352,18100.0,4.650517463684082,1.379253625869751,-2.488104820251465,18100.0,-8.69214916229248,-4.522048473358153,-0.1256955862045288
252,18200.0,-8.618308067321777,-2.32436466217041,4.061095237731934,18200.0,1001.9600219726564,18200.0,-53.57799911499024,-120.76399993896484,-34.60800170898437,18200.0,-0.2480112910270691,-0.8866708874702454,-1.7238616943359375,18200.0,4.650517463684082,1.379253625869751,-2.488104820251465,18200.0,-3.9677908420562735,-0.9451110959053041,1.5729905366897583
253,18300.0,-8.618308067321777,-2.32436466217041,4.061095237731934,18300.0,1001.9600219726564,18300.0,-54.43500137329102,-121.50800323486328,-35.755001068115234,18300.0,-0.2480112910270691,-0.8866708874702454,-1.7238616943359375,18300.0,-12.825227737426758,-5.361018180847168,-6.290283203125,18300.0,-3.9677908420562735,-0.9451110959053041,1.5729905366897583
254,18400.0,-6.783881664276122,-4.827507019042969,5.181169509887695,18400.0,1002.0499877929688,18400.0,-53.59099960327149,-125.96499633789064,-41.479000091552734,18400.0,-0.1466076523065567,2.1621575355529785,-0.4379903674125672,18400.0,-3.969496250152588,-1.3949427604675293,4.544060230255127,18400.0,-19.60910987854004,-10.188525199890137,-1.1091139316558838
255,18500.0,-6.783881664276122,-4.827507019042969,5.181169509887695,18500.0,1002.0499877929688,18500.0,-54.2750015258789,-128.45100402832028,-44.1510009765625,18500.0,-0.1466076523065567,2.1621575355529785,-0.4379903674125672,18500.0,-3.969496250152588,-1.3949427604675293,4.544060230255127,18500.0,-19.60910987854004,-10.188525199890137,-1.1091139316558838
256,18600.0,-7.029466152191162,-6.058207035064697,-3.170985460281372,18600.0,1001.9199829101564,18600.0,-54.5880012512207,-129.60499572753906,-45.69300079345703,18600.0,-0.9178250432014464,-0.2440406680107117,-0.18570303916931152,18600.0,0.9760594367980956,1.3197078704833984,0.8477873802185059,18600.0,-10.99896240234375,-7.4531497955322275,1.373074650764465
257,18700.0,-7.029466152191162,-6.058207035064697,-3.170985460281372,18700.0,1001.9199829101564,18700.0,-54.5880012512207,-127.62200164794922,-45.1150016784668,18700.0,-0.9178250432014464,-0.2440406680107117,-0.18570303916931152,18700.0,0.9760594367980956,1.3197078704833984,0.8477873802185059,18700.0,-10.99896240234375,-7.4531497955322275,1.373074650764465
258,18800.0,-7.978500843048098,-5.6687750816345215,-0.6155498027801514,18800.0,1001.8900146484376,18800.0,-54.2859992980957,-126.97100067138672,-44.775001525878906,18800.0,0.32772919535636896,0.1774563491344452,-0.4526511430740357,18800.0,-2.1106486320495605,1.877129077911377,-1.4614155292510986,18800.0,-7.00244140625,-4.349067211151123,0.2322375625371933
259,18900.0,-7.978500843048098,-5.6687750816345215,-0.6155498027801514,18900.0,1001.8900146484376,18900.0,-53.92399978637695,-126.97100067138672,-45.52299880981445,18900.0,0.32772919535636896,0.1774563491344452,-0.4526511430740357,18900.0,-2.1106486320495605,1.877129077911377,-1.4614155292510986,18900.0,-7.00244140625,-4.349067211151123,0.2322375625371933
260,19000.0,-7.789973735809326,-5.956250190734862,-0.09900544583797456,19000.0,1002.0700073242188,19000.0,-53.61399841308594,-127.072998046875,-46.85300064086914,19000.0,0.25564709305763245,0.456316351890564,0.19303341209888453,19000.0,-1.9331827163696291,-3.424355983734132,4.603515148162842,19000.0,-9.900622367858887,-4.079121112823486,-1.5604209899902344
261,19100.0,-8.369067192077638,-5.107980251312256,-0.1939940452575684,19100.0,1002.0700073242188,19100.0,-53.61399841308594,-126.16400146484376,-46.85300064086914,19100.0,0.741895854473114,-1.2345587015151978,1.3176363706588743,19100.0,-0.4265432357788086,0.03904414176940918,-3.781672477722168,19100.0,-10.302249908447266,-8.532336235046388,4.409521102905273
262,19200.0,-8.369067192077638,-5.107980251312256,-0.1939940452575684,19200.0,1002.0,19200.0,-53.94800186157226,-126.16400146484376,-47.92699813842773,19200.0,0.741895854473114,-1.2345587015151978,1.3176363706588743,19200.0,-0.4265432357788086,0.03904414176940918,-3.781672477722168,19200.0,-10.302249908447266,-8.532336235046388,4.409521102905273
263,19300.0,-8.992844581604004,-2.970145463943481,2.545067310333252,19300.0,1001.9199829101564,19300.0,-53.94800186157226,-120.09500122070312,-48.66400146484375,19300.0,-0.045814894139766686,-0.28557950258255005,1.0717630386352541,19300.0,5.0570950508117685,-0.12208640575408936,-1.3988269567489624,19300.0,-9.419387817382812,-2.9311013221740723,-1.236605167388916
264,19400.0,-8.992844581604004,-2.970145463943481,2.545067310333252,19400.0,1001.9199829101564,19400.0,-53.07600021362305,-112.36100006103516,-47.49599838256836,19400.0,-0.045814894139766686,-0.28557950258255005,1.0717630386352541,19400.0,5.0570950508117685,-0.12208640575408936,-1.3988269567489624,19400.0,-9.419387817382812,-2.9311013221740723,-1.236605167388916
265,19500.0,-9.262510299682617,-1.1019492149353027,3.0268840789794917,19500.0,1002.030029296875,19500.0,-50.14899826049805,-108.98500061035156,-46.78400039672852,19500.0,-0.5720753073692322,-0.5693264007568359,-1.7235562801361084,19500.0,-11.467327117919922,-11.16592025756836,-5.339439392089844,19500.0,-4.2054152488708505,-1.224035620689392,1.6280571222305298
266,19600.0,-9.262510299682617,-1.1019492149353027,3.0268840789794917,19600.0,1002.030029296875,19600.0,-49.18000030517578,-112.33499908447266,-51.09099960327149,19600.0,-0.5720753073692322,-0.5693264007568359,-1.7235562801361084,19600.0,-11.467327117919922,-11.16592025756836,-5.339439392089844,19600.0,-4.2054152488708505,-1.224035620689392,1.6280571222305298
267,19700.0,-8.141782760620117,-4.034865856170653,3.6880390644073486,19700.0,1001.97998046875,19700.0,-48.36999893188477,-110.94200134277344,-52.48199844360352,19700.0,-0.20402899384498605,3.355482816696167,-0.18417587876319885,19700.0,-2.336733818054199,0.5469975471496582,2.37025785446167,19700.0,-19.60910987854004,-15.200786590576172,-1.6514005661010742
268,19800.0,-8.141782760620117,-4.034865856170653,3.6880390644073486,19800.0,1001.97998046875,19800.0,-48.36999893188477,-110.53700256347656,-52.0,19800.0,-0.20402899384498605,3.355482816696167,-0.18417587876319885,19800.0,-2.336733818054199,0.5469975471496582,2.37025785446167,19800.0,-19.60910987854004,-15.200786590576172,-1.6514005661010742
269,19900.0,-6.608003616333008,-5.385080814361572,-4.848256587982178,19900.0,1001.97998046875,19900.0,-47.74300003051758,-109.33200073242188,-50.83399963378906,19900.0,-0.8381071090698242,0.7956519722938538,0.02474004216492176,19900.0,0.6491084098815918,-1.0619983673095703,2.721881866455078,19900.0,-8.944737434387207,-4.838083267211914,-2.4779987335205083
270,18500.0,-6.783881664276122,-4.827507019042969,5.181169509887695,18500.0,1002.0499877929688,18500.0,-54.2750015258789,-128.45100402832028,-44.1510009765625,18500.0,-0.1466076523065567,2.1621575355529785,-0.4379903674125672,18500.0,-3.969496250152588,-1.3949427604675293,4.544060230255127,18500.0,-19.60910987854004,-10.188525199890137,-1.1091139316558838
271,18600.0,-7.029466152191162,-6.058207035064697,-3.170985460281372,18600.0,1001.9199829101564,18600.0,-54.5880012512207,-129.60499572753906,-45.69300079345703,18600.0,-0.9178250432014464,-0.2440406680107117,-0.18570303916931152,18600.0,0.9760594367980956,1.3197078704833984,0.8477873802185059,18600.0,-10.99896240234375,-7.4531497955322275,1.373074650764465
272,18700.0,-7.029466152191162,-6.058207035064697,-3.170985460281372,18700.0,1001.9199829101564,18700.0,-54.5880012512207,-127.62200164794922,-45.1150016784668,18700.0,-0.9178250432014464,-0.2440406680107117,-0.18570303916931152,18700.0,0.9760594367980956,1.3197078704833984,0.8477873802185059,18700.0,-10.99896240234375,-7.4531497955322275,1.373074650764465
273,18800.0,-7.978500843048098,-5.6687750816345215,-0.6155498027801514,18800.0,1001.8900146484376,18800.0,-54.2859992980957,-126.97100067138672,-44.775001525878906,18800.0,0.32772919535636896,0.1774563491344452,-0.4526511430740357,18800.0,-2.1106486320495605,1.877129077911377,-1.4614155292510986,18800.0,-7.00244140625,-4.349067211151123,0.2322375625371933
274,18900.0,-7.978500843048098,-5.6687750816345215,-0.6155498027801514,18900.0,1001.8900146484376,18900.0,-53.92399978637695,-126.97100067138672,-45.52299880981445,18900.0,0.32772919535636896,0.1774563491344452,-0.4526511430740357,18900.0,-2.1106486320495605,1.877129077911377,-1.4614155292510986,18900.0,-7.00244140625,-4.349067211151123,0.2322375625371933
275,19000.0,-7.789973735809326,-5.956250190734862,-0.09900544583797456,19000.0,1002.0700073242188,19000.0,-53.61399841308594,-127.072998046875,-46.85300064086914,19000.0,0.25564709305763245,0.456316351890564,0.19303341209888453,19000.0,-1.9331827163696291,-3.424355983734132,4.603515148162842,19000.0,-9.900622367858887,-4.079121112823486,-1.5604209899902344
276,19100.0,-8.369067192077638,-5.107980251312256,-0.1939940452575684,19100.0,1002.0700073242188,19100.0,-53.61399841308594,-126.16400146484376,-46.85300064086914,19100.0,0.741895854473114,-1.2345587015151978,1.3176363706588743,19100.0,-0.4265432357788086,0.03904414176940918,-3.781672477722168,19100.0,-10.302249908447266,-8.532336235046388,4.409521102905273
277,19200.0,-8.369067192077638,-5.107980251312256,-0.1939940452575684,19200.0,1002.0,19200.0,-53.94800186157226,-126.16400146484376,-47.92699813842773,19200.0,0.741895854473114,-1.2345587015151978,1.3176363706588743,19200.0,-0.4265432357788086,0.03904414176940918,-3.781672477722168,19200.0,-10.302249908447266,-8.532336235046388,4.409521102905273
278,19300.0,-8.992844581604004,-2.970145463943481,2.545067310333252,19300.0,1001.9199829101564,19300.0,-53.94800186157226,-120.09500122070312,-48.66400146484375,19300.0,-0.045814894139766686,-0.28557950258255005,1.0717630386352541,19300.0,5.0570950508117685,-0.12208640575408936,-1.3988269567489624,19300.0,-9.419387817382812,-2.9311013221740723,-1.236605167388916
279,19400.0,-8.992844581604004,-2.970145463943481,2.545067310333252,19400.0,1001.9199829101564,19400.0,-53.07600021362305,-112.36100006103516,-47.49599838256836,19400.0,-0.045814894139766686,-0.28557950258255005,1.0717630386352541,19400.0,5.0570950508117685,-0.12208640575408936,-1.3988269567489624,19400.0,-9.419387817382812,-2.9311013221740723,-1.236605167388916
280,19500.0,-9.262510299682617,-1.1019492149353027,3.0268840789794917,19500.0,1002.030029296875,19500.0,-50.14899826049805,-108.98500061035156,-46.78400039672852,19500.0,-0.5720753073692322,-0.5693264007568359,-1.7235562801361084,19500.0,-11.467327117919922,-11.16592025756836,-5.339439392089844,19500.0,-4.2054152488708505,-1.224035620689392,1.6280571222305298
281,19600.0,-9.262510299682617,-1.1019492149353027,3.0268840789794917,19600.0,1002.030029296875,19600.0,-49.18000030517578,-112.33499908447266,-51.09099960327149,19600.0,-0.5720753073692322,-0.5693264007568359,-1.7235562801361084,19600.0,-11.467327117919922,-11.16592025756836,-5.339439392089844,19600.0,-4.2054152488708505,-1.224035620689392,1.6280571222305298
282,19700.0,-8.141782760620117,-4.034865856170653,3.6880390644073486,19700.0,1001.97998046875,19700.0,-48.36999893188477,-110.94200134277344,-52.48199844360352,19700.0,-0.20402899384498605,3.355482816696167,-0.18417587876319885,19700.0,-2.336733818054199,0.5469975471496582,2.37025785446167,19700.0,-19.60910987854004,-15.200786590576172,-1.6514005661010742
283,19800.0,-8.141782760620117,-4.034865856170653,3.6880390644073486,19800.0,1001.97998046875,19800.0,-48.36999893188477,-110.53700256347656,-52.0,19800.0,-0.20402899384498605,3.355482816696167,-0.18417587876319885,19800.0,-2.336733818054199,0.5469975471496582,2.37025785446167,19800.0,-19.60910987854004,-15.200786590576172,-1.6514005661010742
284,19900.0,-6.608003616333008,-5.385080814361572,-4.848256587982178,19900.0,1001.97998046875,19900.0,-47.74300003051758,-109.33200073242188,-50.83399963378906,19900.0,-0.8381071090698242,0.7956519722938538,0.02474004216492176,19900.0,0.6491084098815918,-1.0619983673095703,2.721881866455078,19900.0,-8.944737434387207,-4.838083267211914,-2.4779987335205083
285,20000.0,-8.130390167236326,-5.098282814025879,-2.018585205078125,20000.0,1001.9500122070312,20000.0,-46.97999954223633,-103.8479995727539,-48.97900009155274,20000.0,0.20402899384498605,0.21288654208183289,-0.5378668308258057,20000.0,-1.388479709625244,1.9062957763671875,-1.1985551118850708,20000.0,-7.481281757354736,-6.160281181335449,0.7032967209815979
286,20100.0,-8.130390167236326,-5.098282814025879,-2.018585205078125,20100.0,1001.9500122070312,20100.0,-46.97999954223633,-103.63099670410156,-48.97900009155274,20100.0,0.20402899384498605,0.21288654208183289,-0.5378668308258057,20100.0,-1.388479709625244,1.9062957763671875,-1.1985551118850708,20100.0,-7.481281757354736,-6.160281181335449,0.7032967209815979
287,20200.0,-7.792685031890869,-5.947109699249268,-0.27627310156822205,20200.0,1002.0700073242188,20200.0,-46.30500030517578,-104.48300170898438,-50.06999969482422,20200.0,0.4938845634460449,0.2336559593677521,-0.09224065393209456,20200.0,-1.858795166015625,-1.1117453575134275,1.0408722162246704,20200.0,-9.181164741516113,-4.04081392288208,-1.4748282432556152
288,20300.0,-7.792685031890869,-5.947109699249268,-0.27627310156822205,20300.0,1002.0700073242188,20300.0,-45.98500061035156,-104.4459991455078,-53.51499938964844,20300.0,0.4938845634460449,0.2336559593677521,-0.09224065393209456,20300.0,-1.858795166015625,-1.1117453575134275,1.0408722162246704,20300.0,-9.181164741516113,-4.04081392288208,-1.4748282432556152
289,20400.0,-8.248926162719728,-5.302919387817383,0.06824176013469696,20400.0,1002.010009765625,20400.0,-45.98500061035156,-107.48999786376952,-56.70600128173828,20400.0,1.1035280227661133,-0.7046330571174622,0.6945537924766539,20400.0,-0.9482259750366212,-1.1795876026153564,-0.9833288192749025,20400.0,-10.107721328735352,-6.4146647453308105,1.1091139316558838
290,20500.0,-8.248926162719728,-5.302919387817383,0.06824176013469696,20500.0,1002.010009765625,20500.0,-45.68099975585938,-114.26499938964844,-64.22499847412111,20500.0,1.1035280227661133,-0.7046330571174622,0.6945537924766539,20500.0,-0.9482259750366212,-1.1795876026153564,-0.9833288192749025,20500.0,-10.107721328735352,-6.4146647453308105,1.1091139316558838
291,20600.0,-8.809941291809082,-3.8039433956146236,2.0212152004241943,20600.0,1001.9099731445312,20600.0,-45.27099990844727,-114.61399841308594,-64.09100341796875,20600.0,0.3985895812511444,0.06169738993048667,1.3658946752548218,20600.0,3.0001659393310547,0.14789819717407227,1.342340350151062,20600.0,-9.758167266845703,-4.9835309982299805,1.037886381149292
292,20700.0,-8.809941291809082,-3.8039433956146236,2.0212152004241943,20700.0,1001.9099731445312,20700.0,-44.94400024414063,-112.81400299072266,-64.08899688720703,20700.0,0.3985895812511444,0.06169738993048667,1.3658946752548218,20700.0,3.0001659393310547,0.14789819717407227,1.342340350151062,20700.0,-9.758167266845703,-4.9835309982299805,1.037886381149292
293,20800.0,-9.38729763031006,-2.81204605102539,0.3760979175567627,20800.0,1001.9099731445312,20800.0,-44.55799865722656,-112.3730010986328,-63.15999984741211,20800.0,-0.4697553813457489,-0.8735373020172119,-0.8213083148002625,20800.0,4.325047969818115,3.3095173835754395,0.21762871742248527,20800.0,-6.387131690979004,-2.6641478538513184,1.7184382677078247
294,20900.0,-8.751328468322754,-4.140903949737549,1.5612632036209106,20900.0,1001.9400024414064,20900.0,-44.17100143432617,-112.0479965209961,-64.00599670410156,20900.0,-1.4227051734924316,1.0067058801650999,-1.313360333442688,20900.0,4.325047969818115,3.3095173835754395,0.21762871742248527,20900.0,-4.426280498504639,-0.8313865661621094,1.778891921043396
295,21000.0,-8.751328468322754,-4.140903949737549,1.5612632036209106,21000.0,1001.9400024414064,21000.0,-38.17499923706055,-112.51300048828124,-69.74299621582031,21000.0,-1.4227051734924316,1.0067058801650999,-1.313360333442688,21000.0,2.506521701812744,0.5789585113525391,2.236393690109253,21000.0,-4.426280498504639,-0.8313865661621094,1.778891921043396
296,21100.0,-6.770595073699951,-6.624317646026611,-2.539260149002075,21100.0,1001.9400024414064,21100.0,-37.45500183105469,-111.02999877929688,-68.59400177001953,21100.0,-0.1417207419872284,0.7611380815505981,-0.04673119261860848,21100.0,0.3563575744628906,1.9309701919555664,-0.21884620189666748,21100.0,-4.264073371887207,-6.045359134674072,-0.30286651849746704
297,21200.0,-6.770595073699951,-6.624317646026611,-2.539260149002075,21200.0,1001.9400024414064,21200.0,-35.51100158691406,-108.43900299072266,-69.72899627685547,21200.0,-0.1417207419872284,0.7611380815505981,-0.04673119261860848,21200.0,0.3563575744628906,1.9309701919555664,-0.21884620189666748,21200.0,-4.264073371887207,-6.045359134674072,-0.30286651849746704
298,21300.0,-8.330844879150389,-5.051812171936035,-1.1165198087692259,21300.0,1001.9199829101564,21300.0,-35.00899887084961,-106.7040023803711,-69.45099639892578,21300.0,0.10995574295520782,0.10293079167604446,0.1359175145626068,21300.0,0.4783506393432617,-0.6598820686340332,-0.883398711681366,21300.0,-7.9744873046875,-3.1208419799804688,-1.3353660106658936
299,21400.0,-8.330844879150389,-5.051812171936035,-1.1165198087692259,21400.0,1001.9199829101564,21400.0,-35.59400177001953,-102.9229965209961,-66.00700378417969,21400.0,0.10995574295520782,0.10293079167604446,0.1359175145626068,21400.0,0.4783506393432617,-0.6598820686340332,-0.883398711681366,21400.0,-7.9744873046875,-3.1208419799804688,-1.3353660106658936
300,20000.0,-8.130390167236326,-5.098282814025879,-2.018585205078125,20000.0,1001.9500122070312,20000.0,-46.97999954223633,-103.8479995727539,-48.97900009155274,20000.0,0.20402899384498605,0.21288654208183289,-0.5378668308258057,20000.0,-1.388479709625244,1.9062957763671875,-1.1985551118850708,20000.0,-7.481281757354736,-6.160281181335449,0.7032967209815979
301,20100.0,-8.130390167236326,-5.098282814025879,-2.018585205078125,20100.0,1001.9500122070312,20100.0,-46.97999954223633,-103.63099670410156,-48.97900009155274,20100.0,0.20402899384498605,0.21288654208183289,-0.5378668308258057,20100.0,-1.388479709625244,1.9062957763671875,-1.1985551118850708,20100.0,-7.481281757354736,-6.160281181335449,0.7032967209815979
302,20200.0,-7.792685031890869,-5.947109699249268,-0.27627310156822205,20200.0,1002.0700073242188,20200.0,-46.30500030517578,-104.48300170898438,-50.06999969482422,20200.0,0.4938845634460449,0.2336559593677521,-0.09224065393209456,20200.0,-1.858795166015625,-1.1117453575134275,1.0408722162246704,20200.0,-9.181164741516113,-4.04081392288208,-1.4748282432556152
303,20300.0,-7.792685031890869,-5.947109699249268,-0.27627310156822205,20300.0,1002.0700073242188,20300.0,-45.98500061035156,-104.4459991455078,-53.51499938964844,20300.0,0.4938845634460449,0.2336559593677521,-0.09224065393209456,20300.0,-1.858795166015625,-1.1117453575134275,1.0408722162246704,20300.0,-9.181164741516113,-4.04081392288208,-1.4748282432556152
304,20400.0,-8.248926162719728,-5.302919387817383,0.06824176013469696,20400.0,1002.010009765625,20400.0,-45.98500061035156,-107.48999786376952,-56.70600128173828,20400.0,1.1035280227661133,-0.7046330571174622,0.6945537924766539,20400.0,-0.9482259750366212,-1.1795876026153564,-0.9833288192749025,20400.0,-10.107721328735352,-6.4146647453308105,1.1091139316558838
305,20500.0,-8.248926162719728,-5.302919387817383,0.06824176013469696,20500.0,1002.010009765625,20500.0,-45.68099975585938,-114.26499938964844,-64.22499847412111,20500.0,1.1035280227661133,-0.7046330571174622,0.6945537924766539,20500.0,-0.9482259750366212,-1.1795876026153564,-0.9833288192749025,20500.0,-10.107721328735352,-6.4146647453308105,1.1091139316558838
306,20600.0,-8.809941291809082,-3.8039433956146236,2.0212152004241943,20600.0,1001.9099731445312,20600.0,-45.27099990844727,-114.61399841308594,-64.09100341796875,20600.0,0.3985895812511444,0.06169738993048667,1.3658946752548218,20600.0,3.0001659393310547,0.14789819717407227,1.342340350151062,20600.0,-9.758167266845703,-4.9835309982299805,1.037886381149292
307,20700.0,-8.809941291809082,-3.8039433956146236,2.0212152004241943,20700.0,1001.9099731445312,20700.0,-44.94400024414063,-112.81400299072266,-64.08899688720703,20700.0,0.3985895812511444,0.06169738993048667,1.3658946752548218,20700.0,3.0001659393310547,0.14789819717407227,1.342340350151062,20700.0,-9.758167266845703,-4.9835309982299805,1.037886381149292
308,20800.0,-9.38729763031006,-2.81204605102539,0.3760979175567627,20800.0,1001.9099731445312,20800.0,-44.55799865722656,-112.3730010986328,-63.15999984741211,20800.0,-0.4697553813457489,-0.8735373020172119,-0.8213083148002625,20800.0,4.325047969818115,3.3095173835754395,0.21762871742248527,20800.0,-6.387131690979004,-2.6641478538513184,1.7184382677078247
309,20900.0,-8.751328468322754,-4.140903949737549,1.5612632036209106,20900.0,1001.9400024414064,20900.0,-44.17100143432617,-112.0479965209961,-64.00599670410156,20900.0,-1.4227051734924316,1.0067058801650999,-1.313360333442688,20900.0,4.325047969818115,3.3095173835754395,0.21762871742248527,20900.0,-4.426280498504639,-0.8313865661621094,1.778891921043396
310,21000.0,-8.751328468322754,-4.140903949737549,1.5612632036209106,21000.0,1001.9400024414064,21000.0,-38.17499923706055,-112.51300048828124,-69.74299621582031,21000.0,-1.4227051734924316,1.0067058801650999,-1.313360333442688,21000.0,2.506521701812744,0.5789585113525391,2.236393690109253,21000.0,-4.426280498504639,-0.8313865661621094,1.778891921043396
311,21100.0,-6.770595073699951,-6.624317646026611,-2.539260149002075,21100.0,1001.9400024414064,21100.0,-37.45500183105469,-111.02999877929688,-68.59400177001953,21100.0,-0.1417207419872284,0.7611380815505981,-0.04673119261860848,21100.0,0.3563575744628906,1.9309701919555664,-0.21884620189666748,21100.0,-4.264073371887207,-6.045359134674072,-0.30286651849746704
312,21200.0,-6.770595073699951,-6.624317646026611,-2.539260149002075,21200.0,1001.9400024414064,21200.0,-35.51100158691406,-108.43900299072266,-69.72899627685547,21200.0,-0.1417207419872284,0.7611380815505981,-0.04673119261860848,21200.0,0.3563575744628906,1.9309701919555664,-0.21884620189666748,21200.0,-4.264073371887207,-6.045359134674072,-0.30286651849746704
313,21300.0,-8.330844879150389,-5.051812171936035,-1.1165198087692259,21300.0,1001.9199829101564,21300.0,-35.00899887084961,-106.7040023803711,-69.45099639892578,21300.0,0.10995574295520782,0.10293079167604446,0.1359175145626068,21300.0,0.4783506393432617,-0.6598820686340332,-0.883398711681366,21300.0,-7.9744873046875,-3.1208419799804688,-1.3353660106658936
314,21400.0,-8.330844879150389,-5.051812171936035,-1.1165198087692259,21400.0,1001.9199829101564,21400.0,-35.59400177001953,-102.9229965209961,-66.00700378417969,21400.0,0.10995574295520782,0.10293079167604446,0.1359175145626068,21400.0,0.4783506393432617,-0.6598820686340332,-0.883398711681366,21400.0,-7.9744873046875,-3.1208419799804688,-1.3353660106658936
315,21500.0,-8.538430213928223,-4.8234381675720215,-0.0036529696080833673,21500.0,1001.97998046875,21500.0,-34.709999084472656,-104.0,-67.375,21500.0,0.3219259977340698,0.2290744632482529,-0.4801400899887085,21500.0,-3.849959373474121,0.1849837303161621,-0.5549647212028503,21500.0,-8.060079574584961,-5.483320236206055,-0.8870517015457153
316,21600.0,-8.538430213928223,-4.8234381675720215,-0.0036529696080833673,21600.0,1001.97998046875,21600.0,-34.38800048828125,-105.63800048828124,-69.40399932861328,21600.0,0.3219259977340698,0.2290744632482529,-0.4801400899887085,21600.0,-3.849959373474121,0.1849837303161621,-0.5549647212028503,21600.0,-8.060079574584961,-5.483320236206055,-0.8870517015457153
317,21700.0,-8.037850379943848,-5.618025779724121,-0.034008946269750595,21700.0,1001.97998046875,21700.0,-34.38800048828125,-106.04399871826172,-70.26000213623047,21700.0,2.7391197681427,0.4929682612419128,0.8130616545677185,21700.0,0.9541521072387696,-2.0161521434783936,-3.246610403060913,21700.0,-11.887809753417967,-5.433042049407959,-0.5889736413955688
318,21800.0,-9.107007026672363,-3.4701611995697017,1.091230392456055,21800.0,1001.8099975585938,21800.0,-35.902000427246094,-118.2509994506836,-75.96800231933594,21800.0,0.2064724564552307,-0.8680394887924194,1.1203268766403198,21800.0,0.9541521072387696,-2.0161521434783936,-3.246610403060913,21800.0,-8.152854919433594,-5.486313343048097,-2.1553800106048584
319,21900.0,-9.107007026672363,-3.4701611995697017,1.091230392456055,21900.0,1001.8099975585938,21900.0,-36.5989990234375,-119.83599853515624,-75.875,21900.0,0.2064724564552307,-0.8680394887924194,1.1203268766403198,21900.0,5.252415657043457,-2.513601541519165,-0.8976321220397949,21900.0,-8.152854919433594,-5.486313343048097,-2.1553800106048584
320,22000.0,-9.080145835876463,-3.4425737857818604,1.3674942255020142,22000.0,1001.8599853515624,22000.0,-38.80699920654297,-118.34700012207031,-73.44000244140625,22000.0,-0.3268128931522369,-1.3781119585037231,-0.14874568581581116,22000.0,3.5000314712524414,2.889033555984497,-0.21041035652160645,22000.0,-3.8277299404144287,-5.956175327301025,0.4698620736598969
321,22100.0,-9.080145835876463,-3.4425737857818604,1.3674942255020142,22100.0,1001.8599853515624,22100.0,-39.180999755859375,-116.22699737548828,-71.54299926757812,22100.0,-0.3268128931522369,-1.3781119585037231,-0.14874568581581116,22100.0,3.5000314712524414,2.889033555984497,-0.21041035652160645,22100.0,-3.8277299404144287,-5.956175327301025,0.4698620736598969
322,22200.0,-8.433882713317871,-3.6994707584381104,3.369559526443481,22200.0,1001.9299926757812,22200.0,-38.30799865722656,-115.30699920654295,-73.48600006103516,22200.0,-1.01617431640625,0.1010981947183609,-0.9828822016716005,22200.0,4.193346977233887,4.141974449157715,-2.369792461395264,22200.0,-4.93385124206543,-0.8104372620582581,3.159149169921875
323,22300.0,-8.433882713317871,-3.6994707584381104,3.369559526443481,22300.0,1001.9299926757812,22300.0,-31.43000030517578,-116.59200286865234,-77.9280014038086,22300.0,-1.01617431640625,0.1010981947183609,-0.9828822016716005,22300.0,4.193346977233887,4.141974449157715,-2.369792461395264,22300.0,-4.93385124206543,-0.8104372620582581,3.159149169921875
324,22400.0,-7.706239700317383,-5.5659260749816895,2.409296751022339,22400.0,1001.9199829101564,22400.0,-30.29599952697754,-115.04299926757812,-76.85600280761719,22400.0,-0.4431827366352081,-0.16798794269561768,-0.39675697684288025,22400.0,-2.059391021728516,1.9534108638763428,0.4992808103561402,22400.0,-3.512892484664917,-1.423951506614685,0.03950432687997818
325,22500.0,-7.706239700317383,-5.5659260749816895,2.409296751022339,22500.0,1001.9199829101564,22500.0,-28.64900016784668,-113.54900360107422,-76.78900146484375,22500.0,-0.4431827366352081,-0.16798794269561768,-0.39675697684288025,22500.0,-2.059391021728516,1.9534108638763428,0.4992808103561402,22500.0,-3.512892484664917,-1.423951506614685,0.03950432687997818
326,22600.0,-8.215325355529785,-5.354374408721924,0.09747399389743804,22600.0,1001.9199829101564,22600.0,-26.256999969482425,-111.35800170898438,-76.99199676513672,22600.0,0.2321287989616394,-0.2922990322113037,-0.009162978269159794,22600.0,1.4416885375976565,0.4222946166992188,-1.780205488204956,22600.0,-10.2747163772583,-3.400963544845581,0.596754789352417
327,22700.0,-8.536905288696289,-4.765974998474121,0.7596771121025085,22700.0,1001.8900146484376,22700.0,-23.22599983215332,-110.53399658203124,-76.6259994506836,22700.0,0.4877758920192719,0.5836817622184753,-0.4499022662639618,22700.0,1.4416885375976565,0.4222946166992188,-1.780205488204956,22700.0,-7.095216751098633,-4.3436803817749015,-1.0205284357070925
328,22800.0,-8.536905288696289,-4.765974998474121,0.7596771121025085,22800.0,1001.8900146484376,22800.0,-21.341999053955078,-110.84100341796876,-76.6259994506836,22800.0,0.4877758920192719,0.5836817622184753,-0.4499022662639618,22800.0,-3.1819610595703125,0.6233987808227539,-0.8682023286819458,22800.0,-7.095216751098633,-4.3436803817749015,-1.0205284357070925
329,22900.0,-8.211445808410645,-5.339377403259277,-0.4833244979381561,22900.0,1001.969970703125,22900.0,-19.700000762939453,-111.2480010986328,-76.6259994506836,22900.0,2.021658420562744,0.38667771220207214,0.6869179606437683,22900.0,0.8115310668945312,-2.52779221534729,2.17771577835083,22900.0,-11.393406867980955,-4.715978622436523,-1.3515268564224243
330,21500.0,-8.538430213928223,-4.8234381675720215,-0.0036529696080833673,21500.0,1001.97998046875,21500.0,-34.709999084472656,-104.0,-67.375,21500.0,0.3219259977340698,0.2290744632482529,-0.4801400899887085,21500.0,-3.849959373474121,0.1849837303161621,-0.5549647212028503,21500.0,-8.060079574584961,-5.483320236206055,-0.8870517015457153
331,21600.0,-8.538430213928223,-4.8234381675720215,-0.0036529696080833673,21600.0,1001.97998046875,21600.0,-34.38800048828125,-105.63800048828124,-69.40399932861328,21600.0,0.3219259977340698,0.2290744632482529,-0.4801400899887085,21600.0,-3.849959373474121,0.1849837303161621,-0.5549647212028503,21600.0,-8.060079574584961,-5.483320236206055,-0.8870517015457153
332,21700.0,-8.037850379943848,-5.618025779724121,-0.034008946269750595,21700.0,1001.97998046875,21700.0,-34.38800048828125,-106.04399871826172,-70.26000213623047,21700.0,2.7391197681427,0.4929682612419128,0.8130616545677185,21700.0,0.9541521072387696,-2.0161521434783936,-3.246610403060913,21700.0,-11.887809753417967,-5.433042049407959,-0.5889736413955688
333,21800.0,-9.107007026672363,-3.4701611995697017,1.091230392456055,21800.0,1001.8099975585938,21800.0,-35.902000427246094,-118.2509994506836,-75.96800231933594,21800.0,0.2064724564552307,-0.8680394887924194,1.1203268766403198,21800.0,0.9541521072387696,-2.0161521434783936,-3.246610403060913,21800.0,-8.152854919433594,-5.486313343048097,-2.1553800106048584
334,21900.0,-9.107007026672363,-3.4701611995697017,1.091230392456055,21900.0,1001.8099975585938,21900.0,-36.5989990234375,-119.83599853515624,-75.875,21900.0,0.2064724564552307,-0.8680394887924194,1.1203268766403198,21900.0,5.252415657043457,-2.513601541519165,-0.8976321220397949,21900.0,-8.152854919433594,-5.486313343048097,-2.1553800106048584
