,timestamp,ax,ay,az
0,0.0,7.618747234344482,3.328416109085083,-2.9934213161468506
1,100.0,7.618747234344482,3.328416109085083,-2.9934213161468506
2,200.0,7.618747234344482,3.328416109085083,-2.9934213161468506
3,300.0,8.068597793579103,4.139583110809326,-3.8356947898864746
4,400.0,8.068597793579103,4.139583110809326,-3.8356947898864746
5,500.0,8.681159973144531,4.096512317657472,-4.292723655700684
6,600.0,8.681159973144531,4.096512317657472,-4.292723655700684
7,700.0,7.274180889129639,4.211367607116698,-3.067598581314087
8,800.0,7.274180889129639,4.211367607116698,-3.067598581314087
9,900.0,7.274180889129639,4.211367607116698,-3.067598581314087
10,1000.0,7.719245910644531,4.541577339172363,-4.192224979400635
11,1100.0,7.719245910644531,4.541577339172363,-4.192224979400635
12,1200.0,6.288337707519531,5.338387489318848,-4.689932346343994
13,1300.0,6.288337707519531,5.338387489318848,-4.689932346343994
14,1400.0,5.197210788726807,4.6301116943359375,-5.467599868774414
15,1500.0,5.197210788726807,4.6301116943359375,-5.467599868774414
16,1600.0,5.197210788726807,4.6301116943359375,-5.467599868774414
17,1700.0,6.336194515228272,5.125426292419434,-6.142375946044923
18,1800.0,6.336194515228272,5.125426292419434,-6.142375946044923
19,1900.0,10.466205596923828,3.7710886001586914,-4.5750770568847665
20,2000.0,10.466205596923828,3.7710886001586914,-4.5750770568847665
21,2100.0,10.112068176269533,2.0434706211090092,-2.761317014694214
22,2200.0,10.112068176269533,2.0434706211090092,-2.761317014694214
23,2300.0,8.537590980529785,2.1918253898620605,-2.691925525665283
24,2400.0,8.537590980529785,2.1918253898620605,-2.691925525665283
25,2500.0,8.537590980529785,2.1918253898620605,-2.691925525665283
26,2600.0,8.843873023986816,1.801795244216919,-3.115455150604248
27,2700.0,8.843873023986816,1.801795244216919,-3.115455150604248
28,2800.0,11.030912399291992,2.167897224426269,-2.4287149906158447
29,2900.0,11.030912399291992,2.167897224426269,-2.4287149906158447
30,3000.0,9.987641334533693,2.4095723628997803,-0.3565305471420288
31,3100.0,9.987641334533693,2.4095723628997803,-0.3565305471420288
32,3200.0,8.638089179992676,2.861815929412842,-1.1413763761520386
33,3300.0,8.638089179992676,2.861815929412842,-1.1413763761520386
34,3400.0,8.638089179992676,2.861815929412842,-1.1413763761520386
35,3500.0,7.432106971740723,4.3860440254211435,-2.553141593933105
36,3600.0,7.432106971740723,4.3860440254211435,-2.553141593933105
37,3700.0,8.087740898132324,5.091926097869873,-2.816352128982544
38,3800.0,8.087740898132324,5.091926097869873,-2.816352128982544
39,3900.0,13.57209014892578,2.44067907333374,-2.2133607864379883
40,2000.0,10.466205596923828,3.7710886001586914,-4.5750770568847665
41,2100.0,10.112068176269533,2.0434706211090092,-2.761317014694214
42,2200.0,10.112068176269533,2.0434706211090092,-2.761317014694214
43,2300.0,8.537590980529785,2.1918253898620605,-2.691925525665283
44,2400.0,8.537590980529785,2.1918253898620605,-2.691925525665283
45,2500.0,8.537590980529785,2.1918253898620605,-2.691925525665283
46,2600.0,8.843873023986816,1.801795244216919,-3.115455150604248
47,2700.0,8.843873023986816,1.801795244216919,-3.115455150604248
48,2800.0,11.030912399291992,2.167897224426269,-2.4287149906158447
49,2900.0,11.030912399291992,2.167897224426269,-2.4287149906158447
50,3000.0,9.987641334533693,2.4095723628997803,-0.3565305471420288
51,3100.0,9.987641334533693,2.4095723628997803,-0.3565305471420288
52,3200.0,8.638089179992676,2.861815929412842,-1.1413763761520386
53,3300.0,8.638089179992676,2.861815929412842,-1.1413763761520386
54,3400.0,8.638089179992676,2.861815929412842,-1.1413763761520386
55,3500.0,7.432106971740723,4.3860440254211435,-2.553141593933105
56,3600.0,7.432106971740723,4.3860440254211435,-2.553141593933105
57,3700.0,8.087740898132324,5.091926097869873,-2.816352128982544
58,3800.0,8.087740898132324,5.091926097869873,-2.816352128982544
59,3900.0,13.57209014892578,2.44067907333374,-2.2133607864379883
60,4000.0,13.57209014892578,2.44067907333374,-2.2133607864379883
61,4100.0,13.57209014892578,2.44067907333374,-2.2133607864379883
62,4200.0,9.073582649230957,0.605384111404419,-2.0650060176849365
63,4300.0,9.073582649230957,0.605384111404419,-2.0650060176849365
64,4400.0,8.71944522857666,1.0360921621322632,-2.4598214626312256
65,4500.0,8.71944522857666,1.0360921621322632,-2.4598214626312256
66,4600.0,8.389235496520996,1.1533405780792236,-2.749353408813477
67,4700.0,8.389235496520996,1.1533405780792236,-2.749353408813477
68,4800.0,9.978070259094238,1.8209381103515625,-3.572484016418457
69,4900.0,9.978070259094238,1.8209381103515625,-3.572484016418457
70,5000.0,9.978070259094238,1.8209381103515625,-3.572484016418457
71,5100.0,7.719245910644531,2.3234307765960693,-2.2923240661621094
72,5200.0,7.719245910644531,2.3234307765960693,-2.2923240661621094
73,5300.0,9.011369705200195,2.321038007736206,-1.7539390325546265
74,5400.0,9.011369705200195,2.321038007736206,-1.7539390325546265
75,5500.0,9.011369705200195,2.321038007736206,-1.7539390325546265
76,5600.0,7.915457248687744,2.25403904914856,-2.2612173557281494
77,5700.0,7.915457248687744,2.25403904914856,-2.2612173557281494
78,5800.0,7.144968032836914,3.653840303421021,-3.3451659679412837
79,5900.0,7.144968032836914,3.653840303421021,-3.3451659679412837
80,4000.0,13.57209014892578,2.44067907333374,-2.2133607864379883
81,4100.0,13.57209014892578,2.44067907333374,-2.2133607864379883
82,4200.0,9.073582649230957,0.605384111404419,-2.0650060176849365
83,4300.0,9.073582649230957,0.605384111404419,-2.0650060176849365
84,4400.0,8.71944522857666,1.0360921621322632,-2.4598214626312256
85,4500.0,8.71944522857666,1.0360921621322632,-2.4598214626312256
86,4600.0,8.389235496520996,1.1533405780792236,-2.749353408813477
87,4700.0,8.389235496520996,1.1533405780792236,-2.749353408813477
88,4800.0,9.978070259094238,1.8209381103515625,-3.572484016418457
89,4900.0,9.978070259094238,1.8209381103515625,-3.572484016418457
90,5000.0,9.978070259094238,1.8209381103515625,-3.572484016418457
91,5100.0,7.719245910644531,2.3234307765960693,-2.2923240661621094
92,5200.0,7.719245910644531,2.3234307765960693,-2.2923240661621094
93,5300.0,9.011369705200195,2.321038007736206,-1.7539390325546265
94,5400.0,9.011369705200195,2.321038007736206,-1.7539390325546265
95,5500.0,9.011369705200195,2.321038007736206,-1.7539390325546265
96,5600.0,7.915457248687744,2.25403904914856,-2.2612173557281494
97,5700.0,7.915457248687744,2.25403904914856,-2.2612173557281494
98,5800.0,7.144968032836914,3.653840303421021,-3.3451659679412837
99,5900.0,7.144968032836914,3.653840303421021,-3.3451659679412837
100,6000.0,10.384849548339844,4.654040336608887,-2.9838497638702397
101,6100.0,10.384849548339844,4.654040336608887,-2.9838497638702397
102,6200.0,9.159724235534668,0.7369893789291382,-1.8376877307891848
103,6300.0,9.159724235534668,0.7369893789291382,-1.8376877307891848
104,6400.0,9.159724235534668,0.7369893789291382,-1.8376877307891848
105,6500.0,8.063812255859375,1.6199408769607544,-2.321038007736206
106,6600.0,8.063812255859375,1.6199408769607544,-2.321038007736206
107,6700.0,8.752944946289062,2.825923442840576,-3.598805427551269
108,6800.0,8.752944946289062,2.825923442840576,-3.598805427551269
109,6900.0,8.752944946289062,2.825923442840576,-3.598805427551269
110,7000.0,10.944771766662598,2.0027925968170166,-3.2231321334838867
111,7100.0,10.944771766662598,2.0027925968170166,-3.2231321334838867
112,7200.0,8.504091262817383,1.3974084854125977,-1.0695916414260864
113,7300.0,8.504091262817383,1.3974084854125977,-1.0695916414260864
114,7400.0,8.092526435852049,3.091526985168457,-1.741974949836731
115,7500.0,8.092526435852049,3.091526985168457,-1.741974949836731
116,7600.0,7.432106971740723,3.5030922889709477,-2.3066811561584477
117,7700.0,7.432106971740723,3.5030922889709477,-2.3066811561584477
118,7800.0,7.432106971740723,3.5030922889709477,-2.3066811561584477
119,7900.0,9.336793899536133,4.761716842651367,-3.4576287269592285
120,6000.0,10.384849548339844,4.654040336608887,-2.9838497638702397
121,6100.0,10.384849548339844,4.654040336608887,-2.9838497638702397
122,6200.0,9.159724235534668,0.7369893789291382,-1.8376877307891848
123,6300.0,9.159724235534668,0.7369893789291382,-1.8376877307891848
124,6400.0,9.159724235534668,0.7369893789291382,-1.8376877307891848
125,6500.0,8.063812255859375,1.6199408769607544,-2.321038007736206
126,6600.0,8.063812255859375,1.6199408769607544,-2.321038007736206
127,6700.0,8.752944946289062,2.825923442840576,-3.598805427551269
128,6800.0,8.752944946289062,2.825923442840576,-3.598805427551269
129,6900.0,8.752944946289062,2.825923442840576,-3.598805427551269
130,7000.0,10.944771766662598,2.0027925968170166,-3.2231321334838867
131,7100.0,10.944771766662598,2.0027925968170166,-3.2231321334838867
132,7200.0,8.504091262817383,1.3974084854125977,-1.0695916414260864
133,7300.0,8.504091262817383,1.3974084854125977,-1.0695916414260864
134,7400.0,8.092526435852049,3.091526985168457,-1.741974949836731
135,7500.0,8.092526435852049,3.091526985168457,-1.741974949836731
136,7600.0,7.432106971740723,3.5030922889709477,-2.3066811561584477
137,7700.0,7.432106971740723,3.5030922889709477,-2.3066811561584477
138,7800.0,7.432106971740723,3.5030922889709477,-2.3066811561584477
139,7900.0,9.336793899536133,4.761716842651367,-3.4576287269592285
140,8000.0,9.336793899536133,4.761716842651367,-3.4576287269592285
141,8100.0,8.169095993041992,1.727617859840393,-3.115455150604248
142,8200.0,8.169095993041992,1.727617859840393,-3.115455150604248
143,8300.0,7.575676441192628,2.909672498703003,-2.2947168350219727
144,8400.0,7.575676441192628,2.909672498703003,-2.2947168350219727
145,8500.0,7.575676441192628,2.909672498703003,-2.2947168350219727
146,8600.0,7.700103282928468,0.7704889178276062,-2.9288151264190674
147,8700.0,7.700103282928468,0.7704889178276062,-2.9288151264190674
148,8800.0,12.217752456665039,0.19621144235134125,-3.1752755641937256
149,8900.0,12.217752456665039,0.19621144235134125,-3.1752755641937256
150,9000.0,8.743373870849611,0.3349951505661011,-2.691925525665283
151,9100.0,8.743373870849611,0.3349951505661011,-2.691925525665283
152,9200.0,8.743373870849611,0.3349951505661011,-2.691925525665283
153,9300.0,6.819544315338135,3.871586799621582,-4.8191447257995605
154,9400.0,6.819544315338135,3.871586799621582,-4.8191447257995605
155,9500.0,10.236495971679688,6.257230758666992,-4.761716842651367
156,9600.0,10.236495971679688,6.257230758666992,-4.761716842651367
157,9700.0,12.0933256149292,-2.230110645294189,2.328216552734375
158,9800.0,12.0933256149292,-2.230110645294189,2.328216552734375
159,9900.0,6.159125804901122,2.416750907897949,-2.8666017055511475
160,8000.0,9.336793899536133,4.761716842651367,-3.4576287269592285
161,8100.0,8.169095993041992,1.727617859840393,-3.115455150604248
162,8200.0,8.169095993041992,1.727617859840393,-3.115455150604248
163,8300.0,7.575676441192628,2.909672498703003,-2.2947168350219727
164,8400.0,7.575676441192628,2.909672498703003,-2.2947168350219727
165,8500.0,7.575676441192628,2.909672498703003,-2.2947168350219727
166,8600.0,7.700103282928468,0.7704889178276062,-2.9288151264190674
167,8700.0,7.700103282928468,0.7704889178276062,-2.9288151264190674
168,8800.0,12.217752456665039,0.19621144235134125,-3.1752755641937256
169,8900.0,12.217752456665039,0.19621144235134125,-3.1752755641937256
170,9000.0,8.743373870849611,0.3349951505661011,-2.691925525665283
171,9100.0,8.743373870849611,0.3349951505661011,-2.691925525665283
172,9200.0,8.743373870849611,0.3349951505661011,-2.691925525665283
173,9300.0,6.819544315338135,3.871586799621582,-4.8191447257995605
174,9400.0,6.819544315338135,3.871586799621582,-4.8191447257995605
175,9500.0,10.236495971679688,6.257230758666992,-4.761716842651367
176,9600.0,10.236495971679688,6.257230758666992,-4.761716842651367
177,9700.0,12.0933256149292,-2.230110645294189,2.328216552734375
178,9800.0,12.0933256149292,-2.230110645294189,2.328216552734375
179,9900.0,6.159125804901122,2.416750907897949,-2.8666017055511475
180,10000.0,6.159125804901122,2.416750907897949,-2.8666017055511475
181,10100.0,6.159125804901122,2.416750907897949,-2.8666017055511475
182,10200.0,8.207381248474121,1.3830513954162598,-2.476571559906006
183,10300.0,8.207381248474121,1.3830513954162598,-2.476571559906006
184,10400.0,10.80120086669922,0.7657032012939453,-2.950350284576416
185,10500.0,10.80120086669922,0.7657032012939453,-2.950350284576416
186,10600.0,10.80120086669922,0.7657032012939453,-2.950350284576416
187,10700.0,8.580661773681639,1.8520447015762331,-1.4404792785644531
188,10800.0,8.580661773681639,1.8520447015762331,-1.4404792785644531
189,10900.0,9.030512809753418,2.1224336624145512,-0.4211367666721344
190,11000.0,9.030512809753418,2.1224336624145512,-0.4211367666721344
191,11100.0,8.513663291931152,2.366501569747925,-1.8927226066589355
192,11200.0,8.513663291931152,2.366501569747925,-1.8927226066589355
193,11300.0,10.959127426147461,2.6057839393615723,-1.7778673171997068
194,11400.0,10.959127426147461,2.6057839393615723,-1.7778673171997068
195,11500.0,8.183453559875487,0.7561319470405579,-1.3974084854125977
196,11600.0,8.183453559875487,0.7561319470405579,-1.3974084854125977
197,11700.0,8.183453559875487,0.7561319470405579,-1.3974084854125977
198,11800.0,8.360522270202638,1.3016955852508545,-1.6677974462509155
199,11900.0,8.360522270202638,1.3016955852508545,-1.6677974462509155
200,10000.0,6.159125804901122,2.416750907897949,-2.8666017055511475
201,10100.0,6.159125804901122,2.416750907897949,-2.8666017055511475
202,10200.0,8.207381248474121,1.3830513954162598,-2.476571559906006
203,10300.0,8.207381248474121,1.3830513954162598,-2.476571559906006
204,10400.0,10.80120086669922,0.7657032012939453,-2.950350284576416
205,10500.0,10.80120086669922,0.7657032012939453,-2.950350284576416
206,10600.0,10.80120086669922,0.7657032012939453,-2.950350284576416
207,10700.0,8.580661773681639,1.8520447015762331,-1.4404792785644531
208,10800.0,8.580661773681639,1.8520447015762331,-1.4404792785644531
209,10900.0,9.030512809753418,2.1224336624145512,-0.4211367666721344
210,11000.0,9.030512809753418,2.1224336624145512,-0.4211367666721344
211,11100.0,8.513663291931152,2.366501569747925,-1.8927226066589355
212,11200.0,8.513663291931152,2.366501569747925,-1.8927226066589355
213,11300.0,10.959127426147461,2.6057839393615723,-1.7778673171997068
214,11400.0,10.959127426147461,2.6057839393615723,-1.7778673171997068
215,11500.0,8.183453559875487,0.7561319470405579,-1.3974084854125977
216,11600.0,8.183453559875487,0.7561319470405579,-1.3974084854125977
217,11700.0,8.183453559875487,0.7561319470405579,-1.3974084854125977
218,11800.0,8.360522270202638,1.3016955852508545,-1.6677974462509155
219,11900.0,8.360522270202638,1.3016955852508545,-1.6677974462509155
220,12000.0,7.9728851318359375,1.6582260131835938,-2.579463005065918
221,12100.0,7.9728851318359375,1.6582260131835938,-2.579463005065918
222,12200.0,7.9728851318359375,1.6582260131835938,-2.579463005065918
223,12300.0,11.509476661682127,1.5649060010910034,-2.7900311946868896
224,12400.0,11.509476661682127,1.5649060010910034,-2.7900311946868896
225,12500.0,8.446663856506348,1.3591231107711792,-1.428515076637268
226,12600.0,8.446663856506348,1.3591231107711792,-1.428515076637268
227,12700.0,9.140583038330078,2.146361827850342,-1.3543376922607422
228,12800.0,9.140583038330078,2.146361827850342,-1.3543376922607422
229,12900.0,9.140583038330078,2.146361827850342,-1.3543376922607422
230,13000.0,8.796016693115233,2.0099709033966064,-2.5004994869232178
231,13100.0,8.796016693115233,2.0099709033966064,-2.5004994869232178
232,13200.0,10.17906665802002,2.7804601192474365,-2.1343977451324463
233,13300.0,10.17906665802002,2.7804601192474365,-2.1343977451324463
234,13400.0,13.409377098083494,2.3258235454559326,-2.4981069564819336
235,13500.0,13.409377098083494,2.3258235454559326,-2.4981069564819336
236,13600.0,13.409377098083494,2.3258235454559326,-2.4981069564819336
237,13700.0,8.949156761169434,-1.0983055830001829,-1.1700903177261353
238,13800.0,8.949156761169434,-1.0983055830001829,-1.1700903177261353
239,13900.0,8.729016304016112,1.8903299570083616,-1.7754744291305542
240,12000.0,7.9728851318359375,1.6582260131835938,-2.579463005065918
241,12100.0,7.9728851318359375,1.6582260131835938,-2.579463005065918
242,12200.0,7.9728851318359375,1.6582260131835938,-2.579463005065918
243,12300.0,11.509476661682127,1.5649060010910034,-2.7900311946868896
244,12400.0,11.509476661682127,1.5649060010910034,-2.7900311946868896
245,12500.0,8.446663856506348,1.3591231107711792,-1.428515076637268
246,12600.0,8.446663856506348,1.3591231107711792,-1.428515076637268
247,12700.0,9.140583038330078,2.146361827850342,-1.3543376922607422
248,12800.0,9.140583038330078,2.146361827850342,-1.3543376922607422
249,12900.0,9.140583038330078,2.146361827850342,-1.3543376922607422
250,13000.0,8.796016693115233,2.0099709033966064,-2.5004994869232178
251,13100.0,8.796016693115233,2.0099709033966064,-2.5004994869232178
252,13200.0,10.17906665802002,2.7804601192474365,-2.1343977451324463
253,13300.0,10.17906665802002,2.7804601192474365,-2.1343977451324463
254,13400.0,13.409377098083494,2.3258235454559326,-2.4981069564819336
255,13500.0,13.409377098083494,2.3258235454559326,-2.4981069564819336
256,13600.0,13.409377098083494,2.3258235454559326,-2.4981069564819336
257,13700.0,8.949156761169434,-1.0983055830001829,-1.1700903177261353
258,13800.0,8.949156761169434,-1.0983055830001829,-1.1700903177261353
259,13900.0,8.729016304016112,1.8903299570083616,-1.7754744291305542
260,14000.0,8.729016304016112,1.8903299570083616,-1.7754744291305542
261,14100.0,9.930214881896973,2.6632115840911865,-2.8402805328369136
262,14200.0,9.930214881896973,2.6632115840911865,-2.8402805328369136
263,14300.0,12.385249137878418,1.3782659769058228,-3.0173492431640625
264,14400.0,12.385249137878418,1.3782659769058228,-3.0173492431640625
265,14500.0,9.824929237365724,1.9812570810317995,-1.1150553226470947
266,14600.0,9.824929237365724,1.9812570810317995,-1.1150553226470947
267,14700.0,9.824929237365724,1.9812570810317995,-1.1150553226470947
268,14800.0,8.48016357421875,0.9523434042930604,-0.705882728099823
269,14900.0,8.48016357421875,0.9523434042930604,-0.705882728099823
270,15000.0,8.12123966217041,3.208775281906128,-2.9718859195709233
271,15100.0,8.12123966217041,3.208775281906128,-2.9718859195709233
272,15200.0,9.72921657562256,3.871586799621582,-3.491128206253052
273,15300.0,9.72921657562256,3.871586799621582,-3.491128206253052
274,15400.0,9.72921657562256,3.871586799621582,-3.491128206253052
275,15500.0,6.685546875,0.8566305041313171,-2.2061824798583984
276,15600.0,6.685546875,0.8566305041313171,-2.2061824798583984
277,15700.0,8.350951194763184,1.7874385118484497,-1.9118653535842896
278,15800.0,8.350951194763184,1.7874385118484497,-1.9118653535842896
279,15900.0,7.99681282043457,1.88075852394104,-2.445464611053467
280,14000.0,8.729016304016112,1.8903299570083616,-1.7754744291305542
281,14100.0,9.930214881896973,2.6632115840911865,-2.8402805328369136
282,14200.0,9.930214881896973,2.6632115840911865,-2.8402805328369136
283,14300.0,12.385249137878418,1.3782659769058228,-3.0173492431640625
284,14400.0,12.385249137878418,1.3782659769058228,-3.0173492431640625
285,14500.0,9.824929237365724,1.9812570810317995,-1.1150553226470947
286,14600.0,9.824929237365724,1.9812570810317995,-1.1150553226470947
287,14700.0,9.824929237365724,1.9812570810317995,-1.1150553226470947
288,14800.0,8.48016357421875,0.9523434042930604,-0.705882728099823
289,14900.0,8.48016357421875,0.9523434042930604,-0.705882728099823
290,15000.0,8.12123966217041,3.208775281906128,-2.9718859195709233
291,15100.0,8.12123966217041,3.208775281906128,-2.9718859195709233
292,15200.0,9.72921657562256,3.871586799621582,-3.491128206253052
293,15300.0,9.72921657562256,3.871586799621582,-3.491128206253052
294,15400.0,9.72921657562256,3.871586799621582,-3.491128206253052
295,15500.0,6.685546875,0.8566305041313171,-2.2061824798583984
296,15600.0,6.685546875,0.8566305041313171,-2.2061824798583984
297,15700.0,8.350951194763184,1.7874385118484497,-1.9118653535842896
298,15800.0,8.350951194763184,1.7874385118484497,-1.9118653535842896
299,15900.0,7.99681282043457,1.88075852394104,-2.445464611053467
300,16000.0,7.99681282043457,1.88075852394104,-2.445464611053467
301,16100.0,7.99681282043457,1.88075852394104,-2.445464611053467
302,16200.0,9.671788215637207,1.7994027137756348,-3.242274522781372
303,16300.0,9.671788215637207,1.7994027137756348,-3.242274522781372
304,16400.0,12.902100563049315,2.3545374870300293,-2.940778970718384
305,16500.0,12.902100563049315,2.3545374870300293,-2.940778970718384
306,16600.0,8.59501838684082,1.739582061767578,-0.8015955686569214
307,16700.0,8.59501838684082,1.739582061767578,-0.8015955686569214
308,16800.0,8.59501838684082,1.739582061767578,-0.8015955686569214
309,16900.0,8.872586250305176,1.8999011516571045,-1.7563319206237793
310,17000.0,8.872586250305176,1.8999011516571045,-1.7563319206237793
311,17100.0,7.905886173248291,2.957528829574585,-2.5052852630615234
312,17200.0,7.905886173248291,2.957528829574585,-2.5052852630615234
313,17300.0,9.906286239624023,3.610769510269165,-3.3236305713653564
314,17400.0,9.906286239624023,3.610769510269165,-3.3236305713653564
315,17500.0,10.719844818115234,1.9046868085861208,-2.0673987865448002
316,17600.0,10.719844818115234,1.9046868085861208,-2.0673987865448002
317,17700.0,9.245866775512695,1.308874011039734,-1.998006820678711
318,17800.0,9.245866775512695,1.308874011039734,-1.998006820678711
319,17900.0,8.49452018737793,1.0911270380020142,-1.3902300596237185
320,16000.0,7.99681282043457,1.88075852394104,-2.445464611053467
321,16100.0,7.99681282043457,1.88075852394104,-2.445464611053467
322,16200.0,9.671788215637207,1.7994027137756348,-3.242274522781372
323,16300.0,9.671788215637207,1.7994027137756348,-3.242274522781372
324,16400.0,12.902100563049315,2.3545374870300293,-2.940778970718384
325,16500.0,12.902100563049315,2.3545374870300293,-2.940778970718384
326,16600.0,8.59501838684082,1.739582061767578,-0.8015955686569214
327,16700.0,8.59501838684082,1.739582061767578,-0.8015955686569214
328,16800.0,8.59501838684082,1.739582061767578,-0.8015955686569214
329,16900.0,8.872586250305176,1.8999011516571045,-1.7563319206237793
330,17000.0,8.872586250305176,1.8999011516571045,-1.7563319206237793
331,17100.0,7.905886173248291,2.957528829574585,-2.5052852630615234
332,17200.0,7.905886173248291,2.957528829574585,-2.5052852630615234
333,17300.0,9.906286239624023,3.610769510269165,-3.3236305713653564
334,17400.0,9.906286239624023,3.610769510269165,-3.3236305713653564
335,17500.0,10.719844818115234,1.9046868085861208,-2.0673987865448002
336,17600.0,10.719844818115234,1.9046868085861208,-2.0673987865448002
337,17700.0,9.245866775512695,1.308874011039734,-1.998006820678711
338,17800.0,9.245866775512695,1.308874011039734,-1.998006820678711
339,17900.0,8.49452018737793,1.0911270380020142,-1.3902300596237185
340,18000.0,8.49452018737793,1.0911270380020142,-1.3902300596237185
341,18100.0,8.647661209106445,2.09850549697876,-2.8833510875701904
342,18200.0,8.647661209106445,2.09850549697876,-2.8833510875701904
343,18300.0,8.647661209106445,2.09850549697876,-2.8833510875701904
344,18400.0,10.470992088317873,1.2753744125366209,-3.060420036315918
345,18500.0,10.470992088317873,1.2753744125366209,-3.060420036315918
346,18600.0,9.753145217895508,1.2490534782409668,-2.0793628692626958
347,18700.0,9.753145217895508,1.2490534782409668,-2.0793628692626958
348,18800.0,9.753145217895508,1.2490534782409668,-2.0793628692626958
349,18900.0,8.116454124450684,1.6127625703811646,-1.4213367700576782
350,19000.0,8.116454124450684,1.6127625703811646,-1.4213367700576782
351,19100.0,8.997013092041016,2.1942183971405034,-2.3090739250183105
352,19200.0,8.997013092041016,2.1942183971405034,-2.3090739250183105
353,19300.0,10.164710998535156,2.455036163330078,-2.9551358222961426
354,19400.0,10.164710998535156,2.455036163330078,-2.9551358222961426
355,19500.0,10.164710998535156,2.455036163330078,-2.9551358222961426
356,19600.0,7.848458290100098,1.7252250909805298,-2.0243279933929443
357,19700.0,7.848458290100098,1.7252250909805298,-2.0243279933929443
358,19800.0,7.144968032836914,1.6893328428268433,-1.794616937637329
359,19900.0,7.144968032836914,1.6893328428268433,-1.794616937637329
360,18000.0,8.49452018737793,1.0911270380020142,-1.3902300596237185
361,18100.0,8.647661209106445,2.09850549697876,-2.8833510875701904
362,18200.0,8.647661209106445,2.09850549697876,-2.8833510875701904
363,18300.0,8.647661209106445,2.09850549697876,-2.8833510875701904
364,18400.0,10.470992088317873,1.2753744125366209,-3.060420036315918
365,18500.0,10.470992088317873,1.2753744125366209,-3.060420036315918
366,18600.0,9.753145217895508,1.2490534782409668,-2.0793628692626958
367,18700.0,9.753145217895508,1.2490534782409668,-2.0793628692626958
368,18800.0,9.753145217895508,1.2490534782409668,-2.0793628692626958
369,18900.0,8.116454124450684,1.6127625703811646,-1.4213367700576782
370,19000.0,8.116454124450684,1.6127625703811646,-1.4213367700576782
371,19100.0,8.997013092041016,2.1942183971405034,-2.3090739250183105
372,19200.0,8.997013092041016,2.1942183971405034,-2.3090739250183105
373,19300.0,10.164710998535156,2.455036163330078,-2.9551358222961426
374,19400.0,10.164710998535156,2.455036163330078,-2.9551358222961426
375,19500.0,10.164710998535156,2.455036163330078,-2.9551358222961426
376,19600.0,7.848458290100098,1.7252250909805298,-2.0243279933929443
377,19700.0,7.848458290100098,1.7252250909805298,-2.0243279933929443
378,19800.0,7.144968032836914,1.6893328428268433,-1.794616937637329
379,19900.0,7.144968032836914,1.6893328428268433,-1.794616937637329
380,20000.0,9.107083320617676,1.3232309818267822,-2.280359983444214
381,20100.0,9.107083320617676,1.3232309818267822,-2.280359983444214
382,20200.0,9.107083320617676,1.3232309818267822,-2.280359983444214
383,20300.0,9.38943576812744,1.65583336353302,-2.8211379051208496
384,20400.0,9.38943576812744,1.65583336353302,-2.8211379051208496
385,20500.0,9.63828945159912,1.2681961059570312,-2.833101987838745
386,20600.0,9.63828945159912,1.2681961059570312,-2.833101987838745
387,20700.0,7.714460372924805,1.6247265338897705,-1.6701902151107788
388,20800.0,7.714460372924805,1.6247265338897705,-1.6701902151107788
389,20900.0,8.49452018737793,2.1822540760040283,-1.4691929817199707
390,21000.0,8.49452018737793,2.1822540760040283,-1.4691929817199707
391,21100.0,8.49452018737793,2.1822540760040283,-1.4691929817199707
392,21200.0,8.441878318786621,2.0434706211090092,-2.3880369663238525
393,21300.0,8.441878318786621,2.0434706211090092,-2.3880369663238525
394,21400.0,8.662017822265625,2.3976082801818848,-3.1082763671875
395,21500.0,8.662017822265625,2.3976082801818848,-3.1082763671875
396,21600.0,11.490333557128904,2.263610363006592,-2.569891452789306
397,21700.0,11.490333557128904,2.263610363006592,-2.569891452789306
398,21800.0,11.490333557128904,2.263610363006592,-2.569891452789306
399,21900.0,9.011369705200195,1.2346963882446291,-1.835294842720032
400,20000.0,9.107083320617676,1.3232309818267822,-2.280359983444214
401,20100.0,9.107083320617676,1.3232309818267822,-2.280359983444214
402,20200.0,9.107083320617676,1.3232309818267822,-2.280359983444214
403,20300.0,9.38943576812744,1.65583336353302,-2.8211379051208496
404,20400.0,9.38943576812744,1.65583336353302,-2.8211379051208496
405,20500.0,9.63828945159912,1.2681961059570312,-2.833101987838745
406,20600.0,9.63828945159912,1.2681961059570312,-2.833101987838745
407,20700.0,7.714460372924805,1.6247265338897705,-1.6701902151107788
408,20800.0,7.714460372924805,1.6247265338897705,-1.6701902151107788
409,20900.0,8.49452018737793,2.1822540760040283,-1.4691929817199707
410,21000.0,8.49452018737793,2.1822540760040283,-1.4691929817199707
411,21100.0,8.49452018737793,2.1822540760040283,-1.4691929817199707
412,21200.0,8.441878318786621,2.0434706211090092,-2.3880369663238525
413,21300.0,8.441878318786621,2.0434706211090092,-2.3880369663238525
414,21400.0,8.662017822265625,2.3976082801818848,-3.1082763671875
415,21500.0,8.662017822265625,2.3976082801818848,-3.1082763671875
416,21600.0,11.490333557128904,2.263610363006592,-2.569891452789306
417,21700.0,11.490333557128904,2.263610363006592,-2.569891452789306
418,21800.0,11.490333557128904,2.263610363006592,-2.569891452789306
419,21900.0,9.011369705200195,1.2346963882446291,-1.835294842720032
420,22000.0,9.011369705200195,1.2346963882446291,-1.835294842720032
421,22100.0,7.992027282714844,2.1535403728485107,-2.6943180561065674
422,22200.0,7.992027282714844,2.1535403728485107,-2.6943180561065674
423,22300.0,8.70508861541748,1.964507341384888,-2.7661027908325195
424,22400.0,8.70508861541748,1.964507341384888,-2.7661027908325195
425,22500.0,8.70508861541748,1.964507341384888,-2.7661027908325195
426,22600.0,10.360921859741213,1.160519003868103,-2.9671001434326167
427,22700.0,10.360921859741213,1.160519003868103,-2.9671001434326167
428,22800.0,9.418149948120117,1.3830513954162598,-2.3066811561584477
429,22900.0,9.418149948120117,1.3830513954162598,-2.3066811561584477
430,23000.0,8.652446746826174,1.9860427379608157,-1.6534404754638672
431,23100.0,8.652446746826174,1.9860427379608157,-1.6534404754638672
432,23200.0,8.456235885620117,2.038684844970703,-1.765903115272522
433,23300.0,8.456235885620117,2.038684844970703,-1.765903115272522
434,23400.0,8.796016693115233,2.2755744457244877,-2.1272192001342773
435,23500.0,8.796016693115233,2.2755744457244877,-2.1272192001342773
436,23600.0,8.796016693115233,2.2755744457244877,-2.1272192001342773
437,23700.0,9.891928672790527,2.629711866378784,-2.691925525665283
438,23800.0,9.891928672790527,2.629711866378784,-2.691925525665283
439,23900.0,13.624732971191404,2.8211379051208496,-2.53399920463562
440,22000.0,9.011369705200195,1.2346963882446291,-1.835294842720032
441,22100.0,7.992027282714844,2.1535403728485107,-2.6943180561065674
442,22200.0,7.992027282714844,2.1535403728485107,-2.6943180561065674
443,22300.0,8.70508861541748,1.964507341384888,-2.7661027908325195
444,22400.0,8.70508861541748,1.964507341384888,-2.7661027908325195
445,22500.0,8.70508861541748,1.964507341384888,-2.7661027908325195
446,22600.0,10.360921859741213,1.160519003868103,-2.9671001434326167
447,22700.0,10.360921859741213,1.160519003868103,-2.9671001434326167
448,22800.0,9.418149948120117,1.3830513954162598,-2.3066811561584477
449,22900.0,9.418149948120117,1.3830513954162598,-2.3066811561584477
450,23000.0,8.652446746826174,1.9860427379608157,-1.6534404754638672
451,23100.0,8.652446746826174,1.9860427379608157,-1.6534404754638672
452,23200.0,8.456235885620117,2.038684844970703,-1.765903115272522
453,23300.0,8.456235885620117,2.038684844970703,-1.765903115272522
454,23400.0,8.796016693115233,2.2755744457244877,-2.1272192001342773
455,23500.0,8.796016693115233,2.2755744457244877,-2.1272192001342773
456,23600.0,8.796016693115233,2.2755744457244877,-2.1272192001342773
457,23700.0,9.891928672790527,2.629711866378784,-2.691925525665283
458,23800.0,9.891928672790527,2.629711866378784,-2.691925525665283
459,23900.0,13.624732971191404,2.8211379051208496,-2.53399920463562
460,24000.0,13.624732971191404,2.8211379051208496,-2.53399920463562
461,24100.0,7.987241268157959,0.6843472719192505,-1.2705888748168943
462,24200.0,7.987241268157959,0.6843472719192505,-1.2705888748168943
463,24300.0,7.987241268157959,0.6843472719192505,-1.2705888748168943
464,24400.0,7.527820110321045,2.124826431274414,-2.1750757694244385
465,24500.0,7.527820110321045,2.124826431274414,-2.1750757694244385
466,24600.0,8.848658561706543,2.1918253898620605,-2.909672498703003
467,24700.0,8.848658561706543,2.1918253898620605,-2.909672498703003
468,24800.0,9.839285850524902,2.069791555404663,-3.060420036315918
469,24900.0,9.839285850524902,2.069791555404663,-3.060420036315918
470,25000.0,11.097911834716797,2.44067907333374,-2.6009981632232666
471,25100.0,11.097911834716797,2.44067907333374,-2.6009981632232666
472,25200.0,10.054640769958496,0.916451096534729,-1.4763716459274292
473,25300.0,10.054640769958496,0.916451096534729,-1.4763716459274292
474,25400.0,10.054640769958496,0.916451096534729,-1.4763716459274292
475,25500.0,9.131011009216307,2.2372891902923584,-1.7467604875564575
476,25600.0,9.131011009216307,2.2372891902923584,-1.7467604875564575
477,25700.0,8.556733131408691,2.548356056213379,-2.421536445617676
478,25800.0,8.556733131408691,2.548356056213379,-2.421536445617676
479,25900.0,9.17886734008789,2.3736801147460938,-2.562713146209717
480,24000.0,13.624732971191404,2.8211379051208496,-2.53399920463562
481,24100.0,7.987241268157959,0.6843472719192505,-1.2705888748168943
482,24200.0,7.987241268157959,0.6843472719192505,-1.2705888748168943
483,24300.0,7.987241268157959,0.6843472719192505,-1.2705888748168943
484,24400.0,7.527820110321045,2.124826431274414,-2.1750757694244385
485,24500.0,7.527820110321045,2.124826431274414,-2.1750757694244385
486,24600.0,8.848658561706543,2.1918253898620605,-2.909672498703003
487,24700.0,8.848658561706543,2.1918253898620605,-2.909672498703003
488,24800.0,9.839285850524902,2.069791555404663,-3.060420036315918
489,24900.0,9.839285850524902,2.069791555404663,-3.060420036315918
490,25000.0,11.097911834716797,2.44067907333374,-2.6009981632232666
491,25100.0,11.097911834716797,2.44067907333374,-2.6009981632232666
492,25200.0,10.054640769958496,0.916451096534729,-1.4763716459274292
493,25300.0,10.054640769958496,0.916451096534729,-1.4763716459274292
494,25400.0,10.054640769958496,0.916451096534729,-1.4763716459274292
495,25500.0,9.131011009216307,2.2372891902923584,-1.7467604875564575
496,25600.0,9.131011009216307,2.2372891902923584,-1.7467604875564575
497,25700.0,8.556733131408691,2.548356056213379,-2.421536445617676
498,25800.0,8.556733131408691,2.548356056213379,-2.421536445617676
499,25900.0,9.17886734008789,2.3736801147460938,-2.562713146209717
500,26000.0,9.17886734008789,2.3736801147460938,-2.562713146209717
501,26100.0,9.17886734008789,2.3736801147460938,-2.562713146209717
502,26200.0,13.088740348815918,1.3974084854125977,-1.868794322013855
503,26300.0,13.088740348815918,1.3974084854125977,-1.868794322013855
504,26400.0,9.394222259521484,0.8853443264961243,-2.1367905139923096
505,26500.0,9.394222259521484,0.8853443264961243,-2.1367905139923096
506,26600.0,8.461020469665527,1.868794322013855,-3.507878065109253
507,26700.0,8.461020469665527,1.868794322013855,-3.507878065109253
508,26800.0,9.394222259521484,1.3543376922607422,-3.3619158267974854
509,26900.0,9.394222259521484,1.3543376922607422,-3.3619158267974854
510,27000.0,9.394222259521484,1.3543376922607422,-3.3619158267974854
511,27100.0,6.283552646636963,0.5000999569892883,-1.8376877307891848
512,27200.0,6.283552646636963,0.5000999569892883,-1.8376877307891848
513,27300.0,7.843672752380371,2.455036163330078,-1.5768700838088991
514,27400.0,7.843672752380371,2.455036163330078,-1.5768700838088991
515,27500.0,8.518448829650879,3.91705060005188,-2.483749866485596
516,27600.0,8.518448829650879,3.91705060005188,-2.483749866485596
517,27700.0,8.518448829650879,3.91705060005188,-2.483749866485596
518,27800.0,13.332807540893555,4.218546390533446,-3.0556347370147705
519,27900.0,13.332807540893555,4.218546390533446,-3.0556347370147705
520,26000.0,9.17886734008789,2.3736801147460938,-2.562713146209717
521,26100.0,9.17886734008789,2.3736801147460938,-2.562713146209717
522,26200.0,13.088740348815918,1.3974084854125977,-1.868794322013855
523,26300.0,13.088740348815918,1.3974084854125977,-1.868794322013855
524,26400.0,9.394222259521484,0.8853443264961243,-2.1367905139923096
525,26500.0,9.394222259521484,0.8853443264961243,-2.1367905139923096
526,26600.0,8.461020469665527,1.868794322013855,-3.507878065109253
527,26700.0,8.461020469665527,1.868794322013855,-3.507878065109253
528,26800.0,9.394222259521484,1.3543376922607422,-3.3619158267974854
529,26900.0,9.394222259521484,1.3543376922607422,-3.3619158267974854
530,27000.0,9.394222259521484,1.3543376922607422,-3.3619158267974854
531,27100.0,6.283552646636963,0.5000999569892883,-1.8376877307891848
532,27200.0,6.283552646636963,0.5000999569892883,-1.8376877307891848
533,27300.0,7.843672752380371,2.455036163330078,-1.5768700838088991
534,27400.0,7.843672752380371,2.455036163330078,-1.5768700838088991
535,27500.0,8.518448829650879,3.91705060005188,-2.483749866485596
536,27600.0,8.518448829650879,3.91705060005188,-2.483749866485596
537,27700.0,8.518448829650879,3.91705060005188,-2.483749866485596
538,27800.0,13.332807540893555,4.218546390533446,-3.0556347370147705
539,27900.0,13.332807540893555,4.218546390533446,-3.0556347370147705
540,28000.0,8.312665939331055,0.11006984114646913,-1.7682960033416748
541,28100.0,8.312665939331055,0.11006984114646913,-1.7682960033416748
542,28200.0,8.202595710754395,0.3397807776927948,-2.132004976272583
543,28300.0,8.202595710754395,0.3397807776927948,-2.132004976272583
544,28400.0,11.203195571899414,0.7226324081420898,-2.0889341831207275
545,28500.0,11.203195571899414,0.7226324081420898,-2.0889341831207275
546,28600.0,11.203195571899414,0.7226324081420898,-2.0889341831207275
547,28700.0,10.121639251708984,1.155733346939087,-1.6103696823120115
548,28800.0,10.121639251708984,1.155733346939087,-1.6103696823120115
549,28900.0,9.53779125213623,1.4213367700576782,-1.5553346872329712
550,29000.0,9.53779125213623,1.4213367700576782,-1.5553346872329712
551,29100.0,8.049454689025879,1.5337992906570437,-1.4524433612823486
552,29200.0,8.049454689025879,1.5337992906570437,-1.4524433612823486
553,29300.0,8.049454689025879,1.5337992906570437,-1.4524433612823486
554,29400.0,9.351150512695312,2.084148406982422,-2.033899307250977
555,29500.0,9.351150512695312,2.084148406982422,-2.033899307250977
556,29600.0,9.111868858337402,2.084148406982422,-2.557927370071411
557,29700.0,9.111868858337402,2.084148406982422,-2.557927370071411
558,29800.0,9.111868858337402,2.084148406982422,-2.557927370071411
559,29900.0,9.863215446472168,1.887937068939209,-2.313859462738037
560,28000.0,8.312665939331055,0.11006984114646913,-1.7682960033416748
561,28100.0,8.312665939331055,0.11006984114646913,-1.7682960033416748
562,28200.0,8.202595710754395,0.3397807776927948,-2.132004976272583
563,28300.0,8.202595710754395,0.3397807776927948,-2.132004976272583
564,28400.0,11.203195571899414,0.7226324081420898,-2.0889341831207275
565,28500.0,11.203195571899414,0.7226324081420898,-2.0889341831207275
566,28600.0,11.203195571899414,0.7226324081420898,-2.0889341831207275
567,28700.0,10.121639251708984,1.155733346939087,-1.6103696823120115
568,28800.0,10.121639251708984,1.155733346939087,-1.6103696823120115
569,28900.0,9.53779125213623,1.4213367700576782,-1.5553346872329712
570,29000.0,9.53779125213623,1.4213367700576782,-1.5553346872329712
571,29100.0,8.049454689025879,1.5337992906570437,-1.4524433612823486
572,29200.0,8.049454689025879,1.5337992906570437,-1.4524433612823486
573,29300.0,8.049454689025879,1.5337992906570437,-1.4524433612823486
574,29400.0,9.351150512695312,2.084148406982422,-2.033899307250977
575,29500.0,9.351150512695312,2.084148406982422,-2.033899307250977
576,29600.0,9.111868858337402,2.084148406982422,-2.557927370071411
577,29700.0,9.111868858337402,2.084148406982422,-2.557927370071411
578,29800.0,9.111868858337402,2.084148406982422,-2.557927370071411
579,29900.0,9.863215446472168,1.887937068939209,-2.313859462738037
580,30000.0,9.863215446472168,1.887937068939209,-2.313859462738037
581,30100.0,11.121840476989746,1.8089739084243772,-1.761117458343506
582,30200.0,11.121840476989746,1.8089739084243772,-1.761117458343506
583,30300.0,8.02074146270752,0.9834501147270204,-2.0243279933929443
584,30400.0,8.02074146270752,0.9834501147270204,-2.0243279933929443
585,30500.0,8.02074146270752,0.9834501147270204,-2.0243279933929443
586,30600.0,9.327221870422363,1.969292998313904,-2.115255117416382
587,30700.0,9.327221870422363,1.969292998313904,-2.115255117416382
588,30800.0,9.442078590393066,1.931007981300354,-2.75174617767334
589,30900.0,9.442078590393066,1.931007981300354,-2.75174617767334
590,31000.0,9.207581520080566,1.7324036359786987,-2.902493953704834
591,31100.0,9.207581520080566,1.7324036359786987,-2.902493953704834
592,31200.0,9.207581520080566,1.7324036359786987,-2.902493953704834
593,31300.0,10.705488204956056,2.0147566795349117,-2.8115665912628174
594,31400.0,10.705488204956056,2.0147566795349117,-2.8115665912628174
595,31500.0,9.848857879638672,2.407179594039917,-1.9142580032348635
596,31600.0,9.848857879638672,2.407179594039917,-1.9142580032348635
597,31700.0,8.307880401611326,1.782652735710144,-1.8640089035034182
598,31800.0,8.307880401611326,1.782652735710144,-1.8640089035034182
599,31900.0,8.652446746826174,2.543570280075073,-2.9048867225646973
600,30000.0,9.863215446472168,1.887937068939209,-2.313859462738037
601,30100.0,11.121840476989746,1.8089739084243772,-1.761117458343506
602,30200.0,11.121840476989746,1.8089739084243772,-1.761117458343506
603,30300.0,8.02074146270752,0.9834501147270204,-2.0243279933929443
604,30400.0,8.02074146270752,0.9834501147270204,-2.0243279933929443
605,30500.0,8.02074146270752,0.9834501147270204,-2.0243279933929443
606,30600.0,9.327221870422363,1.969292998313904,-2.115255117416382
607,30700.0,9.327221870422363,1.969292998313904,-2.115255117416382
608,30800.0,9.442078590393066,1.931007981300354,-2.75174617767334
609,30900.0,9.442078590393066,1.931007981300354,-2.75174617767334
610,31000.0,9.207581520080566,1.7324036359786987,-2.902493953704834
611,31100.0,9.207581520080566,1.7324036359786987,-2.902493953704834
612,31200.0,9.207581520080566,1.7324036359786987,-2.902493953704834
613,31300.0,10.705488204956056,2.0147566795349117,-2.8115665912628174
614,31400.0,10.705488204956056,2.0147566795349117,-2.8115665912628174
615,31500.0,9.848857879638672,2.407179594039917,-1.9142580032348635
616,31600.0,9.848857879638672,2.407179594039917,-1.9142580032348635
617,31700.0,8.307880401611326,1.782652735710144,-1.8640089035034182
618,31800.0,8.307880401611326,1.782652735710144,-1.8640089035034182
619,31900.0,8.652446746826174,2.543570280075073,-2.9048867225646973
620,32000.0,8.652446746826174,2.543570280075073,-2.9048867225646973
621,32100.0,8.652446746826174,2.543570280075073,-2.9048867225646973
622,32200.0,8.571090698242188,3.0269205570220947,-2.823530912399292
623,32300.0,8.571090698242188,3.0269205570220947,-2.823530912399292
624,32400.0,9.269794464111328,2.912065029144287,-2.53399920463562
625,32500.0,9.269794464111328,2.912065029144287,-2.53399920463562
626,32600.0,9.269794464111328,2.912065029144287,-2.53399920463562
627,32700.0,10.011569023132324,1.978864312171936,-2.778067111968994
628,32800.0,10.011569023132324,1.978864312171936,-2.778067111968994
629,32900.0,8.556733131408691,1.9453648328781128,-2.4598214626312256
630,33000.0,8.556733131408691,1.9453648328781128,-2.4598214626312256
631,33100.0,8.312665939331055,1.0145567655563354,-2.2253248691558842
632,33200.0,8.312665939331055,1.0145567655563354,-2.2253248691558842
633,33300.0,8.312665939331055,1.0145567655563354,-2.2253248691558842
634,33400.0,9.020941734313963,1.550549030303955,-2.2205395698547363
635,33500.0,9.020941734313963,1.550549030303955,-2.2205395698547363
636,33600.0,8.609375953674316,2.2085752487182617,-2.7278177738189697
637,33700.0,8.609375953674316,2.2085752487182617,-2.7278177738189697
638,33800.0,9.049654960632324,1.5385849475860596,-2.8187451362609863
639,33900.0,9.049654960632324,1.5385849475860596,-2.8187451362609863
640,32000.0,8.652446746826174,2.543570280075073,-2.9048867225646973
641,32100.0,8.652446746826174,2.543570280075073,-2.9048867225646973
642,32200.0,8.571090698242188,3.0269205570220947,-2.823530912399292
643,32300.0,8.571090698242188,3.0269205570220947,-2.823530912399292
644,32400.0,9.269794464111328,2.912065029144287,-2.53399920463562
645,32500.0,9.269794464111328,2.912065029144287,-2.53399920463562
646,32600.0,9.269794464111328,2.912065029144287,-2.53399920463562
647,32700.0,10.011569023132324,1.978864312171936,-2.778067111968994
648,32800.0,10.011569023132324,1.978864312171936,-2.778067111968994
649,32900.0,8.556733131408691,1.9453648328781128,-2.4598214626312256
650,33000.0,8.556733131408691,1.9453648328781128,-2.4598214626312256
651,33100.0,8.312665939331055,1.0145567655563354,-2.2253248691558842
652,33200.0,8.312665939331055,1.0145567655563354,-2.2253248691558842
653,33300.0,8.312665939331055,1.0145567655563354,-2.2253248691558842
654,33400.0,9.020941734313963,1.550549030303955,-2.2205395698547363
655,33500.0,9.020941734313963,1.550549030303955,-2.2205395698547363
656,33600.0,8.609375953674316,2.2085752487182617,-2.7278177738189697
657,33700.0,8.609375953674316,2.2085752487182617,-2.7278177738189697
658,33800.0,9.049654960632324,1.5385849475860596,-2.8187451362609863
659,33900.0,9.049654960632324,1.5385849475860596,-2.8187451362609863
660,34000.0,9.049654960632324,1.5385849475860596,-2.8187451362609863
661,34100.0,10.892127990722656,1.6773687601089478,-2.900100946426392
662,34200.0,10.892127990722656,1.6773687601089478,-2.900100946426392
663,34300.0,7.599604606628418,1.6151552200317385,-2.1104695796966557
664,34400.0,7.599604606628418,1.6151552200317385,-2.1104695796966557
665,34500.0,8.427520751953125,1.9142580032348635,-1.0456634759902954
666,34600.0,8.427520751953125,1.9142580032348635,-1.0456634759902954
667,34700.0,8.427520751953125,1.9142580032348635,-1.0456634759902954
668,34800.0,8.872586250305176,2.1104695796966557,-1.9094725847244265
669,34900.0,8.872586250305176,2.1104695796966557,-1.9094725847244265
670,35000.0,9.499505043029783,2.3162522315979004,-2.124826431274414
671,35100.0,9.499505043029783,2.3162522315979004,-2.124826431274414
672,35200.0,9.011369705200195,2.0410776138305664,-2.0410776138305664
673,35300.0,9.011369705200195,2.0410776138305664,-2.0410776138305664
674,35400.0,9.011369705200195,2.0410776138305664,-2.0410776138305664
675,35500.0,13.1365966796875,2.462214469909668,-2.1726830005645748
676,35600.0,13.1365966796875,2.462214469909668,-2.1726830005645748
677,35700.0,9.255437850952148,-0.2273181527853012,-1.4476575851440432
678,35800.0,9.255437850952148,-0.2273181527853012,-1.4476575851440432
679,35900.0,8.264809608459473,1.6965112686157229,-1.9884356260299685
680,34000.0,9.049654960632324,1.5385849475860596,-2.8187451362609863
681,34100.0,10.892127990722656,1.6773687601089478,-2.900100946426392
682,34200.0,10.892127990722656,1.6773687601089478,-2.900100946426392
683,34300.0,7.599604606628418,1.6151552200317385,-2.1104695796966557
684,34400.0,7.599604606628418,1.6151552200317385,-2.1104695796966557
685,34500.0,8.427520751953125,1.9142580032348635,-1.0456634759902954
686,34600.0,8.427520751953125,1.9142580032348635,-1.0456634759902954
687,34700.0,8.427520751953125,1.9142580032348635,-1.0456634759902954
688,34800.0,8.872586250305176,2.1104695796966557,-1.9094725847244265
689,34900.0,8.872586250305176,2.1104695796966557,-1.9094725847244265
690,35000.0,9.499505043029783,2.3162522315979004,-2.124826431274414
691,35100.0,9.499505043029783,2.3162522315979004,-2.124826431274414
692,35200.0,9.011369705200195,2.0410776138305664,-2.0410776138305664
693,35300.0,9.011369705200195,2.0410776138305664,-2.0410776138305664
694,35400.0,9.011369705200195,2.0410776138305664,-2.0410776138305664
695,35500.0,13.1365966796875,2.462214469909668,-2.1726830005645748
696,35600.0,13.1365966796875,2.462214469909668,-2.1726830005645748
697,35700.0,9.255437850952148,-0.2273181527853012,-1.4476575851440432
698,35800.0,9.255437850952148,-0.2273181527853012,-1.4476575851440432
699,35900.0,8.264809608459473,1.6965112686157229,-1.9884356260299685
700,36000.0,8.264809608459473,1.6965112686157229,-1.9884356260299685
701,36100.0,8.264809608459473,1.6965112686157229,-1.9884356260299685
702,36200.0,8.992227554321289,1.6486548185348509,-2.935993194580078
703,36300.0,8.992227554321289,1.6486548185348509,-2.935993194580078
704,36400.0,9.4660062789917,1.026520848274231,-2.603391170501709
705,36500.0,9.4660062789917,1.026520848274231,-2.603391170501709
706,36600.0,9.67657470703125,0.7704889178276062,-2.617748022079468
707,36700.0,9.67657470703125,0.7704889178276062,-2.617748022079468
708,36800.0,10.437491416931152,1.7539390325546265,-1.964507341384888
709,36900.0,10.437491416931152,1.7539390325546265,-1.964507341384888
710,37000.0,9.485149383544922,1.4620146751403809,-1.5553346872329712
711,37100.0,9.485149383544922,1.4620146751403809,-1.5553346872329712
712,37200.0,9.485149383544922,1.4620146751403809,-1.5553346872329712
713,37300.0,8.398807525634767,1.8520447015762331,-1.4691929817199707
714,37400.0,8.398807525634767,1.8520447015762331,-1.4691929817199707
715,37500.0,8.551947593688965,2.3856441974639893,-2.744567632675171
716,37600.0,8.551947593688965,2.3856441974639893,-2.744567632675171
717,37700.0,8.149953842163086,2.522034883499145,-2.682354211807251
718,37800.0,8.149953842163086,2.522034883499145,-2.682354211807251
719,37900.0,13.256237030029295,1.9908283948898315,-1.7156537771224976
720,36000.0,8.264809608459473,1.6965112686157229,-1.9884356260299685
721,36100.0,8.264809608459473,1.6965112686157229,-1.9884356260299685
722,36200.0,8.992227554321289,1.6486548185348509,-2.935993194580078
723,36300.0,8.992227554321289,1.6486548185348509,-2.935993194580078
724,36400.0,9.4660062789917,1.026520848274231,-2.603391170501709
725,36500.0,9.4660062789917,1.026520848274231,-2.603391170501709
726,36600.0,9.67657470703125,0.7704889178276062,-2.617748022079468
727,36700.0,9.67657470703125,0.7704889178276062,-2.617748022079468
728,36800.0,10.437491416931152,1.7539390325546265,-1.964507341384888
729,36900.0,10.437491416931152,1.7539390325546265,-1.964507341384888
730,37000.0,9.485149383544922,1.4620146751403809,-1.5553346872329712
731,37100.0,9.485149383544922,1.4620146751403809,-1.5553346872329712
732,37200.0,9.485149383544922,1.4620146751403809,-1.5553346872329712
733,37300.0,8.398807525634767,1.8520447015762331,-1.4691929817199707
734,37400.0,8.398807525634767,1.8520447015762331,-1.4691929817199707
735,37500.0,8.551947593688965,2.3856441974639893,-2.744567632675171
736,37600.0,8.551947593688965,2.3856441974639893,-2.744567632675171
737,37700.0,8.149953842163086,2.522034883499145,-2.682354211807251
738,37800.0,8.149953842163086,2.522034883499145,-2.682354211807251
739,37900.0,13.256237030029295,1.9908283948898315,-1.7156537771224976
740,38000.0,13.256237030029295,1.9908283948898315,-1.7156537771224976
741,38100.0,13.256237030029295,1.9908283948898315,-1.7156537771224976
742,38200.0,8.700303077697754,0.8255237936973572,-1.7324036359786987
743,38300.0,8.700303077697754,0.8255237936973572,-1.7324036359786987
744,38400.0,8.513663291931152,1.2011969089508057,-1.7156537771224976
745,38500.0,8.513663291931152,1.2011969089508057,-1.7156537771224976
746,38600.0,8.834300994873047,1.459621787071228,-2.2923240661621094
747,38700.0,8.834300994873047,1.459621787071228,-2.2923240661621094
748,38800.0,8.901299476623535,1.2729815244674685,-2.5076780319213867
749,38900.0,8.901299476623535,1.2729815244674685,-2.5076780319213867
750,39000.0,9.98285675048828,1.8113667964935305,-2.026720762252808
751,39100.0,9.98285675048828,1.8113667964935305,-2.026720762252808
752,39200.0,9.98285675048828,1.8113667964935305,-2.026720762252808
753,39300.0,10.083355903625488,1.8089739084243772,-1.9908283948898315
754,39400.0,10.083355903625488,1.8089739084243772,-1.9908283948898315
755,39500.0,7.781459331512451,1.9764715433120728,-1.131805181503296
756,39600.0,7.781459331512451,1.9764715433120728,-1.131805181503296
757,39700.0,7.781459331512451,1.9764715433120728,-1.131805181503296
758,39800.0,7.719245910644531,2.2229323387146,-1.4548362493515017
759,39900.0,7.719245910644531,2.2229323387146,-1.4548362493515017
760,38000.0,13.256237030029295,1.9908283948898315,-1.7156537771224976
761,38100.0,13.256237030029295,1.9908283948898315,-1.7156537771224976
762,38200.0,8.700303077697754,0.8255237936973572,-1.7324036359786987
763,38300.0,8.700303077697754,0.8255237936973572,-1.7324036359786987
764,38400.0,8.513663291931152,1.2011969089508057,-1.7156537771224976
765,38500.0,8.513663291931152,1.2011969089508057,-1.7156537771224976
766,38600.0,8.834300994873047,1.459621787071228,-2.2923240661621094
767,38700.0,8.834300994873047,1.459621787071228,-2.2923240661621094
768,38800.0,8.901299476623535,1.2729815244674685,-2.5076780319213867
769,38900.0,8.901299476623535,1.2729815244674685,-2.5076780319213867
770,39000.0,9.98285675048828,1.8113667964935305,-2.026720762252808
771,39100.0,9.98285675048828,1.8113667964935305,-2.026720762252808
772,39200.0,9.98285675048828,1.8113667964935305,-2.026720762252808
773,39300.0,10.083355903625488,1.8089739084243772,-1.9908283948898315
774,39400.0,10.083355903625488,1.8089739084243772,-1.9908283948898315
775,39500.0,7.781459331512451,1.9764715433120728,-1.131805181503296
776,39600.0,7.781459331512451,1.9764715433120728,-1.131805181503296
777,39700.0,7.781459331512451,1.9764715433120728,-1.131805181503296
778,39800.0,7.719245910644531,2.2229323387146,-1.4548362493515017
779,39900.0,7.719245910644531,2.2229323387146,-1.4548362493515017
780,40000.0,9.839285850524902,3.9146575927734375,-1.9812570810317995
781,40100.0,9.839285850524902,3.9146575927734375,-1.9812570810317995
782,40200.0,9.686145782470703,2.548356056213379,-2.1583259105682373
783,40300.0,9.686145782470703,2.548356056213379,-2.1583259105682373
784,40400.0,10.097711563110352,1.9286150932312007,-1.4907284975051882
785,40500.0,10.097711563110352,1.9286150932312007,-1.4907284975051882
786,40600.0,10.097711563110352,1.9286150932312007,-1.4907284975051882
787,40700.0,7.365108013153076,1.6055840253829956,-1.2227323055267334
788,40800.0,7.365108013153076,1.6055840253829956,-1.2227323055267334
789,40900.0,8.652446746826174,1.1700903177261353,-1.3543376922607422
790,41000.0,8.652446746826174,1.1700903177261353,-1.3543376922607422
791,41100.0,8.652446746826174,1.1700903177261353,-1.3543376922607422
792,41200.0,9.365508079528807,0.44745784997940063,-1.871187210083008
793,41300.0,9.365508079528807,0.44745784997940063,-1.871187210083008
794,41400.0,9.135796546936037,0.2847459018230438,-1.9286150932312007
795,41500.0,9.135796546936037,0.2847459018230438,-1.9286150932312007
796,41600.0,9.241080284118652,0.2919243574142456,-2.0434706211090092
797,41700.0,9.241080284118652,0.2919243574142456,-2.0434706211090092
798,41800.0,10.14556884765625,1.0983055830001829,-2.3880369663238525
799,41900.0,10.14556884765625,1.0983055830001829,-2.3880369663238525
800,40000.0,9.839285850524902,3.9146575927734375,-1.9812570810317995
801,40100.0,9.839285850524902,3.9146575927734375,-1.9812570810317995
802,40200.0,9.686145782470703,2.548356056213379,-2.1583259105682373
803,40300.0,9.686145782470703,2.548356056213379,-2.1583259105682373
804,40400.0,10.097711563110352,1.9286150932312007,-1.4907284975051882
805,40500.0,10.097711563110352,1.9286150932312007,-1.4907284975051882
806,40600.0,10.097711563110352,1.9286150932312007,-1.4907284975051882
807,40700.0,7.365108013153076,1.6055840253829956,-1.2227323055267334
808,40800.0,7.365108013153076,1.6055840253829956,-1.2227323055267334
809,40900.0,8.652446746826174,1.1700903177261353,-1.3543376922607422
810,41000.0,8.652446746826174,1.1700903177261353,-1.3543376922607422
811,41100.0,8.652446746826174,1.1700903177261353,-1.3543376922607422
812,41200.0,9.365508079528807,0.44745784997940063,-1.871187210083008
813,41300.0,9.365508079528807,0.44745784997940063,-1.871187210083008
814,41400.0,9.135796546936037,0.2847459018230438,-1.9286150932312007
815,41500.0,9.135796546936037,0.2847459018230438,-1.9286150932312007
816,41600.0,9.241080284118652,0.2919243574142456,-2.0434706211090092
817,41700.0,9.241080284118652,0.2919243574142456,-2.0434706211090092
818,41800.0,10.14556884765625,1.0983055830001829,-2.3880369663238525
819,41900.0,10.14556884765625,1.0983055830001829,-2.3880369663238525
820,42000.0,10.14556884765625,1.0983055830001829,-2.3880369663238525
821,42100.0,8.35573673248291,1.6893328428268433,-1.6989041566848757
822,42200.0,8.35573673248291,1.6893328428268433,-1.6989041566848757
823,42300.0,7.6522464752197275,1.969292998313904,-1.124626636505127
824,42400.0,7.6522464752197275,1.969292998313904,-1.124626636505127
825,42500.0,8.695517539978027,2.445464611053467,-2.218146562576294
826,42600.0,8.695517539978027,2.445464611053467,-2.218146562576294
827,42700.0,8.695517539978027,2.445464611053467,-2.218146562576294
828,42800.0,8.451449394226074,3.3786656856536865,-2.7349963188171387
829,42900.0,8.451449394226074,3.3786656856536865,-2.7349963188171387
830,43000.0,10.925628662109377,2.754138946533203,-2.560320377349853
831,43100.0,10.925628662109377,2.754138946533203,-2.560320377349853
832,43200.0,8.389235496520996,1.6606187820434568,-1.9046868085861208
833,43300.0,8.389235496520996,1.6606187820434568,-1.9046868085861208
834,43400.0,8.389235496520996,1.6606187820434568,-1.9046868085861208
835,43500.0,7.700103282928468,1.9094725847244265,-1.4356936216354368
836,43600.0,7.700103282928468,1.9094725847244265,-1.4356936216354368
837,43700.0,8.906085968017578,1.8305093050003047,-2.4287149906158447
838,43800.0,8.906085968017578,1.8305093050003047,-2.4287149906158447
839,43900.0,9.250652313232422,1.8759729862213133,-2.706282377243042
840,42000.0,10.14556884765625,1.0983055830001829,-2.3880369663238525
841,42100.0,8.35573673248291,1.6893328428268433,-1.6989041566848757
842,42200.0,8.35573673248291,1.6893328428268433,-1.6989041566848757
843,42300.0,7.6522464752197275,1.969292998313904,-1.124626636505127
844,42400.0,7.6522464752197275,1.969292998313904,-1.124626636505127
845,42500.0,8.695517539978027,2.445464611053467,-2.218146562576294
846,42600.0,8.695517539978027,2.445464611053467,-2.218146562576294
847,42700.0,8.695517539978027,2.445464611053467,-2.218146562576294
848,42800.0,8.451449394226074,3.3786656856536865,-2.7349963188171387
849,42900.0,8.451449394226074,3.3786656856536865,-2.7349963188171387
850,43000.0,10.925628662109377,2.754138946533203,-2.560320377349853
851,43100.0,10.925628662109377,2.754138946533203,-2.560320377349853
852,43200.0,8.389235496520996,1.6606187820434568,-1.9046868085861208
853,43300.0,8.389235496520996,1.6606187820434568,-1.9046868085861208
854,43400.0,8.389235496520996,1.6606187820434568,-1.9046868085861208
855,43500.0,7.700103282928468,1.9094725847244265,-1.4356936216354368
856,43600.0,7.700103282928468,1.9094725847244265,-1.4356936216354368
857,43700.0,8.906085968017578,1.8305093050003047,-2.4287149906158447
858,43800.0,8.906085968017578,1.8305093050003047,-2.4287149906158447
859,43900.0,9.250652313232422,1.8759729862213133,-2.706282377243042
860,44000.0,9.250652313232422,1.8759729862213133,-2.706282377243042
861,44100.0,9.250652313232422,1.8759729862213133,-2.706282377243042
862,44200.0,9.767501831054688,1.550549030303955,-2.8211379051208496
863,44300.0,9.767501831054688,1.550549030303955,-2.8211379051208496
864,44400.0,11.2366943359375,1.8616160154342647,-2.3066811561584477
865,44500.0,11.2366943359375,1.8616160154342647,-2.3066811561584477
866,44600.0,8.671588897705076,1.8616160154342647,-1.4859429597854614
867,44700.0,8.671588897705076,1.8616160154342647,-1.4859429597854614
868,44800.0,8.671588897705076,1.8616160154342647,-1.4859429597854614
869,44900.0,8.413164138793945,1.9453648328781128,-1.6654045581817627
870,45000.0,8.413164138793945,1.9453648328781128,-1.6654045581817627
871,45100.0,8.427520751953125,2.8187451362609863,-2.8402805328369136
872,45200.0,8.427520751953125,2.8187451362609863,-2.8402805328369136
873,45300.0,9.126225471496582,3.31166672706604,-3.067598581314087
874,45400.0,9.126225471496582,3.31166672706604,-3.067598581314087
875,45500.0,9.126225471496582,3.31166672706604,-3.067598581314087
876,45600.0,9.652647018432617,2.8211379051208496,-2.553141593933105
877,45700.0,9.652647018432617,2.8211379051208496,-2.553141593933105
878,45800.0,11.073983192443848,2.352144718170166,-2.565105676651001
879,45900.0,11.073983192443848,2.352144718170166,-2.565105676651001
880,44000.0,9.250652313232422,1.8759729862213133,-2.706282377243042
881,44100.0,9.250652313232422,1.8759729862213133,-2.706282377243042
882,44200.0,9.767501831054688,1.550549030303955,-2.8211379051208496
883,44300.0,9.767501831054688,1.550549030303955,-2.8211379051208496
884,44400.0,11.2366943359375,1.8616160154342647,-2.3066811561584477
885,44500.0,11.2366943359375,1.8616160154342647,-2.3066811561584477
886,44600.0,8.671588897705076,1.8616160154342647,-1.4859429597854614
887,44700.0,8.671588897705076,1.8616160154342647,-1.4859429597854614
888,44800.0,8.671588897705076,1.8616160154342647,-1.4859429597854614
889,44900.0,8.413164138793945,1.9453648328781128,-1.6654045581817627
890,45000.0,8.413164138793945,1.9453648328781128,-1.6654045581817627
891,45100.0,8.427520751953125,2.8187451362609863,-2.8402805328369136
892,45200.0,8.427520751953125,2.8187451362609863,-2.8402805328369136
893,45300.0,9.126225471496582,3.31166672706604,-3.067598581314087
894,45400.0,9.126225471496582,3.31166672706604,-3.067598581314087
895,45500.0,9.126225471496582,3.31166672706604,-3.067598581314087
896,45600.0,9.652647018432617,2.8211379051208496,-2.553141593933105
897,45700.0,9.652647018432617,2.8211379051208496,-2.553141593933105
898,45800.0,11.073983192443848,2.352144718170166,-2.565105676651001
899,45900.0,11.073983192443848,2.352144718170166,-2.565105676651001
900,46000.0,10.155139923095703,0.9810572862625122,-2.1104695796966557
901,46100.0,10.155139923095703,0.9810572862625122,-2.1104695796966557
902,46200.0,8.236095428466799,0.5431707501411438,-2.2133607864379883
903,46300.0,8.236095428466799,0.5431707501411438,-2.2133607864379883
904,46400.0,8.236095428466799,0.5431707501411438,-2.2133607864379883
905,46500.0,8.97787094116211,1.2083754539489746,-2.47896409034729
906,46600.0,8.97787094116211,1.2083754539489746,-2.47896409034729
907,46700.0,9.62393283843994,1.0815558433532717,-2.6057839393615723
908,46800.0,9.62393283843994,1.0815558433532717,-2.6057839393615723
909,46900.0,10.317852020263672,1.196411371231079,-2.720639228820801
910,47000.0,10.317852020263672,1.196411371231079,-2.720639228820801
911,47100.0,10.37527847290039,1.2634103298187256,-2.4358932971954346
912,47200.0,10.37527847290039,1.2634103298187256,-2.4358932971954346
913,47300.0,10.37527847290039,1.2634103298187256,-2.4358932971954346
914,47400.0,8.910871505737305,1.935793399810791,-1.8089739084243772
915,47500.0,8.910871505737305,1.935793399810791,-1.8089739084243772
916,47600.0,8.365307807922362,2.2516460418701167,-1.636690616607666
917,47700.0,8.365307807922362,2.2516460418701167,-1.636690616607666
918,47800.0,8.322237014770508,2.321038007736206,-2.9479575157165527
919,47900.0,8.322237014770508,2.321038007736206,-2.9479575157165527
920,46000.0,10.155139923095703,0.9810572862625122,-2.1104695796966557
921,46100.0,10.155139923095703,0.9810572862625122,-2.1104695796966557
922,46200.0,8.236095428466799,0.5431707501411438,-2.2133607864379883
923,46300.0,8.236095428466799,0.5431707501411438,-2.2133607864379883
924,46400.0,8.236095428466799,0.5431707501411438,-2.2133607864379883
925,46500.0,8.97787094116211,1.2083754539489746,-2.47896409034729
926,46600.0,8.97787094116211,1.2083754539489746,-2.47896409034729
927,46700.0,9.62393283843994,1.0815558433532717,-2.6057839393615723
928,46800.0,9.62393283843994,1.0815558433532717,-2.6057839393615723
929,46900.0,10.317852020263672,1.196411371231079,-2.720639228820801
930,47000.0,10.317852020263672,1.196411371231079,-2.720639228820801
931,47100.0,10.37527847290039,1.2634103298187256,-2.4358932971954346
932,47200.0,10.37527847290039,1.2634103298187256,-2.4358932971954346
933,47300.0,10.37527847290039,1.2634103298187256,-2.4358932971954346
934,47400.0,8.910871505737305,1.935793399810791,-1.8089739084243772
935,47500.0,8.910871505737305,1.935793399810791,-1.8089739084243772
936,47600.0,8.365307807922362,2.2516460418701167,-1.636690616607666
937,47700.0,8.365307807922362,2.2516460418701167,-1.636690616607666
938,47800.0,8.322237014770508,2.321038007736206,-2.9479575157165527
939,47900.0,8.322237014770508,2.321038007736206,-2.9479575157165527
940,48000.0,8.322237014770508,2.321038007736206,-2.9479575157165527
941,48100.0,8.130810737609862,2.2133607864379883,-3.5557346343994136
942,48200.0,8.130810737609862,2.2133607864379883,-3.5557346343994136
943,48300.0,10.37527847290039,3.0221347808837886,-3.0269205570220947
944,48400.0,10.37527847290039,3.0221347808837886,-3.0269205570220947
945,48500.0,9.74835968017578,0.935593605041504,-1.65583336353302
946,48600.0,9.74835968017578,0.935593605041504,-1.65583336353302
947,48700.0,8.322237014770508,0.25842484831810003,-1.4787644147872925
948,48800.0,8.322237014770508,0.25842484831810003,-1.4787644147872925
949,48900.0,8.322237014770508,0.25842484831810003,-1.4787644147872925
950,49000.0,8.834300994873047,1.1030912399291992,-2.63449764251709
951,49100.0,8.834300994873047,1.1030912399291992,-2.63449764251709
952,49200.0,9.073582649230957,1.0384850502014158,-2.857030153274536
953,49300.0,9.073582649230957,1.0384850502014158,-2.857030153274536
954,49400.0,9.073582649230957,1.0384850502014158,-2.857030153274536
955,49500.0,10.332208633422852,1.4763716459274292,-2.627319574356079
956,49600.0,10.332208633422852,1.4763716459274292,-2.627319574356079
957,49700.0,11.753543853759766,1.4644075632095337,-2.4358932971954346
958,49800.0,11.753543853759766,1.4644075632095337,-2.4358932971954346
959,49900.0,8.264809608459473,1.84965181350708,-1.9932212829589844
960,48000.0,8.322237014770508,2.321038007736206,-2.9479575157165527
961,48100.0,8.130810737609862,2.2133607864379883,-3.5557346343994136
962,48200.0,8.130810737609862,2.2133607864379883,-3.5557346343994136
963,48300.0,10.37527847290039,3.0221347808837886,-3.0269205570220947
964,48400.0,10.37527847290039,3.0221347808837886,-3.0269205570220947
965,48500.0,9.74835968017578,0.935593605041504,-1.65583336353302
966,48600.0,9.74835968017578,0.935593605041504,-1.65583336353302
967,48700.0,8.322237014770508,0.25842484831810003,-1.4787644147872925
968,48800.0,8.322237014770508,0.25842484831810003,-1.4787644147872925
969,48900.0,8.322237014770508,0.25842484831810003,-1.4787644147872925
970,49000.0,8.834300994873047,1.1030912399291992,-2.63449764251709
971,49100.0,8.834300994873047,1.1030912399291992,-2.63449764251709
972,49200.0,9.073582649230957,1.0384850502014158,-2.857030153274536
973,49300.0,9.073582649230957,1.0384850502014158,-2.857030153274536
974,49400.0,9.073582649230957,1.0384850502014158,-2.857030153274536
975,49500.0,10.332208633422852,1.4763716459274292,-2.627319574356079
976,49600.0,10.332208633422852,1.4763716459274292,-2.627319574356079
977,49700.0,11.753543853759766,1.4644075632095337,-2.4358932971954346
978,49800.0,11.753543853759766,1.4644075632095337,-2.4358932971954346
979,49900.0,8.264809608459473,1.84965181350708,-1.9932212829589844
980,50000.0,8.264809608459473,1.84965181350708,-1.9932212829589844
981,50100.0,8.489734649658201,1.641476273536682,-1.411765456199646
982,50200.0,8.489734649658201,1.641476273536682,-1.411765456199646
983,50300.0,8.489734649658201,1.641476273536682,-1.411765456199646
984,50400.0,7.2885379791259775,4.304687976837158,-4.23529577255249
985,50500.0,7.2885379791259775,4.304687976837158,-4.23529577255249
986,50600.0,7.513463020324707,4.941178798675537,-5.819344997406006
987,50700.0,7.513463020324707,4.941178798675537,-5.819344997406006
988,50800.0,7.513463020324707,4.941178798675537,-5.819344997406006
989,50900.0,11.95454216003418,2.0961124897003174,-1.8233308792114256
990,51000.0,11.95454216003418,2.0961124897003174,-1.8233308792114256
991,51100.0,8.193024635314941,0.011964112520217896,-1.9884356260299685
992,51200.0,8.193024635314941,0.011964112520217896,-1.9884356260299685
993,51300.0,8.700303077697754,1.3232309818267822,-2.541177749633789
994,51400.0,8.700303077697754,1.3232309818267822,-2.541177749633789
995,51500.0,8.652446746826174,0.935593605041504,-1.978864312171936
996,51600.0,8.652446746826174,0.935593605041504,-1.978864312171936
997,51700.0,11.0835542678833,1.65583336353302,-2.4047868251800537
998,51800.0,11.0835542678833,1.65583336353302,-2.4047868251800537
999,51900.0,11.0835542678833,1.65583336353302,-2.4047868251800537
1000,50000.0,8.264809608459473,1.84965181350708,-1.9932212829589844
1001,50100.0,8.489734649658201,1.641476273536682,-1.411765456199646
1002,50200.0,8.489734649658201,1.641476273536682,-1.411765456199646
1003,50300.0,8.489734649658201,1.641476273536682,-1.411765456199646
1004,50400.0,7.2885379791259775,4.304687976837158,-4.23529577255249
1005,50500.0,7.2885379791259775,4.304687976837158,-4.23529577255249
1006,50600.0,7.513463020324707,4.941178798675537,-5.819344997406006
1007,50700.0,7.513463020324707,4.941178798675537,-5.819344997406006
1008,50800.0,7.513463020324707,4.941178798675537,-5.819344997406006
1009,50900.0,11.95454216003418,2.0961124897003174,-1.8233308792114256
1010,51000.0,11.95454216003418,2.0961124897003174,-1.8233308792114256
1011,51100.0,8.193024635314941,0.011964112520217896,-1.9884356260299685
1012,51200.0,8.193024635314941,0.011964112520217896,-1.9884356260299685
1013,51300.0,8.700303077697754,1.3232309818267822,-2.541177749633789
1014,51400.0,8.700303077697754,1.3232309818267822,-2.541177749633789
1015,51500.0,8.652446746826174,0.935593605041504,-1.978864312171936
1016,51600.0,8.652446746826174,0.935593605041504,-1.978864312171936
1017,51700.0,11.0835542678833,1.65583336353302,-2.4047868251800537
1018,51800.0,11.0835542678833,1.65583336353302,-2.4047868251800537
1019,51900.0,11.0835542678833,1.65583336353302,-2.4047868251800537
1020,52000.0,11.700902938842773,3.0269205570220947,-2.395215511322021
1021,52100.0,11.700902938842773,3.0269205570220947,-2.395215511322021
1022,52200.0,8.432307243347168,1.5984054803848269,-1.5002998113632202
1023,52300.0,8.432307243347168,1.5984054803848269,-1.5002998113632202
1024,52400.0,8.432307243347168,1.5984054803848269,-1.5002998113632202
1025,52500.0,8.370094299316406,2.423929214477539,-2.799602746963501
1026,52600.0,8.370094299316406,2.423929214477539,-2.799602746963501
1027,52700.0,8.298308372497559,4.3405799865722665,-4.620540142059326
1028,52800.0,8.298308372497559,4.3405799865722665,-4.620540142059326
1029,52900.0,7.920242786407472,3.249453067779541,-3.32602334022522
1030,53000.0,7.920242786407472,3.249453067779541,-3.32602334022522
1031,53100.0,11.973685264587402,3.3403804302215576,-2.108076810836792
1032,53200.0,11.973685264587402,3.3403804302215576,-2.108076810836792
1033,53300.0,11.973685264587402,3.3403804302215576,-2.108076810836792
1034,53400.0,9.011369705200195,2.4430718421936035,-1.871187210083008
1035,53500.0,9.011369705200195,2.4430718421936035,-1.871187210083008
1036,53600.0,9.06879711151123,1.5074783563613892,-2.392822742462158
1037,53700.0,9.06879711151123,1.5074783563613892,-2.392822742462158
1038,53800.0,9.06879711151123,1.5074783563613892,-2.392822742462158
1039,53900.0,9.4660062789917,1.241874933242798,-2.210968255996704
1040,52000.0,11.700902938842773,3.0269205570220947,-2.395215511322021
1041,52100.0,11.700902938842773,3.0269205570220947,-2.395215511322021
1042,52200.0,8.432307243347168,1.5984054803848269,-1.5002998113632202
1043,52300.0,8.432307243347168,1.5984054803848269,-1.5002998113632202
1044,52400.0,8.432307243347168,1.5984054803848269,-1.5002998113632202
1045,52500.0,8.370094299316406,2.423929214477539,-2.799602746963501
1046,52600.0,8.370094299316406,2.423929214477539,-2.799602746963501
1047,52700.0,8.298308372497559,4.3405799865722665,-4.620540142059326
1048,52800.0,8.298308372497559,4.3405799865722665,-4.620540142059326
1049,52900.0,7.920242786407472,3.249453067779541,-3.32602334022522
1050,53000.0,7.920242786407472,3.249453067779541,-3.32602334022522
1051,53100.0,11.973685264587402,3.3403804302215576,-2.108076810836792
1052,53200.0,11.973685264587402,3.3403804302215576,-2.108076810836792
1053,53300.0,11.973685264587402,3.3403804302215576,-2.108076810836792
1054,53400.0,9.011369705200195,2.4430718421936035,-1.871187210083008
1055,53500.0,9.011369705200195,2.4430718421936035,-1.871187210083008
1056,53600.0,9.06879711151123,1.5074783563613892,-2.392822742462158
1057,53700.0,9.06879711151123,1.5074783563613892,-2.392822742462158
1058,53800.0,9.06879711151123,1.5074783563613892,-2.392822742462158
1059,53900.0,9.4660062789917,1.241874933242798,-2.210968255996704
1060,54000.0,9.4660062789917,1.241874933242798,-2.210968255996704
1061,54100.0,9.260223388671877,1.4452648162841797,-2.543570280075073
1062,54200.0,9.260223388671877,1.4452648162841797,-2.543570280075073
1063,54300.0,9.686145782470703,1.3280165195465088,-2.2133607864379883
1064,54400.0,9.686145782470703,1.3280165195465088,-2.2133607864379883
1065,54500.0,9.432506561279297,1.7036896944046018,-2.4287149906158447
1066,54600.0,9.432506561279297,1.7036896944046018,-2.4287149906158447
1067,54700.0,9.432506561279297,1.7036896944046018,-2.4287149906158447
1068,54800.0,8.178668022155763,1.7347965240478516,-1.0839486122131348
1069,54900.0,8.178668022155763,1.7347965240478516,-1.0839486122131348
1070,55000.0,8.997013092041016,2.25403904914856,-1.0671988725662231
1071,55100.0,8.997013092041016,2.25403904914856,-1.0671988725662231
1072,55200.0,8.997013092041016,2.25403904914856,-1.0671988725662231
1073,55300.0,8.49452018737793,2.050648927688598,-1.758724570274353
1074,55400.0,8.49452018737793,2.050648927688598,-1.758724570274353
1075,55500.0,8.877371788024902,2.991028308868408,-2.392822742462158
1076,55600.0,8.877371788024902,2.991028308868408,-2.392822742462158
1077,55700.0,8.853443145751953,2.6416761875152592,-2.682354211807251
1078,55800.0,8.853443145751953,2.6416761875152592,-2.682354211807251
1079,55900.0,9.461220741271973,2.864208698272705,-1.9070796966552732
1080,54000.0,9.4660062789917,1.241874933242798,-2.210968255996704
1081,54100.0,9.260223388671877,1.4452648162841797,-2.543570280075073
1082,54200.0,9.260223388671877,1.4452648162841797,-2.543570280075073
1083,54300.0,9.686145782470703,1.3280165195465088,-2.2133607864379883
1084,54400.0,9.686145782470703,1.3280165195465088,-2.2133607864379883
1085,54500.0,9.432506561279297,1.7036896944046018,-2.4287149906158447
1086,54600.0,9.432506561279297,1.7036896944046018,-2.4287149906158447
1087,54700.0,9.432506561279297,1.7036896944046018,-2.4287149906158447
1088,54800.0,8.178668022155763,1.7347965240478516,-1.0839486122131348
1089,54900.0,8.178668022155763,1.7347965240478516,-1.0839486122131348
1090,55000.0,8.997013092041016,2.25403904914856,-1.0671988725662231
1091,55100.0,8.997013092041016,2.25403904914856,-1.0671988725662231
1092,55200.0,8.997013092041016,2.25403904914856,-1.0671988725662231
1093,55300.0,8.49452018737793,2.050648927688598,-1.758724570274353
1094,55400.0,8.49452018737793,2.050648927688598,-1.758724570274353
1095,55500.0,8.877371788024902,2.991028308868408,-2.392822742462158
1096,55600.0,8.877371788024902,2.991028308868408,-2.392822742462158
1097,55700.0,8.853443145751953,2.6416761875152592,-2.682354211807251
1098,55800.0,8.853443145751953,2.6416761875152592,-2.682354211807251
1099,55900.0,9.461220741271973,2.864208698272705,-1.9070796966552732
1100,56000.0,9.461220741271973,2.864208698272705,-1.9070796966552732
1101,56100.0,9.461220741271973,2.864208698272705,-1.9070796966552732
1102,56200.0,10.518847465515137,2.636890411376953,-1.7994027137756348
1103,56300.0,10.518847465515137,2.636890411376953,-1.7994027137756348
1104,56400.0,9.528220176696776,0.7250252366065979,-1.3782659769058228
1105,56500.0,9.528220176696776,0.7250252366065979,-1.3782659769058228
1106,56600.0,9.528220176696776,0.7250252366065979,-1.3782659769058228
1107,56700.0,8.269595146179201,1.3543376922607422,-1.3854442834854126
1108,56800.0,8.269595146179201,1.3543376922607422,-1.3854442834854126
1109,56900.0,8.82951545715332,1.241874933242798,-2.2157537937164307
1110,57000.0,8.82951545715332,1.241874933242798,-2.2157537937164307
1111,57100.0,9.628718376159668,1.0911270380020142,-2.289931058883667
1112,57200.0,9.628718376159668,1.0911270380020142,-2.289931058883667
1113,57300.0,8.681159973144531,0.4402793645858765,-2.352144718170166
1114,57400.0,8.681159973144531,0.4402793645858765,-2.352144718170166
1115,57500.0,9.566505432128906,0.3613162040710449,-2.0099709033966064
1116,57600.0,9.566505432128906,0.3613162040710449,-2.0099709033966064
1117,57700.0,9.566505432128906,0.3613162040710449,-2.0099709033966064
1118,57800.0,10.614561080932617,0.9810572862625122,-1.8783657550811768
1119,57900.0,10.614561080932617,0.9810572862625122,-1.8783657550811768
1120,56000.0,9.461220741271973,2.864208698272705,-1.9070796966552732
1121,56100.0,9.461220741271973,2.864208698272705,-1.9070796966552732
1122,56200.0,10.518847465515137,2.636890411376953,-1.7994027137756348
1123,56300.0,10.518847465515137,2.636890411376953,-1.7994027137756348
1124,56400.0,9.528220176696776,0.7250252366065979,-1.3782659769058228
1125,56500.0,9.528220176696776,0.7250252366065979,-1.3782659769058228
1126,56600.0,9.528220176696776,0.7250252366065979,-1.3782659769058228
1127,56700.0,8.269595146179201,1.3543376922607422,-1.3854442834854126
1128,56800.0,8.269595146179201,1.3543376922607422,-1.3854442834854126
1129,56900.0,8.82951545715332,1.241874933242798,-2.2157537937164307
1130,57000.0,8.82951545715332,1.241874933242798,-2.2157537937164307
1131,57100.0,9.628718376159668,1.0911270380020142,-2.289931058883667
1132,57200.0,9.628718376159668,1.0911270380020142,-2.289931058883667
1133,57300.0,8.681159973144531,0.4402793645858765,-2.352144718170166
1134,57400.0,8.681159973144531,0.4402793645858765,-2.352144718170166
1135,57500.0,9.566505432128906,0.3613162040710449,-2.0099709033966064
1136,57600.0,9.566505432128906,0.3613162040710449,-2.0099709033966064
1137,57700.0,9.566505432128906,0.3613162040710449,-2.0099709033966064
1138,57800.0,10.614561080932617,0.9810572862625122,-1.8783657550811768
1139,57900.0,10.614561080932617,0.9810572862625122,-1.8783657550811768
1140,58000.0,9.355937004089355,1.495514154434204,-1.969292998313904
1141,58100.0,9.355937004089355,1.495514154434204,-1.969292998313904
1142,58200.0,9.279366493225098,1.722832441329956,-1.727617859840393
1143,58300.0,9.279366493225098,1.722832441329956,-1.727617859840393
1144,58400.0,9.040083885192873,2.9072794914245605,-2.400001049041748
1145,58500.0,9.040083885192873,2.9072794914245605,-2.400001049041748
1146,58600.0,9.040083885192873,2.9072794914245605,-2.400001049041748
1147,58700.0,8.848658561706543,3.122633695602417,-3.2159535884857178
1148,58800.0,8.848658561706543,3.122633695602417,-3.2159535884857178
1149,58900.0,8.446663856506348,3.1202406883239746,-3.192025184631348
1150,59000.0,8.446663856506348,3.1202406883239746,-3.192025184631348
1151,59100.0,9.77707290649414,3.1369905471801762,-2.888136863708496
1152,59200.0,9.77707290649414,3.1369905471801762,-2.888136863708496
1153,59300.0,9.77707290649414,3.1369905471801762,-2.888136863708496
1154,59400.0,9.332008361816406,1.9453648328781128,-2.3186452388763428
1155,59500.0,9.332008361816406,1.9453648328781128,-2.3186452388763428
1156,59600.0,8.709875106811522,0.9044869542121888,-1.5768700838088991
1157,59700.0,8.709875106811522,0.9044869542121888,-1.5768700838088991
1158,59800.0,9.791430473327637,1.1270195245742798,-1.8472589254379272
1159,59900.0,9.791430473327637,1.1270195245742798,-1.8472589254379272
1160,58000.0,9.355937004089355,1.495514154434204,-1.969292998313904
1161,58100.0,9.355937004089355,1.495514154434204,-1.969292998313904
1162,58200.0,9.279366493225098,1.722832441329956,-1.727617859840393
1163,58300.0,9.279366493225098,1.722832441329956,-1.727617859840393
1164,58400.0,9.040083885192873,2.9072794914245605,-2.400001049041748
1165,58500.0,9.040083885192873,2.9072794914245605,-2.400001049041748
1166,58600.0,9.040083885192873,2.9072794914245605,-2.400001049041748
1167,58700.0,8.848658561706543,3.122633695602417,-3.2159535884857178
1168,58800.0,8.848658561706543,3.122633695602417,-3.2159535884857178
1169,58900.0,8.446663856506348,3.1202406883239746,-3.192025184631348
1170,59000.0,8.446663856506348,3.1202406883239746,-3.192025184631348
1171,59100.0,9.77707290649414,3.1369905471801762,-2.888136863708496
1172,59200.0,9.77707290649414,3.1369905471801762,-2.888136863708496
1173,59300.0,9.77707290649414,3.1369905471801762,-2.888136863708496
1174,59400.0,9.332008361816406,1.9453648328781128,-2.3186452388763428
1175,59500.0,9.332008361816406,1.9453648328781128,-2.3186452388763428
1176,59600.0,8.709875106811522,0.9044869542121888,-1.5768700838088991
1177,59700.0,8.709875106811522,0.9044869542121888,-1.5768700838088991
1178,59800.0,9.791430473327637,1.1270195245742798,-1.8472589254379272
1179,59900.0,9.791430473327637,1.1270195245742798,-1.8472589254379272
1180,60000.0,9.791430473327637,1.1270195245742798,-1.8472589254379272
1181,60100.0,8.805586814880371,0.8949156999588013,-2.943171739578247
1182,60200.0,8.805586814880371,0.8949156999588013,-2.943171739578247
1183,60300.0,9.480363845825195,0.7800601720809937,-2.682354211807251
1184,60400.0,9.480363845825195,0.7800601720809937,-2.682354211807251
1185,60500.0,9.60478973388672,1.22033953666687,-3.012563943862915
1186,60600.0,9.60478973388672,1.22033953666687,-3.012563943862915
1187,60700.0,9.60478973388672,1.22033953666687,-3.012563943862915
1188,60800.0,9.77707290649414,1.8113667964935305,-2.0123636722564697
1189,60900.0,9.77707290649414,1.8113667964935305,-2.0123636722564697
1190,61000.0,8.039883613586426,2.1583259105682373,-1.8424735069274905
1191,61100.0,8.039883613586426,2.1583259105682373,-1.8424735069274905
1192,61200.0,8.111669540405272,3.103491306304932,-2.3976082801818848
1193,61300.0,8.111669540405272,3.103491306304932,-2.3976082801818848
1194,61400.0,8.111669540405272,3.103491306304932,-2.3976082801818848
1195,61500.0,8.216952323913574,3.665804386138916,-2.919243574142456
1196,61600.0,8.216952323913574,3.665804386138916,-2.919243574142456
1197,61700.0,8.872586250305176,3.780659914016724,-3.5198421478271484
1198,61800.0,8.872586250305176,3.780659914016724,-3.5198421478271484
1199,61900.0,9.442078590393066,3.7184462547302246,-3.6059837341308594
1200,60000.0,9.791430473327637,1.1270195245742798,-1.8472589254379272
1201,60100.0,8.805586814880371,0.8949156999588013,-2.943171739578247
1202,60200.0,8.805586814880371,0.8949156999588013,-2.943171739578247
1203,60300.0,9.480363845825195,0.7800601720809937,-2.682354211807251
1204,60400.0,9.480363845825195,0.7800601720809937,-2.682354211807251
1205,60500.0,9.60478973388672,1.22033953666687,-3.012563943862915
1206,60600.0,9.60478973388672,1.22033953666687,-3.012563943862915
1207,60700.0,9.60478973388672,1.22033953666687,-3.012563943862915
1208,60800.0,9.77707290649414,1.8113667964935305,-2.0123636722564697
1209,60900.0,9.77707290649414,1.8113667964935305,-2.0123636722564697
1210,61000.0,8.039883613586426,2.1583259105682373,-1.8424735069274905
1211,61100.0,8.039883613586426,2.1583259105682373,-1.8424735069274905
1212,61200.0,8.111669540405272,3.103491306304932,-2.3976082801818848
1213,61300.0,8.111669540405272,3.103491306304932,-2.3976082801818848
1214,61400.0,8.111669540405272,3.103491306304932,-2.3976082801818848
1215,61500.0,8.216952323913574,3.665804386138916,-2.919243574142456
1216,61600.0,8.216952323913574,3.665804386138916,-2.919243574142456
1217,61700.0,8.872586250305176,3.780659914016724,-3.5198421478271484
1218,61800.0,8.872586250305176,3.780659914016724,-3.5198421478271484
1219,61900.0,9.442078590393066,3.7184462547302246,-3.6059837341308594
1220,62000.0,9.442078590393066,3.7184462547302246,-3.6059837341308594
1221,62100.0,9.442078590393066,3.7184462547302246,-3.6059837341308594
1222,62200.0,7.0540409088134775,1.739582061767578,-1.9453648328781128
1223,62300.0,7.0540409088134775,1.739582061767578,-1.9453648328781128
1224,62400.0,9.09272575378418,1.3710873126983645,-2.1750757694244385
1225,62500.0,9.09272575378418,1.3710873126983645,-2.1750757694244385
1226,62600.0,9.06401252746582,1.4476575851440432,-2.3162522315979004
1227,62700.0,9.06401252746582,1.4476575851440432,-2.3162522315979004
1228,62800.0,9.31765079498291,1.3304094076156616,-2.888136863708496
1229,62900.0,9.31765079498291,1.3304094076156616,-2.888136863708496
1230,63000.0,9.45164966583252,0.9092726111412048,-2.9240293502807617
1231,63100.0,9.45164966583252,0.9092726111412048,-2.9240293502807617
1232,63200.0,9.45164966583252,0.9092726111412048,-2.9240293502807617
1233,63300.0,11.815757751464846,1.5409778356552124,-2.1104695796966557
1234,63400.0,11.815757751464846,1.5409778356552124,-2.1104695796966557
1235,63500.0,7.791030406951903,2.069791555404663,-1.5242280960083008
1236,63600.0,7.791030406951903,2.069791555404663,-1.5242280960083008
1237,63700.0,8.60459041595459,2.4358932971954346,-1.2083754539489746
1238,63800.0,8.60459041595459,2.4358932971954346,-1.2083754539489746
1239,63900.0,8.60459041595459,2.4358932971954346,-1.2083754539489746
1240,62000.0,9.442078590393066,3.7184462547302246,-3.6059837341308594
1241,62100.0,9.442078590393066,3.7184462547302246,-3.6059837341308594
1242,62200.0,7.0540409088134775,1.739582061767578,-1.9453648328781128
1243,62300.0,7.0540409088134775,1.739582061767578,-1.9453648328781128
1244,62400.0,9.09272575378418,1.3710873126983645,-2.1750757694244385
1245,62500.0,9.09272575378418,1.3710873126983645,-2.1750757694244385
1246,62600.0,9.06401252746582,1.4476575851440432,-2.3162522315979004
1247,62700.0,9.06401252746582,1.4476575851440432,-2.3162522315979004
1248,62800.0,9.31765079498291,1.3304094076156616,-2.888136863708496
1249,62900.0,9.31765079498291,1.3304094076156616,-2.888136863708496
1250,63000.0,9.45164966583252,0.9092726111412048,-2.9240293502807617
1251,63100.0,9.45164966583252,0.9092726111412048,-2.9240293502807617
1252,63200.0,9.45164966583252,0.9092726111412048,-2.9240293502807617
1253,63300.0,11.815757751464846,1.5409778356552124,-2.1104695796966557
1254,63400.0,11.815757751464846,1.5409778356552124,-2.1104695796966557
1255,63500.0,7.791030406951903,2.069791555404663,-1.5242280960083008
1256,63600.0,7.791030406951903,2.069791555404663,-1.5242280960083008
1257,63700.0,8.60459041595459,2.4358932971954346,-1.2083754539489746
1258,63800.0,8.60459041595459,2.4358932971954346,-1.2083754539489746
1259,63900.0,8.60459041595459,2.4358932971954346,-1.2083754539489746
1260,64000.0,8.197811126708983,2.7948169708251958,-2.682354211807251
1261,64100.0,8.197811126708983,2.7948169708251958,-2.682354211807251
1262,64200.0,9.06879711151123,3.7710886001586914,-3.2159535884857178
1263,64300.0,9.06879711151123,3.7710886001586914,-3.2159535884857178
1264,64400.0,10.24606704711914,3.1800613403320312,-2.0434706211090092
1265,64500.0,10.24606704711914,3.1800613403320312,-2.0434706211090092
1266,64600.0,10.24606704711914,3.1800613403320312,-2.0434706211090092
1267,64700.0,7.843672752380371,1.5601203441619873,-1.643869161605835
1268,64800.0,7.843672752380371,1.5601203441619873,-1.643869161605835
1269,64900.0,8.743373870849611,-1.3304094076156616,-2.062613010406494
1270,65000.0,8.743373870849611,-1.3304094076156616,-2.062613010406494
1271,65100.0,8.743373870849611,-1.3304094076156616,-2.062613010406494
1272,65200.0,8.834300994873047,1.7922240495681765,-2.249253273010254
1273,65300.0,8.834300994873047,1.7922240495681765,-2.249253273010254
1274,65400.0,9.74835968017578,1.356730580329895,-3.2518460750579834
1275,65500.0,9.74835968017578,1.356730580329895,-3.2518460750579834
1276,65600.0,10.064212799072266,1.5481561422348022,-2.2372891902923584
1277,65700.0,10.064212799072266,1.5481561422348022,-2.2372891902923584
1278,65800.0,10.116853713989258,2.2755744457244877,-1.6295121908187866
1279,65900.0,10.116853713989258,2.2755744457244877,-1.6295121908187866
1280,64000.0,8.197811126708983,2.7948169708251958,-2.682354211807251
1281,64100.0,8.197811126708983,2.7948169708251958,-2.682354211807251
1282,64200.0,9.06879711151123,3.7710886001586914,-3.2159535884857178
1283,64300.0,9.06879711151123,3.7710886001586914,-3.2159535884857178
1284,64400.0,10.24606704711914,3.1800613403320312,-2.0434706211090092
1285,64500.0,10.24606704711914,3.1800613403320312,-2.0434706211090092
1286,64600.0,10.24606704711914,3.1800613403320312,-2.0434706211090092
1287,64700.0,7.843672752380371,1.5601203441619873,-1.643869161605835
1288,64800.0,7.843672752380371,1.5601203441619873,-1.643869161605835
1289,64900.0,8.743373870849611,-1.3304094076156616,-2.062613010406494
1290,65000.0,8.743373870849611,-1.3304094076156616,-2.062613010406494
1291,65100.0,8.743373870849611,-1.3304094076156616,-2.062613010406494
1292,65200.0,8.834300994873047,1.7922240495681765,-2.249253273010254
1293,65300.0,8.834300994873047,1.7922240495681765,-2.249253273010254
1294,65400.0,9.74835968017578,1.356730580329895,-3.2518460750579834
1295,65500.0,9.74835968017578,1.356730580329895,-3.2518460750579834
1296,65600.0,10.064212799072266,1.5481561422348022,-2.2372891902923584
1297,65700.0,10.064212799072266,1.5481561422348022,-2.2372891902923584
1298,65800.0,10.116853713989258,2.2755744457244877,-1.6295121908187866
1299,65900.0,10.116853713989258,2.2755744457244877,-1.6295121908187866
1300,66000.0,10.116853713989258,2.2755744457244877,-1.6295121908187866
1301,66100.0,8.427520751953125,1.978864312171936,-1.8951154947280884
1302,66200.0,8.427520751953125,1.978864312171936,-1.8951154947280884
1303,66300.0,8.585447311401367,2.4047868251800537,-2.0410776138305664
1304,66400.0,8.585447311401367,2.4047868251800537,-2.0410776138305664
1305,66500.0,7.326822757720947,2.988635540008545,-2.9718859195709233
1306,66600.0,7.326822757720947,2.988635540008545,-2.9718859195709233
1307,66700.0,9.437292098999023,3.9003009796142583,-3.390629768371582
1308,66800.0,9.437292098999023,3.9003009796142583,-3.390629768371582
1309,66900.0,9.437292098999023,3.9003009796142583,-3.390629768371582
1310,67000.0,9.57607650756836,2.9264223575592037,-2.720639228820801
1311,67100.0,9.57607650756836,2.9264223575592037,-2.720639228820801
1312,67200.0,9.040083885192873,1.1940184831619265,-1.7443678379058838
1313,67300.0,9.040083885192873,1.1940184831619265,-1.7443678379058838
1314,67400.0,7.829315185546875,1.9453648328781128,-1.8209381103515625
1315,67500.0,7.829315185546875,1.9453648328781128,-1.8209381103515625
1316,67600.0,8.944371223449707,1.978864312171936,-2.0817556381225586
1317,67700.0,8.944371223449707,1.978864312171936,-2.0817556381225586
1318,67800.0,9.145368576049805,1.6486548185348509,-3.232703685760498
1319,67900.0,9.145368576049805,1.6486548185348509,-3.232703685760498
1320,66000.0,10.116853713989258,2.2755744457244877,-1.6295121908187866
1321,66100.0,8.427520751953125,1.978864312171936,-1.8951154947280884
1322,66200.0,8.427520751953125,1.978864312171936,-1.8951154947280884
1323,66300.0,8.585447311401367,2.4047868251800537,-2.0410776138305664
1324,66400.0,8.585447311401367,2.4047868251800537,-2.0410776138305664
1325,66500.0,7.326822757720947,2.988635540008545,-2.9718859195709233
1326,66600.0,7.326822757720947,2.988635540008545,-2.9718859195709233
1327,66700.0,9.437292098999023,3.9003009796142583,-3.390629768371582
1328,66800.0,9.437292098999023,3.9003009796142583,-3.390629768371582
1329,66900.0,9.437292098999023,3.9003009796142583,-3.390629768371582
1330,67000.0,9.57607650756836,2.9264223575592037,-2.720639228820801
1331,67100.0,9.57607650756836,2.9264223575592037,-2.720639228820801
1332,67200.0,9.040083885192873,1.1940184831619265,-1.7443678379058838
1333,67300.0,9.040083885192873,1.1940184831619265,-1.7443678379058838
1334,67400.0,7.829315185546875,1.9453648328781128,-1.8209381103515625
1335,67500.0,7.829315185546875,1.9453648328781128,-1.8209381103515625
1336,67600.0,8.944371223449707,1.978864312171936,-2.0817556381225586
1337,67700.0,8.944371223449707,1.978864312171936,-2.0817556381225586
1338,67800.0,9.145368576049805,1.6486548185348509,-3.232703685760498
1339,67900.0,9.145368576049805,1.6486548185348509,-3.232703685760498
1340,68000.0,9.145368576049805,1.6486548185348509,-3.232703685760498
1341,68100.0,13.189238548278807,1.2993026971817017,-2.620140790939331
1342,68200.0,13.189238548278807,1.2993026971817017,-2.620140790939331
1343,68300.0,7.671389579772949,1.5170495510101318,-2.1918253898620605
1344,68400.0,7.671389579772949,1.5170495510101318,-2.1918253898620605
1345,68500.0,7.9585280418396,2.617748022079468,-1.5984054803848269
1346,68600.0,7.9585280418396,2.617748022079468,-1.5984054803848269
1347,68700.0,7.9585280418396,2.617748022079468,-1.5984054803848269
1348,68800.0,7.5469627380371085,2.3330020904541016,-6.171089172363281
1349,68900.0,7.5469627380371085,2.3330020904541016,-6.171089172363281
1350,69000.0,11.27019500732422,3.957728624343872,-3.818945169448853
1351,69100.0,11.27019500732422,3.957728624343872,-3.818945169448853
1352,69200.0,8.365307807922362,0.935593605041504,-1.7778673171997068
1353,69300.0,8.365307807922362,0.935593605041504,-1.7778673171997068
1354,69400.0,8.365307807922362,0.935593605041504,-1.7778673171997068
1355,69500.0,8.312665939331055,2.4047868251800537,-2.617748022079468
1356,69600.0,8.312665939331055,2.4047868251800537,-2.617748022079468
1357,69700.0,9.107083320617676,1.4907284975051882,-2.950350284576416
1358,69800.0,9.107083320617676,1.4907284975051882,-2.950350284576416
1359,69900.0,9.4660062789917,1.8185452222824097,-2.6081764698028564
1360,68000.0,9.145368576049805,1.6486548185348509,-3.232703685760498
1361,68100.0,13.189238548278807,1.2993026971817017,-2.620140790939331
1362,68200.0,13.189238548278807,1.2993026971817017,-2.620140790939331
1363,68300.0,7.671389579772949,1.5170495510101318,-2.1918253898620605
1364,68400.0,7.671389579772949,1.5170495510101318,-2.1918253898620605
1365,68500.0,7.9585280418396,2.617748022079468,-1.5984054803848269
1366,68600.0,7.9585280418396,2.617748022079468,-1.5984054803848269
1367,68700.0,7.9585280418396,2.617748022079468,-1.5984054803848269
1368,68800.0,7.5469627380371085,2.3330020904541016,-6.171089172363281
1369,68900.0,7.5469627380371085,2.3330020904541016,-6.171089172363281
1370,69000.0,11.27019500732422,3.957728624343872,-3.818945169448853
1371,69100.0,11.27019500732422,3.957728624343872,-3.818945169448853
1372,69200.0,8.365307807922362,0.935593605041504,-1.7778673171997068
1373,69300.0,8.365307807922362,0.935593605041504,-1.7778673171997068
1374,69400.0,8.365307807922362,0.935593605041504,-1.7778673171997068
1375,69500.0,8.312665939331055,2.4047868251800537,-2.617748022079468
1376,69600.0,8.312665939331055,2.4047868251800537,-2.617748022079468
1377,69700.0,9.107083320617676,1.4907284975051882,-2.950350284576416
1378,69800.0,9.107083320617676,1.4907284975051882,-2.950350284576416
1379,69900.0,9.4660062789917,1.8185452222824097,-2.6081764698028564
1380,70000.0,9.4660062789917,1.8185452222824097,-2.6081764698028564
1381,70100.0,10.088139533996582,1.969292998313904,-2.825923442840576
1382,70200.0,10.088139533996582,1.969292998313904,-2.825923442840576
1383,70300.0,10.088139533996582,1.969292998313904,-2.825923442840576
1384,70400.0,9.422935485839844,1.6079767942428589,-1.8664016723632808
1385,70500.0,9.422935485839844,1.6079767942428589,-1.8664016723632808
1386,70600.0,8.839086532592773,1.6941183805465698,-1.6223337650299072
1387,70700.0,8.839086532592773,1.6941183805465698,-1.6223337650299072
1388,70800.0,8.690732002258299,1.588834285736084,-1.871187210083008
1389,70900.0,8.690732002258299,1.588834285736084,-1.871187210083008
1390,71000.0,9.040083885192873,2.6057839393615723,-3.232703685760498
1391,71100.0,9.040083885192873,2.6057839393615723,-3.232703685760498
1392,71200.0,9.040083885192873,2.6057839393615723,-3.232703685760498
1393,71300.0,9.394222259521484,2.67278265953064,-3.06999135017395
1394,71400.0,9.394222259521484,2.67278265953064,-3.06999135017395
1395,71500.0,9.111868858337402,2.524427890777588,-2.998206615447998
1396,71600.0,9.111868858337402,2.524427890777588,-2.998206615447998
1397,71700.0,9.40379238128662,2.565105676651001,-3.034099102020264
1398,71800.0,9.40379238128662,2.565105676651001,-3.034099102020264
1399,71900.0,9.40379238128662,2.565105676651001,-3.034099102020264
1400,70000.0,9.4660062789917,1.8185452222824097,-2.6081764698028564
1401,70100.0,10.088139533996582,1.969292998313904,-2.825923442840576
1402,70200.0,10.088139533996582,1.969292998313904,-2.825923442840576
1403,70300.0,10.088139533996582,1.969292998313904,-2.825923442840576
1404,70400.0,9.422935485839844,1.6079767942428589,-1.8664016723632808
1405,70500.0,9.422935485839844,1.6079767942428589,-1.8664016723632808
1406,70600.0,8.839086532592773,1.6941183805465698,-1.6223337650299072
1407,70700.0,8.839086532592773,1.6941183805465698,-1.6223337650299072
1408,70800.0,8.690732002258299,1.588834285736084,-1.871187210083008
1409,70900.0,8.690732002258299,1.588834285736084,-1.871187210083008
1410,71000.0,9.040083885192873,2.6057839393615723,-3.232703685760498
1411,71100.0,9.040083885192873,2.6057839393615723,-3.232703685760498
1412,71200.0,9.040083885192873,2.6057839393615723,-3.232703685760498
1413,71300.0,9.394222259521484,2.67278265953064,-3.06999135017395
1414,71400.0,9.394222259521484,2.67278265953064,-3.06999135017395
1415,71500.0,9.111868858337402,2.524427890777588,-2.998206615447998
1416,71600.0,9.111868858337402,2.524427890777588,-2.998206615447998
1417,71700.0,9.40379238128662,2.565105676651001,-3.034099102020264
1418,71800.0,9.40379238128662,2.565105676651001,-3.034099102020264
1419,71900.0,9.40379238128662,2.565105676651001,-3.034099102020264
1420,72000.0,12.576675415039062,2.8953151702880864,-2.75174617767334
1421,72100.0,12.576675415039062,2.8953151702880864,-2.75174617767334
1422,72200.0,9.757929801940918,0.6532405614852905,-2.2875385284423833
1423,72300.0,9.757929801940918,0.6532405614852905,-2.2875385284423833
1424,72400.0,8.422735214233397,0.9619146585464478,-2.9623143672943115
1425,72500.0,8.422735214233397,0.9619146585464478,-2.9623143672943115
1426,72600.0,8.422735214233397,0.9619146585464478,-2.9623143672943115
1427,72700.0,8.484949111938478,0.9858429431915284,-2.51007080078125
1428,72800.0,8.484949111938478,0.9858429431915284,-2.51007080078125
1429,72900.0,9.619147300720217,1.7515461444854736,-2.715853452682495
1430,73000.0,9.619147300720217,1.7515461444854736,-2.715853452682495
1431,73100.0,10.600205421447754,1.8975083827972408,-2.9934213161468506
1432,73200.0,10.600205421447754,1.8975083827972408,-2.9934213161468506
1433,73300.0,8.082954406738281,2.091326951980591,-1.5936198234558103
1434,73400.0,8.082954406738281,2.091326951980591,-1.5936198234558103
1435,73500.0,8.886943817138672,2.1631116867065434,-1.2227323055267334
1436,73600.0,8.886943817138672,2.1631116867065434,-1.2227323055267334
1437,73700.0,8.886943817138672,2.1631116867065434,-1.2227323055267334
1438,73800.0,8.23130989074707,2.565105676651001,-2.6775684356689453
1439,73900.0,8.23130989074707,2.565105676651001,-2.6775684356689453
1440,72000.0,12.576675415039062,2.8953151702880864,-2.75174617767334
1441,72100.0,12.576675415039062,2.8953151702880864,-2.75174617767334
1442,72200.0,9.757929801940918,0.6532405614852905,-2.2875385284423833
1443,72300.0,9.757929801940918,0.6532405614852905,-2.2875385284423833
1444,72400.0,8.422735214233397,0.9619146585464478,-2.9623143672943115
1445,72500.0,8.422735214233397,0.9619146585464478,-2.9623143672943115
1446,72600.0,8.422735214233397,0.9619146585464478,-2.9623143672943115
1447,72700.0,8.484949111938478,0.9858429431915284,-2.51007080078125
1448,72800.0,8.484949111938478,0.9858429431915284,-2.51007080078125
1449,72900.0,9.619147300720217,1.7515461444854736,-2.715853452682495
1450,73000.0,9.619147300720217,1.7515461444854736,-2.715853452682495
1451,73100.0,10.600205421447754,1.8975083827972408,-2.9934213161468506
1452,73200.0,10.600205421447754,1.8975083827972408,-2.9934213161468506
1453,73300.0,8.082954406738281,2.091326951980591,-1.5936198234558103
1454,73400.0,8.082954406738281,2.091326951980591,-1.5936198234558103
1455,73500.0,8.886943817138672,2.1631116867065434,-1.2227323055267334
1456,73600.0,8.886943817138672,2.1631116867065434,-1.2227323055267334
1457,73700.0,8.886943817138672,2.1631116867065434,-1.2227323055267334
1458,73800.0,8.23130989074707,2.565105676651001,-2.6775684356689453
1459,73900.0,8.23130989074707,2.565105676651001,-2.6775684356689453
1460,74000.0,9.145368576049805,3.2207393646240234,-3.208775281906128
1461,74100.0,9.145368576049805,3.2207393646240234,-3.208775281906128
1462,74200.0,9.145368576049805,3.2207393646240234,-3.208775281906128
1463,74300.0,9.595218658447266,2.6943180561065674,-2.6249265670776367
1464,74400.0,9.595218658447266,2.6943180561065674,-2.6249265670776367
1465,74500.0,11.155338287353516,2.093719720840454,-2.47896409034729
1466,74600.0,11.155338287353516,2.093719720840454,-2.47896409034729
1467,74700.0,8.092526435852049,1.526620864868164,-2.033899307250977
1468,74800.0,8.092526435852049,1.526620864868164,-2.033899307250977
1469,74900.0,8.82951545715332,1.9764715433120728,-3.079562902450561
1470,75000.0,8.82951545715332,1.9764715433120728,-3.079562902450561
1471,75100.0,9.30329418182373,1.6965112686157229,-2.868994235992432
1472,75200.0,9.30329418182373,1.6965112686157229,-2.868994235992432
1473,75300.0,9.30329418182373,1.6965112686157229,-2.868994235992432
1474,75400.0,9.4660062789917,1.7706886529922483,-2.945564746856689
1475,75500.0,9.4660062789917,1.7706886529922483,-2.945564746856689
1476,75600.0,9.336793899536133,1.4859429597854614,-2.8666017055511475
1477,75700.0,9.336793899536133,1.4859429597854614,-2.8666017055511475
1478,75800.0,9.336793899536133,1.4859429597854614,-2.8666017055511475
1479,75900.0,7.743173599243164,1.8233308792114256,-2.0793628692626958
1480,74000.0,9.145368576049805,3.2207393646240234,-3.208775281906128
1481,74100.0,9.145368576049805,3.2207393646240234,-3.208775281906128
1482,74200.0,9.145368576049805,3.2207393646240234,-3.208775281906128
1483,74300.0,9.595218658447266,2.6943180561065674,-2.6249265670776367
1484,74400.0,9.595218658447266,2.6943180561065674,-2.6249265670776367
1485,74500.0,11.155338287353516,2.093719720840454,-2.47896409034729
1486,74600.0,11.155338287353516,2.093719720840454,-2.47896409034729
1487,74700.0,8.092526435852049,1.526620864868164,-2.033899307250977
1488,74800.0,8.092526435852049,1.526620864868164,-2.033899307250977
1489,74900.0,8.82951545715332,1.9764715433120728,-3.079562902450561
1490,75000.0,8.82951545715332,1.9764715433120728,-3.079562902450561
1491,75100.0,9.30329418182373,1.6965112686157229,-2.868994235992432
1492,75200.0,9.30329418182373,1.6965112686157229,-2.868994235992432
1493,75300.0,9.30329418182373,1.6965112686157229,-2.868994235992432
1494,75400.0,9.4660062789917,1.7706886529922483,-2.945564746856689
1495,75500.0,9.4660062789917,1.7706886529922483,-2.945564746856689
1496,75600.0,9.336793899536133,1.4859429597854614,-2.8666017055511475
1497,75700.0,9.336793899536133,1.4859429597854614,-2.8666017055511475
1498,75800.0,9.336793899536133,1.4859429597854614,-2.8666017055511475
1499,75900.0,7.743173599243164,1.8233308792114256,-2.0793628692626958
1500,76000.0,7.743173599243164,1.8233308792114256,-2.0793628692626958
1501,76100.0,8.987441062927246,1.940579175949097,-2.3784656524658203
1502,76200.0,8.987441062927246,1.940579175949097,-2.3784656524658203
1503,76300.0,8.360522270202638,2.4717857837677,-2.4502503871917725
1504,76400.0,8.360522270202638,2.4717857837677,-2.4502503871917725
1505,76500.0,8.748159408569336,2.943171739578247,-2.8953151702880864
1506,76600.0,8.748159408569336,2.943171739578247,-2.8953151702880864
1507,76700.0,8.748159408569336,2.943171739578247,-2.8953151702880864
1508,76800.0,8.772088050842285,3.0963122844696045,-3.290131092071533
1509,76900.0,8.772088050842285,3.0963122844696045,-3.290131092071533
1510,77000.0,10.600205421447754,2.8977081775665283,-2.6153552532196045
1511,77100.0,10.600205421447754,2.8977081775665283,-2.6153552532196045
1512,77200.0,9.432506561279297,2.5076780319213867,-2.651247262954712
1513,77300.0,9.432506561279297,2.5076780319213867,-2.651247262954712
1514,77400.0,9.432506561279297,2.5076780319213867,-2.651247262954712
1515,77500.0,8.269595146179201,1.361515998840332,-2.2085752487182617
1516,77600.0,8.269595146179201,1.361515998840332,-2.2085752487182617
1517,77700.0,8.49452018737793,1.4093725681304932,-2.3545374870300293
1518,77800.0,8.49452018737793,1.4093725681304932,-2.3545374870300293
1519,77900.0,9.15493869781494,1.5170495510101318,-2.9168508052825928
1520,76000.0,7.743173599243164,1.8233308792114256,-2.0793628692626958
1521,76100.0,8.987441062927246,1.940579175949097,-2.3784656524658203
1522,76200.0,8.987441062927246,1.940579175949097,-2.3784656524658203
1523,76300.0,8.360522270202638,2.4717857837677,-2.4502503871917725
1524,76400.0,8.360522270202638,2.4717857837677,-2.4502503871917725
1525,76500.0,8.748159408569336,2.943171739578247,-2.8953151702880864
1526,76600.0,8.748159408569336,2.943171739578247,-2.8953151702880864
1527,76700.0,8.748159408569336,2.943171739578247,-2.8953151702880864
1528,76800.0,8.772088050842285,3.0963122844696045,-3.290131092071533
1529,76900.0,8.772088050842285,3.0963122844696045,-3.290131092071533
1530,77000.0,10.600205421447754,2.8977081775665283,-2.6153552532196045
1531,77100.0,10.600205421447754,2.8977081775665283,-2.6153552532196045
1532,77200.0,9.432506561279297,2.5076780319213867,-2.651247262954712
1533,77300.0,9.432506561279297,2.5076780319213867,-2.651247262954712
1534,77400.0,9.432506561279297,2.5076780319213867,-2.651247262954712
1535,77500.0,8.269595146179201,1.361515998840332,-2.2085752487182617
1536,77600.0,8.269595146179201,1.361515998840332,-2.2085752487182617
1537,77700.0,8.49452018737793,1.4093725681304932,-2.3545374870300293
1538,77800.0,8.49452018737793,1.4093725681304932,-2.3545374870300293
1539,77900.0,9.15493869781494,1.5170495510101318,-2.9168508052825928
1540,78000.0,9.15493869781494,1.5170495510101318,-2.9168508052825928
1541,78100.0,9.81535816192627,1.6390833854675293,-2.273181438446045
1542,78200.0,9.81535816192627,1.6390833854675293,-2.273181438446045
1543,78300.0,9.279366493225098,1.3280165195465088,-2.4957141876220703
1544,78400.0,9.279366493225098,1.3280165195465088,-2.4957141876220703
1545,78500.0,9.279366493225098,1.3280165195465088,-2.4957141876220703
1546,78600.0,9.580862045288086,1.9740787744522093,-2.4717857837677
1547,78700.0,9.580862045288086,1.9740787744522093,-2.4717857837677
1548,78800.0,8.389235496520996,1.7730815410614014,-2.25403904914856
1549,78900.0,8.389235496520996,1.7730815410614014,-2.25403904914856
1550,79000.0,8.599804878234862,2.1343977451324463,-2.263610363006592
1551,79100.0,8.599804878234862,2.1343977451324463,-2.263610363006592
1552,79200.0,8.599804878234862,2.1343977451324463,-2.263610363006592
1553,79300.0,8.427520751953125,2.799602746963501,-3.476771354675293
1554,79400.0,8.427520751953125,2.799602746963501,-3.476771354675293
1555,79500.0,9.135796546936037,2.636890411376953,-3.359522819519043
1556,79600.0,9.135796546936037,2.636890411376953,-3.359522819519043
1557,79700.0,8.805586814880371,2.483749866485596,-3.1657044887542725
1558,79800.0,8.805586814880371,2.483749866485596,-3.1657044887542725
1559,79900.0,8.322237014770508,2.426322221755981,-3.4408791065216064
0,0.0,8.327022552490233,1.940579175949097,-2.1200408935546875
1,100.0,8.327022552490233,1.940579175949097,-2.1200408935546875
2,200.0,8.327022552490233,1.940579175949097,-2.1200408935546875
3,300.0,9.150154113769533,2.2995026111602783,-2.8498516082763667
4,400.0,9.150154113769533,2.2995026111602783,-2.8498516082763667
5,500.0,9.06879711151123,2.366501569747925,-2.51007080078125
6,600.0,9.06879711151123,2.366501569747925,-2.51007080078125
7,700.0,9.073582649230957,1.8735800981521609,-2.203789472579956
8,800.0,9.073582649230957,1.8735800981521609,-2.203789472579956
9,900.0,9.073582649230957,1.8735800981521609,-2.203789472579956
10,1000.0,11.021341323852539,1.9238293170928955,-3.81655216217041
11,1100.0,11.021341323852539,1.9238293170928955,-3.81655216217041
12,1200.0,8.082954406738281,0.9499505758285522,-0.7274181246757507
13,1300.0,8.082954406738281,0.9499505758285522,-0.7274181246757507
14,1400.0,8.082954406738281,0.9499505758285522,-0.7274181246757507
15,1500.0,7.77188777923584,1.7635102272033691,-1.497907042503357
16,1600.0,7.77188777923584,1.7635102272033691,-1.497907042503357
17,1700.0,9.480363845825195,1.741974949836731,-3.28773832321167
18,1800.0,9.480363845825195,1.741974949836731,-3.28773832321167
19,1900.0,8.580661773681639,2.548356056213379,-2.682354211807251
20,2000.0,8.580661773681639,2.548356056213379,-2.682354211807251
21,2100.0,9.21715259552002,0.4570291042327881,-3.589233875274658
22,2200.0,9.21715259552002,0.4570291042327881,-3.589233875274658
23,2300.0,11.06919765472412,1.938186287879944,-2.6703903675079346
24,2400.0,11.06919765472412,1.938186287879944,-2.6703903675079346
25,2500.0,11.06919765472412,1.938186287879944,-2.6703903675079346
26,2600.0,9.71485996246338,2.321038007736206,-1.8903299570083616
27,2700.0,9.71485996246338,2.321038007736206,-1.8903299570083616
28,2800.0,7.0540409088134775,2.0003998279571533,-2.050648927688598
29,2900.0,7.0540409088134775,2.0003998279571533,-2.050648927688598
30,3000.0,7.963313579559326,2.1128623485565186,-3.5341989994049072
31,3100.0,7.963313579559326,2.1128623485565186,-3.5341989994049072
32,3200.0,7.963313579559326,2.1128623485565186,-3.5341989994049072
33,3300.0,8.212166786193848,3.893122434616089,-3.7304105758666988
34,3400.0,8.212166786193848,3.893122434616089,-3.7304105758666988
35,3500.0,7.896315097808838,3.2279179096221924,-3.184847116470337
36,3600.0,7.896315097808838,3.2279179096221924,-3.184847116470337
37,3700.0,8.896513938903809,2.801995038986206,-3.5270204544067383
38,3800.0,8.896513938903809,2.801995038986206,-3.5270204544067383
39,3900.0,12.40439224243164,2.857030153274536,-3.5126638412475586
40,2000.0,8.580661773681639,2.548356056213379,-2.682354211807251
41,2100.0,9.21715259552002,0.4570291042327881,-3.589233875274658
42,2200.0,9.21715259552002,0.4570291042327881,-3.589233875274658
43,2300.0,11.06919765472412,1.938186287879944,-2.6703903675079346
44,2400.0,11.06919765472412,1.938186287879944,-2.6703903675079346
45,2500.0,11.06919765472412,1.938186287879944,-2.6703903675079346
46,2600.0,9.71485996246338,2.321038007736206,-1.8903299570083616
47,2700.0,9.71485996246338,2.321038007736206,-1.8903299570083616
48,2800.0,7.0540409088134775,2.0003998279571533,-2.050648927688598
49,2900.0,7.0540409088134775,2.0003998279571533,-2.050648927688598
50,3000.0,7.963313579559326,2.1128623485565186,-3.5341989994049072
51,3100.0,7.963313579559326,2.1128623485565186,-3.5341989994049072
52,3200.0,7.963313579559326,2.1128623485565186,-3.5341989994049072
53,3300.0,8.212166786193848,3.893122434616089,-3.7304105758666988
54,3400.0,8.212166786193848,3.893122434616089,-3.7304105758666988
55,3500.0,7.896315097808838,3.2279179096221924,-3.184847116470337
56,3600.0,7.896315097808838,3.2279179096221924,-3.184847116470337
57,3700.0,8.896513938903809,2.801995038986206,-3.5270204544067383
58,3800.0,8.896513938903809,2.801995038986206,-3.5270204544067383
59,3900.0,12.40439224243164,2.857030153274536,-3.5126638412475586
60,4000.0,12.40439224243164,2.857030153274536,-3.5126638412475586
61,4100.0,8.183453559875487,0.062213387340307236,-1.9118653535842896
62,4200.0,8.183453559875487,0.062213387340307236,-1.9118653535842896
63,4300.0,8.183453559875487,0.062213387340307236,-1.9118653535842896
64,4400.0,8.834300994873047,2.974278450012207,-1.5170495510101318
65,4500.0,8.834300994873047,2.974278450012207,-1.5170495510101318
66,4600.0,8.896513938903809,2.0362920761108403,-2.7326035499572754
67,4700.0,8.896513938903809,2.0362920761108403,-2.7326035499572754
68,4800.0,9.159724235534668,1.227518081665039,-3.177668571472168
69,4900.0,9.159724235534668,1.227518081665039,-3.177668571472168
70,5000.0,9.159724235534668,1.227518081665039,-3.177668571472168
71,5100.0,11.294123649597168,1.636690616607666,-3.73758864402771
72,5200.0,11.294123649597168,1.636690616607666,-3.73758864402771
73,5300.0,7.628318786621094,1.5984054803848269,-1.0983055830001829
74,5400.0,7.628318786621094,1.5984054803848269,-1.0983055830001829
75,5500.0,7.527820110321045,1.8951154947280884,-1.7730815410614014
76,5600.0,7.527820110321045,1.8951154947280884,-1.7730815410614014
77,5700.0,7.379465103149414,3.053241729736328,-2.799602746963501
78,5800.0,7.379465103149414,3.053241729736328,-2.799602746963501
79,5900.0,9.17886734008789,4.570291519165039,-4.2759737968444815
80,4000.0,12.40439224243164,2.857030153274536,-3.5126638412475586
81,4100.0,8.183453559875487,0.062213387340307236,-1.9118653535842896
82,4200.0,8.183453559875487,0.062213387340307236,-1.9118653535842896
83,4300.0,8.183453559875487,0.062213387340307236,-1.9118653535842896
84,4400.0,8.834300994873047,2.974278450012207,-1.5170495510101318
85,4500.0,8.834300994873047,2.974278450012207,-1.5170495510101318
86,4600.0,8.896513938903809,2.0362920761108403,-2.7326035499572754
87,4700.0,8.896513938903809,2.0362920761108403,-2.7326035499572754
88,4800.0,9.159724235534668,1.227518081665039,-3.177668571472168
89,4900.0,9.159724235534668,1.227518081665039,-3.177668571472168
90,5000.0,9.159724235534668,1.227518081665039,-3.177668571472168
91,5100.0,11.294123649597168,1.636690616607666,-3.73758864402771
92,5200.0,11.294123649597168,1.636690616607666,-3.73758864402771
93,5300.0,7.628318786621094,1.5984054803848269,-1.0983055830001829
94,5400.0,7.628318786621094,1.5984054803848269,-1.0983055830001829
95,5500.0,7.527820110321045,1.8951154947280884,-1.7730815410614014
96,5600.0,7.527820110321045,1.8951154947280884,-1.7730815410614014
97,5700.0,7.379465103149414,3.053241729736328,-2.799602746963501
98,5800.0,7.379465103149414,3.053241729736328,-2.799602746963501
99,5900.0,9.17886734008789,4.570291519165039,-4.2759737968444815
100,6000.0,9.17886734008789,4.570291519165039,-4.2759737968444815
101,6100.0,9.17886734008789,4.570291519165039,-4.2759737968444815
102,6200.0,5.972485065460205,-0.055034920573234565,-1.6534404754638672
103,6300.0,5.972485065460205,-0.055034920573234565,-1.6534404754638672
104,6400.0,7.508677005767822,2.5052852630615234,-1.6103696823120115
105,6500.0,7.508677005767822,2.5052852630615234,-1.6103696823120115
106,6600.0,9.016156196594238,2.297109842300415,-2.8402805328369136
107,6700.0,9.016156196594238,2.297109842300415,-2.8402805328369136
108,6800.0,9.016156196594238,2.297109842300415,-2.8402805328369136
109,6900.0,9.681360244750977,1.0719845294952393,-3.797409296035767
110,7000.0,9.681360244750977,1.0719845294952393,-3.797409296035767
111,7100.0,10.557132720947266,0.8087739944458008,-2.770888566970825
112,7200.0,10.557132720947266,0.8087739944458008,-2.770888566970825
113,7300.0,9.595218658447266,2.026720762252808,-1.6701902151107788
114,7400.0,9.595218658447266,2.026720762252808,-1.6701902151107788
115,7500.0,9.595218658447266,2.026720762252808,-1.6701902151107788
116,7600.0,8.499305725097656,2.146361827850342,-1.3399806022644043
117,7700.0,8.499305725097656,2.146361827850342,-1.3399806022644043
118,7800.0,8.159524917602539,4.120440483093262,-3.747160196304321
119,7900.0,8.159524917602539,4.120440483093262,-3.747160196304321
120,6000.0,9.17886734008789,4.570291519165039,-4.2759737968444815
121,6100.0,9.17886734008789,4.570291519165039,-4.2759737968444815
122,6200.0,5.972485065460205,-0.055034920573234565,-1.6534404754638672
123,6300.0,5.972485065460205,-0.055034920573234565,-1.6534404754638672
124,6400.0,7.508677005767822,2.5052852630615234,-1.6103696823120115
125,6500.0,7.508677005767822,2.5052852630615234,-1.6103696823120115
126,6600.0,9.016156196594238,2.297109842300415,-2.8402805328369136
127,6700.0,9.016156196594238,2.297109842300415,-2.8402805328369136
128,6800.0,9.016156196594238,2.297109842300415,-2.8402805328369136
129,6900.0,9.681360244750977,1.0719845294952393,-3.797409296035767
130,7000.0,9.681360244750977,1.0719845294952393,-3.797409296035767
131,7100.0,10.557132720947266,0.8087739944458008,-2.770888566970825
132,7200.0,10.557132720947266,0.8087739944458008,-2.770888566970825
133,7300.0,9.595218658447266,2.026720762252808,-1.6701902151107788
134,7400.0,9.595218658447266,2.026720762252808,-1.6701902151107788
135,7500.0,9.595218658447266,2.026720762252808,-1.6701902151107788
136,7600.0,8.499305725097656,2.146361827850342,-1.3399806022644043
137,7700.0,8.499305725097656,2.146361827850342,-1.3399806022644043
138,7800.0,8.159524917602539,4.120440483093262,-3.747160196304321
139,7900.0,8.159524917602539,4.120440483093262,-3.747160196304321
140,8000.0,8.159524917602539,4.120440483093262,-3.747160196304321
141,8100.0,9.480363845825195,3.4121649265289307,-3.2279179096221924
142,8200.0,9.480363845825195,3.4121649265289307,-3.2279179096221924
143,8300.0,6.9583282470703125,1.5361920595169067,-1.5409778356552124
144,8400.0,6.9583282470703125,1.5361920595169067,-1.5409778356552124
145,8500.0,7.293323516845702,1.2729815244674685,-1.7084753513336182
146,8600.0,7.293323516845702,1.2729815244674685,-1.7084753513336182
147,8700.0,9.226724624633787,2.1511476039886475,-2.706282377243042
148,8800.0,9.226724624633787,2.1511476039886475,-2.706282377243042
149,8900.0,9.226724624633787,2.1511476039886475,-2.706282377243042
150,9000.0,9.55214786529541,1.497907042503357,-3.682554006576538
151,9100.0,9.55214786529541,1.497907042503357,-3.682554006576538
152,9200.0,11.73440170288086,1.2131611108779907,-1.6917256116867063
153,9300.0,11.73440170288086,1.2131611108779907,-1.6917256116867063
154,9400.0,8.346165657043457,2.203789472579956,-1.4404792785644531
155,9500.0,8.346165657043457,2.203789472579956,-1.4404792785644531
156,9600.0,9.614361763000488,2.258824586868286,-1.856830358505249
157,9700.0,9.614361763000488,2.258824586868286,-1.856830358505249
158,9800.0,9.614361763000488,2.258824586868286,-1.856830358505249
159,9900.0,8.370094299316406,3.5270204544067383,-2.943171739578247
160,8000.0,8.159524917602539,4.120440483093262,-3.747160196304321
161,8100.0,9.480363845825195,3.4121649265289307,-3.2279179096221924
162,8200.0,9.480363845825195,3.4121649265289307,-3.2279179096221924
163,8300.0,6.9583282470703125,1.5361920595169067,-1.5409778356552124
164,8400.0,6.9583282470703125,1.5361920595169067,-1.5409778356552124
165,8500.0,7.293323516845702,1.2729815244674685,-1.7084753513336182
166,8600.0,7.293323516845702,1.2729815244674685,-1.7084753513336182
167,8700.0,9.226724624633787,2.1511476039886475,-2.706282377243042
168,8800.0,9.226724624633787,2.1511476039886475,-2.706282377243042
169,8900.0,9.226724624633787,2.1511476039886475,-2.706282377243042
170,9000.0,9.55214786529541,1.497907042503357,-3.682554006576538
171,9100.0,9.55214786529541,1.497907042503357,-3.682554006576538
172,9200.0,11.73440170288086,1.2131611108779907,-1.6917256116867063
173,9300.0,11.73440170288086,1.2131611108779907,-1.6917256116867063
174,9400.0,8.346165657043457,2.203789472579956,-1.4404792785644531
175,9500.0,8.346165657043457,2.203789472579956,-1.4404792785644531
176,9600.0,9.614361763000488,2.258824586868286,-1.856830358505249
177,9700.0,9.614361763000488,2.258824586868286,-1.856830358505249
178,9800.0,9.614361763000488,2.258824586868286,-1.856830358505249
179,9900.0,8.370094299316406,3.5270204544067383,-2.943171739578247
180,10000.0,8.370094299316406,3.5270204544067383,-2.943171739578247
181,10100.0,8.236095428466799,3.9792640209198,-3.6011981964111333
182,10200.0,8.236095428466799,3.9792640209198,-3.6011981964111333
183,10300.0,12.318251609802244,3.2159535884857178,-3.4719858169555664
184,10400.0,12.318251609802244,3.2159535884857178,-3.4719858169555664
185,10500.0,9.131011009216307,1.6869399547576904,-2.711068153381348
186,10600.0,9.131011009216307,1.6869399547576904,-2.711068153381348
187,10700.0,9.131011009216307,1.6869399547576904,-2.711068153381348
188,10800.0,8.456235885620117,2.0889341831207275,-2.4191436767578125
189,10900.0,8.456235885620117,2.0889341831207275,-2.4191436767578125
190,11000.0,8.853443145751953,2.273181438446045,-3.0149567127227783
191,11100.0,8.853443145751953,2.273181438446045,-3.0149567127227783
192,11200.0,9.245866775512695,1.9860427379608157,-4.2687954902648935
193,11300.0,9.245866775512695,1.9860427379608157,-4.2687954902648935
194,11400.0,13.241880416870115,1.4380863904953003,-3.0939197540283203
195,11500.0,13.241880416870115,1.4380863904953003,-3.0939197540283203
196,11600.0,13.241880416870115,1.4380863904953003,-3.0939197540283203
197,11700.0,9.901500701904297,1.7922240495681765,-2.048256158828736
198,11800.0,9.901500701904297,1.7922240495681765,-2.048256158828736
199,11900.0,8.805586814880371,1.1676974296569824,-2.029113531112671
200,10000.0,8.370094299316406,3.5270204544067383,-2.943171739578247
