,timestamp,ax,ay,az
0,0.0,4.632504463195801,2.2755744457244877,-10.17906665802002
1,200.0,4.632504463195801,2.2755744457244877,-10.17906665802002
2,400.0,2.761317014694214,0.9978070855140686,-9.375079154968262
3,600.0,2.522034883499145,1.0504491329193115,-9.274580955505373
4,800.0,2.3497519493103027,1.0360921621322632,-9.207581520080566
5,1000.0,2.1439690589904785,0.5144568681716919,-9.71485996246338
6,1200.0,2.4646072387695312,-0.031106693670153618,-9.284152030944824
7,1400.0,2.4646072387695312,-0.031106693670153618,-9.284152030944824
8,1600.0,2.44067907333374,0.3254238963127136,-8.312665939331055
9,1800.0,6.197411060333253,1.1509476900100708,-7.8006019592285165
10,1000.0,2.1439690589904785,0.5144568681716919,-9.71485996246338
11,1200.0,2.4646072387695312,-0.031106693670153618,-9.284152030944824
12,1400.0,2.4646072387695312,-0.031106693670153618,-9.284152030944824
13,1600.0,2.44067907333374,0.3254238963127136,-8.312665939331055
14,1800.0,6.197411060333253,1.1509476900100708,-7.8006019592285165
15,2000.0,11.916255950927734,5.893522262573242,-1.9573287963867188
16,2200.0,7.666603565216064,1.8927226066589355,-0.8685945868492126
17,2400.0,10.140782356262207,1.8209381103515625,-0.7154539823532104
18,2600.0,12.844672203063965,1.2299107313156128,-1.8783657550811768
19,2800.0,12.844672203063965,1.2299107313156128,-1.8783657550811768
20,2000.0,11.916255950927734,5.893522262573242,-1.9573287963867188
21,2200.0,7.666603565216064,1.8927226066589355,-0.8685945868492126
22,2400.0,10.140782356262207,1.8209381103515625,-0.7154539823532104
23,2600.0,12.844672203063965,1.2299107313156128,-1.8783657550811768
24,2800.0,12.844672203063965,1.2299107313156128,-1.8783657550811768
25,3000.0,8.60459041595459,-0.05024927482008934,-2.9383859634399414
26,3200.0,7.77188777923584,1.5098710060119631,-2.0745770931243896
27,3400.0,8.484949111938478,1.6677974462509155,-4.000799655914307
28,3600.0,9.724431037902832,1.916650891304016,-3.0197420120239262
29,3800.0,9.992427825927734,1.4093725681304932,-1.8903299570083616
30,3000.0,8.60459041595459,-0.05024927482008934,-2.9383859634399414
31,3200.0,7.77188777923584,1.5098710060119631,-2.0745770931243896
32,3400.0,8.484949111938478,1.6677974462509155,-4.000799655914307
33,3600.0,9.724431037902832,1.916650891304016,-3.0197420120239262
34,3800.0,9.992427825927734,1.4093725681304932,-1.8903299570083616
35,4000.0,8.236095428466799,2.526820659637451,-0.9332008361816406
36,4200.0,9.28893756866455,3.2231321334838867,-1.00259268283844
37,4400.0,9.28893756866455,3.2231321334838867,-1.00259268283844
38,4600.0,8.98265552520752,2.6536402702331543,-0.6699903011322021
39,4800.0,10.74855899810791,2.483749866485596,-1.5314064025878906
40,4000.0,8.236095428466799,2.526820659637451,-0.9332008361816406
41,4200.0,9.28893756866455,3.2231321334838867,-1.00259268283844
42,4400.0,9.28893756866455,3.2231321334838867,-1.00259268283844
43,4600.0,8.98265552520752,2.6536402702331543,-0.6699903011322021
44,4800.0,10.74855899810791,2.483749866485596,-1.5314064025878906
45,5000.0,9.145368576049805,-0.03828516229987145,-1.8735800981521609
46,5200.0,6.752545356750487,0.0263210479170084,-0.8566305041313171
47,5400.0,8.992227554321289,2.562713146209717,-3.3020951747894287
48,5600.0,8.925228118896484,2.9934213161468506,-3.1274189949035645
49,5800.0,15.251851081848145,3.615554809570313,-1.8233308792114256
50,5000.0,9.145368576049805,-0.03828516229987145,-1.8735800981521609
51,5200.0,6.752545356750487,0.0263210479170084,-0.8566305041313171
52,5400.0,8.992227554321289,2.562713146209717,-3.3020951747894287
53,5600.0,8.925228118896484,2.9934213161468506,-3.1274189949035645
54,5800.0,15.251851081848145,3.615554809570313,-1.8233308792114256
55,6000.0,15.251851081848145,3.615554809570313,-1.8233308792114256
56,6200.0,8.786444664001465,2.543570280075073,-0.4546363055706024
57,6400.0,7.369894027709961,3.072384119033813,-1.2634103298187256
58,6600.0,9.059226989746094,3.553341627120972,-1.9238293170928955
59,6800.0,10.949556350708008,2.7972097396850586,-1.191625714302063
60,6000.0,15.251851081848145,3.615554809570313,-1.8233308792114256
61,6200.0,8.786444664001465,2.543570280075073,-0.4546363055706024
62,6400.0,7.369894027709961,3.072384119033813,-1.2634103298187256
63,6600.0,9.059226989746094,3.553341627120972,-1.9238293170928955
64,6800.0,10.949556350708008,2.7972097396850586,-1.191625714302063
65,7000.0,7.867600917816162,1.9094725847244265,-1.4356936216354368
66,7200.0,7.920242786407472,1.7898313999176023,-2.2851457595825195
67,7400.0,7.920242786407472,1.7898313999176023,-2.2851457595825195
68,7600.0,8.949156761169434,2.2683956623077397,-2.6321046352386475
69,7800.0,8.441878318786621,3.129812002182007,-2.5746772289276123
70,7000.0,7.867600917816162,1.9094725847244265,-1.4356936216354368
71,7200.0,7.920242786407472,1.7898313999176023,-2.2851457595825195
72,7400.0,7.920242786407472,1.7898313999176023,-2.2851457595825195
73,7600.0,8.949156761169434,2.2683956623077397,-2.6321046352386475
74,7800.0,8.441878318786621,3.129812002182007,-2.5746772289276123
75,8000.0,12.447463035583494,3.1489543914794917,-2.1990041732788086
76,8200.0,10.274779319763184,-1.4739787578582764,-1.6510475873947144
77,8400.0,7.489534854888916,2.4741785526275635,-0.8303093910217285
78,8600.0,8.638089179992676,3.483949899673462,-1.3519448041915894
79,8800.0,10.628917694091797,2.933600425720215,-1.2993026971817017
80,8000.0,12.447463035583494,3.1489543914794917,-2.1990041732788086
81,8200.0,10.274779319763184,-1.4739787578582764,-1.6510475873947144
82,8400.0,7.489534854888916,2.4741785526275635,-0.8303093910217285
83,8600.0,8.638089179992676,3.483949899673462,-1.3519448041915894
84,8800.0,10.628917694091797,2.933600425720215,-1.2993026971817017
85,9000.0,10.24606704711914,1.6941183805465698,-0.6293123364448547
86,9200.0,10.24606704711914,1.6941183805465698,-0.6293123364448547
87,9400.0,7.948956489562987,0.7609176039695741,-1.813759446144104
88,9600.0,8.815157890319824,1.0671988725662231,-2.801995038986206
89,9800.0,9.207581520080566,1.294516921043396,-2.4717857837677
90,9000.0,10.24606704711914,1.6941183805465698,-0.6293123364448547
91,9200.0,10.24606704711914,1.6941183805465698,-0.6293123364448547
92,9400.0,7.948956489562987,0.7609176039695741,-1.813759446144104
93,9600.0,8.815157890319824,1.0671988725662231,-2.801995038986206
94,9800.0,9.207581520080566,1.294516921043396,-2.4717857837677
95,10000.0,8.882158279418945,3.081955671310425,-2.050648927688598
96,10200.0,9.62393283843994,3.4025940895080566,-2.167897224426269
97,10400.0,12.04068374633789,2.531606435775757,-1.6462620496749878
98,10600.0,8.145168304443361,3.1944179534912114,-0.7106683850288391
99,10800.0,8.341379165649414,1.4931212663650513,0.09092726558446884
100,10000.0,8.882158279418945,3.081955671310425,-2.050648927688598
101,10200.0,9.62393283843994,3.4025940895080566,-2.167897224426269
102,10400.0,12.04068374633789,2.531606435775757,-1.6462620496749878
103,10600.0,8.145168304443361,3.1944179534912114,-0.7106683850288391
104,10800.0,8.341379165649414,1.4931212663650513,0.09092726558446884
105,11000.0,8.341379165649414,1.4931212663650513,0.09092726558446884
106,11200.0,10.48534870147705,2.8833510875701904,-0.9786643981933594
107,11400.0,10.557132720947266,3.192025184631348,-0.09810572117567062
108,11600.0,8.054241180419924,-0.21774686872959134,-1.1030912399291992
109,11800.0,7.987241268157959,-0.672383189201355,-1.37587308883667
110,11000.0,8.341379165649414,1.4931212663650513,0.09092726558446884
111,11200.0,10.48534870147705,2.8833510875701904,-0.9786643981933594
112,11400.0,10.557132720947266,3.192025184631348,-0.09810572117567062
113,11600.0,8.054241180419924,-0.21774686872959134,-1.1030912399291992
114,11800.0,7.987241268157959,-0.672383189201355,-1.37587308883667
115,12000.0,8.279166221618652,1.0217353105545044,-1.9860427379608157
116,12200.0,8.236095428466799,1.3375877141952517,-3.1106693744659424
117,12400.0,10.681561470031738,1.4644075632095337,-2.8953151702880864
118,12600.0,10.681561470031738,1.4644075632095337,-2.8953151702880864
119,12800.0,10.131211280822754,2.4693927764892583,-2.380858421325684
120,12000.0,8.279166221618652,1.0217353105545044,-1.9860427379608157
121,12200.0,8.236095428466799,1.3375877141952517,-3.1106693744659424
122,12400.0,10.681561470031738,1.4644075632095337,-2.8953151702880864
123,12600.0,10.681561470031738,1.4644075632095337,-2.8953151702880864
124,12800.0,10.131211280822754,2.4693927764892583,-2.380858421325684
125,13000.0,8.408378601074219,2.730210542678833,-1.964507341384888
126,13200.0,9.212367057800293,3.6131620407104488,-1.7180466651916504
127,13400.0,9.40379238128662,3.3930225372314453,-2.2205395698547363
128,13600.0,9.824929237365724,3.517449140548706,-1.969292998313904
129,13800.0,7.8245296478271475,-0.2488535493612289,-1.146162033081055
130,13000.0,8.408378601074219,2.730210542678833,-1.964507341384888
131,13200.0,9.212367057800293,3.6131620407104488,-1.7180466651916504
132,13400.0,9.40379238128662,3.3930225372314453,-2.2205395698547363
133,13600.0,9.824929237365724,3.517449140548706,-1.969292998313904
134,13800.0,7.8245296478271475,-0.2488535493612289,-1.146162033081055
135,14000.0,7.676175117492676,0.8733802437782288,-1.1892328262329102
136,14200.0,8.422735214233397,0.6987042427062988,-1.0336993932724001
137,14400.0,8.422735214233397,0.6987042427062988,-1.0336993932724001
138,14600.0,9.66221809387207,1.5074783563613892,-1.7324036359786987
139,14800.0,12.05025577545166,1.1270195245742798,0.1698903888463974
140,14000.0,7.676175117492676,0.8733802437782288,-1.1892328262329102
141,14200.0,8.422735214233397,0.6987042427062988,-1.0336993932724001
142,14400.0,8.422735214233397,0.6987042427062988,-1.0336993932724001
143,14600.0,9.66221809387207,1.5074783563613892,-1.7324036359786987
144,14800.0,12.05025577545166,1.1270195245742798,0.1698903888463974
145,15000.0,10.15992546081543,1.0743772983551023,-0.057427741587162025
146,15200.0,9.174081802368164,1.7132610082626345,-0.055034920573234565
147,15400.0,9.150154113769533,2.115255117416382,-0.6436693072319031
148,15600.0,10.121639251708984,1.1676974296569824,0.413958340883255
149,15800.0,10.628917694091797,1.4141581058502195,-0.016749758273363113
150,15000.0,10.15992546081543,1.0743772983551023,-0.057427741587162025
151,15200.0,9.174081802368164,1.7132610082626345,-0.055034920573234565
152,15400.0,9.150154113769533,2.115255117416382,-0.6436693072319031
153,15600.0,10.121639251708984,1.1676974296569824,0.413958340883255
154,15800.0,10.628917694091797,1.4141581058502195,-0.016749758273363113
155,16000.0,10.628917694091797,1.4141581058502195,-0.016749758273363113
156,16200.0,9.614361763000488,-2.71346116065979,-1.6007983684539795
157,16400.0,8.628519058227539,-1.727617859840393,-0.6221339106559753
158,16600.0,9.98285675048828,2.4095723628997803,-2.244467735290528
159,16800.0,9.121439933776855,3.0173492431640625,-2.579463005065918
160,16000.0,10.628917694091797,1.4141581058502195,-0.016749758273363113
161,16200.0,9.614361763000488,-2.71346116065979,-1.6007983684539795
162,16400.0,8.628519058227539,-1.727617859840393,-0.6221339106559753
163,16600.0,9.98285675048828,2.4095723628997803,-2.244467735290528
164,16800.0,9.121439933776855,3.0173492431640625,-2.579463005065918
165,17000.0,9.164510726928713,0.7322037816047668,-2.0554347038269043
166,17200.0,10.03549861907959,1.3184452056884766,-1.160519003868103
167,17400.0,10.542776107788086,1.8233308792114256,0.6532405614852905
168,17600.0,10.542776107788086,1.8233308792114256,0.6532405614852905
169,17800.0,9.408578872680664,1.9118653535842896,0.1220339611172676
170,17000.0,9.164510726928713,0.7322037816047668,-2.0554347038269043
171,17200.0,10.03549861907959,1.3184452056884766,-1.160519003868103
172,17400.0,10.542776107788086,1.8233308792114256,0.6532405614852905
173,17600.0,10.542776107788086,1.8233308792114256,0.6532405614852905
174,17800.0,9.408578872680664,1.9118653535842896,0.1220339611172676
175,18000.0,9.231510162353516,2.44067907333374,0.413958340883255
176,18200.0,9.42772102355957,1.9501504898071291,0.4163511395454407
177,18400.0,9.80100154876709,0.21774686872959134,0.05024927482008934
178,18600.0,10.552348136901855,0.8685945868492126,-0.7824530005455017
179,18800.0,10.939985275268556,-0.1052841916680336,-0.3254238963127136
180,18000.0,9.231510162353516,2.44067907333374,0.413958340883255
181,18200.0,9.42772102355957,1.9501504898071291,0.4163511395454407
182,18400.0,9.80100154876709,0.21774686872959134,0.05024927482008934
183,18600.0,10.552348136901855,0.8685945868492126,-0.7824530005455017
184,18800.0,10.939985275268556,-0.1052841916680336,-0.3254238963127136
185,19000.0,9.81057357788086,-0.7154539823532104,-1.6462620496749878
186,19200.0,7.982456684112549,0.3302095234394073,-2.3617160320281982
187,19400.0,7.982456684112549,0.3302095234394073,-2.3617160320281982
188,19600.0,8.575876235961914,3.115455150604248,-2.2205395698547363
189,19800.0,9.116654396057127,2.502892255783081,-2.313859462738037
190,19000.0,9.81057357788086,-0.7154539823532104,-1.6462620496749878
191,19200.0,7.982456684112549,0.3302095234394073,-2.3617160320281982
192,19400.0,7.982456684112549,0.3302095234394073,-2.3617160320281982
193,19600.0,8.575876235961914,3.115455150604248,-2.2205395698547363
194,19800.0,9.116654396057127,2.502892255783081,-2.313859462738037
195,20000.0,10.504491806030273,3.029313325881958,-1.4093725681304932
196,20200.0,10.700701713562012,2.038684844970703,-0.4881358444690704
197,20400.0,8.666803359985353,1.9094725847244265,0.09571290016174316
198,20600.0,8.681159973144531,2.4646072387695312,-1.0241280794143677
199,20800.0,8.71466064453125,2.900100946426392,-0.8781659603118896
200,20000.0,10.504491806030273,3.029313325881958,-1.4093725681304932
201,20200.0,10.700701713562012,2.038684844970703,-0.4881358444690704
202,20400.0,8.666803359985353,1.9094725847244265,0.09571290016174316
203,20600.0,8.681159973144531,2.4646072387695312,-1.0241280794143677
204,20800.0,8.71466064453125,2.900100946426392,-0.8781659603118896
205,21000.0,11.772686958312988,2.526820659637451,-1.0552347898483276
206,21200.0,11.772686958312988,2.526820659637451,-1.0552347898483276
207,21400.0,9.097511291503906,1.0097711086273191,-2.4287149906158447
208,21600.0,7.661818027496338,1.117448091506958,-2.493321180343628
209,21800.0,8.49452018737793,1.6965112686157229,-2.062613010406494
210,21000.0,11.772686958312988,2.526820659637451,-1.0552347898483276
211,21200.0,11.772686958312988,2.526820659637451,-1.0552347898483276
212,21400.0,9.097511291503906,1.0097711086273191,-2.4287149906158447
213,21600.0,7.661818027496338,1.117448091506958,-2.493321180343628
214,21800.0,8.49452018737793,1.6965112686157229,-2.062613010406494
215,22000.0,9.355937004089355,3.5820553302764893,-2.6943180561065674
216,22200.0,11.753543853759766,1.674975872039795,-2.0003998279571533
217,22400.0,8.394021987915039,1.373480200767517,-1.4883356094360352
218,22600.0,7.781459331512451,1.0336993932724001,0.07896314561367035
219,22800.0,7.781459331512451,1.0336993932724001,0.07896314561367035
220,22000.0,9.355937004089355,3.5820553302764893,-2.6943180561065674
221,22200.0,11.753543853759766,1.674975872039795,-2.0003998279571533
222,22400.0,8.394021987915039,1.373480200767517,-1.4883356094360352
223,22600.0,7.781459331512451,1.0336993932724001,0.07896314561367035
224,22800.0,7.781459331512451,1.0336993932724001,0.07896314561367035
225,23000.0,9.906286239624023,3.156132936477661,-0.5934200286865234
226,23200.0,9.31765079498291,2.6249265670776367,-1.0480562448501587
227,23400.0,12.083754539489744,0.4546363055706024,-1.5361920595169067
228,23600.0,8.551947593688965,0.2799602448940277,-1.6390833854675293
229,23800.0,7.058826446533202,1.3423734903335571,-2.9838497638702397
230,23000.0,9.906286239624023,3.156132936477661,-0.5934200286865234
231,23200.0,9.31765079498291,2.6249265670776367,-1.0480562448501587
232,23400.0,12.083754539489744,0.4546363055706024,-1.5361920595169067
233,23600.0,8.551947593688965,0.2799602448940277,-1.6390833854675293
234,23800.0,7.058826446533202,1.3423734903335571,-2.9838497638702397
235,24000.0,7.776673316955566,1.727617859840393,-3.2255251407623287
236,24200.0,10.030712127685547,1.8544375896453855,-2.344966173171997
237,24400.0,10.030712127685547,1.8544375896453855,-2.344966173171997
238,24600.0,9.80100154876709,1.3902300596237185,-0.397208571434021
239,24800.0,8.800802230834961,2.048256158828736,-0.2991028428077698
240,24000.0,7.776673316955566,1.727617859840393,-3.2255251407623287
241,24200.0,10.030712127685547,1.8544375896453855,-2.344966173171997
242,24400.0,10.030712127685547,1.8544375896453855,-2.344966173171997
243,24600.0,9.80100154876709,1.3902300596237185,-0.397208571434021
244,24800.0,8.800802230834961,2.048256158828736,-0.2991028428077698
245,25000.0,9.174081802368164,2.1702899932861333,-0.6412764191627502
246,25200.0,11.485548973083494,2.368894338607788,-0.3708875179290772
247,25400.0,7.934599876403809,1.1222338676452637,-2.526820659637451
248,25600.0,7.939385414123535,0.7010970115661621,-2.6847469806671143
249,25800.0,7.939385414123535,0.7010970115661621,-2.6847469806671143
250,25000.0,9.174081802368164,2.1702899932861333,-0.6412764191627502
251,25200.0,11.485548973083494,2.368894338607788,-0.3708875179290772
252,25400.0,7.934599876403809,1.1222338676452637,-2.526820659637451
253,25600.0,7.939385414123535,0.7010970115661621,-2.6847469806671143
254,25800.0,7.939385414123535,0.7010970115661621,-2.6847469806671143
255,26000.0,7.948956489562987,1.9932212829589844,-2.756531953811645
256,26200.0,9.025726318359377,3.1704900264739986,-3.641876220703125
257,26400.0,8.322237014770508,2.0243279933929443,-1.4787644147872925
258,26600.0,7.944170951843263,1.8233308792114256,-0.1459621787071228
259,26800.0,9.059226989746094,2.426322221755981,-0.8901299238204956
260,26000.0,7.948956489562987,1.9932212829589844,-2.756531953811645
261,26200.0,9.025726318359377,3.1704900264739986,-3.641876220703125
262,26400.0,8.322237014770508,2.0243279933929443,-1.4787644147872925
263,26600.0,7.944170951843263,1.8233308792114256,-0.1459621787071228
264,26800.0,9.059226989746094,2.426322221755981,-0.8901299238204956
265,27000.0,9.686145782470703,2.768495798110962,-0.6843472719192505
266,27200.0,9.686145782470703,2.768495798110962,-0.6843472719192505
267,27400.0,7.231109619140625,-0.48574298620224,-2.617748022079468
268,27600.0,7.542177200317383,1.06480610370636,-2.4598214626312256
269,27800.0,7.700103282928468,2.4023938179016118,-3.34995174407959
270,27000.0,9.686145782470703,2.768495798110962,-0.6843472719192505
271,27200.0,9.686145782470703,2.768495798110962,-0.6843472719192505
272,27400.0,7.231109619140625,-0.48574298620224,-2.617748022079468
273,27600.0,7.542177200317383,1.06480610370636,-2.4598214626312256
274,27800.0,7.700103282928468,2.4023938179016118,-3.34995174407959
275,28000.0,7.905886173248291,2.4717857837677,-3.780659914016724
276,28200.0,10.193424224853516,1.983649969100952,-4.043870449066162
277,28400.0,8.997013092041016,0.34217363595962524,-1.7850456237792969
278,28600.0,7.733603000640869,0.8518448472023009,-0.5359922647476196
279,28800.0,7.733603000640869,0.8518448472023009,-0.5359922647476196
280,28000.0,7.905886173248291,2.4717857837677,-3.780659914016724
281,28200.0,10.193424224853516,1.983649969100952,-4.043870449066162
282,28400.0,8.997013092041016,0.34217363595962524,-1.7850456237792969
283,28600.0,7.733603000640869,0.8518448472023009,-0.5359922647476196
284,28800.0,7.733603000640869,0.8518448472023009,-0.5359922647476196
285,29000.0,9.561718940734863,2.476571559906006,-1.5242280960083008
286,29200.0,9.920641899108887,2.091326951980591,-0.7537391781806946
287,29400.0,7.767102241516112,0.15314064919948578,-1.88075852394104
288,29600.0,8.451449394226074,0.672383189201355,-0.9260223507881165
289,29800.0,9.81057357788086,0.4833501875400543,-1.6486548185348509
290,29000.0,9.561718940734863,2.476571559906006,-1.5242280960083008
291,29200.0,9.920641899108887,2.091326951980591,-0.7537391781806946
292,29400.0,7.767102241516112,0.15314064919948578,-1.88075852394104
293,29600.0,8.451449394226074,0.672383189201355,-0.9260223507881165
294,29800.0,9.81057357788086,0.4833501875400543,-1.6486548185348509
295,30000.0,11.562118530273438,1.0384850502014158,-0.14356936514377594
296,30200.0,8.963513374328613,0.9595218896865844,0.2153540551662445
297,30400.0,8.963513374328613,0.9595218896865844,0.2153540551662445
298,30600.0,9.609575271606444,2.1343977451324463,1.2610174417495728
299,30800.0,9.997212409973145,1.9118653535842896,0.4450649619102478
300,30000.0,11.562118530273438,1.0384850502014158,-0.14356936514377594
301,30200.0,8.963513374328613,0.9595218896865844,0.2153540551662445
302,30400.0,8.963513374328613,0.9595218896865844,0.2153540551662445
303,30600.0,9.609575271606444,2.1343977451324463,1.2610174417495728
304,30800.0,9.997212409973145,1.9118653535842896,0.4450649619102478
305,31000.0,10.198209762573242,1.4189438819885254,-0.27756744623184204
306,31200.0,8.97787094116211,-1.4165509939193726,-1.581655740737915
307,31400.0,7.992027282714844,-0.7704889178276062,-1.497907042503357
308,31600.0,8.71944522857666,1.6941183805465698,-2.060220241546631
309,31800.0,8.71944522857666,1.6941183805465698,-2.060220241546631
310,31000.0,10.198209762573242,1.4189438819885254,-0.27756744623184204
311,31200.0,8.97787094116211,-1.4165509939193726,-1.581655740737915
312,31400.0,7.992027282714844,-0.7704889178276062,-1.497907042503357
313,31600.0,8.71944522857666,1.6941183805465698,-2.060220241546631
314,31800.0,8.71944522857666,1.6941183805465698,-2.060220241546631
315,32000.0,11.093125343322754,2.0003998279571533,-2.799602746963501
316,32200.0,10.14556884765625,1.7706886529922483,-0.6149553656578064
317,32400.0,7.183253765106201,1.0145567655563354,0.3900300860404968
318,32600.0,9.77707290649414,2.6608188152313232,-0.16510476171970367
319,32800.0,10.490135192871094,1.6151552200317385,-1.3663017749786377
320,32000.0,11.093125343322754,2.0003998279571533,-2.799602746963501
321,32200.0,10.14556884765625,1.7706886529922483,-0.6149553656578064
322,32400.0,7.183253765106201,1.0145567655563354,0.3900300860404968
323,32600.0,9.77707290649414,2.6608188152313232,-0.16510476171970367
324,32800.0,10.490135192871094,1.6151552200317385,-1.3663017749786377
325,33000.0,9.245866775512695,1.0241280794143677,-1.3423734903335571
326,33200.0,6.905685901641847,1.105484127998352,-2.210968255996704
327,33400.0,8.422735214233397,2.5507488250732417,-2.2779672145843506
328,33600.0,9.470791816711426,2.581855773925781,-3.486342430114746
329,33800.0,9.470791816711426,2.581855773925781,-3.486342430114746
330,33000.0,9.245866775512695,1.0241280794143677,-1.3423734903335571
331,33200.0,6.905685901641847,1.105484127998352,-2.210968255996704
332,33400.0,8.422735214233397,2.5507488250732417,-2.2779672145843506
333,33600.0,9.470791816711426,2.581855773925781,-3.486342430114746
334,33800.0,9.470791816711426,2.581855773925781,-3.486342430114746
335,34000.0,10.662418365478516,1.4021940231323242,-1.526620864868164
336,34200.0,8.647661209106445,1.5433706045150757,0.4809573292732239
337,34400.0,10.226923942565918,2.931207656860352,-0.2273181527853012
338,34600.0,9.805787086486816,2.589033842086792,-0.6149553656578064
339,34800.0,11.609975814819336,2.0865414142608643,-0.7082754969596863
340,34000.0,10.662418365478516,1.4021940231323242,-1.526620864868164
341,34200.0,8.647661209106445,1.5433706045150757,0.4809573292732239
342,34400.0,10.226923942565918,2.931207656860352,-0.2273181527853012
343,34600.0,9.805787086486816,2.589033842086792,-0.6149553656578064
344,34800.0,11.609975814819336,2.0865414142608643,-0.7082754969596863
345,35000.0,6.159125804901122,-0.4426721632480621,-0.5359922647476196
346,35200.0,6.159125804901122,-0.4426721632480621,-0.5359922647476196
347,35400.0,7.867600917816162,1.5936198234558103,-2.6153552532196045
348,35600.0,8.250452041625978,1.6989041566848757,-2.737389087677002
349,35800.0,12.792030334472654,2.957528829574585,-1.373480200767517
350,35000.0,6.159125804901122,-0.4426721632480621,-0.5359922647476196
351,35200.0,6.159125804901122,-0.4426721632480621,-0.5359922647476196
352,35400.0,7.867600917816162,1.5936198234558103,-2.6153552532196045
353,35600.0,8.250452041625978,1.6989041566848757,-2.737389087677002
354,35800.0,12.792030334472654,2.957528829574585,-1.373480200767517
355,36000.0,10.351350784301758,1.710868239402771,0.9834501147270204
356,36200.0,7.642674922943115,1.459621787071228,-0.4953142702579498
357,36400.0,9.087940216064453,2.6249265670776367,0.031106693670153618
358,36600.0,9.087940216064453,2.6249265670776367,0.031106693670153618
359,36800.0,10.64806079864502,2.3497519493103027,-0.06460621207952501
360,36000.0,10.351350784301758,1.710868239402771,0.9834501147270204
361,36200.0,7.642674922943115,1.459621787071228,-0.4953142702579498
362,36400.0,9.087940216064453,2.6249265670776367,0.031106693670153618
363,36600.0,9.087940216064453,2.6249265670776367,0.031106693670153618
364,36800.0,10.64806079864502,2.3497519493103027,-0.06460621207952501
365,37000.0,7.527820110321045,0.3493521213531494,-2.2851457595825195
366,37200.0,7.891529560089111,0.5934200286865234,-2.816352128982544
367,37400.0,8.379664421081543,1.6965112686157229,-3.3475589752197266
368,37600.0,9.63828945159912,1.9118653535842896,-3.3427734375
369,37800.0,9.62393283843994,0.8327022790908813,-1.6701902151107788
370,37000.0,7.527820110321045,0.3493521213531494,-2.2851457595825195
371,37200.0,7.891529560089111,0.5934200286865234,-2.816352128982544
372,37400.0,8.379664421081543,1.6965112686157229,-3.3475589752197266
373,37600.0,9.63828945159912,1.9118653535842896,-3.3427734375
374,37800.0,9.62393283843994,0.8327022790908813,-1.6701902151107788
375,38000.0,8.346165657043457,0.6843472719192505,-1.0695916414260864
376,38200.0,8.346165657043457,0.6843472719192505,-1.0695916414260864
377,38400.0,8.906085968017578,2.0769701004028316,-1.5122638940811155
378,38600.0,9.51386260986328,2.823530912399292,-1.6773687601089478
379,38800.0,12.198609352111815,1.7802598476409912,-2.273181438446045
380,38000.0,8.346165657043457,0.6843472719192505,-1.0695916414260864
381,38200.0,8.346165657043457,0.6843472719192505,-1.0695916414260864
382,38400.0,8.906085968017578,2.0769701004028316,-1.5122638940811155
383,38600.0,9.51386260986328,2.823530912399292,-1.6773687601089478
384,38800.0,12.198609352111815,1.7802598476409912,-2.273181438446045
385,39000.0,7.680960178375244,1.2346963882446291,-1.428515076637268
386,39200.0,8.078168869018555,1.8616160154342647,-2.0745770931243896
387,39400.0,8.652446746826174,2.502892255783081,-3.084348201751709
388,39600.0,13.44766330718994,1.4811571836471558,-1.1868400573730469
389,39800.0,13.44766330718994,1.4811571836471558,-1.1868400573730469
390,39000.0,7.680960178375244,1.2346963882446291,-1.428515076637268
391,39200.0,8.078168869018555,1.8616160154342647,-2.0745770931243896
392,39400.0,8.652446746826174,2.502892255783081,-3.084348201751709
393,39600.0,13.44766330718994,1.4811571836471558,-1.1868400573730469
394,39800.0,13.44766330718994,1.4811571836471558,-1.1868400573730469
395,40000.0,8.609375953674316,1.105484127998352,-0.5048855543136597
396,40200.0,9.485149383544922,2.244467735290528,-0.4067798554897308
397,40400.0,10.504491806030273,2.5004994869232178,-0.9308080077171326
398,40600.0,11.107483863830566,0.8446664214134216,-2.7278177738189697
399,40800.0,7.609175682067871,1.4069796800613403,-2.2995026111602783
400,40000.0,8.609375953674316,1.105484127998352,-0.5048855543136597
401,40200.0,9.485149383544922,2.244467735290528,-0.4067798554897308
402,40400.0,10.504491806030273,2.5004994869232178,-0.9308080077171326
403,40600.0,11.107483863830566,0.8446664214134216,-2.7278177738189697
404,40800.0,7.609175682067871,1.4069796800613403,-2.2995026111602783
405,41000.0,8.111669540405272,1.641476273536682,-2.9264223575592037
406,41200.0,9.72921657562256,1.4261221885681152,-3.259024381637573
407,41400.0,9.72921657562256,1.4261221885681152,-3.259024381637573
408,41600.0,9.379864692687988,1.2873386144638062,-0.5910272002220154
409,41800.0,7.527820110321045,1.3160523176193235,-0.7226324081420898
410,41000.0,8.111669540405272,1.641476273536682,-2.9264223575592037
411,41200.0,9.72921657562256,1.4261221885681152,-3.259024381637573
412,41400.0,9.72921657562256,1.4261221885681152,-3.259024381637573
413,41600.0,9.379864692687988,1.2873386144638062,-0.5910272002220154
414,41800.0,7.527820110321045,1.3160523176193235,-0.7226324081420898
415,42000.0,9.705288887023926,3.2446675300598145,-1.2346963882446291
416,42200.0,9.394222259521484,3.0436704158782963,-1.5792629718780518
417,42400.0,9.757929801940918,2.057827472686768,-0.9451649785041808
418,42600.0,11.94497013092041,1.2251251935958862,-2.610569477081299
419,42800.0,9.10229778289795,1.4165509939193726,-2.3306093215942383
420,42000.0,9.705288887023926,3.2446675300598145,-1.2346963882446291
421,42200.0,9.394222259521484,3.0436704158782963,-1.5792629718780518
422,42400.0,9.757929801940918,2.057827472686768,-0.9451649785041808
423,42600.0,11.94497013092041,1.2251251935958862,-2.610569477081299
424,42800.0,9.10229778289795,1.4165509939193726,-2.3306093215942383
425,43000.0,10.423135757446287,2.0099709033966064,-1.8065810203552248
426,43200.0,7.963313579559326,0.14835500717163086,0.02153540588915348
427,43400.0,7.963313579559326,0.14835500717163086,0.02153540588915348
428,43600.0,9.901500701904297,1.4021940231323242,0.5551348924636841
429,43800.0,9.51386260986328,2.756531953811645,0.4785645008087158
430,43000.0,10.423135757446287,2.0099709033966064,-1.8065810203552248
431,43200.0,7.963313579559326,0.14835500717163086,0.02153540588915348
432,43400.0,7.963313579559326,0.14835500717163086,0.02153540588915348
433,43600.0,9.901500701904297,1.4021940231323242,0.5551348924636841
434,43800.0,9.51386260986328,2.756531953811645,0.4785645008087158
435,44000.0,10.112068176269533,1.8233308792114256,0.11485548317432405
436,44200.0,11.27019500732422,-0.34217363595962524,-1.4691929817199707
437,44400.0,7.747959613800049,-1.5720844268798828,-1.5864413976669312
438,44600.0,8.772088050842285,1.430907964706421,-2.038684844970703
439,44800.0,9.422935485839844,1.6007983684539795,-2.431107759475708
440,44000.0,10.112068176269533,1.8233308792114256,0.11485548317432405
441,44200.0,11.27019500732422,-0.34217363595962524,-1.4691929817199707
442,44400.0,7.747959613800049,-1.5720844268798828,-1.5864413976669312
443,44600.0,8.772088050842285,1.430907964706421,-2.038684844970703
444,44800.0,9.422935485839844,1.6007983684539795,-2.431107759475708
445,45000.0,9.422935485839844,1.6007983684539795,-2.431107759475708
446,45200.0,10.91127109527588,1.0600204467773438,-1.1892328262329102
447,45400.0,9.681360244750977,1.4931212663650513,0.4331009089946747
448,45600.0,8.752944946289062,1.8831514120101929,-0.4378865361213684
449,45800.0,10.001997947692873,2.093719720840454,-0.3254238963127136
450,45000.0,9.422935485839844,1.6007983684539795,-2.431107759475708
451,45200.0,10.91127109527588,1.0600204467773438,-1.1892328262329102
452,45400.0,9.681360244750977,1.4931212663650513,0.4331009089946747
453,45600.0,8.752944946289062,1.8831514120101929,-0.4378865361213684
454,45800.0,10.001997947692873,2.093719720840454,-0.3254238963127136
455,46000.0,10.045069694519043,0.10767702758312224,-0.7082754969596863
456,46200.0,10.045069694519043,0.10767702758312224,-0.7082754969596863
457,46400.0,8.700303077697754,-0.2153540551662445,-2.2133607864379883
458,46600.0,8.623733520507812,1.0504491329193115,-1.916650891304016
459,46800.0,8.877371788024902,1.6534404754638672,-2.7182462215423584
460,46000.0,10.045069694519043,0.10767702758312224,-0.7082754969596863
461,46200.0,10.045069694519043,0.10767702758312224,-0.7082754969596863
462,46400.0,8.700303077697754,-0.2153540551662445,-2.2133607864379883
463,46600.0,8.623733520507812,1.0504491329193115,-1.916650891304016
464,46800.0,8.877371788024902,1.6534404754638672,-2.7182462215423584
465,47000.0,12.59103298187256,3.1058835983276367,-1.8161523342132568
466,47200.0,9.67657470703125,1.1772687435150146,0.4426721632480621
467,47400.0,8.934800148010254,1.7467604875564575,0.2440679222345352
468,47600.0,8.934800148010254,1.7467604875564575,0.2440679222345352
469,47800.0,10.097711563110352,2.699103832244873,-1.2299107313156128
470,47000.0,12.59103298187256,3.1058835983276367,-1.8161523342132568
471,47200.0,9.67657470703125,1.1772687435150146,0.4426721632480621
472,47400.0,8.934800148010254,1.7467604875564575,0.2440679222345352
473,47600.0,8.934800148010254,1.7467604875564575,0.2440679222345352
474,47800.0,10.097711563110352,2.699103832244873,-1.2299107313156128
475,48000.0,10.805987358093262,2.768495798110962,-1.0863415002822876
476,48200.0,6.680760860443115,1.3304094076156616,-1.584048628807068
477,48400.0,8.00638484954834,1.215553879737854,-2.8594231605529785
478,48600.0,8.566305160522461,2.723031997680664,-2.8378877639770512
479,48800.0,8.432307243347168,2.0745770931243896,-3.2231321334838867
480,48000.0,10.805987358093262,2.768495798110962,-1.0863415002822876
481,48200.0,6.680760860443115,1.3304094076156616,-1.584048628807068
482,48400.0,8.00638484954834,1.215553879737854,-2.8594231605529785
483,48600.0,8.566305160522461,2.723031997680664,-2.8378877639770512
484,48800.0,8.432307243347168,2.0745770931243896,-3.2231321334838867
485,49000.0,14.294722557067873,3.6323046684265137,-1.6701902151107788
486,49200.0,8.255237579345701,2.050648927688598,-0.8925228118896484
487,49400.0,8.255237579345701,2.050648927688598,-0.8925228118896484
488,49600.0,8.810372352600098,2.756531953811645,-0.7082754969596863
489,49800.0,9.269794464111328,2.4813570976257324,-1.2562319040298462
490,49000.0,14.294722557067873,3.6323046684265137,-1.6701902151107788
491,49200.0,8.255237579345701,2.050648927688598,-0.8925228118896484
492,49400.0,8.255237579345701,2.050648927688598,-0.8925228118896484
493,49600.0,8.810372352600098,2.756531953811645,-0.7082754969596863
494,49800.0,9.269794464111328,2.4813570976257324,-1.2562319040298462
495,50000.0,9.839285850524902,1.5672988891601562,-1.6773687601089478
496,50200.0,7.700103282928468,0.10289137810468674,-1.6965112686157229
497,50400.0,7.479963302612305,2.857030153274536,-2.567498683929444
498,50600.0,10.427922248840332,3.924229145050049,-3.5126638412475586
499,50800.0,11.318050384521484,1.9501504898071291,-1.1700903177261353
500,50000.0,9.839285850524902,1.5672988891601562,-1.6773687601089478
501,50200.0,7.700103282928468,0.10289137810468674,-1.6965112686157229
502,50400.0,7.479963302612305,2.857030153274536,-2.567498683929444
503,50600.0,10.427922248840332,3.924229145050049,-3.5126638412475586
504,50800.0,11.318050384521484,1.9501504898071291,-1.1700903177261353
505,51000.0,11.318050384521484,1.9501504898071291,-1.1700903177261353
506,51200.0,8.350951194763184,1.5768700838088991,-0.30149564146995544
507,51400.0,9.824929237365724,2.423929214477539,-0.6005984544754028
508,51600.0,11.279767036437988,2.9527432918548584,-1.5792629718780518
509,51800.0,15.151352882385256,1.0719845294952393,-2.2612173557281494
510,51000.0,11.318050384521484,1.9501504898071291,-1.1700903177261353
511,51200.0,8.350951194763184,1.5768700838088991,-0.30149564146995544
512,51400.0,9.824929237365724,2.423929214477539,-0.6005984544754028
513,51600.0,11.279767036437988,2.9527432918548584,-1.5792629718780518
514,51800.0,15.151352882385256,1.0719845294952393,-2.2612173557281494
515,52000.0,9.66221809387207,1.5050854682922363,-2.232503652572632
516,52200.0,7.963313579559326,1.921436548233032,-3.0987055301666264
517,52400.0,7.499105930328369,2.51007080078125,-3.711267709732056
518,52600.0,10.86341381072998,1.3974084854125977,-1.4356936216354368
519,52800.0,10.86341381072998,1.3974084854125977,-1.4356936216354368
520,52000.0,9.66221809387207,1.5050854682922363,-2.232503652572632
521,52200.0,7.963313579559326,1.921436548233032,-3.0987055301666264
522,52400.0,7.499105930328369,2.51007080078125,-3.711267709732056
523,52600.0,10.86341381072998,1.3974084854125977,-1.4356936216354368
524,52800.0,10.86341381072998,1.3974084854125977,-1.4356936216354368
525,53000.0,9.609575271606444,1.584048628807068,-0.011964112520217896
526,53200.0,7.75753116607666,1.8161523342132568,0.21296121180057528
527,53400.0,9.116654396057127,2.395215511322021,-0.4642075896263122
528,53600.0,9.667003631591797,2.3066811561584477,0.01914258114993572
529,53800.0,8.303093910217285,1.8209381103515625,-1.6103696823120115
530,53000.0,9.609575271606444,1.584048628807068,-0.011964112520217896
531,53200.0,7.75753116607666,1.8161523342132568,0.21296121180057528
532,53400.0,9.116654396057127,2.395215511322021,-0.4642075896263122
533,53600.0,9.667003631591797,2.3066811561584477,0.01914258114993572
534,53800.0,8.303093910217285,1.8209381103515625,-1.6103696823120115
535,54000.0,7.63310432434082,1.6606187820434568,-1.6773687601089478
536,54200.0,8.695517539978027,1.5649060010910034,-2.3090739250183105
537,54400.0,10.753345489501953,0.9810572862625122,-1.550549030303955
538,54600.0,10.753345489501953,0.9810572862625122,-1.550549030303955
539,54800.0,9.547362327575684,-1.2538390159606934,0.2847459018230438
540,54000.0,7.63310432434082,1.6606187820434568,-1.6773687601089478
541,54200.0,8.695517539978027,1.5649060010910034,-2.3090739250183105
542,54400.0,10.753345489501953,0.9810572862625122,-1.550549030303955
543,54600.0,10.753345489501953,0.9810572862625122,-1.550549030303955
544,54800.0,9.547362327575684,-1.2538390159606934,0.2847459018230438
545,55000.0,7.963313579559326,1.2083754539489746,0.08853443711996077
546,55200.0,9.757929801940918,0.9619146585464478,0.8446664214134216
547,55400.0,10.26520824432373,1.9118653535842896,0.18185453116893768
548,55600.0,10.423135757446287,1.0552347898483276,-0.4809573292732239
549,55800.0,7.767102241516112,-0.0263210479170084,-1.7850456237792969
550,55000.0,7.963313579559326,1.2083754539489746,0.08853443711996077
551,55200.0,9.757929801940918,0.9619146585464478,0.8446664214134216
552,55400.0,10.26520824432373,1.9118653535842896,0.18185453116893768
553,55600.0,10.423135757446287,1.0552347898483276,-0.4809573292732239
554,55800.0,7.767102241516112,-0.0263210479170084,-1.7850456237792969
555,56000.0,9.600004196166992,1.495514154434204,-1.7252250909805298
556,56200.0,10.490135192871094,1.031306505203247,0.3684946894645691
557,56400.0,10.490135192871094,1.031306505203247,0.3684946894645691
558,56600.0,9.159724235534668,0.8805587291717529,0.014356935396790503
559,56800.0,9.284152030944824,1.1341978311538696,0.6101697683334351
560,56000.0,9.600004196166992,1.495514154434204,-1.7252250909805298
561,56200.0,10.490135192871094,1.031306505203247,0.3684946894645691
562,56400.0,10.490135192871094,1.031306505203247,0.3684946894645691
563,56600.0,9.159724235534668,0.8805587291717529,0.014356935396790503
564,56800.0,9.284152030944824,1.1341978311538696,0.6101697683334351
565,57000.0,10.949556350708008,2.297109842300415,-0.3038884699344635
566,57200.0,9.71485996246338,-0.5503491759300232,-2.2779672145843506
567,57400.0,7.317252159118652,0.3924228847026825,-2.3569302558898926
568,57600.0,7.317252159118652,0.3924228847026825,-2.3569302558898926
569,57800.0,7.8006019592285165,-2.6632115840911865,-1.8520447015762331
570,57000.0,10.949556350708008,2.297109842300415,-0.3038884699344635
571,57200.0,9.71485996246338,-0.5503491759300232,-2.2779672145843506
572,57400.0,7.317252159118652,0.3924228847026825,-2.3569302558898926
573,57600.0,7.317252159118652,0.3924228847026825,-2.3569302558898926
574,57800.0,7.8006019592285165,-2.6632115840911865,-1.8520447015762331
575,58000.0,9.7005033493042,2.1750757694244385,-3.28773832321167
576,58200.0,8.973085403442383,0.5790630578994751,-1.4907284975051882
577,58400.0,8.025527954101562,1.0121639966964722,0.39481574296951294
578,58600.0,9.82971477508545,2.132004976272583,-0.2919243574142456
579,58800.0,12.739388465881348,1.9932212829589844,-1.1676974296569824
580,58000.0,9.7005033493042,2.1750757694244385,-3.28773832321167
581,58200.0,8.973085403442383,0.5790630578994751,-1.4907284975051882
582,58400.0,8.025527954101562,1.0121639966964722,0.39481574296951294
583,58600.0,9.82971477508545,2.132004976272583,-0.2919243574142456
584,58800.0,12.739388465881348,1.9932212829589844,-1.1676974296569824
585,59000.0,7.456035614013673,0.3876372575759888,-1.5218352079391482
586,59200.0,7.058826446533202,1.1030912399291992,-1.8951154947280884
587,59400.0,7.058826446533202,1.1030912399291992,-1.8951154947280884
588,59600.0,8.772088050842285,2.2061824798583984,-2.900100946426392
589,59800.0,16.146766662597653,3.5605196952819824,-0.41156551241874695
0,0.0,1.7802598476409912,0.10767702758312224,-10.394421577453613
1,200.0,1.7802598476409912,0.10767702758312224,-10.394421577453613
2,400.0,1.8855443000793457,-1.0791629552841189,-8.317451477050781
3,600.0,2.053041696548462,-2.25403904914856,-9.253045082092283
4,800.0,0.7513462901115417,-2.974278450012207,-8.12123966217041
5,1000.0,2.148754596710205,0.2919243574142456,-6.817151546478272
6,1200.0,9.69093132019043,3.1274189949035645,-4.587040901184082
7,1400.0,12.40439224243164,4.661218643188477,-5.965306758880615
8,1600.0,7.446464061737059,0.13878372311592102,-0.6029912829399109
9,1800.0,7.446464061737059,0.13878372311592102,-0.6029912829399109
10,1000.0,2.148754596710205,0.2919243574142456,-6.817151546478272
11,1200.0,9.69093132019043,3.1274189949035645,-4.587040901184082
12,1400.0,12.40439224243164,4.661218643188477,-5.965306758880615
13,1600.0,7.446464061737059,0.13878372311592102,-0.6029912829399109
14,1800.0,7.446464061737059,0.13878372311592102,-0.6029912829399109
15,2000.0,8.030312538146973,-1.0456634759902954,-2.2875385284423833
16,2200.0,8.202595710754395,0.2105683833360672,-2.230110645294189
17,2400.0,11.054840087890623,0.3924228847026825,-2.8498516082763667
18,2600.0,10.341779708862305,0.20338992774486545,-0.41156551241874695
19,2800.0,8.882158279418945,0.8662018179893494,-2.2947168350219727
20,2000.0,8.030312538146973,-1.0456634759902954,-2.2875385284423833
21,2200.0,8.202595710754395,0.2105683833360672,-2.230110645294189
22,2400.0,11.054840087890623,0.3924228847026825,-2.8498516082763667
23,2600.0,10.341779708862305,0.20338992774486545,-0.41156551241874695
24,2800.0,8.882158279418945,0.8662018179893494,-2.2947168350219727
25,3000.0,8.269595146179201,1.5481561422348022,-3.0484561920166016
26,3200.0,8.269595146179201,1.5481561422348022,-3.0484561920166016
27,3400.0,8.70508861541748,1.4835500717163086,-3.2997026443481445
28,3600.0,11.964113235473633,0.6460621356964111,-4.232903003692627
29,3800.0,8.317451477050781,0.10289137810468674,-3.617947816848755
30,3000.0,8.269595146179201,1.5481561422348022,-3.0484561920166016
31,3200.0,8.269595146179201,1.5481561422348022,-3.0484561920166016
32,3400.0,8.70508861541748,1.4835500717163086,-3.2997026443481445
33,3600.0,11.964113235473633,0.6460621356964111,-4.232903003692627
34,3800.0,8.317451477050781,0.10289137810468674,-3.617947816848755
35,4000.0,7.47517728805542,-0.1866401582956314,-3.5581274032592773
36,4200.0,7.858029365539551,1.3710873126983645,-3.976871252059937
37,4400.0,8.95394229888916,1.6510475873947144,-4.845465660095215
38,4600.0,10.63370418548584,1.2083754539489746,-4.955535888671875
39,4800.0,10.63370418548584,1.2083754539489746,-4.955535888671875
40,4000.0,7.47517728805542,-0.1866401582956314,-3.5581274032592773
41,4200.0,7.858029365539551,1.3710873126983645,-3.976871252059937
42,4400.0,8.95394229888916,1.6510475873947144,-4.845465660095215
43,4600.0,10.63370418548584,1.2083754539489746,-4.955535888671875
44,4800.0,10.63370418548584,1.2083754539489746,-4.955535888671875
45,5000.0,10.494919776916504,0.9619146585464478,-1.4715858697891235
46,5200.0,9.030512809753418,1.497907042503357,-1.4644075632095337
47,5400.0,8.934800148010254,1.868794322013855,-1.761117458343506
48,5600.0,8.934800148010254,1.0169496536254885,-2.280359983444214
49,5800.0,9.475577354431152,1.37587308883667,-2.3784656524658203
50,5000.0,10.494919776916504,0.9619146585464478,-1.4715858697891235
51,5200.0,9.030512809753418,1.497907042503357,-1.4644075632095337
52,5400.0,8.934800148010254,1.868794322013855,-1.761117458343506
53,5600.0,8.934800148010254,1.0169496536254885,-2.280359983444214
54,5800.0,9.475577354431152,1.37587308883667,-2.3784656524658203
55,6000.0,11.11705493927002,1.191625714302063,-2.3545374870300293
56,6200.0,7.341179370880128,0.03589234128594398,-2.3712873458862305
57,6400.0,7.341179370880128,0.03589234128594398,-2.3712873458862305
58,6600.0,7.063612461090088,-0.6125625967979431,-3.76151704788208
59,6800.0,8.015955924987793,0.07657032459974289,-2.857030153274536
60,6000.0,11.11705493927002,1.191625714302063,-2.3545374870300293
61,6200.0,7.341179370880128,0.03589234128594398,-2.3712873458862305
62,6400.0,7.341179370880128,0.03589234128594398,-2.3712873458862305
63,6600.0,7.063612461090088,-0.6125625967979431,-3.76151704788208
64,6800.0,8.015955924987793,0.07657032459974289,-2.857030153274536
65,7000.0,8.451449394226074,0.2943171858787537,-4.170689582824707
66,7200.0,10.542776107788086,1.0815558433532717,-3.45045018196106
67,7400.0,9.21715259552002,1.2179466485977173,-1.6103696823120115
68,7600.0,7.020541667938232,0.8997013568878174,-0.8638089299201965
69,7800.0,9.595218658447266,2.8211379051208496,-1.093519926071167
70,7000.0,8.451449394226074,0.2943171858787537,-4.170689582824707
71,7200.0,10.542776107788086,1.0815558433532717,-3.45045018196106
72,7400.0,9.21715259552002,1.2179466485977173,-1.6103696823120115
73,7600.0,7.020541667938232,0.8997013568878174,-0.8638089299201965
74,7800.0,9.595218658447266,2.8211379051208496,-1.093519926071167
75,8000.0,8.95394229888916,3.0077781677246094,-1.5912269353866575
76,8200.0,9.255437850952148,2.627319574356079,-1.5050854682922363
77,8400.0,9.255437850952148,2.627319574356079,-1.5050854682922363
78,8600.0,13.99801254272461,0.2847459018230438,-1.3112668991088867
79,8800.0,7.867600917816162,-0.25842484831810003,-1.722832441329956
80,8000.0,8.95394229888916,3.0077781677246094,-1.5912269353866575
81,8200.0,9.255437850952148,2.627319574356079,-1.5050854682922363
82,8400.0,9.255437850952148,2.627319574356079,-1.5050854682922363
83,8600.0,13.99801254272461,0.2847459018230438,-1.3112668991088867
84,8800.0,7.867600917816162,-0.25842484831810003,-1.722832441329956
85,9000.0,8.666803359985353,0.3828516006469727,-2.3401806354522705
86,9200.0,8.915657043457031,0.3924228847026825,-3.3020951747894287
87,9400.0,9.279366493225098,0.031106693670153618,-2.8713872432708736
88,9600.0,9.62393283843994,0.784845769405365,-0.9308080077171326
89,9800.0,9.62393283843994,0.784845769405365,-0.9308080077171326
90,9000.0,8.666803359985353,0.3828516006469727,-2.3401806354522705
91,9200.0,8.915657043457031,0.3924228847026825,-3.3020951747894287
92,9400.0,9.279366493225098,0.031106693670153618,-2.8713872432708736
93,9600.0,9.62393283843994,0.784845769405365,-0.9308080077171326
94,9800.0,9.62393283843994,0.784845769405365,-0.9308080077171326
95,10000.0,7.982456684112549,0.4905286431312561,0.3134597539901733
96,10200.0,10.279565811157227,2.589033842086792,-1.4620146751403809
97,10400.0,9.63828945159912,1.739582061767578,-1.8831514120101929
98,10600.0,12.55274772644043,1.4739787578582764,-0.9786643981933594
99,10800.0,7.724031925201416,-0.12442677468061447,-1.4835500717163086
100,10000.0,7.982456684112549,0.4905286431312561,0.3134597539901733
101,10200.0,10.279565811157227,2.589033842086792,-1.4620146751403809
102,10400.0,9.63828945159912,1.739582061767578,-1.8831514120101929
103,10600.0,12.55274772644043,1.4739787578582764,-0.9786643981933594
104,10800.0,7.724031925201416,-0.12442677468061447,-1.4835500717163086
105,11000.0,7.968099594116211,0.014356935396790503,-2.675175428390503
106,11200.0,7.968099594116211,0.014356935396790503,-2.675175428390503
107,11400.0,8.216952323913574,0.9595218896865844,-3.263810157775879
108,11600.0,9.135796546936037,1.0743772983551023,-2.6392831802368164
109,11800.0,9.293723106384276,0.8111668825149536,-3.041277408599853
110,11000.0,7.968099594116211,0.014356935396790503,-2.675175428390503
111,11200.0,7.968099594116211,0.014356935396790503,-2.675175428390503
112,11400.0,8.216952323913574,0.9595218896865844,-3.263810157775879
113,11600.0,9.135796546936037,1.0743772983551023,-2.6392831802368164
114,11800.0,9.293723106384276,0.8111668825149536,-3.041277408599853
115,12000.0,10.461421012878418,0.9140582084655762,-0.8327022790908813
116,12200.0,8.920442581176758,1.3208380937576294,-0.5694918036460876
117,12400.0,9.98285675048828,2.493321180343628,-1.739582061767578
118,12600.0,9.98285675048828,2.493321180343628,-1.739582061767578
119,12800.0,9.91107177734375,2.2995026111602783,-1.514656662940979
120,12000.0,10.461421012878418,0.9140582084655762,-0.8327022790908813
121,12200.0,8.920442581176758,1.3208380937576294,-0.5694918036460876
122,12400.0,9.98285675048828,2.493321180343628,-1.739582061767578
123,12600.0,9.98285675048828,2.493321180343628,-1.739582061767578
124,12800.0,9.91107177734375,2.2995026111602783,-1.514656662940979
125,13000.0,10.260422706604004,2.0961124897003174,-2.352144718170166
126,13200.0,12.141182899475098,1.3998013734817505,-2.0458633899688716
127,13400.0,8.748159408569336,-0.7202396392822266,-2.3018953800201416
128,13600.0,7.604390144348144,1.361515998840332,-2.8929224014282227
129,13800.0,8.441878318786621,0.8997013568878174,-3.5270204544067383
130,13000.0,10.260422706604004,2.0961124897003174,-2.352144718170166
131,13200.0,12.141182899475098,1.3998013734817505,-2.0458633899688716
132,13400.0,8.748159408569336,-0.7202396392822266,-2.3018953800201416
133,13600.0,7.604390144348144,1.361515998840332,-2.8929224014282227
134,13800.0,8.441878318786621,0.8997013568878174,-3.5270204544067383
135,14000.0,8.441878318786621,0.8997013568878174,-3.5270204544067383
136,14200.0,10.054640769958496,0.8327022790908813,-3.8500516414642334
137,14400.0,9.98285675048828,-0.2273181527853012,1.3184452056884766
138,14600.0,7.872386455535889,0.9810572862625122,0.2632104754447937
139,14800.0,10.097711563110352,1.3184452056884766,0.5024927258491516
140,14000.0,8.441878318786621,0.8997013568878174,-3.5270204544067383
141,14200.0,10.054640769958496,0.8327022790908813,-3.8500516414642334
142,14400.0,9.98285675048828,-0.2273181527853012,1.3184452056884766
143,14600.0,7.872386455535889,0.9810572862625122,0.2632104754447937
144,14800.0,10.097711563110352,1.3184452056884766,0.5024927258491516
145,15000.0,9.824929237365724,1.5649060010910034,-0.09810572117567062
146,15200.0,6.9583282470703125,-0.34217363595962524,-1.4835500717163086
147,15400.0,8.518448829650879,-1.0145567655563354,-1.9046868085861208
148,15600.0,8.810372352600098,0.9858429431915284,-1.65583336353302
149,15800.0,8.810372352600098,0.9858429431915284,-1.65583336353302
150,15000.0,9.824929237365724,1.5649060010910034,-0.09810572117567062
151,15200.0,6.9583282470703125,-0.34217363595962524,-1.4835500717163086
152,15400.0,8.518448829650879,-1.0145567655563354,-1.9046868085861208
153,15600.0,8.810372352600098,0.9858429431915284,-1.65583336353302
154,15800.0,8.810372352600098,0.9858429431915284,-1.65583336353302
155,16000.0,10.403992652893066,1.5314064025878906,-0.1746760606765747
156,16200.0,9.207581520080566,-0.6699903011322021,1.043270707130432
157,16400.0,9.96371364593506,0.5168496966362001,0.4785645008087158
158,16600.0,9.499505043029783,2.057827472686768,-0.01914258114993572
159,16800.0,10.887343406677246,1.146162033081055,-1.3328022956848145
160,16000.0,10.403992652893066,1.5314064025878906,-0.1746760606765747
161,16200.0,9.207581520080566,-0.6699903011322021,1.043270707130432
162,16400.0,9.96371364593506,0.5168496966362001,0.4785645008087158
163,16600.0,9.499505043029783,2.057827472686768,-0.01914258114993572
164,16800.0,10.887343406677246,1.146162033081055,-1.3328022956848145
165,17000.0,10.590633392333984,0.4666004180908203,-1.4835500717163086
166,17200.0,10.169495582580566,-2.0243279933929443,-1.2610174417495728
167,17400.0,7.987241268157959,0.3661018908023834,-3.1250264644622803
168,17600.0,7.987241268157959,0.3661018908023834,-3.1250264644622803
169,17800.0,7.369894027709961,-0.1459621787071228,-2.65842604637146
170,17000.0,10.590633392333984,0.4666004180908203,-1.4835500717163086
171,17200.0,10.169495582580566,-2.0243279933929443,-1.2610174417495728
172,17400.0,7.987241268157959,0.3661018908023834,-3.1250264644622803
173,17600.0,7.987241268157959,0.3661018908023834,-3.1250264644622803
174,17800.0,7.369894027709961,-0.1459621787071228,-2.65842604637146
175,18000.0,9.437292098999023,0.3828516006469727,-3.996013641357422
176,18200.0,12.212966918945312,1.5744771957397459,-2.756531953811645
177,18400.0,10.987841606140137,2.368894338607788,-0.08853443711996077
178,18600.0,7.149754047393799,1.0241280794143677,0.14117653667926788
179,18800.0,9.293723106384276,2.6153552532196045,0.06460621207952501
180,18000.0,9.437292098999023,0.3828516006469727,-3.996013641357422
181,18200.0,12.212966918945312,1.5744771957397459,-2.756531953811645
182,18400.0,10.987841606140137,2.368894338607788,-0.08853443711996077
183,18600.0,7.149754047393799,1.0241280794143677,0.14117653667926788
184,18800.0,9.293723106384276,2.6153552532196045,0.06460621207952501
185,19000.0,9.293723106384276,2.6153552532196045,0.06460621207952501
186,19200.0,10.52363395690918,1.938186287879944,-1.643869161605835
187,19400.0,10.02592658996582,1.411765456199646,-1.34476637840271
188,19600.0,9.55214786529541,0.3349951505661011,-2.1343977451324463
189,19800.0,8.260024070739746,-1.2610174417495728,-2.2157537937164307
190,19000.0,9.293723106384276,2.6153552532196045,0.06460621207952501
191,19200.0,10.52363395690918,1.938186287879944,-1.643869161605835
192,19400.0,10.02592658996582,1.411765456199646,-1.34476637840271
193,19600.0,9.55214786529541,0.3349951505661011,-2.1343977451324463
194,19800.0,8.260024070739746,-1.2610174417495728,-2.2157537937164307
195,20000.0,8.336593627929688,0.1579262912273407,-2.7804601192474365
196,20200.0,8.23130989074707,-0.2392822504043579,-3.469593048095703
197,20400.0,7.963313579559326,-0.4785645008087158,-2.2085752487182617
198,20600.0,7.963313579559326,-0.4785645008087158,-2.2085752487182617
199,20800.0,13.758729934692385,1.56969153881073,-1.7682960033416748
200,20000.0,8.336593627929688,0.1579262912273407,-2.7804601192474365
201,20200.0,8.23130989074707,-0.2392822504043579,-3.469593048095703
202,20400.0,7.963313579559326,-0.4785645008087158,-2.2085752487182617
203,20600.0,7.963313579559326,-0.4785645008087158,-2.2085752487182617
204,20800.0,13.758729934692385,1.56969153881073,-1.7682960033416748
205,21000.0,9.494720458984377,1.0887343883514404,0.05024927482008934
206,21200.0,8.499305725097656,1.2681961059570312,0.2153540551662445
207,21400.0,9.293723106384276,1.155733346939087,-0.4929214715957642
208,21600.0,10.53799057006836,1.2993026971817017,-0.8853443264961243
209,21800.0,7.231109619140625,0.2703889608383179,-1.3591231107711792
210,21000.0,9.494720458984377,1.0887343883514404,0.05024927482008934
211,21200.0,8.499305725097656,1.2681961059570312,0.2153540551662445
212,21400.0,9.293723106384276,1.155733346939087,-0.4929214715957642
213,21600.0,10.53799057006836,1.2993026971817017,-0.8853443264961243
214,21800.0,7.231109619140625,0.2703889608383179,-1.3591231107711792
215,22000.0,7.307680606842041,-0.8733802437782288,-2.280359983444214
216,22200.0,7.307680606842041,-0.8733802437782288,-2.280359983444214
217,22400.0,8.571090698242188,0.6699903011322021,-2.462214469909668
218,22600.0,8.82951545715332,0.7250252366065979,-3.2853453159332275
219,22800.0,9.734003067016602,1.2753744125366209,-2.4430718421936035
220,22000.0,7.307680606842041,-0.8733802437782288,-2.280359983444214
221,22200.0,7.307680606842041,-0.8733802437782288,-2.280359983444214
222,22400.0,8.571090698242188,0.6699903011322021,-2.462214469909668
223,22600.0,8.82951545715332,0.7250252366065979,-3.2853453159332275
224,22800.0,9.734003067016602,1.2753744125366209,-2.4430718421936035
225,23000.0,10.322636604309082,0.8374879360198975,-1.940579175949097
226,23200.0,7.8245296478271475,1.34476637840271,0.1746760606765747
227,23400.0,9.868000030517578,1.3399806022644043,-0.2105683833360672
228,23600.0,9.868000030517578,1.3399806022644043,-0.2105683833360672
229,23800.0,10.121639251708984,2.311466693878174,-0.9236294627189636
230,23000.0,10.322636604309082,0.8374879360198975,-1.940579175949097
231,23200.0,7.8245296478271475,1.34476637840271,0.1746760606765747
232,23400.0,9.868000030517578,1.3399806022644043,-0.2105683833360672
233,23600.0,9.868000030517578,1.3399806022644043,-0.2105683833360672
234,23800.0,10.121639251708984,2.311466693878174,-0.9236294627189636
235,24000.0,11.150553703308104,0.7920243144035339,-0.8135597109794617
236,24200.0,7.680960178375244,-0.4354937374591827,-1.0719845294952393
237,24400.0,7.9728851318359375,-1.129412293434143,-2.4646072387695312
238,24600.0,8.303093910217285,0.6532405614852905,-2.9072794914245605
239,24800.0,8.475377082824707,0.5168496966362001,-3.328416109085083
240,24000.0,11.150553703308104,0.7920243144035339,-0.8135597109794617
241,24200.0,7.680960178375244,-0.4354937374591827,-1.0719845294952393
242,24400.0,7.9728851318359375,-1.129412293434143,-2.4646072387695312
243,24600.0,8.303093910217285,0.6532405614852905,-2.9072794914245605
244,24800.0,8.475377082824707,0.5168496966362001,-3.328416109085083
245,25000.0,8.475377082824707,0.5168496966362001,-3.328416109085083
246,25200.0,10.164710998535156,1.6175479888916016,-2.7326035499572754
247,25400.0,12.75853157043457,1.4476575851440432,-2.486142873764038
248,25600.0,9.901500701904297,1.7706886529922483,-0.729810893535614
249,25800.0,7.47517728805542,1.4069796800613403,-0.17946170270442965
250,25000.0,8.475377082824707,0.5168496966362001,-3.328416109085083
251,25200.0,10.164710998535156,1.6175479888916016,-2.7326035499572754
252,25400.0,12.75853157043457,1.4476575851440432,-2.486142873764038
253,25600.0,9.901500701904297,1.7706886529922483,-0.729810893535614
254,25800.0,7.47517728805542,1.4069796800613403,-0.17946170270442965
255,26000.0,8.709875106811522,2.1367905139923096,-1.7635102272033691
256,26200.0,14.677574157714846,0.7369893789291382,-1.727617859840393
257,26400.0,14.677574157714846,0.7369893789291382,-1.727617859840393
258,26600.0,8.786444664001465,0.7704889178276062,-1.710868239402771
259,26800.0,8.188239097595215,1.2490534782409668,-2.4670000076293945
260,26000.0,8.709875106811522,2.1367905139923096,-1.7635102272033691
261,26200.0,14.677574157714846,0.7369893789291382,-1.727617859840393
262,26400.0,14.677574157714846,0.7369893789291382,-1.727617859840393
263,26600.0,8.786444664001465,0.7704889178276062,-1.710868239402771
264,26800.0,8.188239097595215,1.2490534782409668,-2.4670000076293945
265,27000.0,8.451449394226074,0.4450649619102478,-4.0462632179260245
266,27200.0,14.079368591308596,1.526620864868164,-2.1750757694244385
267,27400.0,8.738588333129883,1.782652735710144,-0.5000999569892883
268,27600.0,9.542576789855957,2.258824586868286,0.04307081177830696
269,27800.0,9.542576789855957,2.258824586868286,0.04307081177830696
270,27000.0,8.451449394226074,0.4450649619102478,-4.0462632179260245
271,27200.0,14.079368591308596,1.526620864868164,-2.1750757694244385
272,27400.0,8.738588333129883,1.782652735710144,-0.5000999569892883
273,27600.0,9.542576789855957,2.258824586868286,0.04307081177830696
274,27800.0,9.542576789855957,2.258824586868286,0.04307081177830696
275,28000.0,9.63828945159912,1.3950155973434448,-2.1918253898620605
276,28200.0,13.548161506652832,0.42831525206565857,-2.359323024749756
277,28400.0,7.503891944885254,0.016749758273363113,-2.1272192001342773
278,28600.0,8.408378601074219,1.0001999139785769,-3.421736478805542
279,28800.0,8.035098075866701,1.062413215637207,-4.8813581466674805
280,28000.0,9.63828945159912,1.3950155973434448,-2.1918253898620605
281,28200.0,13.548161506652832,0.42831525206565857,-2.359323024749756
282,28400.0,7.503891944885254,0.016749758273363113,-2.1272192001342773
283,28600.0,8.408378601074219,1.0001999139785769,-3.421736478805542
284,28800.0,8.035098075866701,1.062413215637207,-4.8813581466674805
285,29000.0,8.95394229888916,-0.3397807776927948,-3.1585259437561035
286,29200.0,8.95394229888916,-0.3397807776927948,-3.1585259437561035
287,29400.0,9.035298347473145,-1.1988041400909424,-1.2634103298187256
288,29600.0,7.9106712341308585,0.5455635190010071,-0.6269195079803467
289,29800.0,9.38943576812744,1.380658507347107,-0.7010970115661621
290,29000.0,8.95394229888916,-0.3397807776927948,-3.1585259437561035
291,29200.0,8.95394229888916,-0.3397807776927948,-3.1585259437561035
292,29400.0,9.035298347473145,-1.1988041400909424,-1.2634103298187256
293,29600.0,7.9106712341308585,0.5455635190010071,-0.6269195079803467
294,29800.0,9.38943576812744,1.380658507347107,-0.7010970115661621
295,30000.0,10.279565811157227,2.651247262954712,-0.3445664942264557
296,30200.0,9.571290969848633,1.3471590280532837,-1.4213367700576782
297,30400.0,8.169095993041992,-1.4452648162841797,-0.36370906233787537
298,30600.0,10.983055114746094,1.940579175949097,-0.9523434042930604
299,30800.0,10.983055114746094,1.940579175949097,-0.9523434042930604
300,30000.0,10.279565811157227,2.651247262954712,-0.3445664942264557
301,30200.0,9.571290969848633,1.3471590280532837,-1.4213367700576782
302,30400.0,8.169095993041992,-1.4452648162841797,-0.36370906233787537
303,30600.0,10.983055114746094,1.940579175949097,-0.9523434042930604
304,30800.0,10.983055114746094,1.940579175949097,-0.9523434042930604
305,31000.0,9.791430473327637,1.146162033081055,1.4691929817199707
306,31200.0,9.528220176696776,1.057627558708191,0.27278175950050354
307,31400.0,10.700701713562012,1.954936146736145,-0.6915256977081299
308,31600.0,13.24666690826416,1.6893328428268433,-2.227717876434326
309,31800.0,8.805586814880371,-2.335394859313965,0.1459621787071228
310,31000.0,9.791430473327637,1.146162033081055,1.4691929817199707
311,31200.0,9.528220176696776,1.057627558708191,0.27278175950050354
312,31400.0,10.700701713562012,1.954936146736145,-0.6915256977081299
313,31600.0,13.24666690826416,1.6893328428268433,-2.227717876434326
314,31800.0,8.805586814880371,-2.335394859313965,0.1459621787071228
315,32000.0,8.805586814880371,-2.335394859313965,0.1459621787071228
316,32200.0,8.087740898132324,1.4021940231323242,-2.2396819591522217
317,32400.0,9.346364974975586,2.2923240661621094,-4.0390844345092765
318,32600.0,9.609575271606444,1.3160523176193235,-2.3018953800201416
319,32800.0,9.274580955505373,1.794616937637329,-1.6654045581817627
320,32000.0,8.805586814880371,-2.335394859313965,0.1459621787071228
321,32200.0,8.087740898132324,1.4021940231323242,-2.2396819591522217
322,32400.0,9.346364974975586,2.2923240661621094,-4.0390844345092765
323,32600.0,9.609575271606444,1.3160523176193235,-2.3018953800201416
324,32800.0,9.274580955505373,1.794616937637329,-1.6654045581817627
325,33000.0,7.135397434234619,0.7968099117279053,-0.055034920573234565
326,33200.0,8.748159408569336,1.4165509939193726,-0.7250252366065979
327,33400.0,8.748159408569336,1.4165509939193726,-0.7250252366065979
328,33600.0,15.553346633911133,2.6153552532196045,-0.6484549045562744
329,33800.0,8.10688304901123,0.9140582084655762,-1.2969098091125488
330,33000.0,7.135397434234619,0.7968099117279053,-0.055034920573234565
331,33200.0,8.748159408569336,1.4165509939193726,-0.7250252366065979
332,33400.0,8.748159408569336,1.4165509939193726,-0.7250252366065979
333,33600.0,15.553346633911133,2.6153552532196045,-0.6484549045562744
334,33800.0,8.10688304901123,0.9140582084655762,-1.2969098091125488
335,34000.0,8.370094299316406,0.8877372145652771,-2.146361827850342
336,34200.0,8.48016357421875,1.0959126949310305,-2.7828526496887207
337,34400.0,12.825529098510742,1.5050854682922363,-0.6508477926254272
338,34600.0,9.896714210510254,2.567498683929444,0.5766702890396118
339,34800.0,9.265008926391602,2.234896183013916,1.062413215637207
340,34000.0,8.370094299316406,0.8877372145652771,-2.146361827850342
341,34200.0,8.48016357421875,1.0959126949310305,-2.7828526496887207
342,34400.0,12.825529098510742,1.5050854682922363,-0.6508477926254272
343,34600.0,9.896714210510254,2.567498683929444,0.5766702890396118
344,34800.0,9.265008926391602,2.234896183013916,1.062413215637207
345,35000.0,9.265008926391602,2.234896183013916,1.062413215637207
346,35200.0,8.671588897705076,1.146162033081055,0.6484549045562744
347,35400.0,9.011369705200195,3.0963122844696045,-0.3900300860404968
348,35600.0,10.212566375732422,2.3234307765960693,0.12442677468061447
349,35800.0,7.15932559967041,-0.7968099117279053,-0.5144568681716919
350,35000.0,9.265008926391602,2.234896183013916,1.062413215637207
351,35200.0,8.671588897705076,1.146162033081055,0.6484549045562744
352,35400.0,9.011369705200195,3.0963122844696045,-0.3900300860404968
353,35600.0,10.212566375732422,2.3234307765960693,0.12442677468061447
354,35800.0,7.15932559967041,-0.7968099117279053,-0.5144568681716919
355,36000.0,8.260024070739746,0.12442677468061447,-2.579463005065918
356,36200.0,7.570890426635742,0.18903298676013947,-2.3784656524658203
357,36400.0,8.61894702911377,1.00259268283844,-4.977071285247803
358,36600.0,8.61894702911377,1.00259268283844,-4.977071285247803
359,36800.0,12.753745079040527,0.97148597240448,-1.1365907192230225
360,36000.0,8.260024070739746,0.12442677468061447,-2.579463005065918
361,36200.0,7.570890426635742,0.18903298676013947,-2.3784656524658203
362,36400.0,8.61894702911377,1.00259268283844,-4.977071285247803
363,36600.0,8.61894702911377,1.00259268283844,-4.977071285247803
364,36800.0,12.753745079040527,0.97148597240448,-1.1365907192230225
365,37000.0,7.623533248901367,0.2967100143432617,-0.4809573292732239
366,37200.0,9.958927154541016,1.8831514120101929,-0.8566305041313171
367,37400.0,11.523834228515625,3.156132936477661,-1.8664016723632808
368,37600.0,12.825529098510742,0.18424734473228452,-2.1942183971405034
369,37800.0,6.886543273925781,0.11485548317432405,-1.7371891736984253
370,37000.0,7.623533248901367,0.2967100143432617,-0.4809573292732239
371,37200.0,9.958927154541016,1.8831514120101929,-0.8566305041313171
372,37400.0,11.523834228515625,3.156132936477661,-1.8664016723632808
373,37600.0,12.825529098510742,0.18424734473228452,-2.1942183971405034
374,37800.0,6.886543273925781,0.11485548317432405,-1.7371891736984253
375,38000.0,6.886543273925781,0.11485548317432405,-1.7371891736984253
376,38200.0,7.700103282928468,1.4835500717163086,-3.4672000408172607
377,38400.0,9.671788215637207,1.5314064025878906,-2.9623143672943115
378,38600.0,8.059026718139647,1.4165509939193726,-1.5457634925842283
379,38800.0,8.623733520507812,1.5936198234558103,-0.1052841916680336
380,38000.0,6.886543273925781,0.11485548317432405,-1.7371891736984253
381,38200.0,7.700103282928468,1.4835500717163086,-3.4672000408172607
382,38400.0,9.671788215637207,1.5314064025878906,-2.9623143672943115
383,38600.0,8.059026718139647,1.4165509939193726,-1.5457634925842283
384,38800.0,8.623733520507812,1.5936198234558103,-0.1052841916680336
385,39000.0,9.619147300720217,2.232503652572632,0.5742774605751038
386,39200.0,9.906286239624023,2.031506299972534,0.06699903309345245
387,39400.0,11.088340759277344,2.739781856536865,-1.1102697849273682
388,39600.0,11.088340759277344,2.739781856536865,-1.1102697849273682
389,39800.0,7.432106971740723,-0.6436693072319031,-1.5912269353866575
390,39000.0,9.619147300720217,2.232503652572632,0.5742774605751038
391,39200.0,9.906286239624023,2.031506299972534,0.06699903309345245
392,39400.0,11.088340759277344,2.739781856536865,-1.1102697849273682
393,39600.0,11.088340759277344,2.739781856536865,-1.1102697849273682
394,39800.0,7.432106971740723,-0.6436693072319031,-1.5912269353866575
395,40000.0,6.685546875,0.6699903011322021,-3.036492109298706
396,40200.0,7.858029365539551,0.17706887423992154,-3.177668571472168
397,40400.0,10.202995300292967,3.3379876613616943,-4.1563329696655265
398,40600.0,11.705689430236815,2.648854732513428,-1.588834285736084
399,40800.0,7.264609336853027,1.3280165195465088,0.8949156999588013
400,40000.0,6.685546875,0.6699903011322021,-3.036492109298706
401,40200.0,7.858029365539551,0.17706887423992154,-3.177668571472168
402,40400.0,10.202995300292967,3.3379876613616943,-4.1563329696655265
403,40600.0,11.705689430236815,2.648854732513428,-1.588834285736084
404,40800.0,7.264609336853027,1.3280165195465088,0.8949156999588013
405,41000.0,8.834300994873047,2.868994235992432,-1.0289137363433838
406,41200.0,8.834300994873047,2.868994235992432,-1.0289137363433838
407,41400.0,14.95992660522461,1.6773687601089478,-1.0791629552841189
408,41600.0,7.925028324127197,-0.002392822643741965,-1.4452648162841797
409,41800.0,8.709875106811522,0.5575276613235474,-2.2133607864379883
410,41000.0,8.834300994873047,2.868994235992432,-1.0289137363433838
411,41200.0,8.834300994873047,2.868994235992432,-1.0289137363433838
412,41400.0,14.95992660522461,1.6773687601089478,-1.0791629552841189
413,41600.0,7.925028324127197,-0.002392822643741965,-1.4452648162841797
414,41800.0,8.709875106811522,0.5575276613235474,-2.2133607864379883
415,42000.0,8.647661209106445,0.4546363055706024,-3.507878065109253
416,42200.0,11.212766647338867,-1.3830513954162598,-1.2801601886749268
417,42400.0,9.020941734313963,-0.09571290016174316,-0.2416750937700272
418,42600.0,7.393822193145753,-0.3110669553279877,1.2825528383255005
419,42800.0,9.370293617248537,0.5431707501411438,0.1866401582956314
420,42000.0,8.647661209106445,0.4546363055706024,-3.507878065109253
421,42200.0,11.212766647338867,-1.3830513954162598,-1.2801601886749268
422,42400.0,9.020941734313963,-0.09571290016174316,-0.2416750937700272
423,42600.0,7.393822193145753,-0.3110669553279877,1.2825528383255005
424,42800.0,9.370293617248537,0.5431707501411438,0.1866401582956314
425,43000.0,8.513663291931152,1.2059825658798218,0.04785645008087158
426,43200.0,9.030512809753418,-0.9834501147270204,-2.617748022079468
427,43400.0,9.030512809753418,-0.9834501147270204,-2.617748022079468
428,43600.0,8.413164138793945,0.552742063999176,-0.4785645008087158
429,43800.0,12.509675979614258,1.2538390159606934,-1.8759729862213133
430,43000.0,8.513663291931152,1.2059825658798218,0.04785645008087158
431,43200.0,9.030512809753418,-0.9834501147270204,-2.617748022079468
432,43400.0,9.030512809753418,-0.9834501147270204,-2.617748022079468
433,43600.0,8.413164138793945,0.552742063999176,-0.4785645008087158
434,43800.0,12.509675979614258,1.2538390159606934,-1.8759729862213133
435,44000.0,9.896714210510254,-0.08374878764152527,-0.002392822643741965
436,44200.0,10.164710998535156,1.6342979669570925,1.3304094076156616
437,44400.0,10.82034397125244,1.9908283948898315,0.5144568681716919
438,44600.0,14.76850128173828,0.7704889178276062,-0.5623133182525635
439,44800.0,7.604390144348144,-1.5074783563613892,-1.8281164169311523
440,44000.0,9.896714210510254,-0.08374878764152527,-0.002392822643741965
441,44200.0,10.164710998535156,1.6342979669570925,1.3304094076156616
442,44400.0,10.82034397125244,1.9908283948898315,0.5144568681716919
443,44600.0,14.76850128173828,0.7704889178276062,-0.5623133182525635
444,44800.0,7.604390144348144,-1.5074783563613892,-1.8281164169311523
445,45000.0,9.55214786529541,-0.07178468257188797,-3.0221347808837886
446,45200.0,9.55214786529541,-0.07178468257188797,-3.0221347808837886
447,45400.0,8.762516975402832,2.244467735290528,-2.8666017055511475
448,45600.0,10.394421577453613,-0.05982056260108948,-1.8400806188583372
449,45800.0,8.499305725097656,0.3708875179290772,-0.07896314561367035
450,45000.0,9.55214786529541,-0.07178468257188797,-3.0221347808837886
451,45200.0,9.55214786529541,-0.07178468257188797,-3.0221347808837886
452,45400.0,8.762516975402832,2.244467735290528,-2.8666017055511475
453,45600.0,10.394421577453613,-0.05982056260108948,-1.8400806188583372
454,45800.0,8.499305725097656,0.3708875179290772,-0.07896314561367035
455,46000.0,9.8871431350708,2.933600425720215,0.42831525206565857
456,46200.0,10.394421577453613,1.4452648162841797,-0.48574298620224
457,46400.0,11.24626636505127,0.8757730722427368,-1.7874385118484497
458,46600.0,11.24626636505127,0.8757730722427368,-1.7874385118484497
459,46800.0,7.867600917816162,1.244267821311951,-1.057627558708191
460,46000.0,9.8871431350708,2.933600425720215,0.42831525206565857
461,46200.0,10.394421577453613,1.4452648162841797,-0.48574298620224
462,46400.0,11.24626636505127,0.8757730722427368,-1.7874385118484497
463,46600.0,11.24626636505127,0.8757730722427368,-1.7874385118484497
464,46800.0,7.867600917816162,1.244267821311951,-1.057627558708191
465,47000.0,7.034898281097412,0.016749758273363113,-2.4981069564819336
466,47200.0,7.786244869232178,0.5120640397071838,-3.541377305984497
467,47400.0,8.628519058227539,1.325623631477356,-3.589233875274658
468,47600.0,10.403992652893066,1.6965112686157229,-1.3184452056884766
469,47800.0,7.676175117492676,2.4574286937713623,1.1198409795761108
470,47000.0,7.034898281097412,0.016749758273363113,-2.4981069564819336
471,47200.0,7.786244869232178,0.5120640397071838,-3.541377305984497
472,47400.0,8.628519058227539,1.325623631477356,-3.589233875274658
473,47600.0,10.403992652893066,1.6965112686157229,-1.3184452056884766
474,47800.0,7.676175117492676,2.4574286937713623,1.1198409795761108
475,48000.0,7.676175117492676,2.4574286937713623,1.1198409795761108
476,48200.0,9.8871431350708,2.0889341831207275,-0.5766702890396118
477,48400.0,9.681360244750977,1.998006820678711,-1.8305093050003047
478,48600.0,10.389636039733887,2.2133607864379883,-1.22033953666687
479,48800.0,8.781659126281737,0.7322037816047668,-1.6319050788879397
480,48000.0,7.676175117492676,2.4574286937713623,1.1198409795761108
481,48200.0,9.8871431350708,2.0889341831207275,-0.5766702890396118
482,48400.0,9.681360244750977,1.998006820678711,-1.8305093050003047
483,48600.0,10.389636039733887,2.2133607864379883,-1.22033953666687
484,48800.0,8.781659126281737,0.7322037816047668,-1.6319050788879397
485,49000.0,6.905685901641847,0.5455635190010071,-2.1750757694244385
486,49200.0,7.599604606628418,0.6843472719192505,-3.1130621433258057
487,49400.0,7.599604606628418,0.6843472719192505,-3.1130621433258057
488,49600.0,9.600004196166992,1.4787644147872925,-3.1250264644622803
489,49800.0,12.284751892089846,2.0410776138305664,-3.089133977890014
490,49000.0,6.905685901641847,0.5455635190010071,-2.1750757694244385
491,49200.0,7.599604606628418,0.6843472719192505,-3.1130621433258057
492,49400.0,7.599604606628418,0.6843472719192505,-3.1130621433258057
493,49600.0,9.600004196166992,1.4787644147872925,-3.1250264644622803
494,49800.0,12.284751892089846,2.0410776138305664,-3.089133977890014
495,50000.0,9.097511291503906,1.6127625703811646,0.3110669553279877
496,50200.0,10.04985523223877,1.7874385118484497,-0.02153540588915348
497,50400.0,8.255237579345701,-1.0145567655563354,-1.983649969100952
498,50600.0,11.815757751464846,1.3399806022644043,-1.1676974296569824
499,50800.0,9.279366493225098,0.6915256977081299,-1.8975083827972408
500,50000.0,9.097511291503906,1.6127625703811646,0.3110669553279877
501,50200.0,10.04985523223877,1.7874385118484497,-0.02153540588915348
502,50400.0,8.255237579345701,-1.0145567655563354,-1.983649969100952
503,50600.0,11.815757751464846,1.3399806022644043,-1.1676974296569824
504,50800.0,9.279366493225098,0.6915256977081299,-1.8975083827972408
505,51000.0,9.279366493225098,0.6915256977081299,-1.8975083827972408
506,51200.0,6.489335060119629,0.3445664942264557,-2.4574286937713623
507,51400.0,7.5661048889160165,1.6079767942428589,-2.7972097396850586
508,51600.0,11.2366943359375,2.7948169708251958,-3.9218363761901855
509,51800.0,10.73420238494873,0.21296121180057528,-0.4570291042327881
510,51000.0,9.279366493225098,0.6915256977081299,-1.8975083827972408
511,51200.0,6.489335060119629,0.3445664942264557,-2.4574286937713623
512,51400.0,7.5661048889160165,1.6079767942428589,-2.7972097396850586
513,51600.0,11.2366943359375,2.7948169708251958,-3.9218363761901855
514,51800.0,10.73420238494873,0.21296121180057528,-0.4570291042327881
515,52000.0,7.255037784576416,1.88075852394104,0.17228324711322784
516,52200.0,9.571290969848633,2.3569302558898926,0.19142580032348636
517,52400.0,10.356135368347168,2.933600425720215,-1.4548362493515017
518,52600.0,10.356135368347168,2.933600425720215,-1.4548362493515017
519,52800.0,12.624531745910645,-0.21296121180057528,-0.7489535212516785
520,52000.0,7.255037784576416,1.88075852394104,0.17228324711322784
521,52200.0,9.571290969848633,2.3569302558898926,0.19142580032348636
522,52400.0,10.356135368347168,2.933600425720215,-1.4548362493515017
523,52600.0,10.356135368347168,2.933600425720215,-1.4548362493515017
524,52800.0,12.624531745910645,-0.21296121180057528,-0.7489535212516785
525,53000.0,7.22153902053833,0.1986042857170105,-3.3858442306518555
526,53200.0,8.61894702911377,0.1938186287879944,-2.919243574142456
527,53400.0,8.963513374328613,0.8303093910217285,-4.584648132324219
528,53600.0,9.025726318359377,0.09810572117567062,-2.763710021972656
529,53800.0,12.284751892089846,1.1772687435150146,-1.7036896944046018
530,53000.0,7.22153902053833,0.1986042857170105,-3.3858442306518555
531,53200.0,8.61894702911377,0.1938186287879944,-2.919243574142456
532,53400.0,8.963513374328613,0.8303093910217285,-4.584648132324219
533,53600.0,9.025726318359377,0.09810572117567062,-2.763710021972656
534,53800.0,12.284751892089846,1.1772687435150146,-1.7036896944046018
535,54000.0,9.542576789855957,-1.4213367700576782,-3.1489543914794917
536,54200.0,8.910871505737305,1.9525433778762815,-0.7776673436164856
537,54400.0,8.910871505737305,1.9525433778762815,-0.7776673436164856
538,54600.0,9.63828945159912,0.861416220664978,-1.7371891736984253
539,54800.0,16.409976959228516,0.4570291042327881,-0.16749757528305054
540,54000.0,9.542576789855957,-1.4213367700576782,-3.1489543914794917
541,54200.0,8.910871505737305,1.9525433778762815,-0.7776673436164856
542,54400.0,8.910871505737305,1.9525433778762815,-0.7776673436164856
543,54600.0,9.63828945159912,0.861416220664978,-1.7371891736984253
544,54800.0,16.409976959228516,0.4570291042327881,-0.16749757528305054
545,55000.0,6.647261142730713,0.21774686872959134,-0.8087739944458008
546,55200.0,8.585447311401367,-1.1150553226470947,-3.06999135017395
547,55400.0,10.815558433532717,0.5670989155769348,-3.31166672706604
548,55600.0,9.073582649230957,-0.7441678047180176,-0.2751745879650116
549,55800.0,6.632904052734375,-0.14835500717163086,0.30149564146995544
550,55000.0,6.647261142730713,0.21774686872959134,-0.8087739944458008
551,55200.0,8.585447311401367,-1.1150553226470947,-3.06999135017395
552,55400.0,10.815558433532717,0.5670989155769348,-3.31166672706604
553,55600.0,9.073582649230957,-0.7441678047180176,-0.2751745879650116
554,55800.0,6.632904052734375,-0.14835500717163086,0.30149564146995544
555,56000.0,6.632904052734375,-0.14835500717163086,0.30149564146995544
556,56200.0,9.470791816711426,0.7680960297584534,-1.2323036193847656
557,56400.0,9.724431037902832,0.9451649785041808,-1.361515998840332
558,56600.0,8.365307807922362,-0.5910272002220154,-2.6057839393615723
559,56800.0,8.752944946289062,-0.12442677468061447,-1.8257235288619995
560,56000.0,6.632904052734375,-0.14835500717163086,0.30149564146995544
561,56200.0,9.470791816711426,0.7680960297584534,-1.2323036193847656
562,56400.0,9.724431037902832,0.9451649785041808,-1.361515998840332
563,56600.0,8.365307807922362,-0.5910272002220154,-2.6057839393615723
564,56800.0,8.752944946289062,-0.12442677468061447,-1.8257235288619995
565,57000.0,10.274779319763184,0.818345308303833,-3.002992391586304
566,57200.0,8.499305725097656,-0.4043869972229004,-1.3232309818267822
567,57400.0,9.174081802368164,-0.552742063999176,-0.2751745879650116
568,57600.0,10.284351348876953,1.8759729862213133,-0.5862415432929993
569,57800.0,10.284351348876953,1.8759729862213133,-0.5862415432929993
570,57000.0,10.274779319763184,0.818345308303833,-3.002992391586304
571,57200.0,8.499305725097656,-0.4043869972229004,-1.3232309818267822
572,57400.0,9.174081802368164,-0.552742063999176,-0.2751745879650116
573,57600.0,10.284351348876953,1.8759729862213133,-0.5862415432929993
574,57800.0,10.284351348876953,1.8759729862213133,-0.5862415432929993
575,58000.0,7.39860725402832,-0.5048855543136597,-2.6536402702331543
576,58200.0,7.738388061523437,-0.6819544434547424,-3.115455150604248
577,58400.0,8.059026718139647,1.4548362493515017,-3.5509488582611084
578,58600.0,10.91127109527588,0.15553347766399386,-1.4524433612823486
579,58800.0,8.154739379882812,0.7704889178276062,-0.5790630578994751
580,58000.0,7.39860725402832,-0.5048855543136597,-2.6536402702331543
581,58200.0,7.738388061523437,-0.6819544434547424,-3.115455150604248
582,58400.0,8.059026718139647,1.4548362493515017,-3.5509488582611084
583,58600.0,10.91127109527588,0.15553347766399386,-1.4524433612823486
584,58800.0,8.154739379882812,0.7704889178276062,-0.5790630578994751
585,59000.0,10.217352867126463,2.038684844970703,-0.34695929288864136
586,59200.0,10.217352867126463,2.038684844970703,-0.34695929288864136
587,59400.0,9.762716293334961,1.9046868085861208,-0.8494520783424377
588,59600.0,10.274779319763184,2.8953151702880864,-1.9716858863830569
589,59800.0,9.791430473327637,-0.3924228847026825,-2.44067907333374
590,59000.0,10.217352867126463,2.038684844970703,-0.34695929288864136
591,59200.0,10.217352867126463,2.038684844970703,-0.34695929288864136
592,59400.0,9.762716293334961,1.9046868085861208,-0.8494520783424377
593,59600.0,10.274779319763184,2.8953151702880864,-1.9716858863830569
594,59800.0,9.791430473327637,-0.3924228847026825,-2.44067907333374
595,60000.0,6.896114826202393,-0.9140582084655762,-2.031506299972534
596,60200.0,8.930014610290527,2.644068956375122,-3.0101709365844727
597,60400.0,7.183253765106201,1.921436548233032,-4.321437358856201
598,60600.0,7.183253765106201,1.921436548233032,-4.321437358856201
599,60800.0,13.610376358032227,1.8664016723632808,-2.1990041732788086
600,60000.0,6.896114826202393,-0.9140582084655762,-2.031506299972534
601,60200.0,8.930014610290527,2.644068956375122,-3.0101709365844727
602,60400.0,7.183253765106201,1.921436548233032,-4.321437358856201
603,60600.0,7.183253765106201,1.921436548233032,-4.321437358856201
604,60800.0,13.610376358032227,1.8664016723632808,-2.1990041732788086
605,61000.0,8.035098075866701,1.392622709274292,-0.2943171858787537
606,61200.0,8.59501838684082,1.1581261157989502,2.359323024749756
607,61400.0,10.102496147155762,2.96949315071106,-0.10049854964017868
608,61600.0,11.34676456451416,1.5649060010910034,0.055034920573234565
609,61800.0,8.542377471923826,1.0695916414260864,-1.0959126949310305
610,61000.0,8.035098075866701,1.392622709274292,-0.2943171858787537
611,61200.0,8.59501838684082,1.1581261157989502,2.359323024749756
612,61400.0,10.102496147155762,2.96949315071106,-0.10049854964017868
613,61600.0,11.34676456451416,1.5649060010910034,0.055034920573234565
614,61800.0,8.542377471923826,1.0695916414260864,-1.0959126949310305
615,62000.0,8.188239097595215,1.3710873126983645,-3.1058835983276367
616,62200.0,8.12123966217041,-0.27278175950050354,-3.957728624343872
617,62400.0,8.12123966217041,-0.27278175950050354,-3.957728624343872
618,62600.0,7.001399040222168,0.028713870793581012,-3.929014682769776
619,62800.0,9.78664493560791,0.2488535493612289,-2.675175428390503
620,62000.0,8.188239097595215,1.3710873126983645,-3.1058835983276367
621,62200.0,8.12123966217041,-0.27278175950050354,-3.957728624343872
622,62400.0,8.12123966217041,-0.27278175950050354,-3.957728624343872
623,62600.0,7.001399040222168,0.028713870793581012,-3.929014682769776
624,62800.0,9.78664493560791,0.2488535493612289,-2.675175428390503
625,63000.0,12.380464553833008,0.5742774605751038,-2.0458633899688716
626,63200.0,8.681159973144531,0.3732803165912628,0.5192425251007079
627,63400.0,9.53779125213623,1.3351951837539673,-0.08374878764152527
628,63600.0,9.542576789855957,1.7539390325546265,-0.5240281224250793
629,63800.0,9.542576789855957,1.7539390325546265,-0.5240281224250793
630,63000.0,12.380464553833008,0.5742774605751038,-2.0458633899688716
631,63200.0,8.681159973144531,0.3732803165912628,0.5192425251007079
632,63400.0,9.53779125213623,1.3351951837539673,-0.08374878764152527
633,63600.0,9.542576789855957,1.7539390325546265,-0.5240281224250793
634,63800.0,9.542576789855957,1.7539390325546265,-0.5240281224250793
635,64000.0,10.619346618652344,0.9427721500396729,-1.7252250909805298
636,64200.0,7.255037784576416,-0.2751745879650116,-1.7491532564163208
637,64400.0,7.843672752380371,0.3349951505661011,-2.0721843242645264
638,64600.0,8.772088050842285,0.9332008361816406,-3.464807271957397
639,64800.0,9.212367057800293,1.3112668991088867,-3.1704900264739986
640,64000.0,10.619346618652344,0.9427721500396729,-1.7252250909805298
641,64200.0,7.255037784576416,-0.2751745879650116,-1.7491532564163208
642,64400.0,7.843672752380371,0.3349951505661011,-2.0721843242645264
643,64600.0,8.772088050842285,0.9332008361816406,-3.464807271957397
644,64800.0,9.212367057800293,1.3112668991088867,-3.1704900264739986
645,65000.0,9.212367057800293,1.3112668991088867,-3.1704900264739986
646,65200.0,9.097511291503906,1.131805181503296,-2.830709218978882
647,65400.0,11.093125343322754,2.754138946533203,-3.089133977890014
648,65600.0,9.772287368774414,0.969093143939972,-0.1220339611172676
649,65800.0,8.456235885620117,2.4335007667541504,0.5144568681716919
650,65000.0,9.212367057800293,1.3112668991088867,-3.1704900264739986
651,65200.0,9.097511291503906,1.131805181503296,-2.830709218978882
652,65400.0,11.093125343322754,2.754138946533203,-3.089133977890014
653,65600.0,9.772287368774414,0.969093143939972,-0.1220339611172676
654,65800.0,8.456235885620117,2.4335007667541504,0.5144568681716919
655,66000.0,9.973284721374512,2.352144718170166,-1.0791629552841189
656,66200.0,12.141182899475098,1.8113667964935305,-0.9954141974449158
657,66400.0,7.451249599456787,0.2464607357978821,-2.0458633899688716
658,66600.0,7.101897716522218,1.0193424224853516,-1.06480610370636
659,66800.0,7.101897716522218,1.0193424224853516,-1.06480610370636
660,66000.0,9.973284721374512,2.352144718170166,-1.0791629552841189
661,66200.0,12.141182899475098,1.8113667964935305,-0.9954141974449158
662,66400.0,7.451249599456787,0.2464607357978821,-2.0458633899688716
663,66600.0,7.101897716522218,1.0193424224853516,-1.06480610370636
664,66800.0,7.101897716522218,1.0193424224853516,-1.06480610370636
665,67000.0,8.724230766296388,0.4594219326972962,-3.87876558303833
666,67200.0,10.925628662109377,0.3182453811168671,-3.1800613403320312
667,67400.0,7.556533336639403,0.6508477926254272,0.5024927258491516
668,67600.0,9.547362327575684,2.146361827850342,-0.33738797903060913
669,67800.0,9.51386260986328,3.2207393646240234,-2.5555346012115483
670,67000.0,8.724230766296388,0.4594219326972962,-3.87876558303833
671,67200.0,10.925628662109377,0.3182453811168671,-3.1800613403320312
672,67400.0,7.556533336639403,0.6508477926254272,0.5024927258491516
673,67600.0,9.547362327575684,2.146361827850342,-0.33738797903060913
674,67800.0,9.51386260986328,3.2207393646240234,-2.5555346012115483
675,68000.0,9.93978500366211,2.6009981632232666,-1.497907042503357
676,68200.0,8.408378601074219,0.9044869542121888,-2.0147566795349117
677,68400.0,8.408378601074219,0.9044869542121888,-2.0147566795349117
678,68600.0,7.872386455535889,1.1102697849273682,-2.258824586868286
679,68800.0,8.676375389099121,1.954936146736145,-3.680161237716675
680,68000.0,9.93978500366211,2.6009981632232666,-1.497907042503357
681,68200.0,8.408378601074219,0.9044869542121888,-2.0147566795349117
682,68400.0,8.408378601074219,0.9044869542121888,-2.0147566795349117
683,68600.0,7.872386455535889,1.1102697849273682,-2.258824586868286
684,68800.0,8.676375389099121,1.954936146736145,-3.680161237716675
685,69000.0,12.193824768066404,2.8809585571289062,-2.2683956623077397
686,69200.0,9.422935485839844,1.3591231107711792,-1.0552347898483276
687,69400.0,8.949156761169434,2.0099709033966064,-1.2777673006057741
688,69600.0,9.92542839050293,2.567498683929444,-2.857030153274536
689,69800.0,9.92542839050293,2.567498683929444,-2.857030153274536
690,69000.0,12.193824768066404,2.8809585571289062,-2.2683956623077397
691,69200.0,9.422935485839844,1.3591231107711792,-1.0552347898483276
692,69400.0,8.949156761169434,2.0099709033966064,-1.2777673006057741
693,69600.0,9.92542839050293,2.567498683929444,-2.857030153274536
694,69800.0,9.92542839050293,2.567498683929444,-2.857030153274536
695,70000.0,9.489934921264648,0.3517449200153351,-1.6295121908187866
696,70200.0,8.752944946289062,1.3639088869094849,-4.058227062225342
697,70400.0,8.432307243347168,2.4957141876220703,-3.2997026443481445
698,70600.0,9.877571105957033,0.17706887423992154,-1.1485549211502075
699,70800.0,8.781659126281737,1.459621787071228,0.397208571434021
700,70000.0,9.489934921264648,0.3517449200153351,-1.6295121908187866
701,70200.0,8.752944946289062,1.3639088869094849,-4.058227062225342
702,70400.0,8.432307243347168,2.4957141876220703,-3.2997026443481445
703,70600.0,9.877571105957033,0.17706887423992154,-1.1485549211502075
704,70800.0,8.781659126281737,1.459621787071228,0.397208571434021
705,71000.0,9.705288887023926,4.3238306045532235,-0.21774686872959134
706,71200.0,10.269994735717773,3.263810157775879,-1.1102697849273682
707,71400.0,9.958927154541016,0.38045880198478704,-2.1655044555664062
708,71600.0,9.958927154541016,0.38045880198478704,-2.1655044555664062
709,71800.0,8.48016357421875,-0.09092726558446884,-1.5242280960083008
710,71000.0,9.705288887023926,4.3238306045532235,-0.21774686872959134
711,71200.0,10.269994735717773,3.263810157775879,-1.1102697849273682
712,71400.0,9.958927154541016,0.38045880198478704,-2.1655044555664062
713,71600.0,9.958927154541016,0.38045880198478704,-2.1655044555664062
714,71800.0,8.48016357421875,-0.09092726558446884,-1.5242280960083008
715,72000.0,7.795816421508789,1.1653046607971191,-2.768495798110962
716,72200.0,8.97787094116211,2.0554347038269043,-3.400200843811035
717,72400.0,10.930414199829102,2.0793628692626958,-2.8402805328369136
718,72600.0,8.207381248474121,1.1006983518600464,-2.565105676651001
719,72800.0,7.609175682067871,1.2370892763137815,-0.3708875179290772
720,72000.0,7.795816421508789,1.1653046607971191,-2.768495798110962
721,72200.0,8.97787094116211,2.0554347038269043,-3.400200843811035
722,72400.0,10.930414199829102,2.0793628692626958,-2.8402805328369136
723,72600.0,8.207381248474121,1.1006983518600464,-2.565105676651001
724,72800.0,7.609175682067871,1.2370892763137815,-0.3708875179290772
725,73000.0,9.035298347473145,2.560320377349853,-0.3876372575759888
726,73200.0,9.284152030944824,2.711068153381348,-1.8400806188583372
727,73400.0,9.284152030944824,2.711068153381348,-1.8400806188583372
728,73600.0,9.408578872680664,2.617748022079468,-1.8592231273651123
729,73800.0,12.964313507080078,1.7012970447540283,-1.3830513954162598
730,73000.0,9.035298347473145,2.560320377349853,-0.3876372575759888
731,73200.0,9.284152030944824,2.711068153381348,-1.8400806188583372
732,73400.0,9.284152030944824,2.711068153381348,-1.8400806188583372
733,73600.0,9.408578872680664,2.617748022079468,-1.8592231273651123
734,73800.0,12.964313507080078,1.7012970447540283,-1.3830513954162598
735,74000.0,7.63310432434082,-0.28953152894973755,-2.9264223575592037
736,74200.0,7.9728851318359375,1.244267821311951,-3.565305471420288
737,74400.0,8.551947593688965,1.0911270380020142,-3.594019651412964
738,74600.0,9.116654396057127,1.4715858697891235,-2.9623143672943115
739,74800.0,9.116654396057127,1.4715858697891235,-2.9623143672943115
740,74000.0,7.63310432434082,-0.28953152894973755,-2.9264223575592037
741,74200.0,7.9728851318359375,1.244267821311951,-3.565305471420288
742,74400.0,8.551947593688965,1.0911270380020142,-3.594019651412964
743,74600.0,9.116654396057127,1.4715858697891235,-2.9623143672943115
744,74800.0,9.116654396057127,1.4715858697891235,-2.9623143672943115
745,75000.0,13.021740913391113,1.0456634759902954,-2.9862425327301025
746,75200.0,10.705488204956056,1.7252250909805298,0.18185453116893768
747,75400.0,8.260024070739746,1.3399806022644043,0.12921242415905002
748,75600.0,9.724431037902832,2.0099709033966064,-1.801795244216919
749,75800.0,12.260822296142578,0.13639087975025174,-1.2729815244674685
750,75000.0,13.021740913391113,1.0456634759902954,-2.9862425327301025
751,75200.0,10.705488204956056,1.7252250909805298,0.18185453116893768
752,75400.0,8.260024070739746,1.3399806022644043,0.12921242415905002
753,75600.0,9.724431037902832,2.0099709033966064,-1.801795244216919
754,75800.0,12.260822296142578,0.13639087975025174,-1.2729815244674685
755,76000.0,9.556933403015137,-0.06939186155796051,-1.4859429597854614
756,76200.0,7.963313579559326,-0.4546363055706024,-2.7732813358306885
757,76400.0,7.963313579559326,-0.4546363055706024,-2.7732813358306885
758,76600.0,8.968299865722656,0.6005984544754028,-3.6634113788604736
759,76800.0,8.054241180419924,0.5718846321105957,-3.184847116470337
760,76000.0,9.556933403015137,-0.06939186155796051,-1.4859429597854614
761,76200.0,7.963313579559326,-0.4546363055706024,-2.7732813358306885
762,76400.0,7.963313579559326,-0.4546363055706024,-2.7732813358306885
763,76600.0,8.968299865722656,0.6005984544754028,-3.6634113788604736
764,76800.0,8.054241180419924,0.5718846321105957,-3.184847116470337
765,77000.0,9.762716293334961,-0.07178468257188797,-2.8713872432708736
766,77200.0,10.322636604309082,1.588834285736084,-2.167897224426269
767,77400.0,7.144968032836914,1.0480562448501587,0.3756731450557709
768,77600.0,9.81057357788086,3.0245277881622314,-0.6699903011322021
769,77800.0,9.81057357788086,3.0245277881622314,-0.6699903011322021
770,77000.0,9.762716293334961,-0.07178468257188797,-2.8713872432708736
771,77200.0,10.322636604309082,1.588834285736084,-2.167897224426269
772,77400.0,7.144968032836914,1.0480562448501587,0.3756731450557709
773,77600.0,9.81057357788086,3.0245277881622314,-0.6699903011322021
774,77800.0,9.81057357788086,3.0245277881622314,-0.6699903011322021
775,78000.0,10.48534870147705,1.8424735069274905,-1.4787644147872925
776,78200.0,11.940185546875,1.1030912399291992,-1.1485549211502075
777,78400.0,7.762316703796388,-0.007178467698395251,-2.868994235992432
778,78600.0,8.662017822265625,1.7898313999176023,-3.050848960876465
779,78800.0,8.164310455322267,1.3663017749786377,-3.6753754615783687
780,78000.0,10.48534870147705,1.8424735069274905,-1.4787644147872925
781,78200.0,11.940185546875,1.1030912399291992,-1.1485549211502075
782,78400.0,7.762316703796388,-0.007178467698395251,-2.868994235992432
783,78600.0,8.662017822265625,1.7898313999176023,-3.050848960876465
784,78800.0,8.164310455322267,1.3663017749786377,-3.6753754615783687
785,79000.0,10.083355903625488,0.9619146585464478,-2.2013967037200928
786,79200.0,10.083355903625488,0.9619146585464478,-2.2013967037200928
787,79400.0,10.126425743103027,1.155733346939087,-1.1270195245742798
788,79600.0,8.642874717712402,1.8472589254379272,-0.2679961323738098
789,79800.0,9.10229778289795,3.235095977783203,-0.4019941985607147
790,79000.0,10.083355903625488,0.9619146585464478,-2.2013967037200928
791,79200.0,10.083355903625488,0.9619146585464478,-2.2013967037200928
792,79400.0,10.126425743103027,1.155733346939087,-1.1270195245742798
793,79600.0,8.642874717712402,1.8472589254379272,-0.2679961323738098
794,79800.0,9.10229778289795,3.235095977783203,-0.4019941985607147
795,80000.0,9.523433685302734,2.7732813358306885,-0.2991028428077698
796,80200.0,10.040283203125,2.6153552532196045,-0.8949156999588013
797,80400.0,13.490734100341795,0.794417142868042,-1.8281164169311523
798,80600.0,7.862814903259277,0.3900300860404968,-1.2610174417495728
799,80800.0,7.862814903259277,0.3900300860404968,-1.2610174417495728
800,80000.0,9.523433685302734,2.7732813358306885,-0.2991028428077698
801,80200.0,10.040283203125,2.6153552532196045,-0.8949156999588013
802,80400.0,13.490734100341795,0.794417142868042,-1.8281164169311523
803,80600.0,7.862814903259277,0.3900300860404968,-1.2610174417495728
804,80800.0,7.862814903259277,0.3900300860404968,-1.2610174417495728
805,81000.0,7.858029365539551,0.607776939868927,-2.9551358222961426
806,81200.0,8.671588897705076,1.00259268283844,-3.644268989562988
807,81400.0,10.274779319763184,2.031506299972534,-2.538784980773926
808,81600.0,8.958727836608887,-1.062413215637207,-1.093519926071167
809,81800.0,8.599804878234862,1.5074783563613892,-0.3493521213531494
810,81000.0,7.858029365539551,0.607776939868927,-2.9551358222961426
811,81200.0,8.671588897705076,1.00259268283844,-3.644268989562988
812,81400.0,10.274779319763184,2.031506299972534,-2.538784980773926
813,81600.0,8.958727836608887,-1.062413215637207,-1.093519926071167
814,81800.0,8.599804878234862,1.5074783563613892,-0.3493521213531494
815,82000.0,9.901500701904297,2.2995026111602783,0.16749757528305054
816,82200.0,9.901500701904297,2.2995026111602783,0.16749757528305054
817,82400.0,10.045069694519043,2.368894338607788,-0.8781659603118896
818,82600.0,14.955141067504885,1.5768700838088991,-1.1868400573730469
819,82800.0,7.810173511505128,-0.7322037816047668,-1.380658507347107
820,82000.0,9.901500701904297,2.2995026111602783,0.16749757528305054
821,82200.0,9.901500701904297,2.2995026111602783,0.16749757528305054
822,82400.0,10.045069694519043,2.368894338607788,-0.8781659603118896
823,82600.0,14.955141067504885,1.5768700838088991,-1.1868400573730469
824,82800.0,7.810173511505128,-0.7322037816047668,-1.380658507347107
825,83000.0,8.666803359985353,1.0408778190612793,-2.739781856536865
826,83200.0,8.853443145751953,1.6151552200317385,-3.806980848312378
827,83400.0,12.078968048095705,1.7204395532608032,-2.4023938179016118
828,83600.0,9.74835968017578,0.7082754969596863,-0.5240281224250793
829,83800.0,8.24566650390625,1.4931212663650513,0.4498506784439087
830,83000.0,8.666803359985353,1.0408778190612793,-2.739781856536865
831,83200.0,8.853443145751953,1.6151552200317385,-3.806980848312378
832,83400.0,12.078968048095705,1.7204395532608032,-2.4023938179016118
833,83600.0,9.74835968017578,0.7082754969596863,-0.5240281224250793
834,83800.0,8.24566650390625,1.4931212663650513,0.4498506784439087
835,84000.0,8.24566650390625,1.4931212663650513,0.4498506784439087
836,84200.0,10.250852584838867,3.089133977890014,-2.1343977451324463
837,84400.0,17.376676559448242,2.711068153381348,-1.5122638940811155
838,84600.0,6.666403770446777,0.4737788736820221,-2.311466693878174
839,84800.0,9.346364974975586,0.8039883971214294,-2.538784980773926
840,84000.0,8.24566650390625,1.4931212663650513,0.4498506784439087
841,84200.0,10.250852584838867,3.089133977890014,-2.1343977451324463
842,84400.0,17.376676559448242,2.711068153381348,-1.5122638940811155
843,84600.0,6.666403770446777,0.4737788736820221,-2.311466693878174
844,84800.0,9.346364974975586,0.8039883971214294,-2.538784980773926
845,85000.0,8.556733131408691,1.2658032178878784,-2.919243574142456
846,85200.0,11.753543853759766,0.7896314859390259,-1.131805181503296
847,85400.0,7.671389579772949,-1.8616160154342647,0.3732803165912628
848,85600.0,9.174081802368164,1.519442439079285,1.4333008527755735
849,85800.0,9.174081802368164,1.519442439079285,1.4333008527755735
850,85000.0,8.556733131408691,1.2658032178878784,-2.919243574142456
851,85200.0,11.753543853759766,0.7896314859390259,-1.131805181503296
852,85400.0,7.671389579772949,-1.8616160154342647,0.3732803165912628
853,85600.0,9.174081802368164,1.519442439079285,1.4333008527755735
854,85800.0,9.174081802368164,1.519442439079285,1.4333008527755735
855,86000.0,10.222138404846193,2.2612173557281494,-1.0743772983551023
856,86200.0,10.494919776916504,0.0263210479170084,-1.519442439079285
857,86400.0,9.757929801940918,2.1367905139923096,-1.0504491329193115
858,86600.0,11.169696807861328,1.7563319206237793,-1.380658507347107
859,86800.0,10.021141052246094,1.4715858697891235,-0.08853443711996077
860,86000.0,10.222138404846193,2.2612173557281494,-1.0743772983551023
861,86200.0,10.494919776916504,0.0263210479170084,-1.519442439079285
862,86400.0,9.757929801940918,2.1367905139923096,-1.0504491329193115
863,86600.0,11.169696807861328,1.7563319206237793,-1.380658507347107
864,86800.0,10.021141052246094,1.4715858697891235,-0.08853443711996077
865,87000.0,9.09272575378418,-1.5314064025878906,0.10049854964017868
866,87200.0,9.09272575378418,-1.5314064025878906,0.10049854964017868
867,87400.0,9.308080673217773,0.9188438653945924,0.6508477926254272
868,87600.0,9.891928672790527,1.7778673171997068,-0.4067798554897308
869,87800.0,10.016355514526367,0.1579262912273407,-1.5122638940811155
870,87000.0,9.09272575378418,-1.5314064025878906,0.10049854964017868
871,87200.0,9.09272575378418,-1.5314064025878906,0.10049854964017868
872,87400.0,9.308080673217773,0.9188438653945924,0.6508477926254272
873,87600.0,9.891928672790527,1.7778673171997068,-0.4067798554897308
874,87800.0,10.016355514526367,0.1579262912273407,-1.5122638940811155
875,88000.0,7.8867435455322275,-0.7010970115661621,-2.3712873458862305
876,88200.0,8.039883613586426,1.3375877141952517,-2.366501569747925
877,88400.0,8.039883613586426,1.3375877141952517,-2.366501569747925
878,88600.0,8.891729354858398,1.3495519161224363,-3.058027505874634
879,88800.0,11.155338287353516,1.727617859840393,-1.832902193069458
0,0.0,6.814758777618407,4.417150497436523,-5.044069766998291
1,200.0,6.814758777618407,4.417150497436523,-5.044069766998291
2,400.0,-1.2299107313156128,1.526620864868164,-6.853044033050537
3,600.0,1.4356936216354368,0.48574298620224,-8.635696411132812
4,800.0,-0.0813559740781784,-2.644068956375122,-7.944170951843263
5,1000.0,0.794417142868042,-2.3976082801818848,-6.16391134262085
6,1200.0,2.2253248691558842,1.3399806022644043,-5.687739372253418
7,1400.0,11.308479309082033,6.5180487632751465,-5.161318302154541
8,1600.0,8.968299865722656,5.010570526123047,-1.0959126949310305
9,1800.0,11.394620895385742,1.8831514120101929,1.2801601886749268
10,1000.0,0.794417142868042,-2.3976082801818848,-6.16391134262085
11,1200.0,2.2253248691558842,1.3399806022644043,-5.687739372253418
12,1400.0,11.308479309082033,6.5180487632751465,-5.161318302154541
13,1600.0,8.968299865722656,5.010570526123047,-1.0959126949310305
14,1800.0,11.394620895385742,1.8831514120101929,1.2801601886749268
15,2000.0,11.394620895385742,1.8831514120101929,1.2801601886749268
16,2200.0,8.178668022155763,-1.8927226066589355,0.8422735333442688
17,2400.0,8.417949676513674,-0.397208571434021,-0.8470591902732849
18,2600.0,9.628718376159668,1.3639088869094849,-3.1728827953338623
19,2800.0,9.62393283843994,2.6943180561065674,-1.9453648328781128
20,2000.0,11.394620895385742,1.8831514120101929,1.2801601886749268
21,2200.0,8.178668022155763,-1.8927226066589355,0.8422735333442688
22,2400.0,8.417949676513674,-0.397208571434021,-0.8470591902732849
23,2600.0,9.628718376159668,1.3639088869094849,-3.1728827953338623
24,2800.0,9.62393283843994,2.6943180561065674,-1.9453648328781128
25,3000.0,11.94497013092041,1.5385849475860596,-0.4953142702579498
26,3200.0,9.858428955078123,3.201596736907959,-0.4881358444690704
27,3400.0,6.929614543914795,2.919243574142456,-1.289731502532959
28,3600.0,6.929614543914795,2.919243574142456,-1.289731502532959
29,3800.0,8.260024070739746,4.285545349121094,-2.514856576919556
30,3000.0,11.94497013092041,1.5385849475860596,-0.4953142702579498
31,3200.0,9.858428955078123,3.201596736907959,-0.4881358444690704
32,3400.0,6.929614543914795,2.919243574142456,-1.289731502532959
33,3600.0,6.929614543914795,2.919243574142456,-1.289731502532959
34,3800.0,8.260024070739746,4.285545349121094,-2.514856576919556
35,4000.0,8.599804878234862,3.88594388961792,-1.8616160154342647
36,4200.0,10.370492935180664,4.077369689941406,-2.57228422164917
37,4400.0,9.236295700073242,0.9523434042930604,-2.2851457595825195
38,4600.0,8.432307243347168,0.6939185857772827,-1.7204395532608032
39,4800.0,8.398807525634767,3.1585259437561035,-2.4598214626312256
40,4000.0,8.599804878234862,3.88594388961792,-1.8616160154342647
41,4200.0,10.370492935180664,4.077369689941406,-2.57228422164917
42,4400.0,9.236295700073242,0.9523434042930604,-2.2851457595825195
43,4600.0,8.432307243347168,0.6939185857772827,-1.7204395532608032
44,4800.0,8.398807525634767,3.1585259437561035,-2.4598214626312256
45,5000.0,8.834300994873047,1.8927226066589355,-3.8261232376098633
46,5200.0,9.695716857910156,0.10049854964017868,-2.0147566795349117
47,5400.0,9.695716857910156,0.10049854964017868,-2.0147566795349117
48,5600.0,10.006784439086914,2.5076780319213867,-0.5982056856155396
49,5800.0,8.394021987915039,2.579463005065918,-1.1868400573730469
50,5000.0,8.834300994873047,1.8927226066589355,-3.8261232376098633
51,5200.0,9.695716857910156,0.10049854964017868,-2.0147566795349117
52,5400.0,9.695716857910156,0.10049854964017868,-2.0147566795349117
53,5600.0,10.006784439086914,2.5076780319213867,-0.5982056856155396
54,5800.0,8.394021987915039,2.579463005065918,-1.1868400573730469
55,6000.0,9.566505432128906,2.7349963188171387,-1.294516921043396
56,6200.0,9.260223388671877,2.230110645294189,-0.8685945868492126
57,6400.0,8.346165657043457,1.4763716459274292,-1.741974949836731
58,6600.0,16.424333572387695,0.861416220664978,-1.3184452056884766
59,6800.0,7.5661048889160165,0.4809573292732239,-1.1748759746551514
60,6000.0,9.566505432128906,2.7349963188171387,-1.294516921043396
61,6200.0,9.260223388671877,2.230110645294189,-0.8685945868492126
62,6400.0,8.346165657043457,1.4763716459274292,-1.741974949836731
63,6600.0,16.424333572387695,0.861416220664978,-1.3184452056884766
64,6800.0,7.5661048889160165,0.4809573292732239,-1.1748759746551514
65,7000.0,9.054441452026367,1.146162033081055,-3.3547375202178955
66,7200.0,9.054441452026367,1.146162033081055,-3.3547375202178955
67,7400.0,7.953742504119872,-0.0526420958340168,-2.3712873458862305
68,7600.0,12.902100563049315,2.3497519493103027,-1.459621787071228
69,7800.0,10.667202949523926,2.577069997787476,0.7202396392822266
70,7000.0,9.054441452026367,1.146162033081055,-3.3547375202178955
71,7200.0,9.054441452026367,1.146162033081055,-3.3547375202178955
72,7400.0,7.953742504119872,-0.0526420958340168,-2.3712873458862305
73,7600.0,12.902100563049315,2.3497519493103027,-1.459621787071228
74,7800.0,10.667202949523926,2.577069997787476,0.7202396392822266
75,8000.0,5.785844802856445,0.7824530005455017,1.0695916414260864
76,8200.0,10.078569412231444,1.191625714302063,-1.2658032178878784
77,8400.0,9.98285675048828,3.4169507026672363,-0.6987042427062988
78,8600.0,13.174880981445312,2.09850549697876,-0.20099709928035736
79,8800.0,13.174880981445312,2.09850549697876,-0.20099709928035736
80,8000.0,5.785844802856445,0.7824530005455017,1.0695916414260864
81,8200.0,10.078569412231444,1.191625714302063,-1.2658032178878784
82,8400.0,9.98285675048828,3.4169507026672363,-0.6987042427062988
83,8600.0,13.174880981445312,2.09850549697876,-0.20099709928035736
84,8800.0,13.174880981445312,2.09850549697876,-0.20099709928035736
85,9000.0,7.776673316955566,0.5551348924636841,-1.8161523342132568
86,9200.0,8.685946464538574,1.727617859840393,-2.0195422172546387
87,9400.0,8.580661773681639,2.6464619636535645,-3.5270204544067383
88,9600.0,10.571491241455078,1.1222338676452637,-1.8424735069274905
89,9800.0,9.456435203552246,2.029113531112671,-1.0695916414260864
90,9000.0,7.776673316955566,0.5551348924636841,-1.8161523342132568
91,9200.0,8.685946464538574,1.727617859840393,-2.0195422172546387
92,9400.0,8.580661773681639,2.6464619636535645,-3.5270204544067383
93,9600.0,10.571491241455078,1.1222338676452637,-1.8424735069274905
94,9800.0,9.456435203552246,2.029113531112671,-1.0695916414260864
95,10000.0,10.552348136901855,2.1439690589904785,-0.02153540588915348
96,10200.0,7.9585280418396,1.710868239402771,-0.28235307335853577
97,10400.0,10.250852584838867,3.7328033447265625,0.3828516006469727
98,10600.0,10.016355514526367,2.6321046352386475,-0.7274181246757507
99,10800.0,10.016355514526367,2.6321046352386475,-0.7274181246757507
100,10000.0,10.552348136901855,2.1439690589904785,-0.02153540588915348
101,10200.0,7.9585280418396,1.710868239402771,-0.28235307335853577
102,10400.0,10.250852584838867,3.7328033447265625,0.3828516006469727
103,10600.0,10.016355514526367,2.6321046352386475,-0.7274181246757507
104,10800.0,10.016355514526367,2.6321046352386475,-0.7274181246757507
105,11000.0,6.867401123046875,1.043270707130432,-0.8111668825149536
106,11200.0,12.457035064697266,3.091526985168457,-1.8472589254379272
107,11400.0,7.977671146392822,0.4091726541519165,-1.043270707130432
108,11600.0,7.8245296478271475,2.4095723628997803,-2.4909284114837646
109,11800.0,8.59501838684082,1.2729815244674685,-4.335794448852538
110,11000.0,6.867401123046875,1.043270707130432,-0.8111668825149536
111,11200.0,12.457035064697266,3.091526985168457,-1.8472589254379272
112,11400.0,7.977671146392822,0.4091726541519165,-1.043270707130432
113,11600.0,7.8245296478271475,2.4095723628997803,-2.4909284114837646
114,11800.0,8.59501838684082,1.2729815244674685,-4.335794448852538
115,12000.0,9.542576789855957,1.710868239402771,-2.124826431274414
116,12200.0,8.934800148010254,1.3040882349014282,-3.4097721576690674
117,12400.0,8.934800148010254,1.3040882349014282,-3.4097721576690674
118,12600.0,10.126425743103027,2.4358932971954346,-0.4809573292732239
119,12800.0,7.39860725402832,1.1030912399291992,-0.5455635190010071
120,12000.0,9.542576789855957,1.710868239402771,-2.124826431274414
121,12200.0,8.934800148010254,1.3040882349014282,-3.4097721576690674
122,12400.0,8.934800148010254,1.3040882349014282,-3.4097721576690674
123,12600.0,10.126425743103027,2.4358932971954346,-0.4809573292732239
124,12800.0,7.39860725402832,1.1030912399291992,-0.5455635190010071
125,13000.0,8.934800148010254,3.431307554244995,-1.5744771957397459
126,13200.0,9.8871431350708,3.4121649265289307,-0.6101697683334351
127,13400.0,12.44267749786377,1.9908283948898315,-1.7324036359786987
128,13600.0,8.159524917602539,-0.6269195079803467,-2.1655044555664062
129,13800.0,8.159524917602539,-0.6269195079803467,-2.1655044555664062
130,13000.0,8.934800148010254,3.431307554244995,-1.5744771957397459
131,13200.0,9.8871431350708,3.4121649265289307,-0.6101697683334351
132,13400.0,12.44267749786377,1.9908283948898315,-1.7324036359786987
133,13600.0,8.159524917602539,-0.6269195079803467,-2.1655044555664062
134,13800.0,8.159524917602539,-0.6269195079803467,-2.1655044555664062
135,14000.0,8.044669151306152,1.7898313999176023,-2.8737800121307373
136,14200.0,10.509278297424316,2.3066811561584477,-3.208775281906128
137,14400.0,10.652846336364746,4.0390844345092765,-1.2323036193847656
138,14600.0,7.1066832542419425,0.9858429431915284,-2.914458036422729
139,14800.0,3.5126638412475586,-0.3230310678482056,-7.843672752380371
140,14000.0,8.044669151306152,1.7898313999176023,-2.8737800121307373
141,14200.0,10.509278297424316,2.3066811561584477,-3.208775281906128
142,14400.0,10.652846336364746,4.0390844345092765,-1.2323036193847656
143,14600.0,7.1066832542419425,0.9858429431915284,-2.914458036422729
144,14800.0,3.5126638412475586,-0.3230310678482056,-7.843672752380371
145,15000.0,3.5126638412475586,-0.3230310678482056,-7.843672752380371
146,15200.0,1.794616937637329,-1.6175479888916016,-8.894121170043945
147,15400.0,2.8713872432708736,-2.3712873458862305,-8.334200859069824
148,15600.0,1.6989041566848757,-3.7040894031524663,-8.118846893310549
149,15800.0,2.0817556381225586,-3.2207393646240234,-9.047262191772461
150,15000.0,3.5126638412475586,-0.3230310678482056,-7.843672752380371
151,15200.0,1.794616937637329,-1.6175479888916016,-8.894121170043945
152,15400.0,2.8713872432708736,-2.3712873458862305,-8.334200859069824
153,15600.0,1.6989041566848757,-3.7040894031524663,-8.118846893310549
154,15800.0,2.0817556381225586,-3.2207393646240234,-9.047262191772461
155,16000.0,2.421536445617676,-1.191625714302063,-8.760124206542969
156,16200.0,2.68953275680542,-1.2035897970199585,-9.111868858337402
157,16400.0,2.68953275680542,-1.2035897970199585,-9.111868858337402
158,16600.0,1.9525433778762815,-1.2346963882446291,-9.001798629760742
159,16800.0,4.240081787109375,-0.9643075466156006,-9.430113792419434
160,16000.0,2.421536445617676,-1.191625714302063,-8.760124206542969
161,16200.0,2.68953275680542,-1.2035897970199585,-9.111868858337402
162,16400.0,2.68953275680542,-1.2035897970199585,-9.111868858337402
163,16600.0,1.9525433778762815,-1.2346963882446291,-9.001798629760742
164,16800.0,4.240081787109375,-0.9643075466156006,-9.430113792419434
165,17000.0,6.503692150115968,-0.6269195079803467,-6.654439926147461
166,17200.0,7.642674922943115,-0.5599204897880554,-6.632904052734375
167,17400.0,9.107083320617676,1.1126624345779421,-4.618147850036621
168,17600.0,9.906286239624023,0.25842484831810003,-1.3878371715545654
169,17800.0,10.02592658996582,-0.04785645008087158,-1.459621787071228
170,17000.0,6.503692150115968,-0.6269195079803467,-6.654439926147461
171,17200.0,7.642674922943115,-0.5599204897880554,-6.632904052734375
172,17400.0,9.107083320617676,1.1126624345779421,-4.618147850036621
173,17600.0,9.906286239624023,0.25842484831810003,-1.3878371715545654
174,17800.0,10.02592658996582,-0.04785645008087158,-1.459621787071228
175,18000.0,9.868000030517578,0.3852444589138031,-2.706282377243042
176,18200.0,9.868000030517578,0.3852444589138031,-2.706282377243042
177,18400.0,10.17906665802002,-1.6486548185348509,-1.8281164169311523
178,18600.0,8.059026718139647,-2.770888566970825,-1.5337992906570437
179,18800.0,7.3124656677246085,-1.1629117727279663,-2.823530912399292
180,18000.0,9.868000030517578,0.3852444589138031,-2.706282377243042
181,18200.0,9.868000030517578,0.3852444589138031,-2.706282377243042
182,18400.0,10.17906665802002,-1.6486548185348509,-1.8281164169311523
183,18600.0,8.059026718139647,-2.770888566970825,-1.5337992906570437
184,18800.0,7.3124656677246085,-1.1629117727279663,-2.823530912399292
185,19000.0,9.67657470703125,0.12921242415905002,-2.9551358222961426
186,19200.0,10.494919776916504,0.4713860750198364,-2.1343977451324463
187,19400.0,7.6522464752197275,0.7752745151519775,-1.160519003868103
188,19600.0,9.853643417358398,0.7417750358581543,-0.8590233325958252
189,19800.0,9.853643417358398,0.7417750358581543,-0.8590233325958252
190,19000.0,9.67657470703125,0.12921242415905002,-2.9551358222961426
191,19200.0,10.494919776916504,0.4713860750198364,-2.1343977451324463
192,19400.0,7.6522464752197275,0.7752745151519775,-1.160519003868103
193,19600.0,9.853643417358398,0.7417750358581543,-0.8590233325958252
194,19800.0,9.853643417358398,0.7417750358581543,-0.8590233325958252
195,20000.0,10.566704750061037,1.3902300596237185,-1.1509476900100708
196,20200.0,11.437692642211914,0.2416750937700272,-1.428515076637268
197,20400.0,7.814958095550537,-2.0123636722564697,-1.4333008527755735
198,20600.0,7.3363938331604,-0.8350951075553894,-1.0145567655563354
199,20800.0,9.566505432128906,-0.2392822504043579,-3.594019651412964
200,20000.0,10.566704750061037,1.3902300596237185,-1.1509476900100708
201,20200.0,11.437692642211914,0.2416750937700272,-1.428515076637268
202,20400.0,7.814958095550537,-2.0123636722564697,-1.4333008527755735
203,20600.0,7.3363938331604,-0.8350951075553894,-1.0145567655563354
204,20800.0,9.566505432128906,-0.2392822504043579,-3.594019651412964
205,21000.0,10.293922424316406,0.8327022790908813,-1.8664016723632808
206,21200.0,10.17906665802002,0.6675975918769836,-1.325623631477356
207,21400.0,9.284152030944824,-0.6699903011322021,-0.8015955686569214
208,21600.0,9.284152030944824,-0.6699903011322021,-0.8015955686569214
209,21800.0,8.403593063354492,0.9619146585464478,0.30149564146995544
210,21000.0,10.293922424316406,0.8327022790908813,-1.8664016723632808
211,21200.0,10.17906665802002,0.6675975918769836,-1.325623631477356
212,21400.0,9.284152030944824,-0.6699903011322021,-0.8015955686569214
213,21600.0,9.284152030944824,-0.6699903011322021,-0.8015955686569214
214,21800.0,8.403593063354492,0.9619146585464478,0.30149564146995544
215,22000.0,9.298508644104004,1.7802598476409912,-0.4354937374591827
216,22200.0,9.978070259094238,1.9070796966552732,-0.7130610942840576
217,22400.0,9.413363456726074,0.882951557636261,-2.706282377243042
218,22600.0,8.489734649658201,-0.705882728099823,-2.438286304473877
219,22800.0,6.69990348815918,0.04546363279223442,-2.6799612045288086
220,22000.0,9.298508644104004,1.7802598476409912,-0.4354937374591827
221,22200.0,9.978070259094238,1.9070796966552732,-0.7130610942840576
222,22400.0,9.413363456726074,0.882951557636261,-2.706282377243042
223,22600.0,8.489734649658201,-0.705882728099823,-2.438286304473877
224,22800.0,6.69990348815918,0.04546363279223442,-2.6799612045288086
225,23000.0,8.542377471923826,1.2777673006057741,-2.311466693878174
226,23200.0,9.934999465942383,1.8089739084243772,-2.8283162117004395
227,23400.0,9.934999465942383,1.8089739084243772,-2.8283162117004395
228,23600.0,9.734003067016602,1.3040882349014282,-3.414557933807373
229,23800.0,8.681159973144531,0.18185453116893768,0.22492533922195435
230,23000.0,8.542377471923826,1.2777673006057741,-2.311466693878174
231,23200.0,9.934999465942383,1.8089739084243772,-2.8283162117004395
232,23400.0,9.934999465942383,1.8089739084243772,-2.8283162117004395
233,23600.0,9.734003067016602,1.3040882349014282,-3.414557933807373
234,23800.0,8.681159973144531,0.18185453116893768,0.22492533922195435
235,24000.0,8.47059154510498,0.26560330390930176,-0.13878372311592102
236,24200.0,9.74835968017578,1.3950155973434448,0.935593605041504
237,24400.0,9.753145217895508,3.211168050765991,-0.5503491759300232
238,24600.0,9.74835968017578,3.522234916687012,-1.0719845294952393
239,24800.0,9.934999465942383,1.3495519161224363,-1.8305093050003047
240,24000.0,8.47059154510498,0.26560330390930176,-0.13878372311592102
241,24200.0,9.74835968017578,1.3950155973434448,0.935593605041504
242,24400.0,9.753145217895508,3.211168050765991,-0.5503491759300232
243,24600.0,9.74835968017578,3.522234916687012,-1.0719845294952393
244,24800.0,9.934999465942383,1.3495519161224363,-1.8305093050003047
245,25000.0,9.934999465942383,1.3495519161224363,-1.8305093050003047
246,25200.0,8.82951545715332,0.3565305471420288,-2.227717876434326
247,25400.0,8.657232284545897,1.7467604875564575,-1.801795244216919
248,25600.0,9.968499183654783,2.3617160320281982,-1.5218352079391482
249,25800.0,11.045268058776855,1.983649969100952,-1.5672988891601562
250,25000.0,9.934999465942383,1.3495519161224363,-1.8305093050003047
251,25200.0,8.82951545715332,0.3565305471420288,-2.227717876434326
252,25400.0,8.657232284545897,1.7467604875564575,-1.801795244216919
253,25600.0,9.968499183654783,2.3617160320281982,-1.5218352079391482
254,25800.0,11.045268058776855,1.983649969100952,-1.5672988891601562
255,26000.0,10.360921859741213,0.4331009089946747,-0.5623133182525635
256,26200.0,9.322437286376953,1.4691929817199707,0.8781659603118896
257,26400.0,8.408378601074219,1.2801601886749268,0.39481574296951294
258,26600.0,9.293723106384276,2.6632115840911865,-0.4570291042327881
259,26800.0,9.293723106384276,2.6632115840911865,-0.4570291042327881
260,26000.0,10.360921859741213,0.4331009089946747,-0.5623133182525635
261,26200.0,9.322437286376953,1.4691929817199707,0.8781659603118896
262,26400.0,8.408378601074219,1.2801601886749268,0.39481574296951294
263,26600.0,9.293723106384276,2.6632115840911865,-0.4570291042327881
264,26800.0,9.293723106384276,2.6632115840911865,-0.4570291042327881
265,27000.0,9.255437850952148,2.407179594039917,-1.3543376922607422
266,27200.0,11.303693771362305,2.792424201965332,-2.321038007736206
267,27400.0,10.021141052246094,2.7254250049591064,-2.25403904914856
268,27600.0,7.733603000640869,0.9882357716560364,-2.2683956623077397
269,27800.0,9.681360244750977,2.100898265838623,-3.945764780044556
270,27000.0,9.255437850952148,2.407179594039917,-1.3543376922607422
271,27200.0,11.303693771362305,2.792424201965332,-2.321038007736206
272,27400.0,10.021141052246094,2.7254250049591064,-2.25403904914856
273,27600.0,7.733603000640869,0.9882357716560364,-2.2683956623077397
274,27800.0,9.681360244750977,2.100898265838623,-3.945764780044556
275,28000.0,8.336593627929688,0.7178468108177185,-2.8761727809906006
276,28200.0,8.336593627929688,0.7178468108177185,-2.8761727809906006
277,28400.0,9.566505432128906,-0.2273181527853012,-3.273381233215332
278,28600.0,11.887543678283693,-1.0791629552841189,-0.6221339106559753
279,28800.0,8.523234367370605,1.3950155973434448,-0.6867401003837585
280,28000.0,8.336593627929688,0.7178468108177185,-2.8761727809906006
281,28200.0,8.336593627929688,0.7178468108177185,-2.8761727809906006
282,28400.0,9.566505432128906,-0.2273181527853012,-3.273381233215332
283,28600.0,11.887543678283693,-1.0791629552841189,-0.6221339106559753
284,28800.0,8.523234367370605,1.3950155973434448,-0.6867401003837585
