,timestamp,mx,my,mz,grx,gry,grz,pressure,gx,gy,gz,ax,ay,az,lax,lay,laz
0,5000.0,-32.79399871826172,-134.83700561523438,-13.284000396728516,-4.636548042297363,-8.627033233642576,0.4970949590206146,1002.3599853515624,-1.2406673431396484,-1.5412130355834959,-0.8582656979560852,-0.9995791912078856,-3.933074951171875,0.444722980260849,1.3494055271148682,5.382102012634277,1.8315385580062864
1,5100.0,-30.31599998474121,-133.32600402832028,-13.284000396728516,-4.636548042297363,-8.627033233642576,0.4970949590206146,1002.3599853515624,-1.2406673431396484,-1.5412130355834959,-0.8582656979560852,-0.9995791912078856,-3.933074951171875,0.444722980260849,1.3494055271148682,5.382102012634277,1.8315385580062864
2,5200.0,-30.69099998474121,-134.49000549316406,-13.284000396728516,-4.636548042297363,-8.627033233642576,0.4970949590206146,1002.3599853515624,-1.2406673431396484,-1.5412130355834959,-0.8582656979560852,-0.9995791912078856,-3.933074951171875,0.444722980260849,1.3494055271148682,5.382102012634277,1.8315385580062864
3,5300.0,-30.69099998474121,-134.82200622558594,-15.968000411987305,-4.770121097564697,-8.535863876342772,0.7452210187911987,1002.4099731445312,-1.3668110370635986,2.299907684326172,-1.4895949363708496,-3.4207155704498287,-3.153762102127075,2.5767595767974854,-1.838651657104492,-4.90059757232666,-3.5440735816955566
4,5400.0,-30.69099998474121,-137.22900390625,-18.283000946044922,-4.770121097564697,-8.535863876342772,0.7452210187911987,1002.4099731445312,-1.3668110370635986,2.299907684326172,-1.4895949363708496,-3.4207155704498287,-3.153762102127075,2.5767595767974854,-1.838651657104492,-4.90059757232666,-3.5440735816955566
5,5500.0,-31.125999450683594,-138.72200012207028,-17.604000091552734,-4.705300331115723,-8.598509788513184,0.3101055324077606,1002.3599853515624,-1.0067058801650999,1.3658946752548218,0.010384709574282171,-6.543951988220215,-13.499107360839846,-3.2339680194854736,1.2038187980651855,2.608171939849853,1.0083900690078735
6,5600.0,-31.50399971008301,-138.71099853515622,-17.988000869750977,-4.722696781158447,-8.583500862121582,0.4359121620655061,1002.4600219726564,-0.2620611786842346,-0.3488040566444397,-0.4602869749069214,-3.5188779830932617,-5.9753289222717285,1.4443022012710571,-3.033355712890625,-1.251516342163086,-0.025343120098114014
7,5700.0,-31.87100028991699,-138.71099853515622,-18.645999908447266,-4.722696781158447,-8.583500862121582,0.4359121620655061,1002.4600219726564,-0.2620611786842346,-0.3488040566444397,-0.4602869749069214,-3.5188779830932617,-5.9753289222717285,1.4443022012710571,-3.033355712890625,-1.251516342163086,-0.025343120098114014
8,5800.0,-32.194000244140625,-139.01899719238278,-18.988000869750977,-4.921379566192627,-8.471935272216799,0.420386403799057,1002.469970703125,1.8487836122512813,0.013744467869400978,0.3430008292198181,-7.954735279083253,-9.723451614379883,0.395043283700943,0.5938487052917479,-3.8291292190551762,4.715609073638916
9,5900.0,-32.86999893188477,-139.01899719238278,-19.30299949645996,-4.921379566192627,-8.471935272216799,0.420386403799057,1002.469970703125,1.8487836122512813,0.013744467869400978,0.3430008292198181,-7.954735279083253,-9.723451614379883,0.395043283700943,0.5938487052917479,-3.8291292190551762,4.715609073638916
10,6000.0,-33.5989990234375,-135.27000427246094,-20.65699958801269,-4.67775821685791,-8.571040153503418,0.908969521522522,1002.3400268554688,0.6035348773002625,-0.3814853429794312,1.8805487155914309,-4.083909511566162,-12.400169372558596,5.624578475952148,1.248997449874878,2.075358867645264,-0.6122744083404541
11,6100.0,-33.5989990234375,-129.27999877929688,-26.32099914550781,-4.67775821685791,-8.571040153503418,0.908969521522522,1002.3400268554688,0.6035348773002625,-0.3814853429794312,1.8805487155914309,-4.083909511566162,-12.400169372558596,5.624578475952148,1.248997449874878,2.075358867645264,-0.6122744083404541
12,6200.0,-33.041000366210945,-126.7509994506836,-28.645999908447266,-4.669713020324707,-8.579806327819824,0.8666583299636841,1002.4000244140624,-0.4196644127368927,-1.5149458646774292,-0.28130343556404114,-3.4207155704498287,-6.5044474601745605,0.25438392162323004,2.833970546722412,7.222630500793457,2.8776564598083496
13,6300.0,-32.650001525878906,-125.9749984741211,-28.32699966430664,-4.669713020324707,-8.579806327819824,0.8666583299636841,1002.4000244140624,-0.4196644127368927,-1.5149458646774292,-0.28130343556404114,-3.4207155704498287,-6.5044474601745605,0.25438392162323004,2.833970546722412,7.222630500793457,2.8776564598083496
14,6400.0,-31.391000747680664,-125.59300231933594,-28.63999938964844,-4.7487335205078125,-8.482579231262207,1.2906489372253418,1002.3300170898438,-1.5238033533096311,-0.1991420686244965,-1.4223997592926023,-1.9147628545761108,-1.2599486112594604,4.168305397033691,4.797463417053223,5.645819664001465,1.4074748754501345
15,6500.0,-31.05599975585937,-125.9000015258789,-28.981000900268555,-4.7487335205078125,-8.482579231262207,1.2906489372253418,1002.280029296875,-1.130406141281128,-1.380555510520935,-0.18997909128665924,-1.9147628545761108,-1.2599486112594604,4.168305397033691,-0.7990851402282715,3.1027426719665527,-1.9537732601165767
16,6600.0,-33.450000762939446,-125.9000015258789,-28.981000900268555,-4.563430309295653,-8.532628059387207,1.5936568975448608,1002.280029296875,-1.130406141281128,-1.380555510520935,-0.18997909128665924,0.2340332120656967,-2.8868086338043213,3.001131772994995,-0.7990851402282715,3.1027426719665527,-1.9537732601165767
17,6700.0,-34.583999633789055,-125.9000015258789,-28.617000579833984,-4.82968282699585,-8.420863151550293,1.3905372619628906,1002.3499755859376,-0.17318029701709747,-0.6362161636352539,-0.5598580241203308,-5.628767967224121,-5.31812047958374,-0.5632359385490417,-2.2180094718933105,-0.8126125335693359,-2.0850172042846684
18,6800.0,-35.20199966430664,-126.23999786376952,-27.9060001373291,-4.82968282699585,-8.420863151550293,1.3905372619628906,1002.3499755859376,-0.17318029701709747,-0.6362161636352539,-0.5598580241203308,-5.628767967224121,-5.31812047958374,-0.5632359385490417,-2.2180094718933105,-0.8126125335693359,-2.0850172042846684
19,6900.0,-35.7140007019043,-126.6520004272461,-27.9060001373291,-5.015472412109375,-8.35538387298584,1.0968103408813477,1002.3400268554688,0.7113525867462158,0.3588833212852478,0.384845107793808,-7.233481884002685,-9.167996406555176,-0.9882067441940308,-0.14289093017578125,-3.0523958206176762,3.424378633499145
20,6000.0,-33.5989990234375,-135.27000427246094,-20.65699958801269,-4.67775821685791,-8.571040153503418,0.908969521522522,1002.3400268554688,0.6035348773002625,-0.3814853429794312,1.8805487155914309,-4.083909511566162,-12.400169372558596,5.624578475952148,1.248997449874878,2.075358867645264,-0.6122744083404541
21,6100.0,-33.5989990234375,-129.27999877929688,-26.32099914550781,-4.67775821685791,-8.571040153503418,0.908969521522522,1002.3400268554688,0.6035348773002625,-0.3814853429794312,1.8805487155914309,-4.083909511566162,-12.400169372558596,5.624578475952148,1.248997449874878,2.075358867645264,-0.6122744083404541
22,6200.0,-33.041000366210945,-126.7509994506836,-28.645999908447266,-4.669713020324707,-8.579806327819824,0.8666583299636841,1002.4000244140624,-0.4196644127368927,-1.5149458646774292,-0.28130343556404114,-3.4207155704498287,-6.5044474601745605,0.25438392162323004,2.833970546722412,7.222630500793457,2.8776564598083496
23,6300.0,-32.650001525878906,-125.9749984741211,-28.32699966430664,-4.669713020324707,-8.579806327819824,0.8666583299636841,1002.4000244140624,-0.4196644127368927,-1.5149458646774292,-0.28130343556404114,-3.4207155704498287,-6.5044474601745605,0.25438392162323004,2.833970546722412,7.222630500793457,2.8776564598083496
24,6400.0,-31.391000747680664,-125.59300231933594,-28.63999938964844,-4.7487335205078125,-8.482579231262207,1.2906489372253418,1002.3300170898438,-1.5238033533096311,-0.1991420686244965,-1.4223997592926023,-1.9147628545761108,-1.2599486112594604,4.168305397033691,4.797463417053223,5.645819664001465,1.4074748754501345
25,6500.0,-31.05599975585937,-125.9000015258789,-28.981000900268555,-4.7487335205078125,-8.482579231262207,1.2906489372253418,1002.280029296875,-1.130406141281128,-1.380555510520935,-0.18997909128665924,-1.9147628545761108,-1.2599486112594604,4.168305397033691,-0.7990851402282715,3.1027426719665527,-1.9537732601165767
26,6600.0,-33.450000762939446,-125.9000015258789,-28.981000900268555,-4.563430309295653,-8.532628059387207,1.5936568975448608,1002.280029296875,-1.130406141281128,-1.380555510520935,-0.18997909128665924,0.2340332120656967,-2.8868086338043213,3.001131772994995,-0.7990851402282715,3.1027426719665527,-1.9537732601165767
27,6700.0,-34.583999633789055,-125.9000015258789,-28.617000579833984,-4.82968282699585,-8.420863151550293,1.3905372619628906,1002.3499755859376,-0.17318029701709747,-0.6362161636352539,-0.5598580241203308,-5.628767967224121,-5.31812047958374,-0.5632359385490417,-2.2180094718933105,-0.8126125335693359,-2.0850172042846684
28,6800.0,-35.20199966430664,-126.23999786376952,-27.9060001373291,-4.82968282699585,-8.420863151550293,1.3905372619628906,1002.3499755859376,-0.17318029701709747,-0.6362161636352539,-0.5598580241203308,-5.628767967224121,-5.31812047958374,-0.5632359385490417,-2.2180094718933105,-0.8126125335693359,-2.0850172042846684
29,6900.0,-35.7140007019043,-126.6520004272461,-27.9060001373291,-5.015472412109375,-8.35538387298584,1.0968103408813477,1002.3400268554688,0.7113525867462158,0.3588833212852478,0.384845107793808,-7.233481884002685,-9.167996406555176,-0.9882067441940308,-0.14289093017578125,-3.0523958206176762,3.424378633499145
30,7000.0,-39.0989990234375,-127.9980010986328,-29.832000732421875,-5.015472412109375,-8.35538387298584,1.0968103408813477,1002.3400268554688,0.7113525867462158,0.3588833212852478,0.384845107793808,-7.233481884002685,-9.167996406555176,-0.9882067441940308,-0.14289093017578125,-3.0523958206176762,3.424378633499145
31,7100.0,-42.097999572753906,-131.27799987792972,-34.867000579833984,-4.839442729949951,-8.402063369750978,1.468172311782837,1002.3099975585938,0.6630942225456238,-0.4758640229701996,2.106263399124145,-4.9823336601257315,-11.454459190368652,4.8925509452819815,-1.1999773979187012,1.0203742980957031,-2.3317553997039795
32,7200.0,-43.54700088500977,-129.39100646972656,-30.54800033569336,-4.839442729949951,-8.402063369750978,1.468172311782837,1002.3099975585938,0.6630942225456238,-0.4758640229701996,2.106263399124145,-4.9823336601257315,-11.454459190368652,4.8925509452819815,-1.1999773979187012,1.0203742980957031,-2.3317553997039795
33,7300.0,-43.66999816894531,-127.08100128173828,-27.5049991607666,-5.018961429595947,-8.339448928833008,1.197502374649048,1002.25,-0.5348125100135803,-0.22510384023189545,-0.07208210229873657,-6.2189388275146475,-7.319074630737305,-1.1342530250549316,4.367265701293944,7.107953071594237,1.4682296514511108
34,7400.0,-43.66999816894531,-126.2020034790039,-28.256000518798828,-4.986765384674072,-8.305652618408201,1.5227268934249878,1002.260009765625,-1.2205088138580322,-0.2822197377681732,-1.9431623220443728,-0.6194996833801271,-1.1976994276046753,2.990956544876098,2.0374743938446045,-0.05048942565917969,-1.5395267009735107
35,7500.0,-43.986000061035156,-127.33599853515624,-31.25900077819824,-4.986765384674072,-8.305652618408201,1.5227268934249878,1002.260009765625,-1.2205088138580322,-0.2822197377681732,-1.9431623220443728,-0.6194996833801271,-1.1976994276046753,2.990956544876098,2.0374743938446045,-0.05048942565917969,-1.5395267009735107
36,7600.0,-44.32500076293945,-128.75,-30.31399917602539,-4.7979888916015625,-8.446532249450684,1.343800663948059,1002.27001953125,-0.616973876953125,-0.8035932183265686,-0.35735616087913513,-2.760514497756958,-8.497021675109862,-0.19572599232196808,0.8228874206542969,3.4622392654418945,-1.077863693237305
37,7700.0,-44.67399978637695,-129.24400329589844,-31.658000946044922,-4.7979888916015625,-8.446532249450684,1.343800663948059,1002.27001953125,-0.616973876953125,-0.8035932183265686,-0.35735616087913513,-2.760514497756958,-8.497021675109862,-0.19572599232196808,0.8228874206542969,3.4622392654418945,-1.077863693237305
38,7800.0,-44.67399978637695,-128.82200622558594,-32.61800003051758,-4.920563697814941,-8.388309478759767,1.2628157138824463,1002.2999877929688,-0.015271631069481371,0.6918048858642578,-0.4838052690029144,-4.0976762771606445,-4.926070213317871,0.1849520802497864,-4.157233238220215,-0.6416549682617188,-0.9616005420684814
39,7900.0,-43.8759994506836,-129.48399353027344,-35.16899871826172,-4.920563697814941,-8.388309478759767,1.2628157138824463,1002.2999877929688,-0.015271631069481371,0.6918048858642578,-0.4838052690029144,-4.0976762771606445,-4.926070213317871,0.1849520802497864,-4.157233238220215,-0.6416549682617188,-0.9616005420684814
40,7000.0,-39.0989990234375,-127.9980010986328,-29.832000732421875,-5.015472412109375,-8.35538387298584,1.0968103408813477,1002.3400268554688,0.7113525867462158,0.3588833212852478,0.384845107793808,-7.233481884002685,-9.167996406555176,-0.9882067441940308,-0.14289093017578125,-3.0523958206176762,3.424378633499145
41,7100.0,-42.097999572753906,-131.27799987792972,-34.867000579833984,-4.839442729949951,-8.402063369750978,1.468172311782837,1002.3099975585938,0.6630942225456238,-0.4758640229701996,2.106263399124145,-4.9823336601257315,-11.454459190368652,4.8925509452819815,-1.1999773979187012,1.0203742980957031,-2.3317553997039795
42,7200.0,-43.54700088500977,-129.39100646972656,-30.54800033569336,-4.839442729949951,-8.402063369750978,1.468172311782837,1002.3099975585938,0.6630942225456238,-0.4758640229701996,2.106263399124145,-4.9823336601257315,-11.454459190368652,4.8925509452819815,-1.1999773979187012,1.0203742980957031,-2.3317553997039795
43,7300.0,-43.66999816894531,-127.08100128173828,-27.5049991607666,-5.018961429595947,-8.339448928833008,1.197502374649048,1002.25,-0.5348125100135803,-0.22510384023189545,-0.07208210229873657,-6.2189388275146475,-7.319074630737305,-1.1342530250549316,4.367265701293944,7.107953071594237,1.4682296514511108
44,7400.0,-43.66999816894531,-126.2020034790039,-28.256000518798828,-4.986765384674072,-8.305652618408201,1.5227268934249878,1002.260009765625,-1.2205088138580322,-0.2822197377681732,-1.9431623220443728,-0.6194996833801271,-1.1976994276046753,2.990956544876098,2.0374743938446045,-0.05048942565917969,-1.5395267009735107
45,7500.0,-43.986000061035156,-127.33599853515624,-31.25900077819824,-4.986765384674072,-8.305652618408201,1.5227268934249878,1002.260009765625,-1.2205088138580322,-0.2822197377681732,-1.9431623220443728,-0.6194996833801271,-1.1976994276046753,2.990956544876098,2.0374743938446045,-0.05048942565917969,-1.5395267009735107
46,7600.0,-44.32500076293945,-128.75,-30.31399917602539,-4.7979888916015625,-8.446532249450684,1.343800663948059,1002.27001953125,-0.616973876953125,-0.8035932183265686,-0.35735616087913513,-2.760514497756958,-8.497021675109862,-0.19572599232196808,0.8228874206542969,3.4622392654418945,-1.077863693237305
47,7700.0,-44.67399978637695,-129.24400329589844,-31.658000946044922,-4.7979888916015625,-8.446532249450684,1.343800663948059,1002.27001953125,-0.616973876953125,-0.8035932183265686,-0.35735616087913513,-2.760514497756958,-8.497021675109862,-0.19572599232196808,0.8228874206542969,3.4622392654418945,-1.077863693237305
48,7800.0,-44.67399978637695,-128.82200622558594,-32.61800003051758,-4.920563697814941,-8.388309478759767,1.2628157138824463,1002.2999877929688,-0.015271631069481371,0.6918048858642578,-0.4838052690029144,-4.0976762771606445,-4.926070213317871,0.1849520802497864,-4.157233238220215,-0.6416549682617188,-0.9616005420684814
49,7900.0,-43.8759994506836,-129.48399353027344,-35.16899871826172,-4.920563697814941,-8.388309478759767,1.2628157138824463,1002.2999877929688,-0.015271631069481371,0.6918048858642578,-0.4838052690029144,-4.0976762771606445,-4.926070213317871,0.1849520802497864,-4.157233238220215,-0.6416549682617188,-0.9616005420684814
50,8000.0,-43.84600067138672,-129.08000183105472,-35.80400085449219,-5.2878923416137695,-8.18576717376709,1.0962743759155271,1002.239990234375,3.765678882598877,0.598647952079773,0.7907650470733643,-9.445125579833984,-8.827422142028809,0.1346738487482071,-0.4605083465576172,-1.000523567199707,-2.435586929321289
51,8100.0,-43.1349983215332,-126.47699737548828,-43.4109992980957,-5.2878923416137695,-8.18576717376709,1.0962743759155271,1002.239990234375,3.765678882598877,0.598647952079773,0.7907650470733643,-9.445125579833984,-8.827422142028809,0.1346738487482071,-0.4605083465576172,-1.000523567199707,-2.435586929321289
52,8200.0,-42.82799911499024,-117.68699645996094,-48.07799911499024,-5.287970066070557,-8.221940994262695,0.7793979644775391,1002.0399780273438,0.2871066629886627,-0.6771441102027893,1.2971723079681396,-5.748478412628174,-9.222464561462402,-1.6561890840530396,4.006867408752441,4.513355731964111,-0.14769643545150754
53,8300.0,-45.42900085449219,-115.15299987792969,-45.94800186157226,-5.181223392486572,-8.285420417785645,0.8228613138198853,1002.25,-1.0079276561737058,-1.5989397764205933,-1.38849675655365,-1.1743559837341309,-3.772064685821533,0.6751648783683777,0.3690023422241211,1.903450012207032,5.74289083480835
54,8400.0,-44.96900177001953,-113.13700103759766,-43.165000915527344,-5.181223392486572,-8.285420417785645,0.8228613138198853,1002.25,-1.0079276561737058,-1.5989397764205933,-1.38849675655365,-1.1743559837341309,-3.772064685821533,0.6751648783683777,0.3690023422241211,1.903450012207032,5.74289083480835
55,8500.0,-39.50600051879883,-112.7509994506836,-42.303001403808594,-5.208282470703125,-8.154111862182617,1.5983301401138306,1002.260009765625,-0.636521577835083,1.2125675678253174,-1.8310685157775881,-4.839280128479004,-6.250661849975586,7.3412208557128915,1.338977336883545,-4.655052185058594,-2.325429201126098
56,8600.0,-42.84600067138672,-113.6729965209961,-39.55799865722656,-5.208282470703125,-8.154111862182617,1.5983301401138306,1002.260009765625,-0.636521577835083,1.2125675678253174,-1.8310685157775881,-4.839280128479004,-6.250661849975586,7.3412208557128915,1.338977336883545,-4.655052185058594,-2.325429201126098
57,8700.0,-40.21699905395508,-113.6729965209961,-44.2760009765625,-4.845884323120117,-8.434048652648926,1.246841311454773,1002.1900024414064,-0.2290744632482529,1.3243558406829834,0.08429940044879912,-3.5069069862365723,-13.08910083770752,-1.0785878896713257,-1.967335224151612,2.589775562286377,-0.6716139316558838
58,8800.0,-39.47100067138672,-113.6729965209961,-44.49599838256836,-4.845884323120117,-8.434048652648926,1.246841311454773,1002.1900024414064,-0.2290744632482529,1.3243558406829834,0.08429940044879912,-3.5069069862365723,-13.08910083770752,-1.0785878896713257,-1.967335224151612,2.589775562286377,-0.6716139316558838
59,8900.0,-36.53400039672852,-114.35299682617188,-42.48899841308594,-5.173371315002441,-8.246675491333008,1.1827759742736816,1002.1799926757812,-0.5189300179481506,0.9159924387931824,-0.6166684627532959,-7.140706539154053,-5.656899929046631,0.5111620426177979,-2.089824676513672,-4.1050024032592765,-1.5823627710342407
60,8000.0,-43.84600067138672,-129.08000183105472,-35.80400085449219,-5.2878923416137695,-8.18576717376709,1.0962743759155271,1002.239990234375,3.765678882598877,0.598647952079773,0.7907650470733643,-9.445125579833984,-8.827422142028809,0.1346738487482071,-0.4605083465576172,-1.000523567199707,-2.435586929321289
61,8100.0,-43.1349983215332,-126.47699737548828,-43.4109992980957,-5.2878923416137695,-8.18576717376709,1.0962743759155271,1002.239990234375,3.765678882598877,0.598647952079773,0.7907650470733643,-9.445125579833984,-8.827422142028809,0.1346738487482071,-0.4605083465576172,-1.000523567199707,-2.435586929321289
62,8200.0,-42.82799911499024,-117.68699645996094,-48.07799911499024,-5.287970066070557,-8.221940994262695,0.7793979644775391,1002.0399780273438,0.2871066629886627,-0.6771441102027893,1.2971723079681396,-5.748478412628174,-9.222464561462402,-1.6561890840530396,4.006867408752441,4.513355731964111,-0.14769643545150754
63,8300.0,-45.42900085449219,-115.15299987792969,-45.94800186157226,-5.181223392486572,-8.285420417785645,0.8228613138198853,1002.25,-1.0079276561737058,-1.5989397764205933,-1.38849675655365,-1.1743559837341309,-3.772064685821533,0.6751648783683777,0.3690023422241211,1.903450012207032,5.74289083480835
64,8400.0,-44.96900177001953,-113.13700103759766,-43.165000915527344,-5.181223392486572,-8.285420417785645,0.8228613138198853,1002.25,-1.0079276561737058,-1.5989397764205933,-1.38849675655365,-1.1743559837341309,-3.772064685821533,0.6751648783683777,0.3690023422241211,1.903450012207032,5.74289083480835
65,8500.0,-39.50600051879883,-112.7509994506836,-42.303001403808594,-5.208282470703125,-8.154111862182617,1.5983301401138306,1002.260009765625,-0.636521577835083,1.2125675678253174,-1.8310685157775881,-4.839280128479004,-6.250661849975586,7.3412208557128915,1.338977336883545,-4.655052185058594,-2.325429201126098
66,8600.0,-42.84600067138672,-113.6729965209961,-39.55799865722656,-5.208282470703125,-8.154111862182617,1.5983301401138306,1002.260009765625,-0.636521577835083,1.2125675678253174,-1.8310685157775881,-4.839280128479004,-6.250661849975586,7.3412208557128915,1.338977336883545,-4.655052185058594,-2.325429201126098
67,8700.0,-40.21699905395508,-113.6729965209961,-44.2760009765625,-4.845884323120117,-8.434048652648926,1.246841311454773,1002.1900024414064,-0.2290744632482529,1.3243558406829834,0.08429940044879912,-3.5069069862365723,-13.08910083770752,-1.0785878896713257,-1.967335224151612,2.589775562286377,-0.6716139316558838
68,8800.0,-39.47100067138672,-113.6729965209961,-44.49599838256836,-4.845884323120117,-8.434048652648926,1.246841311454773,1002.1900024414064,-0.2290744632482529,1.3243558406829834,0.08429940044879912,-3.5069069862365723,-13.08910083770752,-1.0785878896713257,-1.967335224151612,2.589775562286377,-0.6716139316558838
69,8900.0,-36.53400039672852,-114.35299682617188,-42.48899841308594,-5.173371315002441,-8.246675491333008,1.1827759742736816,1002.1799926757812,-0.5189300179481506,0.9159924387931824,-0.6166684627532959,-7.140706539154053,-5.656899929046631,0.5111620426177979,-2.089824676513672,-4.1050024032592765,-1.5823627710342407
70,9000.0,-34.65700149536133,-115.71099853515624,-42.76399993896485,-5.173371315002441,-8.246675491333008,1.1827759742736816,1002.1799926757812,-0.5189300179481506,0.9159924387931824,-0.6166684627532959,-7.140706539154053,-5.656899929046631,0.5111620426177979,-2.089824676513672,-4.1050024032592765,-1.5823627710342407
71,9100.0,-30.110000610351573,-125.56600189208984,-52.89300155639648,-5.1466498374938965,-8.295166969299316,0.9341326355934144,1002.2000122070312,2.977967977523804,0.32559117674827576,2.353358268737793,-7.2364745140075675,-12.400169372558596,-0.6482301354408264,-2.8355154991149902,4.62907600402832,-0.883580207824707
72,9200.0,-21.69099998474121,-126.56199645996094,-63.32699966430664,-5.637564182281494,-7.978564262390138,0.8548498153686523,1002.0999755859376,1.5247195959091189,0.7211264371871948,1.8594738245010376,-8.473079681396483,-3.3494882583618164,-0.028730420395731926,3.9508342742919917,5.749447345733643,-1.4609528779983518
73,9300.0,-17.068000793457028,-122.93299865722656,-66.33300018310547,-5.637564182281494,-7.978564262390138,0.8548498153686523,1002.0999755859376,1.5247195959091189,0.7211264371871948,1.8594738245010376,-8.473079681396483,-3.3494882583618164,-0.028730420395731926,3.9508342742919917,5.749447345733643,-1.4609528779983518
74,9400.0,-8.361000061035156,-95.58799743652344,-182.6580047607422,-5.652513027191162,-7.979047775268555,0.744488000869751,1002.1500244140624,-0.24709498882293696,1.3637566566467283,-1.2852604389190674,-1.7016788721084597,-2.229600429534912,-0.7164648771286011,-1.0907001495361328,0.4024648666381836,-2.779231548309326
75,9500.0,-26.32500076293945,-74.59200286865234,-81.90899658203125,-5.652513027191162,-7.979047775268555,0.744488000869751,1002.1500244140624,-0.24709498882293696,1.3637566566467283,-1.2852604389190674,-1.7016788721084597,-2.229600429534912,-0.7164648771286011,-1.0907001495361328,0.4024648666381836,-2.779231548309326
76,9600.0,-12.765000343322756,-109.0770034790039,-58.13399887084961,-5.781257152557372,-7.91187858581543,0.3868255019187927,1002.239990234375,1.1078041791915894,2.219884395599365,0.2617557644844055,-6.871957302093506,-7.509413719177246,-2.3924059867858887,4.280748367309569,-0.13934326171875,-2.7351667881011963
77,9700.0,-7.427000045776367,-114.2300033569336,-52.90800094604492,-5.781257152557372,-7.91187858581543,0.3868255019187927,1002.239990234375,1.1078041791915894,2.219884395599365,0.2617557644844055,-6.871957302093506,-7.509413719177246,-2.3924059867858887,4.280748367309569,-0.13934326171875,-2.7351667881011963
78,9800.0,3.6559998989105225,-117.20999908447266,-53.88000106811523,-5.407220363616943,-8.181106567382812,0.04288695752620697,1002.1699829101564,0.6820310354232788,0.8326093554496765,-1.0430524349212646,-1.1264718770980835,-8.320449829101562,-2.692279815673828,-3.431999683380127,0.26822757720947266,-3.0163445472717285
79,9900.0,6.556000232696532,-121.96299743652344,-55.85900115966797,-5.407220363616943,-8.181106567382812,0.04288695752620697,1002.1699829101564,0.6820310354232788,0.8326093554496765,-1.0430524349212646,-1.1264718770980835,-8.320449829101562,-2.692279815673828,-3.431999683380127,0.26822757720947266,-3.0163445472717285
80,9000.0,-34.65700149536133,-115.71099853515624,-42.76399993896485,-5.173371315002441,-8.246675491333008,1.1827759742736816,1002.1799926757812,-0.5189300179481506,0.9159924387931824,-0.6166684627532959,-7.140706539154053,-5.656899929046631,0.5111620426177979,-2.089824676513672,-4.1050024032592765,-1.5823627710342407
81,9100.0,-30.110000610351573,-125.56600189208984,-52.89300155639648,-5.1466498374938965,-8.295166969299316,0.9341326355934144,1002.2000122070312,2.977967977523804,0.32559117674827576,2.353358268737793,-7.2364745140075675,-12.400169372558596,-0.6482301354408264,-2.8355154991149902,4.62907600402832,-0.883580207824707
82,9200.0,-21.69099998474121,-126.56199645996094,-63.32699966430664,-5.637564182281494,-7.978564262390138,0.8548498153686523,1002.0999755859376,1.5247195959091189,0.7211264371871948,1.8594738245010376,-8.473079681396483,-3.3494882583618164,-0.028730420395731926,3.9508342742919917,5.749447345733643,-1.4609528779983518
83,9300.0,-17.068000793457028,-122.93299865722656,-66.33300018310547,-5.637564182281494,-7.978564262390138,0.8548498153686523,1002.0999755859376,1.5247195959091189,0.7211264371871948,1.8594738245010376,-8.473079681396483,-3.3494882583618164,-0.028730420395731926,3.9508342742919917,5.749447345733643,-1.4609528779983518
84,9400.0,-8.361000061035156,-95.58799743652344,-182.6580047607422,-5.652513027191162,-7.979047775268555,0.744488000869751,1002.1500244140624,-0.24709498882293696,1.3637566566467283,-1.2852604389190674,-1.7016788721084597,-2.229600429534912,-0.7164648771286011,-1.0907001495361328,0.4024648666381836,-2.779231548309326
85,9500.0,-26.32500076293945,-74.59200286865234,-81.90899658203125,-5.652513027191162,-7.979047775268555,0.744488000869751,1002.1500244140624,-0.24709498882293696,1.3637566566467283,-1.2852604389190674,-1.7016788721084597,-2.229600429534912,-0.7164648771286011,-1.0907001495361328,0.4024648666381836,-2.779231548309326
86,9600.0,-12.765000343322756,-109.0770034790039,-58.13399887084961,-5.781257152557372,-7.91187858581543,0.3868255019187927,1002.239990234375,1.1078041791915894,2.219884395599365,0.2617557644844055,-6.871957302093506,-7.509413719177246,-2.3924059867858887,4.280748367309569,-0.13934326171875,-2.7351667881011963
87,9700.0,-7.427000045776367,-114.2300033569336,-52.90800094604492,-5.781257152557372,-7.91187858581543,0.3868255019187927,1002.239990234375,1.1078041791915894,2.219884395599365,0.2617557644844055,-6.871957302093506,-7.509413719177246,-2.3924059867858887,4.280748367309569,-0.13934326171875,-2.7351667881011963
88,9800.0,3.6559998989105225,-117.20999908447266,-53.88000106811523,-5.407220363616943,-8.181106567382812,0.04288695752620697,1002.1699829101564,0.6820310354232788,0.8326093554496765,-1.0430524349212646,-1.1264718770980835,-8.320449829101562,-2.692279815673828,-3.431999683380127,0.26822757720947266,-3.0163445472717285
89,9900.0,6.556000232696532,-121.96299743652344,-55.85900115966797,-5.407220363616943,-8.181106567382812,0.04288695752620697,1002.1699829101564,0.6820310354232788,0.8326093554496765,-1.0430524349212646,-1.1264718770980835,-8.320449829101562,-2.692279815673828,-3.431999683380127,0.26822757720947266,-3.0163445472717285
90,10000.0,15.890000343322756,-124.16000366210938,-46.05199813842773,-5.714449405670166,-7.962593078613281,-0.33553779125213623,1002.4199829101564,2.61939024925232,0.9828822016716005,1.7528778314590454,-9.146449089050293,-7.694365501403809,-3.3518824577331543,-1.5891165733337402,0.1529541015625,-0.8300473690032959
91,10100.0,11.70300006866455,-130.69900512695312,-39.24399948120117,-5.848471164703369,-7.859889507293701,-0.4334925413131714,1002.1500244140624,2.06411361694336,1.5625933408737185,2.666121244430542,-7.437587738037107,-7.706935405731201,-1.2635399103164673,-7.7089762687683105,-6.2561564445495605,2.3308048248291016
92,10200.0,6.997000217437744,-143.79100036621094,-35.505001068115234,-5.848471164703369,-7.859889507293701,-0.4334925413131714,1002.1500244140624,2.06411361694336,1.5625933408737185,2.666121244430542,-7.437587738037107,-7.706935405731201,-1.2635399103164673,-7.7089762687683105,-6.2561564445495605,2.3308048248291016
93,10300.0,-3.788000106811523,-154.51499938964844,-32.639999389648445,-6.064267635345459,-7.705630779266357,-0.13532178103923798,1002.1099853515624,1.056491494178772,-0.8326093554496765,0.6450737118721008,-13.77324390411377,-13.961787223815918,2.1954829692840576,4.346517562866212,9.144572257995604,2.4051549434661865
94,10400.0,-6.86899995803833,-162.052001953125,-28.572999954223643,-6.064267635345459,-7.705630779266357,-0.13532178103923798,1002.1099853515624,1.056491494178772,-0.8326093554496765,0.6450737118721008,-13.77324390411377,-13.961787223815918,2.1954829692840576,4.346517562866212,9.144572257995604,2.4051549434661865
95,10500.0,-4.468999862670898,-165.60000610351562,-28.59600067138672,-6.276244163513184,-7.533873081207275,0.14107845723628998,1002.219970703125,-1.560455322265625,-1.3946053981781006,-1.7095063924789429,-1.9297266006469729,1.61069917678833,2.5462334156036377,-13.21074676513672,-12.279061317443848,11.36147689819336
96,10600.0,2.0580000877380367,-166.3249969482422,-30.434999465942386,-6.276244163513184,-7.533873081207275,0.14107845723628998,1002.219970703125,-1.560455322265625,-1.3946053981781006,-1.7095063924789429,-1.9297266006469729,1.61069917678833,2.5462334156036377,-13.21074676513672,-12.279061317443848,11.36147689819336
97,10700.0,4.184999942779541,-166.09100341796875,-30.75200080871582,-6.398362636566162,-7.329449653625487,1.2290312051773071,1002.2100219726564,-0.4691445231437683,1.7666223049163818,0.39095374941825867,-19.60910987854004,-19.608510971069336,12.590508460998535,-1.06097412109375,1.8788251876831048,5.468024253845215
98,10800.0,6.613999843597412,-165.4510040283203,-30.191999435424805,-6.398362636566162,-7.329449653625487,1.2290312051773071,1002.2100219726564,-0.4691445231437683,1.7666223049163818,0.39095374941825867,-19.60910987854004,-19.608510971069336,12.590508460998535,-1.06097412109375,1.8788251876831048,5.468024253845215
99,10900.0,7.5879998207092285,-165.81500244140625,-28.770000457763672,-6.493929386138916,-7.132302284240723,1.7690490484237669,1002.239990234375,0.10842858254909517,-0.2929098904132843,-0.15515977144241333,-7.554903507232666,-5.253477096557617,7.237073421478271,-0.591888427734375,-2.9754929542541504,-2.439694404602051
100,10000.0,15.890000343322756,-124.16000366210938,-46.05199813842773,-5.714449405670166,-7.962593078613281,-0.33553779125213623,1002.4199829101564,2.61939024925232,0.9828822016716005,1.7528778314590454,-9.146449089050293,-7.694365501403809,-3.3518824577331543,-1.5891165733337402,0.1529541015625,-0.8300473690032959
101,10100.0,11.70300006866455,-130.69900512695312,-39.24399948120117,-5.848471164703369,-7.859889507293701,-0.4334925413131714,1002.1500244140624,2.06411361694336,1.5625933408737185,2.666121244430542,-7.437587738037107,-7.706935405731201,-1.2635399103164673,-7.7089762687683105,-6.2561564445495605,2.3308048248291016
102,10200.0,6.997000217437744,-143.79100036621094,-35.505001068115234,-5.848471164703369,-7.859889507293701,-0.4334925413131714,1002.1500244140624,2.06411361694336,1.5625933408737185,2.666121244430542,-7.437587738037107,-7.706935405731201,-1.2635399103164673,-7.7089762687683105,-6.2561564445495605,2.3308048248291016
103,10300.0,-3.788000106811523,-154.51499938964844,-32.639999389648445,-6.064267635345459,-7.705630779266357,-0.13532178103923798,1002.1099853515624,1.056491494178772,-0.8326093554496765,0.6450737118721008,-13.77324390411377,-13.961787223815918,2.1954829692840576,4.346517562866212,9.144572257995604,2.4051549434661865
104,10400.0,-6.86899995803833,-162.052001953125,-28.572999954223643,-6.064267635345459,-7.705630779266357,-0.13532178103923798,1002.1099853515624,1.056491494178772,-0.8326093554496765,0.6450737118721008,-13.77324390411377,-13.961787223815918,2.1954829692840576,4.346517562866212,9.144572257995604,2.4051549434661865
105,10500.0,-4.468999862670898,-165.60000610351562,-28.59600067138672,-6.276244163513184,-7.533873081207275,0.14107845723628998,1002.219970703125,-1.560455322265625,-1.3946053981781006,-1.7095063924789429,-1.9297266006469729,1.61069917678833,2.5462334156036377,-13.21074676513672,-12.279061317443848,11.36147689819336
106,10600.0,2.0580000877380367,-166.3249969482422,-30.434999465942386,-6.276244163513184,-7.533873081207275,0.14107845723628998,1002.219970703125,-1.560455322265625,-1.3946053981781006,-1.7095063924789429,-1.9297266006469729,1.61069917678833,2.5462334156036377,-13.21074676513672,-12.279061317443848,11.36147689819336
107,10700.0,4.184999942779541,-166.09100341796875,-30.75200080871582,-6.398362636566162,-7.329449653625487,1.2290312051773071,1002.2100219726564,-0.4691445231437683,1.7666223049163818,0.39095374941825867,-19.60910987854004,-19.608510971069336,12.590508460998535,-1.06097412109375,1.8788251876831048,5.468024253845215
108,10800.0,6.613999843597412,-165.4510040283203,-30.191999435424805,-6.398362636566162,-7.329449653625487,1.2290312051773071,1002.2100219726564,-0.4691445231437683,1.7666223049163818,0.39095374941825867,-19.60910987854004,-19.608510971069336,12.590508460998535,-1.06097412109375,1.8788251876831048,5.468024253845215
109,10900.0,7.5879998207092285,-165.81500244140625,-28.770000457763672,-6.493929386138916,-7.132302284240723,1.7690490484237669,1002.239990234375,0.10842858254909517,-0.2929098904132843,-0.15515977144241333,-7.554903507232666,-5.253477096557617,7.237073421478271,-0.591888427734375,-2.9754929542541504,-2.439694404602051
110,11000.0,7.5879998207092285,-166.16200256347656,-26.82900047302246,-6.41115140914917,-7.269296169281006,1.4915906190872192,1002.260009765625,2.0219640731811523,1.3078625202178955,1.0051788091659546,-7.003039836883545,-10.244789123535156,-0.9481038451194764,-0.591888427734375,-2.9754929542541504,-2.439694404602051
111,11100.0,7.5879998207092285,-170.3679962158203,-25.197999954223643,-6.41115140914917,-7.269296169281006,1.4915906190872192,1002.260009765625,2.0219640731811523,1.3078625202178955,1.0051788091659546,-7.003039836883545,-10.244789123535156,-0.9481038451194764,-1.296654224395752,-4.726977825164795,2.8205623626708984
112,11200.0,-1.159000039100647,-176.35299682617188,-14.708999633789064,-6.235504150390625,-7.378105640411378,1.6889166831970217,1002.2000122070312,1.1047497987747192,-0.1814269721508026,1.1493430137634275,-7.532158374786378,-12.105083465576172,4.50947904586792,1.0169363021850586,1.8028864860534668,-2.5384900569915767
113,11300.0,-5.690999984741211,-177.6909942626953,-11.027000427246094,-6.235504150390625,-7.378105640411378,1.6889166831970217,1002.2000122070312,1.1047497987747192,-0.1814269721508026,1.1493430137634275,-7.532158374786378,-12.105083465576172,4.50947904586792,1.0169363021850586,1.8028864860534668,-2.5384900569915767
114,11400.0,-9.14900016784668,-177.6909942626953,-6.802999973297119,-6.286574363708496,-7.379580974578857,1.4802528619766235,1002.0999755859376,-0.4276056587696075,-1.303586483001709,-0.8243626356124878,-5.2696380615234375,-5.5766944885253915,-1.0582371950149536,1.6222004890441897,9.403279304504396,0.7443944215774536
115,11500.0,-10.20199966430664,-177.43499755859375,-6.234000205993652,-6.286574363708496,-7.379580974578857,1.4802528619766235,1002.0999755859376,-0.4276056587696075,-1.303586483001709,-0.8243626356124878,-5.2696380615234375,-5.5766944885253915,-1.0582371950149536,1.6222004890441897,9.403279304504396,0.7443944215774536
116,11600.0,-7.934000015258789,-178.3730010986328,-10.251999855041504,-4.214522361755371,-8.794553756713867,1.0315046310424805,1002.1500244140624,-1.2513574361801147,0.7965682744979858,-1.4550809860229492,-2.5923218727111816,0.6087257862091064,1.775899052619934,0.7767115831375122,4.113152503967285,1.3444150686264038
117,11700.0,-7.881999969482423,-180.78399658203125,-13.496000289916992,-4.214522361755371,-8.794553756713867,1.0315046310424805,1002.1500244140624,-1.2513574361801147,0.7965682744979858,-1.4550809860229492,-2.5923218727111816,0.6087257862091064,1.775899052619934,0.7767115831375122,4.113152503967285,1.3444150686264038
118,11800.0,-5.296000003814697,-180.8769989013672,-15.288999557495115,-1.890613913536072,-9.52045726776123,-1.3988831043243408,1002.1099853515624,-0.2693915665149689,-0.6676757335662842,0.03878994286060333,-1.1139023303985596,-5.407304763793945,-0.05446808785200119,0.2522244453430176,2.635687828063965,-0.538826584815979
119,11900.0,-5.296000003814697,-181.3070068359375,-15.182000160217285,-6.277233123779298,-7.248715877532959,2.0549547672271733,1002.260009765625,0.007941247895359993,0.5555819272994995,-0.5079344511032104,-6.025008678436277,-4.613028049468994,1.5161281824111938,-5.133707523345947,0.4264192581176758,0.4428990483283997
120,11000.0,7.5879998207092285,-166.16200256347656,-26.82900047302246,-6.41115140914917,-7.269296169281006,1.4915906190872192,1002.260009765625,2.0219640731811523,1.3078625202178955,1.0051788091659546,-7.003039836883545,-10.244789123535156,-0.9481038451194764,-0.591888427734375,-2.9754929542541504,-2.439694404602051
121,11100.0,7.5879998207092285,-170.3679962158203,-25.197999954223643,-6.41115140914917,-7.269296169281006,1.4915906190872192,1002.260009765625,2.0219640731811523,1.3078625202178955,1.0051788091659546,-7.003039836883545,-10.244789123535156,-0.9481038451194764,-1.296654224395752,-4.726977825164795,2.8205623626708984
122,11200.0,-1.159000039100647,-176.35299682617188,-14.708999633789064,-6.235504150390625,-7.378105640411378,1.6889166831970217,1002.2000122070312,1.1047497987747192,-0.1814269721508026,1.1493430137634275,-7.532158374786378,-12.105083465576172,4.50947904586792,1.0169363021850586,1.8028864860534668,-2.5384900569915767
123,11300.0,-5.690999984741211,-177.6909942626953,-11.027000427246094,-6.235504150390625,-7.378105640411378,1.6889166831970217,1002.2000122070312,1.1047497987747192,-0.1814269721508026,1.1493430137634275,-7.532158374786378,-12.105083465576172,4.50947904586792,1.0169363021850586,1.8028864860534668,-2.5384900569915767
124,11400.0,-9.14900016784668,-177.6909942626953,-6.802999973297119,-6.286574363708496,-7.379580974578857,1.4802528619766235,1002.0999755859376,-0.4276056587696075,-1.303586483001709,-0.8243626356124878,-5.2696380615234375,-5.5766944885253915,-1.0582371950149536,1.6222004890441897,9.403279304504396,0.7443944215774536
125,11500.0,-10.20199966430664,-177.43499755859375,-6.234000205993652,-6.286574363708496,-7.379580974578857,1.4802528619766235,1002.0999755859376,-0.4276056587696075,-1.303586483001709,-0.8243626356124878,-5.2696380615234375,-5.5766944885253915,-1.0582371950149536,1.6222004890441897,9.403279304504396,0.7443944215774536
126,11600.0,-7.934000015258789,-178.3730010986328,-10.251999855041504,-4.214522361755371,-8.794553756713867,1.0315046310424805,1002.1500244140624,-1.2513574361801147,0.7965682744979858,-1.4550809860229492,-2.5923218727111816,0.6087257862091064,1.775899052619934,0.7767115831375122,4.113152503967285,1.3444150686264038
127,11700.0,-7.881999969482423,-180.78399658203125,-13.496000289916992,-4.214522361755371,-8.794553756713867,1.0315046310424805,1002.1500244140624,-1.2513574361801147,0.7965682744979858,-1.4550809860229492,-2.5923218727111816,0.6087257862091064,1.775899052619934,0.7767115831375122,4.113152503967285,1.3444150686264038
128,11800.0,-5.296000003814697,-180.8769989013672,-15.288999557495115,-1.890613913536072,-9.52045726776123,-1.3988831043243408,1002.1099853515624,-0.2693915665149689,-0.6676757335662842,0.03878994286060333,-1.1139023303985596,-5.407304763793945,-0.05446808785200119,0.2522244453430176,2.635687828063965,-0.538826584815979
129,11900.0,-5.296000003814697,-181.3070068359375,-15.182000160217285,-6.277233123779298,-7.248715877532959,2.0549547672271733,1002.260009765625,0.007941247895359993,0.5555819272994995,-0.5079344511032104,-6.025008678436277,-4.613028049468994,1.5161281824111938,-5.133707523345947,0.4264192581176758,0.4428990483283997
130,12000.0,-5.710999965667725,-181.66900634765625,-15.461000442504885,-6.277233123779298,-7.248715877532959,2.0549547672271733,1002.260009765625,0.007941247895359993,0.5555819272994995,-0.5079344511032104,-6.025008678436277,-4.613028049468994,1.5161281824111938,-5.133707523345947,0.4264192581176758,0.4428990483283997
131,12100.0,-5.035999774932861,-181.66900634765625,-15.760000228881836,-6.2022385597229,-7.537796974182129,0.9403509497642516,1002.1300048828124,3.5329391956329346,0.30573806166648865,1.3041973114013672,-11.335946083068848,-7.111377716064452,1.3832499980926514,1.3346357345581057,-5.361975193023682,-5.1806254386901855
132,12200.0,-7.090000152587893,-181.66900634765625,-15.760000228881836,-6.2022385597229,-7.537796974182129,0.9403509497642516,1002.1300048828124,3.5329391956329346,0.30573806166648865,1.3041973114013672,-11.335946083068848,-7.111377716064452,1.3832499980926514,1.3346357345581057,-5.361975193023682,-5.1806254386901855
133,12300.0,-13.505000114440918,-176.89199829101562,-6.915999889373777,-8.068327903747559,-3.5360751152038574,4.309135913848877,1001.969970703125,0.07391469180583954,-1.608102798461914,0.7678576111793518,-6.733692169189452,-8.898050308227539,-0.871489405632019,6.578744411468506,-1.3029279708862305,-7.552379131317139
134,12400.0,-16.791999816894528,-171.4290008544922,-6.2829999923706055,-8.068327903747559,-3.5360751152038574,4.309135913848877,1001.969970703125,0.07391469180583954,-1.608102798461914,0.7678576111793518,-6.733692169189452,-8.898050308227539,-0.871489405632019,6.578744411468506,-1.3029279708862305,-7.552379131317139
135,12500.0,-18.57900047302246,-169.447998046875,-6.7729997634887695,-6.922910690307617,-2.2997469902038574,6.553997039794923,1002.1699829101564,-0.8552113175392151,-1.8167132139205933,-1.8054121732711792,-0.34416648745536804,-3.602674961090088,-0.9983820915222168,-5.960643291473389,-3.2155370712280287,-7.53526496887207
136,12600.0,-18.57900047302246,-171.72300720214844,-7.666999816894531,-6.922910690307617,-2.2997469902038574,6.553997039794923,1002.1699829101564,-0.8552113175392151,-1.8167132139205933,-1.8054121732711792,-0.34416648745536804,-3.602674961090088,-0.9983820915222168,-5.960643291473389,-3.2155370712280287,-7.53526496887207
137,12700.0,-18.048999786376953,-171.72300720214844,-13.229000091552734,-3.6658434867858887,-9.069710731506348,0.6872496008872986,1002.1699829101564,-1.066265344619751,2.057699680328369,-0.2638937830924988,-9.626486778259276,-12.285247802734375,-6.848015308380128,-1.8665513992309568,0.3782124519348145,8.470302581787111
138,12800.0,-18.048999786376953,-171.34800720214844,-17.11199951171875,-5.836194038391112,-7.347135066986084,-2.851111650466919,1002.1699829101564,-0.2657263875007629,-1.7055357694625854,-0.27122417092323303,-7.70274543762207,-6.9689226150512695,5.6191911697387695,-1.22825288772583,-0.00827646255493164,-2.7679309844970703
139,12900.0,-18.048999786376953,-171.34800720214844,-20.045000076293945,-5.836194038391112,-7.347135066986084,-2.851111650466919,1002.1699829101564,-0.2657263875007629,-1.7055357694625854,-0.27122417092323303,-7.70274543762207,-6.9689226150512695,5.6191911697387695,-1.22825288772583,-0.00827646255493164,-2.7679309844970703
140,12000.0,-5.710999965667725,-181.66900634765625,-15.461000442504885,-6.277233123779298,-7.248715877532959,2.0549547672271733,1002.260009765625,0.007941247895359993,0.5555819272994995,-0.5079344511032104,-6.025008678436277,-4.613028049468994,1.5161281824111938,-5.133707523345947,0.4264192581176758,0.4428990483283997
141,12100.0,-5.035999774932861,-181.66900634765625,-15.760000228881836,-6.2022385597229,-7.537796974182129,0.9403509497642516,1002.1300048828124,3.5329391956329346,0.30573806166648865,1.3041973114013672,-11.335946083068848,-7.111377716064452,1.3832499980926514,1.3346357345581057,-5.361975193023682,-5.1806254386901855
142,12200.0,-7.090000152587893,-181.66900634765625,-15.760000228881836,-6.2022385597229,-7.537796974182129,0.9403509497642516,1002.1300048828124,3.5329391956329346,0.30573806166648865,1.3041973114013672,-11.335946083068848,-7.111377716064452,1.3832499980926514,1.3346357345581057,-5.361975193023682,-5.1806254386901855
143,12300.0,-13.505000114440918,-176.89199829101562,-6.915999889373777,-8.068327903747559,-3.5360751152038574,4.309135913848877,1001.969970703125,0.07391469180583954,-1.608102798461914,0.7678576111793518,-6.733692169189452,-8.898050308227539,-0.871489405632019,6.578744411468506,-1.3029279708862305,-7.552379131317139
144,12400.0,-16.791999816894528,-171.4290008544922,-6.2829999923706055,-8.068327903747559,-3.5360751152038574,4.309135913848877,1001.969970703125,0.07391469180583954,-1.608102798461914,0.7678576111793518,-6.733692169189452,-8.898050308227539,-0.871489405632019,6.578744411468506,-1.3029279708862305,-7.552379131317139
145,12500.0,-18.57900047302246,-169.447998046875,-6.7729997634887695,-6.922910690307617,-2.2997469902038574,6.553997039794923,1002.1699829101564,-0.8552113175392151,-1.8167132139205933,-1.8054121732711792,-0.34416648745536804,-3.602674961090088,-0.9983820915222168,-5.960643291473389,-3.2155370712280287,-7.53526496887207
146,12600.0,-18.57900047302246,-171.72300720214844,-7.666999816894531,-6.922910690307617,-2.2997469902038574,6.553997039794923,1002.1699829101564,-0.8552113175392151,-1.8167132139205933,-1.8054121732711792,-0.34416648745536804,-3.602674961090088,-0.9983820915222168,-5.960643291473389,-3.2155370712280287,-7.53526496887207
147,12700.0,-18.048999786376953,-171.72300720214844,-13.229000091552734,-3.6658434867858887,-9.069710731506348,0.6872496008872986,1002.1699829101564,-1.066265344619751,2.057699680328369,-0.2638937830924988,-9.626486778259276,-12.285247802734375,-6.848015308380128,-1.8665513992309568,0.3782124519348145,8.470302581787111
148,12800.0,-18.048999786376953,-171.34800720214844,-17.11199951171875,-5.836194038391112,-7.347135066986084,-2.851111650466919,1002.1699829101564,-0.2657263875007629,-1.7055357694625854,-0.27122417092323303,-7.70274543762207,-6.9689226150512695,5.6191911697387695,-1.22825288772583,-0.00827646255493164,-2.7679309844970703
149,12900.0,-18.048999786376953,-171.34800720214844,-20.045000076293945,-5.836194038391112,-7.347135066986084,-2.851111650466919,1002.1699829101564,-0.2657263875007629,-1.7055357694625854,-0.27122417092323303,-7.70274543762207,-6.9689226150512695,5.6191911697387695,-1.22825288772583,-0.00827646255493164,-2.7679309844970703
150,13000.0,-17.732999801635742,-171.6719970703125,-20.61100006103516,-5.781371116638184,-7.598102569580077,2.239410877227783,1002.0999755859376,0.4999932050704956,0.3029891550540924,0.2464841306209564,-7.009624004364014,-7.60637903213501,-0.5285200476646423,-3.3488354682922363,-2.0747818946838383,-1.560805082321167
151,13100.0,-17.732999801635742,-171.27499389648438,-20.527000427246094,-5.781371116638184,-7.598102569580077,2.239410877227783,1002.0999755859376,0.4999932050704956,0.3029891550540924,0.2464841306209564,-7.009624004364014,-7.60637903213501,-0.5285200476646423,-3.3488354682922363,-2.0747818946838383,-1.560805082321167
152,13200.0,-22.80200004577637,-165.0449981689453,-19.66200065612793,-7.066540241241455,-6.752640247344973,0.797653317451477,1002.1199951171876,-0.7235698699951172,-0.960280179977417,0.2977968156337738,-10.415375709533693,-8.827422142028809,-0.7631517648696899,-6.516280651092527,0.02558612823486328,4.836914539337158
153,13300.0,-25.5049991607666,-159.7830047607422,-16.346000671386722,-7.066540241241455,-6.752640247344973,0.797653317451477,1002.1199951171876,-0.7235698699951172,-0.960280179977417,0.2977968156337738,-10.415375709533693,-8.827422142028809,-0.7631517648696899,-6.516280651092527,0.02558612823486328,4.836914539337158
154,13400.0,-26.6200008392334,-153.34100341796875,-13.616000175476074,-7.221648693084718,-6.479755401611327,1.4251198768615725,1002.0999755859376,-0.2935207486152649,-0.26664268970489496,0.6475171446800232,-13.737929344177244,-6.454169273376465,6.2620344161987305,4.785919189453125,3.0006263256073,0.2864933013916016
155,13500.0,-26.23900032043457,-149.3979949951172,-12.272000312805176,-7.221648693084718,-6.479755401611327,1.4251198768615725,1002.0999755859376,-0.2935207486152649,-0.26664268970489496,0.6475171446800232,-13.737929344177244,-6.454169273376465,6.2620344161987305,4.785919189453125,3.0006263256073,0.2864933013916016
156,13600.0,-26.65500068664551,-149.656005859375,-13.522000312805176,-7.920527935028076,-5.577385902404785,1.525917410850525,1002.1099853515624,-0.3136793076992035,0.007635815534740685,-0.3988949954509735,-3.134608507156372,-2.5767595767974854,1.8124107122421265,3.957941293716431,1.5291643142700195,-0.6569706201553345
157,13700.0,-26.992000579833984,-150.5489959716797,-13.522000312805176,-7.570791721343994,-6.108075141906737,1.242951512336731,1002.0900268554688,-0.8332201838493347,1.0436632633209229,-0.4734205603599548,-3.612850427627564,-4.578910827636719,0.5859808921813965,-2.074115753173828,2.1427245140075684,2.4058663845062256
158,13800.0,-26.992000579833984,-150.18600463867188,-15.027999877929688,-7.570791721343994,-6.108075141906737,1.242951512336731,1002.0900268554688,-0.8332201838493347,1.0436632633209229,-0.4734205603599548,-3.612850427627564,-4.578910827636719,0.5859808921813965,-2.074115753173828,2.1427245140075684,2.4058663845062256
159,13900.0,-26.67600059509277,-150.18600463867188,-16.63599967956543,-6.617434501647949,-7.146007537841798,-1.1465163230895996,1002.0599975585938,-0.22052235901355746,1.0858129262924194,-0.3549126982688904,-8.691550254821777,-5.0032830238342285,1.259350061416626,-0.3211598396301269,0.4677624702453613,0.03916251659393311
160,13000.0,-17.732999801635742,-171.6719970703125,-20.61100006103516,-5.781371116638184,-7.598102569580077,2.239410877227783,1002.0999755859376,0.4999932050704956,0.3029891550540924,0.2464841306209564,-7.009624004364014,-7.60637903213501,-0.5285200476646423,-3.3488354682922363,-2.0747818946838383,-1.560805082321167
161,13100.0,-17.732999801635742,-171.27499389648438,-20.527000427246094,-5.781371116638184,-7.598102569580077,2.239410877227783,1002.0999755859376,0.4999932050704956,0.3029891550540924,0.2464841306209564,-7.009624004364014,-7.60637903213501,-0.5285200476646423,-3.3488354682922363,-2.0747818946838383,-1.560805082321167
162,13200.0,-22.80200004577637,-165.0449981689453,-19.66200065612793,-7.066540241241455,-6.752640247344973,0.797653317451477,1002.1199951171876,-0.7235698699951172,-0.960280179977417,0.2977968156337738,-10.415375709533693,-8.827422142028809,-0.7631517648696899,-6.516280651092527,0.02558612823486328,4.836914539337158
163,13300.0,-25.5049991607666,-159.7830047607422,-16.346000671386722,-7.066540241241455,-6.752640247344973,0.797653317451477,1002.1199951171876,-0.7235698699951172,-0.960280179977417,0.2977968156337738,-10.415375709533693,-8.827422142028809,-0.7631517648696899,-6.516280651092527,0.02558612823486328,4.836914539337158
164,13400.0,-26.6200008392334,-153.34100341796875,-13.616000175476074,-7.221648693084718,-6.479755401611327,1.4251198768615725,1002.0999755859376,-0.2935207486152649,-0.26664268970489496,0.6475171446800232,-13.737929344177244,-6.454169273376465,6.2620344161987305,4.785919189453125,3.0006263256073,0.2864933013916016
165,13500.0,-26.23900032043457,-149.3979949951172,-12.272000312805176,-7.221648693084718,-6.479755401611327,1.4251198768615725,1002.0999755859376,-0.2935207486152649,-0.26664268970489496,0.6475171446800232,-13.737929344177244,-6.454169273376465,6.2620344161987305,4.785919189453125,3.0006263256073,0.2864933013916016
166,13600.0,-26.65500068664551,-149.656005859375,-13.522000312805176,-7.920527935028076,-5.577385902404785,1.525917410850525,1002.1099853515624,-0.3136793076992035,0.007635815534740685,-0.3988949954509735,-3.134608507156372,-2.5767595767974854,1.8124107122421265,3.957941293716431,1.5291643142700195,-0.6569706201553345
167,13700.0,-26.992000579833984,-150.5489959716797,-13.522000312805176,-7.570791721343994,-6.108075141906737,1.242951512336731,1002.0900268554688,-0.8332201838493347,1.0436632633209229,-0.4734205603599548,-3.612850427627564,-4.578910827636719,0.5859808921813965,-2.074115753173828,2.1427245140075684,2.4058663845062256
168,13800.0,-26.992000579833984,-150.18600463867188,-15.027999877929688,-7.570791721343994,-6.108075141906737,1.242951512336731,1002.0900268554688,-0.8332201838493347,1.0436632633209229,-0.4734205603599548,-3.612850427627564,-4.578910827636719,0.5859808921813965,-2.074115753173828,2.1427245140075684,2.4058663845062256
169,13900.0,-26.67600059509277,-150.18600463867188,-16.63599967956543,-6.617434501647949,-7.146007537841798,-1.1465163230895996,1002.0599975585938,-0.22052235901355746,1.0858129262924194,-0.3549126982688904,-8.691550254821777,-5.0032830238342285,1.259350061416626,-0.3211598396301269,0.4677624702453613,0.03916251659393311
170,14000.0,-26.28400039672852,-150.49400329589844,-16.972999572753903,-6.617434501647949,-7.146007537841798,-1.1465163230895996,1002.0599975585938,-0.22052235901355746,1.0858129262924194,-0.3549126982688904,-8.691550254821777,-5.0032830238342285,1.259350061416626,-0.3211598396301269,0.4677624702453613,0.03916251659393311
171,14100.0,-25.54400062561035,-150.8249969482422,-17.43899917602539,-6.821342468261719,-7.017699718475343,-0.6257419586181641,1002.0700073242188,0.3585779070854187,0.618195652961731,0.20311269164085388,-7.142502307891848,-6.5499372482299805,-0.586579442024231,-0.4370236396789551,-3.1076936721801762,-0.752950131893158
172,14200.0,-24.707000732421875,-150.8249969482422,-17.80299949645996,-6.821342468261719,-7.017699718475343,-0.6257419586181641,1002.0700073242188,0.3585779070854187,0.618195652961731,0.20311269164085388,-7.142502307891848,-6.5499372482299805,-0.586579442024231,-0.4370236396789551,-3.1076936721801762,-0.752950131893158
173,14300.0,-23.97900009155273,-150.20700073242188,-18.11899948120117,-7.432717323303223,-6.377534866333008,0.5021575093269348,1002.0800170898438,1.4559973478317259,-0.3338378667831421,0.685390830039978,-7.869740962982178,-9.485228538513184,-0.25079262256622314,-1.9262018203735352,-4.733975887298584,2.2250263690948486
174,14400.0,-20.63400077819824,-148.66700744628906,-16.499000549316403,-7.432717323303223,-6.377534866333008,0.5021575093269348,1002.0800170898438,1.4559973478317259,-0.3338378667831421,0.685390830039978,-7.869740962982178,-9.485228538513184,-0.25079262256622314,-1.9262018203735352,-4.733975887298584,2.2250263690948486
175,14500.0,-17.416000366210938,-147.86199951171875,-15.538999557495115,-7.651802062988281,-5.173829555511475,3.2942073345184326,1001.7999877929688,0.6688974499702454,0.8665123581886292,1.0503827333450315,-9.578003883361816,-9.90780544281006,5.519233703613281,5.031322479248047,0.008088111877441406,-1.1862765550613403
176,14600.0,-15.895999908447266,-147.5019989013672,-15.538999557495115,-8.948236465454102,-3.11276912689209,2.53181791305542,1002.030029296875,-0.4792237877845764,-0.9673051238059998,-1.7486017942428589,-3.916913986206055,-3.1046810150146484,1.3455413579940796,-8.19996166229248,-7.134689807891848,-5.19223690032959
177,14700.0,-15.895999908447266,-146.76800537109375,-14.821999549865724,-8.948236465454102,-3.11276912689209,2.53181791305542,1002.030029296875,-0.4792237877845764,-0.9673051238059998,-1.7486017942428589,-3.916913986206055,-3.1046810150146484,1.3455413579940796,-8.19996166229248,-7.134689807891848,-5.19223690032959
178,14800.0,-15.895999908447266,-146.76800537109375,-14.821999549865724,-7.085819244384768,-5.758086681365968,3.5785448551177983,1002.010009765625,-0.8994990587234497,2.2907447814941406,-0.2217440903186798,-15.285780906677244,-12.892776489257812,-1.6136919260025024,-5.3785667419433585,-5.335151195526123,-1.17891263961792
179,14900.0,-15.255000114440918,-146.46099853515625,-15.175999641418455,-7.085819244384768,-5.758086681365968,3.5785448551177983,1002.010009765625,-0.8994990587234497,2.2907447814941406,-0.2217440903186798,-15.285780906677244,-12.892776489257812,-1.6136919260025024,-5.3785667419433585,-5.335151195526123,-1.17891263961792
180,14000.0,-26.28400039672852,-150.49400329589844,-16.972999572753903,-6.617434501647949,-7.146007537841798,-1.1465163230895996,1002.0599975585938,-0.22052235901355746,1.0858129262924194,-0.3549126982688904,-8.691550254821777,-5.0032830238342285,1.259350061416626,-0.3211598396301269,0.4677624702453613,0.03916251659393311
181,14100.0,-25.54400062561035,-150.8249969482422,-17.43899917602539,-6.821342468261719,-7.017699718475343,-0.6257419586181641,1002.0700073242188,0.3585779070854187,0.618195652961731,0.20311269164085388,-7.142502307891848,-6.5499372482299805,-0.586579442024231,-0.4370236396789551,-3.1076936721801762,-0.752950131893158
182,14200.0,-24.707000732421875,-150.8249969482422,-17.80299949645996,-6.821342468261719,-7.017699718475343,-0.6257419586181641,1002.0700073242188,0.3585779070854187,0.618195652961731,0.20311269164085388,-7.142502307891848,-6.5499372482299805,-0.586579442024231,-0.4370236396789551,-3.1076936721801762,-0.752950131893158
183,14300.0,-23.97900009155273,-150.20700073242188,-18.11899948120117,-7.432717323303223,-6.377534866333008,0.5021575093269348,1002.0800170898438,1.4559973478317259,-0.3338378667831421,0.685390830039978,-7.869740962982178,-9.485228538513184,-0.25079262256622314,-1.9262018203735352,-4.733975887298584,2.2250263690948486
184,14400.0,-20.63400077819824,-148.66700744628906,-16.499000549316403,-7.432717323303223,-6.377534866333008,0.5021575093269348,1002.0800170898438,1.4559973478317259,-0.3338378667831421,0.685390830039978,-7.869740962982178,-9.485228538513184,-0.25079262256622314,-1.9262018203735352,-4.733975887298584,2.2250263690948486
185,14500.0,-17.416000366210938,-147.86199951171875,-15.538999557495115,-7.651802062988281,-5.173829555511475,3.2942073345184326,1001.7999877929688,0.6688974499702454,0.8665123581886292,1.0503827333450315,-9.578003883361816,-9.90780544281006,5.519233703613281,5.031322479248047,0.008088111877441406,-1.1862765550613403
186,14600.0,-15.895999908447266,-147.5019989013672,-15.538999557495115,-8.948236465454102,-3.11276912689209,2.53181791305542,1002.030029296875,-0.4792237877845764,-0.9673051238059998,-1.7486017942428589,-3.916913986206055,-3.1046810150146484,1.3455413579940796,-8.19996166229248,-7.134689807891848,-5.19223690032959
187,14700.0,-15.895999908447266,-146.76800537109375,-14.821999549865724,-8.948236465454102,-3.11276912689209,2.53181791305542,1002.030029296875,-0.4792237877845764,-0.9673051238059998,-1.7486017942428589,-3.916913986206055,-3.1046810150146484,1.3455413579940796,-8.19996166229248,-7.134689807891848,-5.19223690032959
188,14800.0,-15.895999908447266,-146.76800537109375,-14.821999549865724,-7.085819244384768,-5.758086681365968,3.5785448551177983,1002.010009765625,-0.8994990587234497,2.2907447814941406,-0.2217440903186798,-15.285780906677244,-12.892776489257812,-1.6136919260025024,-5.3785667419433585,-5.335151195526123,-1.17891263961792
189,14900.0,-15.255000114440918,-146.46099853515625,-15.175999641418455,-7.085819244384768,-5.758086681365968,3.5785448551177983,1002.010009765625,-0.8994990587234497,2.2907447814941406,-0.2217440903186798,-15.285780906677244,-12.892776489257812,-1.6136919260025024,-5.3785667419433585,-5.335151195526123,-1.17891263961792
190,15000.0,-14.914999961853027,-146.46099853515625,-15.972000122070312,-6.27101993560791,-6.705289363861084,-3.447283744812012,1002.0499877929688,-0.6163630485534668,-0.26511552929878235,-0.19578230381011968,-11.64958667755127,-12.040440559387207,-4.626196384429932,0.7065458297729492,1.4137277603149414,-0.8663207888603209
191,15100.0,-14.543999671936035,-146.46099853515625,-16.732000350952152,-6.27101993560791,-6.705289363861084,-3.447283744812012,1002.0499877929688,-0.6163630485534668,-0.26511552929878235,-0.19578230381011968,-11.64958667755127,-12.040440559387207,-4.626196384429932,0.7065458297729492,1.4137277603149414,-0.8663207888603209
192,15200.0,-13.847000122070312,-146.46099853515625,-17.472000122070312,-6.95660924911499,-6.9114131927490225,-0.09135989844799043,1002.0499877929688,0.04520402848720551,0.3781255781650543,-0.6594290137290955,-6.250063419342041,-5.497685432434082,-0.9576807022094728,-3.4521093368530287,1.5540709495544434,-0.02272897958755493
193,15300.0,-13.517000198364258,-146.46099853515625,-18.150999069213867,-6.95660924911499,-6.9114131927490225,-0.09135989844799043,1002.0499877929688,0.04520402848720551,0.3781255781650543,-0.6594290137290955,-6.250063419342041,-5.497685432434082,-0.9576807022094728,-3.4521093368530287,1.5540709495544434,-0.02272897958755493
194,15400.0,-12.798999786376953,-146.46099853515625,-18.55699920654297,-6.549668312072754,-7.297760963439941,-0.1221202164888382,1002.0700073242188,3.0915889739990234,0.20799961686134336,0.8662069439888,-10.00177764892578,-5.743690013885497,-0.14484919607639313,0.31153011322021484,-4.436511039733887,-1.197716474533081
195,15500.0,-12.42300033569336,-146.46099853515625,-18.886999130249023,-8.193242073059082,-4.335245132446288,3.2010648250579834,1001.97998046875,0.8344419002532959,-1.7870862483978271,1.3542882204055786,-7.881711959838867,-8.771756172180176,2.0033483505249023,5.6001296043396,-3.8570716381073,-5.64005184173584
196,15600.0,-11.697999954223633,-146.46099853515625,-19.202999114990234,-8.193242073059082,-4.335245132446288,3.2010648250579834,1001.97998046875,0.8344419002532959,-1.7870862483978271,1.3542882204055786,-7.881711959838867,-8.771756172180176,2.0033483505249023,5.6001296043396,-3.8570716381073,-5.64005184173584
197,15700.0,-11.388999938964846,-146.46099853515625,-19.910999298095703,-7.448453426361084,-1.629241704940796,6.167374610900879,1002.0,0.4996877610683441,-1.2311989068984983,-0.2428189367055893,-1.8483237028121948,-5.486313343048097,0.5273229479789734,1.5468416213989258,0.16946375370025635,-4.4731101989746085
198,15800.0,-11.388999938964846,-147.14599609375,-19.910999298095703,-7.448453426361084,-1.629241704940796,6.167374610900879,1002.0,0.4996877610683441,-1.2311989068984983,-0.2428189367055893,-1.8483237028121948,-5.486313343048097,0.5273229479789734,1.5468416213989258,0.16946375370025635,-4.4731101989746085
199,15900.0,-11.699999809265135,-147.47999572753906,-19.910999298095703,-5.830068588256836,-1.158867597579956,7.799853801727295,1002.0399780273438,-0.4624249935150146,0.16523905098438266,-0.9657779335975648,-4.28322696685791,-0.9894038438796996,3.3267433643341064,-9.041330337524414,-10.244499206542967,-6.406003952026367
200,15000.0,-14.914999961853027,-146.46099853515625,-15.972000122070312,-6.27101993560791,-6.705289363861084,-3.447283744812012,1002.0499877929688,-0.6163630485534668,-0.26511552929878235,-0.19578230381011968,-11.64958667755127,-12.040440559387207,-4.626196384429932,0.7065458297729492,1.4137277603149414,-0.8663207888603209
201,15100.0,-14.543999671936035,-146.46099853515625,-16.732000350952152,-6.27101993560791,-6.705289363861084,-3.447283744812012,1002.0499877929688,-0.6163630485534668,-0.26511552929878235,-0.19578230381011968,-11.64958667755127,-12.040440559387207,-4.626196384429932,0.7065458297729492,1.4137277603149414,-0.8663207888603209
202,15200.0,-13.847000122070312,-146.46099853515625,-17.472000122070312,-6.95660924911499,-6.9114131927490225,-0.09135989844799043,1002.0499877929688,0.04520402848720551,0.3781255781650543,-0.6594290137290955,-6.250063419342041,-5.497685432434082,-0.9576807022094728,-3.4521093368530287,1.5540709495544434,-0.02272897958755493
203,15300.0,-13.517000198364258,-146.46099853515625,-18.150999069213867,-6.95660924911499,-6.9114131927490225,-0.09135989844799043,1002.0499877929688,0.04520402848720551,0.3781255781650543,-0.6594290137290955,-6.250063419342041,-5.497685432434082,-0.9576807022094728,-3.4521093368530287,1.5540709495544434,-0.02272897958755493
204,15400.0,-12.798999786376953,-146.46099853515625,-18.55699920654297,-6.549668312072754,-7.297760963439941,-0.1221202164888382,1002.0700073242188,3.0915889739990234,0.20799961686134336,0.8662069439888,-10.00177764892578,-5.743690013885497,-0.14484919607639313,0.31153011322021484,-4.436511039733887,-1.197716474533081
205,15500.0,-12.42300033569336,-146.46099853515625,-18.886999130249023,-8.193242073059082,-4.335245132446288,3.2010648250579834,1001.97998046875,0.8344419002532959,-1.7870862483978271,1.3542882204055786,-7.881711959838867,-8.771756172180176,2.0033483505249023,5.6001296043396,-3.8570716381073,-5.64005184173584
206,15600.0,-11.697999954223633,-146.46099853515625,-19.202999114990234,-8.193242073059082,-4.335245132446288,3.2010648250579834,1001.97998046875,0.8344419002532959,-1.7870862483978271,1.3542882204055786,-7.881711959838867,-8.771756172180176,2.0033483505249023,5.6001296043396,-3.8570716381073,-5.64005184173584
207,15700.0,-11.388999938964846,-146.46099853515625,-19.910999298095703,-7.448453426361084,-1.629241704940796,6.167374610900879,1002.0,0.4996877610683441,-1.2311989068984983,-0.2428189367055893,-1.8483237028121948,-5.486313343048097,0.5273229479789734,1.5468416213989258,0.16946375370025635,-4.4731101989746085
208,15800.0,-11.388999938964846,-147.14599609375,-19.910999298095703,-7.448453426361084,-1.629241704940796,6.167374610900879,1002.0,0.4996877610683441,-1.2311989068984983,-0.2428189367055893,-1.8483237028121948,-5.486313343048097,0.5273229479789734,1.5468416213989258,0.16946375370025635,-4.4731101989746085
209,15900.0,-11.699999809265135,-147.47999572753906,-19.910999298095703,-5.830068588256836,-1.158867597579956,7.799853801727295,1002.0399780273438,-0.4624249935150146,0.16523905098438266,-0.9657779335975648,-4.28322696685791,-0.9894038438796996,3.3267433643341064,-9.041330337524414,-10.244499206542967,-6.406003952026367
210,16000.0,-11.699999809265135,-147.47999572753906,-19.910999298095703,-5.830068588256836,-1.158867597579956,7.799853801727295,1002.0399780273438,-0.4624249935150146,0.16523905098438266,-0.9657779335975648,-4.28322696685791,-0.9894038438796996,3.3267433643341064,-9.041330337524414,-10.244499206542967,-6.406003952026367
211,16100.0,-11.083000183105467,-147.47999572753906,-19.910999298095703,-5.734485626220702,-2.68239426612854,7.489380359649657,1002.030029296875,0.7660250067710876,2.3961188793182373,0.27061331272125244,-14.775815963745115,-12.92689323425293,1.0833762884140017,1.5462942123413086,3.5549650192260738,-1.1985245943069458
212,16200.0,-10.432000160217283,-146.79200744628906,-19.910999298095703,-5.734485626220702,-2.68239426612854,7.489380359649657,1002.030029296875,0.7660250067710876,2.3961188793182373,0.27061331272125244,-14.775815963745115,-12.92689323425293,1.0833762884140017,1.5462942123413086,3.5549650192260738,-1.1985245943069458
213,16300.0,-9.76200008392334,-146.45799255371094,-19.910999298095703,-7.407299995422362,-6.149082660675049,-1.8684478998184204,1002.0499877929688,0.2788599729537964,1.2916746139526367,0.35155296325683594,-5.861005783081055,-2.5941176414489746,-3.066972494125366,3.3646082878112797,0.1621713638305664,1.4606772661209106
214,16400.0,-9.375,-146.1540069580078,-19.910999298095703,-7.655017852783202,-6.048914909362793,-0.9908151626586914,1002.1199951171876,1.4844025373458862,2.75194787979126,-0.2871066629886627,-4.290409564971924,-5.8867435455322275,0.4698620736598969,-1.8491945266723635,0.5739622116088867,-1.019896149635315
215,16500.0,-9.375,-145.80499267578125,-19.910999298095703,-7.655017852783202,-6.048914909362793,-0.9908151626586914,1002.1199951171876,1.4844025373458862,2.75194787979126,-0.2871066629886627,-4.290409564971924,-5.8867435455322275,0.4698620736598969,-1.8491945266723635,0.5739622116088867,-1.019896149635315
216,16600.0,-9.77400016784668,-142.5030059814453,-19.56599998474121,-6.70289421081543,-6.999401092529298,-1.500001072883606,1001.9299926757812,2.3499987125396733,0.93095862865448,2.244318962097168,-8.552088737487793,-6.42543888092041,-2.519897222518921,1.9907360076904297,-9.374258041381836,1.4003480672836304
217,16700.0,-17.514999389648438,-135.31399536132812,-14.598999977111815,-6.70289421081543,-6.999401092529298,-1.500001072883606,1001.9299926757812,2.3499987125396733,0.93095862865448,2.244318962097168,-8.552088737487793,-6.42543888092041,-2.519897222518921,1.9907360076904297,-9.374258041381836,1.4003480672836304
218,16800.0,-23.47800064086914,-125.99700164794922,-14.60200023651123,-9.212246894836426,-3.169563770294189,1.1219433546066284,1001.9000244140624,1.7437148094177246,-1.0372492074966428,0.6206390857696533,-7.221510887145996,-12.543821334838867,2.5222914218902592,6.619691371917725,-3.1335353851318364,-3.1337664127349854
219,16900.0,-28.64800071716309,-119.55799865722656,-13.031000137329102,-9.212246894836426,-3.169563770294189,1.1219433546066284,1001.9000244140624,1.7437148094177246,-1.0372492074966428,0.6206390857696533,-7.221510887145996,-12.543821334838867,2.5222914218902592,6.619691371917725,-3.1335353851318364,-3.1337664127349854
220,16000.0,-11.699999809265135,-147.47999572753906,-19.910999298095703,-5.830068588256836,-1.158867597579956,7.799853801727295,1002.0399780273438,-0.4624249935150146,0.16523905098438266,-0.9657779335975648,-4.28322696685791,-0.9894038438796996,3.3267433643341064,-9.041330337524414,-10.244499206542967,-6.406003952026367
221,16100.0,-11.083000183105467,-147.47999572753906,-19.910999298095703,-5.734485626220702,-2.68239426612854,7.489380359649657,1002.030029296875,0.7660250067710876,2.3961188793182373,0.27061331272125244,-14.775815963745115,-12.92689323425293,1.0833762884140017,1.5462942123413086,3.5549650192260738,-1.1985245943069458
222,16200.0,-10.432000160217283,-146.79200744628906,-19.910999298095703,-5.734485626220702,-2.68239426612854,7.489380359649657,1002.030029296875,0.7660250067710876,2.3961188793182373,0.27061331272125244,-14.775815963745115,-12.92689323425293,1.0833762884140017,1.5462942123413086,3.5549650192260738,-1.1985245943069458
223,16300.0,-9.76200008392334,-146.45799255371094,-19.910999298095703,-7.407299995422362,-6.149082660675049,-1.8684478998184204,1002.0499877929688,0.2788599729537964,1.2916746139526367,0.35155296325683594,-5.861005783081055,-2.5941176414489746,-3.066972494125366,3.3646082878112797,0.1621713638305664,1.4606772661209106
224,16400.0,-9.375,-146.1540069580078,-19.910999298095703,-7.655017852783202,-6.048914909362793,-0.9908151626586914,1002.1199951171876,1.4844025373458862,2.75194787979126,-0.2871066629886627,-4.290409564971924,-5.8867435455322275,0.4698620736598969,-1.8491945266723635,0.5739622116088867,-1.019896149635315
225,16500.0,-9.375,-145.80499267578125,-19.910999298095703,-7.655017852783202,-6.048914909362793,-0.9908151626586914,1002.1199951171876,1.4844025373458862,2.75194787979126,-0.2871066629886627,-4.290409564971924,-5.8867435455322275,0.4698620736598969,-1.8491945266723635,0.5739622116088867,-1.019896149635315
226,16600.0,-9.77400016784668,-142.5030059814453,-19.56599998474121,-6.70289421081543,-6.999401092529298,-1.500001072883606,1001.9299926757812,2.3499987125396733,0.93095862865448,2.244318962097168,-8.552088737487793,-6.42543888092041,-2.519897222518921,1.9907360076904297,-9.374258041381836,1.4003480672836304
227,16700.0,-17.514999389648438,-135.31399536132812,-14.598999977111815,-6.70289421081543,-6.999401092529298,-1.500001072883606,1001.9299926757812,2.3499987125396733,0.93095862865448,2.244318962097168,-8.552088737487793,-6.42543888092041,-2.519897222518921,1.9907360076904297,-9.374258041381836,1.4003480672836304
228,16800.0,-23.47800064086914,-125.99700164794922,-14.60200023651123,-9.212246894836426,-3.169563770294189,1.1219433546066284,1001.9000244140624,1.7437148094177246,-1.0372492074966428,0.6206390857696533,-7.221510887145996,-12.543821334838867,2.5222914218902592,6.619691371917725,-3.1335353851318364,-3.1337664127349854
229,16900.0,-28.64800071716309,-119.55799865722656,-13.031000137329102,-9.212246894836426,-3.169563770294189,1.1219433546066284,1001.9000244140624,1.7437148094177246,-1.0372492074966428,0.6206390857696533,-7.221510887145996,-12.543821334838867,2.5222914218902592,6.619691371917725,-3.1335353851318364,-3.1337664127349854
230,17000.0,-30.368999481201172,-120.16400146484376,-11.62399959564209,-9.040827751159668,-1.267605900764465,3.5814821720123287,1002.0,0.02443460933864117,-0.2703078687191009,-0.5681046843528748,-2.421136379241944,-4.401141166687012,0.44771572947502136,-8.546228408813478,4.331721305847168,2.366729736328125
231,17100.0,-32.87900161743164,-125.7519989013672,-10.696999549865724,-9.040827751159668,-1.267605900764465,3.5814821720123287,1002.0,0.02443460933864117,-0.2703078687191009,-0.5681046843528748,-2.421136379241944,-4.401141166687012,0.44771572947502136,-8.546228408813478,4.331721305847168,2.366729736328125
232,17200.0,-34.92100143432617,-126.11900329589844,-12.687000274658205,-6.858065605163574,-6.927634239196777,1.0701466798782349,1002.0499877929688,2.2928826808929443,2.028072595596313,0.049174651503562934,-15.40429401397705,-2.5959131717681885,3.4368765354156494,2.4019556045532227,-0.29169273376464844,-8.552083015441895
233,17300.0,-37.13199996948242,-126.48600006103516,-17.565000534057614,-7.419005393981934,-6.4072837829589835,-0.2747401297092438,1002.010009765625,2.2928826808929443,2.028072595596313,0.049174651503562934,-5.017049789428711,-6.698976516723633,-8.826823234558105,2.4019556045532227,-0.29169273376464844,-8.552083015441895
234,17400.0,-39.01499938964844,-127.7699966430664,-19.808000564575195,-7.419005393981934,-6.4072837829589835,-0.2747401297092438,1002.010009765625,0.07483099400997162,1.8961256742477417,0.2440406680107117,-5.017049789428711,-6.698976516723633,-8.826823234558105,0.03213930130004883,-0.9858098030090332,2.2250046730041504
235,17500.0,-38.06700134277344,-127.5199966430664,-26.07999992370605,-7.193795204162598,-6.112998008728027,-2.655362367630005,1002.030029296875,1.3353514671325684,2.7226264476776123,-0.3188716471195221,-7.161655902862549,-7.0988078117370605,-0.4303577542304993,-2.8961000442504883,2.7243633270263667,0.999153733253479
236,17600.0,-38.45600128173828,-130.02299499511722,-31.42799949645996,-7.193795204162598,-6.112998008728027,-2.655362367630005,1002.030029296875,1.3353514671325684,2.7226264476776123,-0.3188716471195221,-7.161655902862549,-7.0988078117370605,-0.4303577542304993,-2.8961000442504883,2.7243633270263667,0.999153733253479
237,17700.0,-38.45600128173828,-134.64300537109378,-36.48799896240234,-6.611274719238281,-6.896858215332031,-2.2124154567718506,1002.0499877929688,2.25317645072937,0.9269880056381226,0.9056077003479004,-9.50737476348877,-4.172494888305663,-1.2132617235183716,-1.939962387084961,-1.8678755760192869,-1.5419578552246094
238,17800.0,-38.45600128173828,-138.02099609375,-39.50299835205078,-6.611274719238281,-6.896858215332031,-2.2124154567718506,1002.0499877929688,2.25317645072937,0.9269880056381226,0.9056077003479004,-9.50737476348877,-4.172494888305663,-1.2132617235183716,-1.939962387084961,-1.8678755760192869,-1.5419578552246094
239,17900.0,-42.08599853515625,-138.40400695800778,-41.361000061035156,-8.583152770996094,-4.7221646308898935,0.4484061598777771,1001.9500122070312,0.6875288486480713,-0.6884451508522034,1.4074335098266602,-10.523115158081056,-6.59004020690918,-1.0935516357421875,0.29799938201904297,-0.8184025287628174,-1.4026504755020142
240,17000.0,-30.368999481201172,-120.16400146484376,-11.62399959564209,-9.040827751159668,-1.267605900764465,3.5814821720123287,1002.0,0.02443460933864117,-0.2703078687191009,-0.5681046843528748,-2.421136379241944,-4.401141166687012,0.44771572947502136,-8.546228408813478,4.331721305847168,2.366729736328125
241,17100.0,-32.87900161743164,-125.7519989013672,-10.696999549865724,-9.040827751159668,-1.267605900764465,3.5814821720123287,1002.0,0.02443460933864117,-0.2703078687191009,-0.5681046843528748,-2.421136379241944,-4.401141166687012,0.44771572947502136,-8.546228408813478,4.331721305847168,2.366729736328125
242,17200.0,-34.92100143432617,-126.11900329589844,-12.687000274658205,-6.858065605163574,-6.927634239196777,1.0701466798782349,1002.0499877929688,2.2928826808929443,2.028072595596313,0.049174651503562934,-15.40429401397705,-2.5959131717681885,3.4368765354156494,2.4019556045532227,-0.29169273376464844,-8.552083015441895
243,17300.0,-37.13199996948242,-126.48600006103516,-17.565000534057614,-7.419005393981934,-6.4072837829589835,-0.2747401297092438,1002.010009765625,2.2928826808929443,2.028072595596313,0.049174651503562934,-5.017049789428711,-6.698976516723633,-8.826823234558105,2.4019556045532227,-0.29169273376464844,-8.552083015441895
244,17400.0,-39.01499938964844,-127.7699966430664,-19.808000564575195,-7.419005393981934,-6.4072837829589835,-0.2747401297092438,1002.010009765625,0.07483099400997162,1.8961256742477417,0.2440406680107117,-5.017049789428711,-6.698976516723633,-8.826823234558105,0.03213930130004883,-0.9858098030090332,2.2250046730041504
245,17500.0,-38.06700134277344,-127.5199966430664,-26.07999992370605,-7.193795204162598,-6.112998008728027,-2.655362367630005,1002.030029296875,1.3353514671325684,2.7226264476776123,-0.3188716471195221,-7.161655902862549,-7.0988078117370605,-0.4303577542304993,-2.8961000442504883,2.7243633270263667,0.999153733253479
246,17600.0,-38.45600128173828,-130.02299499511722,-31.42799949645996,-7.193795204162598,-6.112998008728027,-2.655362367630005,1002.030029296875,1.3353514671325684,2.7226264476776123,-0.3188716471195221,-7.161655902862549,-7.0988078117370605,-0.4303577542304993,-2.8961000442504883,2.7243633270263667,0.999153733253479
247,17700.0,-38.45600128173828,-134.64300537109378,-36.48799896240234,-6.611274719238281,-6.896858215332031,-2.2124154567718506,1002.0499877929688,2.25317645072937,0.9269880056381226,0.9056077003479004,-9.50737476348877,-4.172494888305663,-1.2132617235183716,-1.939962387084961,-1.8678755760192869,-1.5419578552246094
248,17800.0,-38.45600128173828,-138.02099609375,-39.50299835205078,-6.611274719238281,-6.896858215332031,-2.2124154567718506,1002.0499877929688,2.25317645072937,0.9269880056381226,0.9056077003479004,-9.50737476348877,-4.172494888305663,-1.2132617235183716,-1.939962387084961,-1.8678755760192869,-1.5419578552246094
249,17900.0,-42.08599853515625,-138.40400695800778,-41.361000061035156,-8.583152770996094,-4.7221646308898935,0.4484061598777771,1001.9500122070312,0.6875288486480713,-0.6884451508522034,1.4074335098266602,-10.523115158081056,-6.59004020690918,-1.0935516357421875,0.29799938201904297,-0.8184025287628174,-1.4026504755020142
250,18000.0,-48.928001403808594,-134.22300720214844,-40.38600158691406,-8.583152770996094,-4.7221646308898935,0.4484061598777771,1001.9500122070312,0.6875288486480713,-0.6884451508522034,1.4074335098266602,-10.523115158081056,-6.59004020690918,-1.0935516357421875,0.29799938201904297,-0.8184025287628174,-1.4026504755020142
251,18100.0,-52.49300003051758,-126.17400360107422,-39.15399932861328,-8.990148544311523,-3.703645944595337,1.2769548892974854,1001.8699951171876,0.01618792861700058,-1.730581283569336,0.7904596328735352,-8.69214916229248,-4.522048473358153,-0.1256955862045288,4.650517463684082,1.379253625869751,-2.488104820251465
252,18200.0,-53.57799911499024,-120.76399993896484,-34.60800170898437,-8.618308067321777,-2.32436466217041,4.061095237731934,1001.9600219726564,-0.2480112910270691,-0.8866708874702454,-1.7238616943359375,-3.9677908420562735,-0.9451110959053041,1.5729905366897583,4.650517463684082,1.379253625869751,-2.488104820251465
253,18300.0,-54.43500137329102,-121.50800323486328,-35.755001068115234,-8.618308067321777,-2.32436466217041,4.061095237731934,1001.9600219726564,-0.2480112910270691,-0.8866708874702454,-1.7238616943359375,-3.9677908420562735,-0.9451110959053041,1.5729905366897583,-12.825227737426758,-5.361018180847168,-6.290283203125
254,18400.0,-53.59099960327149,-125.96499633789064,-41.479000091552734,-6.783881664276122,-4.827507019042969,5.181169509887695,1002.0499877929688,-0.1466076523065567,2.1621575355529785,-0.4379903674125672,-19.60910987854004,-10.188525199890137,-1.1091139316558838,-3.969496250152588,-1.3949427604675293,4.544060230255127
255,18500.0,-54.2750015258789,-128.45100402832028,-44.1510009765625,-6.783881664276122,-4.827507019042969,5.181169509887695,1002.0499877929688,-0.1466076523065567,2.1621575355529785,-0.4379903674125672,-19.60910987854004,-10.188525199890137,-1.1091139316558838,-3.969496250152588,-1.3949427604675293,4.544060230255127
256,18600.0,-54.5880012512207,-129.60499572753906,-45.69300079345703,-7.029466152191162,-6.058207035064697,-3.170985460281372,1001.9199829101564,-0.9178250432014464,-0.2440406680107117,-0.18570303916931152,-10.99896240234375,-7.4531497955322275,1.373074650764465,0.9760594367980956,1.3197078704833984,0.8477873802185059
257,18700.0,-54.5880012512207,-127.62200164794922,-45.1150016784668,-7.029466152191162,-6.058207035064697,-3.170985460281372,1001.9199829101564,-0.9178250432014464,-0.2440406680107117,-0.18570303916931152,-10.99896240234375,-7.4531497955322275,1.373074650764465,0.9760594367980956,1.3197078704833984,0.8477873802185059
258,18800.0,-54.2859992980957,-126.97100067138672,-44.775001525878906,-7.978500843048098,-5.6687750816345215,-0.6155498027801514,1001.8900146484376,0.32772919535636896,0.1774563491344452,-0.4526511430740357,-7.00244140625,-4.349067211151123,0.2322375625371933,-2.1106486320495605,1.877129077911377,-1.4614155292510986
259,18900.0,-53.92399978637695,-126.97100067138672,-45.52299880981445,-7.978500843048098,-5.6687750816345215,-0.6155498027801514,1001.8900146484376,0.32772919535636896,0.1774563491344452,-0.4526511430740357,-7.00244140625,-4.349067211151123,0.2322375625371933,-2.1106486320495605,1.877129077911377,-1.4614155292510986
260,18000.0,-48.928001403808594,-134.22300720214844,-40.38600158691406,-8.583152770996094,-4.7221646308898935,0.4484061598777771,1001.9500122070312,0.6875288486480713,-0.6884451508522034,1.4074335098266602,-10.523115158081056,-6.59004020690918,-1.0935516357421875,0.29799938201904297,-0.8184025287628174,-1.4026504755020142
261,18100.0,-52.49300003051758,-126.17400360107422,-39.15399932861328,-8.990148544311523,-3.703645944595337,1.2769548892974854,1001.8699951171876,0.01618792861700058,-1.730581283569336,0.7904596328735352,-8.69214916229248,-4.522048473358153,-0.1256955862045288,4.650517463684082,1.379253625869751,-2.488104820251465
262,18200.0,-53.57799911499024,-120.76399993896484,-34.60800170898437,-8.618308067321777,-2.32436466217041,4.061095237731934,1001.9600219726564,-0.2480112910270691,-0.8866708874702454,-1.7238616943359375,-3.9677908420562735,-0.9451110959053041,1.5729905366897583,4.650517463684082,1.379253625869751,-2.488104820251465
263,18300.0,-54.43500137329102,-121.50800323486328,-35.755001068115234,-8.618308067321777,-2.32436466217041,4.061095237731934,1001.9600219726564,-0.2480112910270691,-0.8866708874702454,-1.7238616943359375,-3.9677908420562735,-0.9451110959053041,1.5729905366897583,-12.825227737426758,-5.361018180847168,-6.290283203125
264,18400.0,-53.59099960327149,-125.96499633789064,-41.479000091552734,-6.783881664276122,-4.827507019042969,5.181169509887695,1002.0499877929688,-0.1466076523065567,2.1621575355529785,-0.4379903674125672,-19.60910987854004,-10.188525199890137,-1.1091139316558838,-3.969496250152588,-1.3949427604675293,4.544060230255127
265,18500.0,-54.2750015258789,-128.45100402832028,-44.1510009765625,-6.783881664276122,-4.827507019042969,5.181169509887695,1002.0499877929688,-0.1466076523065567,2.1621575355529785,-0.4379903674125672,-19.60910987854004,-10.188525199890137,-1.1091139316558838,-3.969496250152588,-1.3949427604675293,4.544060230255127
266,18600.0,-54.5880012512207,-129.60499572753906,-45.69300079345703,-7.029466152191162,-6.058207035064697,-3.170985460281372,1001.9199829101564,-0.9178250432014464,-0.2440406680107117,-0.18570303916931152,-10.99896240234375,-7.4531497955322275,1.373074650764465,0.9760594367980956,1.3197078704833984,0.8477873802185059
267,18700.0,-54.5880012512207,-127.62200164794922,-45.1150016784668,-7.029466152191162,-6.058207035064697,-3.170985460281372,1001.9199829101564,-0.9178250432014464,-0.2440406680107117,-0.18570303916931152,-10.99896240234375,-7.4531497955322275,1.373074650764465,0.9760594367980956,1.3197078704833984,0.8477873802185059
268,18800.0,-54.2859992980957,-126.97100067138672,-44.775001525878906,-7.978500843048098,-5.6687750816345215,-0.6155498027801514,1001.8900146484376,0.32772919535636896,0.1774563491344452,-0.4526511430740357,-7.00244140625,-4.349067211151123,0.2322375625371933,-2.1106486320495605,1.877129077911377,-1.4614155292510986
269,18900.0,-53.92399978637695,-126.97100067138672,-45.52299880981445,-7.978500843048098,-5.6687750816345215,-0.6155498027801514,1001.8900146484376,0.32772919535636896,0.1774563491344452,-0.4526511430740357,-7.00244140625,-4.349067211151123,0.2322375625371933,-2.1106486320495605,1.877129077911377,-1.4614155292510986
270,19000.0,-53.61399841308594,-127.072998046875,-46.85300064086914,-7.789973735809326,-5.956250190734862,-0.09900544583797456,1002.0700073242188,0.25564709305763245,0.456316351890564,0.19303341209888453,-9.900622367858887,-4.079121112823486,-1.5604209899902344,-1.9331827163696291,-3.424355983734132,4.603515148162842
271,19100.0,-53.61399841308594,-126.16400146484376,-46.85300064086914,-8.369067192077638,-5.107980251312256,-0.1939940452575684,1002.0700073242188,0.741895854473114,-1.2345587015151978,1.3176363706588743,-10.302249908447266,-8.532336235046388,4.409521102905273,-0.4265432357788086,0.03904414176940918,-3.781672477722168
272,19200.0,-53.94800186157226,-126.16400146484376,-47.92699813842773,-8.369067192077638,-5.107980251312256,-0.1939940452575684,1002.0,0.741895854473114,-1.2345587015151978,1.3176363706588743,-10.302249908447266,-8.532336235046388,4.409521102905273,-0.4265432357788086,0.03904414176940918,-3.781672477722168
273,19300.0,-53.94800186157226,-120.09500122070312,-48.66400146484375,-8.992844581604004,-2.970145463943481,2.545067310333252,1001.9199829101564,-0.045814894139766686,-0.28557950258255005,1.0717630386352541,-9.419387817382812,-2.9311013221740723,-1.236605167388916,5.0570950508117685,-0.12208640575408936,-1.3988269567489624
274,19400.0,-53.07600021362305,-112.36100006103516,-47.49599838256836,-8.992844581604004,-2.970145463943481,2.545067310333252,1001.9199829101564,-0.045814894139766686,-0.28557950258255005,1.0717630386352541,-9.419387817382812,-2.9311013221740723,-1.236605167388916,5.0570950508117685,-0.12208640575408936,-1.3988269567489624
275,19500.0,-50.14899826049805,-108.98500061035156,-46.78400039672852,-9.262510299682617,-1.1019492149353027,3.0268840789794917,1002.030029296875,-0.5720753073692322,-0.5693264007568359,-1.7235562801361084,-4.2054152488708505,-1.224035620689392,1.6280571222305298,-11.467327117919922,-11.16592025756836,-5.339439392089844
276,19600.0,-49.18000030517578,-112.33499908447266,-51.09099960327149,-9.262510299682617,-1.1019492149353027,3.0268840789794917,1002.030029296875,-0.5720753073692322,-0.5693264007568359,-1.7235562801361084,-4.2054152488708505,-1.224035620689392,1.6280571222305298,-11.467327117919922,-11.16592025756836,-5.339439392089844
277,19700.0,-48.36999893188477,-110.94200134277344,-52.48199844360352,-8.141782760620117,-4.034865856170653,3.6880390644073486,1001.97998046875,-0.20402899384498605,3.355482816696167,-0.18417587876319885,-19.60910987854004,-15.200786590576172,-1.6514005661010742,-2.336733818054199,0.5469975471496582,2.37025785446167
278,19800.0,-48.36999893188477,-110.53700256347656,-52.0,-8.141782760620117,-4.034865856170653,3.6880390644073486,1001.97998046875,-0.20402899384498605,3.355482816696167,-0.18417587876319885,-19.60910987854004,-15.200786590576172,-1.6514005661010742,-2.336733818054199,0.5469975471496582,2.37025785446167
279,19900.0,-47.74300003051758,-109.33200073242188,-50.83399963378906,-6.608003616333008,-5.385080814361572,-4.848256587982178,1001.97998046875,-0.8381071090698242,0.7956519722938538,0.02474004216492176,-8.944737434387207,-4.838083267211914,-2.4779987335205083,0.6491084098815918,-1.0619983673095703,2.721881866455078
280,19000.0,-53.61399841308594,-127.072998046875,-46.85300064086914,-7.789973735809326,-5.956250190734862,-0.09900544583797456,1002.0700073242188,0.25564709305763245,0.456316351890564,0.19303341209888453,-9.900622367858887,-4.079121112823486,-1.5604209899902344,-1.9331827163696291,-3.424355983734132,4.603515148162842
281,19100.0,-53.61399841308594,-126.16400146484376,-46.85300064086914,-8.369067192077638,-5.107980251312256,-0.1939940452575684,1002.0700073242188,0.741895854473114,-1.2345587015151978,1.3176363706588743,-10.302249908447266,-8.532336235046388,4.409521102905273,-0.4265432357788086,0.03904414176940918,-3.781672477722168
282,19200.0,-53.94800186157226,-126.16400146484376,-47.92699813842773,-8.369067192077638,-5.107980251312256,-0.1939940452575684,1002.0,0.741895854473114,-1.2345587015151978,1.3176363706588743,-10.302249908447266,-8.532336235046388,4.409521102905273,-0.4265432357788086,0.03904414176940918,-3.781672477722168
283,19300.0,-53.94800186157226,-120.09500122070312,-48.66400146484375,-8.992844581604004,-2.970145463943481,2.545067310333252,1001.9199829101564,-0.045814894139766686,-0.28557950258255005,1.0717630386352541,-9.419387817382812,-2.9311013221740723,-1.236605167388916,5.0570950508117685,-0.12208640575408936,-1.3988269567489624
284,19400.0,-53.07600021362305,-112.36100006103516,-47.49599838256836,-8.992844581604004,-2.970145463943481,2.545067310333252,1001.9199829101564,-0.045814894139766686,-0.28557950258255005,1.0717630386352541,-9.419387817382812,-2.9311013221740723,-1.236605167388916,5.0570950508117685,-0.12208640575408936,-1.3988269567489624
285,19500.0,-50.14899826049805,-108.98500061035156,-46.78400039672852,-9.262510299682617,-1.1019492149353027,3.0268840789794917,1002.030029296875,-0.5720753073692322,-0.5693264007568359,-1.7235562801361084,-4.2054152488708505,-1.224035620689392,1.6280571222305298,-11.467327117919922,-11.16592025756836,-5.339439392089844
286,19600.0,-49.18000030517578,-112.33499908447266,-51.09099960327149,-9.262510299682617,-1.1019492149353027,3.0268840789794917,1002.030029296875,-0.5720753073692322,-0.5693264007568359,-1.7235562801361084,-4.2054152488708505,-1.224035620689392,1.6280571222305298,-11.467327117919922,-11.16592025756836,-5.339439392089844
287,19700.0,-48.36999893188477,-110.94200134277344,-52.48199844360352,-8.141782760620117,-4.034865856170653,3.6880390644073486,1001.97998046875,-0.20402899384498605,3.355482816696167,-0.18417587876319885,-19.60910987854004,-15.200786590576172,-1.6514005661010742,-2.336733818054199,0.5469975471496582,2.37025785446167
288,19800.0,-48.36999893188477,-110.53700256347656,-52.0,-8.141782760620117,-4.034865856170653,3.6880390644073486,1001.97998046875,-0.20402899384498605,3.355482816696167,-0.18417587876319885,-19.60910987854004,-15.200786590576172,-1.6514005661010742,-2.336733818054199,0.5469975471496582,2.37025785446167
289,19900.0,-47.74300003051758,-109.33200073242188,-50.83399963378906,-6.608003616333008,-5.385080814361572,-4.848256587982178,1001.97998046875,-0.8381071090698242,0.7956519722938538,0.02474004216492176,-8.944737434387207,-4.838083267211914,-2.4779987335205083,0.6491084098815918,-1.0619983673095703,2.721881866455078
290,20000.0,-46.97999954223633,-103.8479995727539,-48.97900009155274,-8.130390167236326,-5.098282814025879,-2.018585205078125,1001.9500122070312,0.20402899384498605,0.21288654208183289,-0.5378668308258057,-7.481281757354736,-6.160281181335449,0.7032967209815979,-1.388479709625244,1.9062957763671875,-1.1985551118850708
291,20100.0,-46.97999954223633,-103.63099670410156,-48.97900009155274,-8.130390167236326,-5.098282814025879,-2.018585205078125,1001.9500122070312,0.20402899384498605,0.21288654208183289,-0.5378668308258057,-7.481281757354736,-6.160281181335449,0.7032967209815979,-1.388479709625244,1.9062957763671875,-1.1985551118850708
292,20200.0,-46.30500030517578,-104.48300170898438,-50.06999969482422,-7.792685031890869,-5.947109699249268,-0.27627310156822205,1002.0700073242188,0.4938845634460449,0.2336559593677521,-0.09224065393209456,-9.181164741516113,-4.04081392288208,-1.4748282432556152,-1.858795166015625,-1.1117453575134275,1.0408722162246704
293,20300.0,-45.98500061035156,-104.4459991455078,-53.51499938964844,-7.792685031890869,-5.947109699249268,-0.27627310156822205,1002.0700073242188,0.4938845634460449,0.2336559593677521,-0.09224065393209456,-9.181164741516113,-4.04081392288208,-1.4748282432556152,-1.858795166015625,-1.1117453575134275,1.0408722162246704
294,20400.0,-45.98500061035156,-107.48999786376952,-56.70600128173828,-8.248926162719728,-5.302919387817383,0.06824176013469696,1002.010009765625,1.1035280227661133,-0.7046330571174622,0.6945537924766539,-10.107721328735352,-6.4146647453308105,1.1091139316558838,-0.9482259750366212,-1.1795876026153564,-0.9833288192749025
295,20500.0,-45.68099975585938,-114.26499938964844,-64.22499847412111,-8.248926162719728,-5.302919387817383,0.06824176013469696,1002.010009765625,1.1035280227661133,-0.7046330571174622,0.6945537924766539,-10.107721328735352,-6.4146647453308105,1.1091139316558838,-0.9482259750366212,-1.1795876026153564,-0.9833288192749025
296,20600.0,-45.27099990844727,-114.61399841308594,-64.09100341796875,-8.809941291809082,-3.8039433956146236,2.0212152004241943,1001.9099731445312,0.3985895812511444,0.06169738993048667,1.3658946752548218,-9.758167266845703,-4.9835309982299805,1.037886381149292,3.0001659393310547,0.14789819717407227,1.342340350151062
297,20700.0,-44.94400024414063,-112.81400299072266,-64.08899688720703,-8.809941291809082,-3.8039433956146236,2.0212152004241943,1001.9099731445312,0.3985895812511444,0.06169738993048667,1.3658946752548218,-9.758167266845703,-4.9835309982299805,1.037886381149292,3.0001659393310547,0.14789819717407227,1.342340350151062
298,20800.0,-44.55799865722656,-112.3730010986328,-63.15999984741211,-9.38729763031006,-2.81204605102539,0.3760979175567627,1001.9099731445312,-0.4697553813457489,-0.8735373020172119,-0.8213083148002625,-6.387131690979004,-2.6641478538513184,1.7184382677078247,4.325047969818115,3.3095173835754395,0.21762871742248527
299,20900.0,-44.17100143432617,-112.0479965209961,-64.00599670410156,-8.751328468322754,-4.140903949737549,1.5612632036209106,1001.9400024414064,-1.4227051734924316,1.0067058801650999,-1.313360333442688,-4.426280498504639,-0.8313865661621094,1.778891921043396,4.325047969818115,3.3095173835754395,0.21762871742248527
300,20000.0,-46.97999954223633,-103.8479995727539,-48.97900009155274,-8.130390167236326,-5.098282814025879,-2.018585205078125,1001.9500122070312,0.20402899384498605,0.21288654208183289,-0.5378668308258057,-7.481281757354736,-6.160281181335449,0.7032967209815979,-1.388479709625244,1.9062957763671875,-1.1985551118850708
301,20100.0,-46.97999954223633,-103.63099670410156,-48.97900009155274,-8.130390167236326,-5.098282814025879,-2.018585205078125,1001.9500122070312,0.20402899384498605,0.21288654208183289,-0.5378668308258057,-7.481281757354736,-6.160281181335449,0.7032967209815979,-1.388479709625244,1.9062957763671875,-1.1985551118850708
302,20200.0,-46.30500030517578,-104.48300170898438,-50.06999969482422,-7.792685031890869,-5.947109699249268,-0.27627310156822205,1002.0700073242188,0.4938845634460449,0.2336559593677521,-0.09224065393209456,-9.181164741516113,-4.04081392288208,-1.4748282432556152,-1.858795166015625,-1.1117453575134275,1.0408722162246704
303,20300.0,-45.98500061035156,-104.4459991455078,-53.51499938964844,-7.792685031890869,-5.947109699249268,-0.27627310156822205,1002.0700073242188,0.4938845634460449,0.2336559593677521,-0.09224065393209456,-9.181164741516113,-4.04081392288208,-1.4748282432556152,-1.858795166015625,-1.1117453575134275,1.0408722162246704
304,20400.0,-45.98500061035156,-107.48999786376952,-56.70600128173828,-8.248926162719728,-5.302919387817383,0.06824176013469696,1002.010009765625,1.1035280227661133,-0.7046330571174622,0.6945537924766539,-10.107721328735352,-6.4146647453308105,1.1091139316558838,-0.9482259750366212,-1.1795876026153564,-0.9833288192749025
305,20500.0,-45.68099975585938,-114.26499938964844,-64.22499847412111,-8.248926162719728,-5.302919387817383,0.06824176013469696,1002.010009765625,1.1035280227661133,-0.7046330571174622,0.6945537924766539,-10.107721328735352,-6.4146647453308105,1.1091139316558838,-0.9482259750366212,-1.1795876026153564,-0.9833288192749025
306,20600.0,-45.27099990844727,-114.61399841308594,-64.09100341796875,-8.809941291809082,-3.8039433956146236,2.0212152004241943,1001.9099731445312,0.3985895812511444,0.06169738993048667,1.3658946752548218,-9.758167266845703,-4.9835309982299805,1.037886381149292,3.0001659393310547,0.14789819717407227,1.342340350151062
307,20700.0,-44.94400024414063,-112.81400299072266,-64.08899688720703,-8.809941291809082,-3.8039433956146236,2.0212152004241943,1001.9099731445312,0.3985895812511444,0.06169738993048667,1.3658946752548218,-9.758167266845703,-4.9835309982299805,1.037886381149292,3.0001659393310547,0.14789819717407227,1.342340350151062
308,20800.0,-44.55799865722656,-112.3730010986328,-63.15999984741211,-9.38729763031006,-2.81204605102539,0.3760979175567627,1001.9099731445312,-0.4697553813457489,-0.8735373020172119,-0.8213083148002625,-6.387131690979004,-2.6641478538513184,1.7184382677078247,4.325047969818115,3.3095173835754395,0.21762871742248527
309,20900.0,-44.17100143432617,-112.0479965209961,-64.00599670410156,-8.751328468322754,-4.140903949737549,1.5612632036209106,1001.9400024414064,-1.4227051734924316,1.0067058801650999,-1.313360333442688,-4.426280498504639,-0.8313865661621094,1.778891921043396,4.325047969818115,3.3095173835754395,0.21762871742248527
310,21000.0,-38.17499923706055,-112.51300048828124,-69.74299621582031,-8.751328468322754,-4.140903949737549,1.5612632036209106,1001.9400024414064,-1.4227051734924316,1.0067058801650999,-1.313360333442688,-4.426280498504639,-0.8313865661621094,1.778891921043396,2.506521701812744,0.5789585113525391,2.236393690109253
311,21100.0,-37.45500183105469,-111.02999877929688,-68.59400177001953,-6.770595073699951,-6.624317646026611,-2.539260149002075,1001.9400024414064,-0.1417207419872284,0.7611380815505981,-0.04673119261860848,-4.264073371887207,-6.045359134674072,-0.30286651849746704,0.3563575744628906,1.9309701919555664,-0.21884620189666748
312,21200.0,-35.51100158691406,-108.43900299072266,-69.72899627685547,-6.770595073699951,-6.624317646026611,-2.539260149002075,1001.9400024414064,-0.1417207419872284,0.7611380815505981,-0.04673119261860848,-4.264073371887207,-6.045359134674072,-0.30286651849746704,0.3563575744628906,1.9309701919555664,-0.21884620189666748
313,21300.0,-35.00899887084961,-106.7040023803711,-69.45099639892578,-8.330844879150389,-5.051812171936035,-1.1165198087692259,1001.9199829101564,0.10995574295520782,0.10293079167604446,0.1359175145626068,-7.9744873046875,-3.1208419799804688,-1.3353660106658936,0.4783506393432617,-0.6598820686340332,-0.883398711681366
314,21400.0,-35.59400177001953,-102.9229965209961,-66.00700378417969,-8.330844879150389,-5.051812171936035,-1.1165198087692259,1001.9199829101564,0.10995574295520782,0.10293079167604446,0.1359175145626068,-7.9744873046875,-3.1208419799804688,-1.3353660106658936,0.4783506393432617,-0.6598820686340332,-0.883398711681366
315,21500.0,-34.709999084472656,-104.0,-67.375,-8.538430213928223,-4.8234381675720215,-0.0036529696080833673,1001.97998046875,0.3219259977340698,0.2290744632482529,-0.4801400899887085,-8.060079574584961,-5.483320236206055,-0.8870517015457153,-3.849959373474121,0.1849837303161621,-0.5549647212028503
316,21600.0,-34.38800048828125,-105.63800048828124,-69.40399932861328,-8.538430213928223,-4.8234381675720215,-0.0036529696080833673,1001.97998046875,0.3219259977340698,0.2290744632482529,-0.4801400899887085,-8.060079574584961,-5.483320236206055,-0.8870517015457153,-3.849959373474121,0.1849837303161621,-0.5549647212028503
317,21700.0,-34.38800048828125,-106.04399871826172,-70.26000213623047,-8.037850379943848,-5.618025779724121,-0.034008946269750595,1001.97998046875,2.7391197681427,0.4929682612419128,0.8130616545677185,-11.887809753417967,-5.433042049407959,-0.5889736413955688,0.9541521072387696,-2.0161521434783936,-3.246610403060913
318,21800.0,-35.902000427246094,-118.2509994506836,-75.96800231933594,-9.107007026672363,-3.4701611995697017,1.091230392456055,1001.8099975585938,0.2064724564552307,-0.8680394887924194,1.1203268766403198,-8.152854919433594,-5.486313343048097,-2.1553800106048584,0.9541521072387696,-2.0161521434783936,-3.246610403060913
319,21900.0,-36.5989990234375,-119.83599853515624,-75.875,-9.107007026672363,-3.4701611995697017,1.091230392456055,1001.8099975585938,0.2064724564552307,-0.8680394887924194,1.1203268766403198,-8.152854919433594,-5.486313343048097,-2.1553800106048584,5.252415657043457,-2.513601541519165,-0.8976321220397949
320,21000.0,-38.17499923706055,-112.51300048828124,-69.74299621582031,-8.751328468322754,-4.140903949737549,1.5612632036209106,1001.9400024414064,-1.4227051734924316,1.0067058801650999,-1.313360333442688,-4.426280498504639,-0.8313865661621094,1.778891921043396,2.506521701812744,0.5789585113525391,2.236393690109253
321,21100.0,-37.45500183105469,-111.02999877929688,-68.59400177001953,-6.770595073699951,-6.624317646026611,-2.539260149002075,1001.9400024414064,-0.1417207419872284,0.7611380815505981,-0.04673119261860848,-4.264073371887207,-6.045359134674072,-0.30286651849746704,0.3563575744628906,1.9309701919555664,-0.21884620189666748
322,21200.0,-35.51100158691406,-108.43900299072266,-69.72899627685547,-6.770595073699951,-6.624317646026611,-2.539260149002075,1001.9400024414064,-0.1417207419872284,0.7611380815505981,-0.04673119261860848,-4.264073371887207,-6.045359134674072,-0.30286651849746704,0.3563575744628906,1.9309701919555664,-0.21884620189666748
323,21300.0,-35.00899887084961,-106.7040023803711,-69.45099639892578,-8.330844879150389,-5.051812171936035,-1.1165198087692259,1001.9199829101564,0.10995574295520782,0.10293079167604446,0.1359175145626068,-7.9744873046875,-3.1208419799804688,-1.3353660106658936,0.4783506393432617,-0.6598820686340332,-0.883398711681366
324,21400.0,-35.59400177001953,-102.9229965209961,-66.00700378417969,-8.330844879150389,-5.051812171936035,-1.1165198087692259,1001.9199829101564,0.10995574295520782,0.10293079167604446,0.1359175145626068,-7.9744873046875,-3.1208419799804688,-1.3353660106658936,0.4783506393432617,-0.6598820686340332,-0.883398711681366
325,21500.0,-34.709999084472656,-104.0,-67.375,-8.538430213928223,-4.8234381675720215,-0.0036529696080833673,1001.97998046875,0.3219259977340698,0.2290744632482529,-0.4801400899887085,-8.060079574584961,-5.483320236206055,-0.8870517015457153,-3.849959373474121,0.1849837303161621,-0.5549647212028503
326,21600.0,-34.38800048828125,-105.63800048828124,-69.40399932861328,-8.538430213928223,-4.8234381675720215,-0.0036529696080833673,1001.97998046875,0.3219259977340698,0.2290744632482529,-0.4801400899887085,-8.060079574584961,-5.483320236206055,-0.8870517015457153,-3.849959373474121,0.1849837303161621,-0.5549647212028503
327,21700.0,-34.38800048828125,-106.04399871826172,-70.26000213623047,-8.037850379943848,-5.618025779724121,-0.034008946269750595,1001.97998046875,2.7391197681427,0.4929682612419128,0.8130616545677185,-11.887809753417967,-5.433042049407959,-0.5889736413955688,0.9541521072387696,-2.0161521434783936,-3.246610403060913
328,21800.0,-35.902000427246094,-118.2509994506836,-75.96800231933594,-9.107007026672363,-3.4701611995697017,1.091230392456055,1001.8099975585938,0.2064724564552307,-0.8680394887924194,1.1203268766403198,-8.152854919433594,-5.486313343048097,-2.1553800106048584,0.9541521072387696,-2.0161521434783936,-3.246610403060913
329,21900.0,-36.5989990234375,-119.83599853515624,-75.875,-9.107007026672363,-3.4701611995697017,1.091230392456055,1001.8099975585938,0.2064724564552307,-0.8680394887924194,1.1203268766403198,-8.152854919433594,-5.486313343048097,-2.1553800106048584,5.252415657043457,-2.513601541519165,-0.8976321220397949
330,22000.0,-38.80699920654297,-118.34700012207031,-73.44000244140625,-9.080145835876463,-3.4425737857818604,1.3674942255020142,1001.8599853515624,-0.3268128931522369,-1.3781119585037231,-0.14874568581581116,-3.8277299404144287,-5.956175327301025,0.4698620736598969,3.5000314712524414,2.889033555984497,-0.21041035652160645
331,22100.0,-39.180999755859375,-116.22699737548828,-71.54299926757812,-9.080145835876463,-3.4425737857818604,1.3674942255020142,1001.8599853515624,-0.3268128931522369,-1.3781119585037231,-0.14874568581581116,-3.8277299404144287,-5.956175327301025,0.4698620736598969,3.5000314712524414,2.889033555984497,-0.21041035652160645
332,22200.0,-38.30799865722656,-115.30699920654295,-73.48600006103516,-8.433882713317871,-3.6994707584381104,3.369559526443481,1001.9299926757812,-1.01617431640625,0.1010981947183609,-0.9828822016716005,-4.93385124206543,-0.8104372620582581,3.159149169921875,4.193346977233887,4.141974449157715,-2.369792461395264
333,22300.0,-31.43000030517578,-116.59200286865234,-77.9280014038086,-8.433882713317871,-3.6994707584381104,3.369559526443481,1001.9299926757812,-1.01617431640625,0.1010981947183609,-0.9828822016716005,-4.93385124206543,-0.8104372620582581,3.159149169921875,4.193346977233887,4.141974449157715,-2.369792461395264
334,22400.0,-30.29599952697754,-115.04299926757812,-76.85600280761719,-7.706239700317383,-5.5659260749816895,2.409296751022339,1001.9199829101564,-0.4431827366352081,-0.16798794269561768,-0.39675697684288025,-3.512892484664917,-1.423951506614685,0.03950432687997818,-2.059391021728516,1.9534108638763428,0.4992808103561402
335,22500.0,-28.64900016784668,-113.54900360107422,-76.78900146484375,-7.706239700317383,-5.5659260749816895,2.409296751022339,1001.9199829101564,-0.4431827366352081,-0.16798794269561768,-0.39675697684288025,-3.512892484664917,-1.423951506614685,0.03950432687997818,-2.059391021728516,1.9534108638763428,0.4992808103561402
336,22600.0,-26.256999969482425,-111.35800170898438,-76.99199676513672,-8.215325355529785,-5.354374408721924,0.09747399389743804,1001.9199829101564,0.2321287989616394,-0.2922990322113037,-0.009162978269159794,-10.2747163772583,-3.400963544845581,0.596754789352417,1.4416885375976565,0.4222946166992188,-1.780205488204956
337,22700.0,-23.22599983215332,-110.53399658203124,-76.6259994506836,-8.536905288696289,-4.765974998474121,0.7596771121025085,1001.8900146484376,0.4877758920192719,0.5836817622184753,-0.4499022662639618,-7.095216751098633,-4.3436803817749015,-1.0205284357070925,1.4416885375976565,0.4222946166992188,-1.780205488204956
338,22800.0,-21.341999053955078,-110.84100341796876,-76.6259994506836,-8.536905288696289,-4.765974998474121,0.7596771121025085,1001.8900146484376,0.4877758920192719,0.5836817622184753,-0.4499022662639618,-7.095216751098633,-4.3436803817749015,-1.0205284357070925,-3.1819610595703125,0.6233987808227539,-0.8682023286819458
339,22900.0,-19.700000762939453,-111.2480010986328,-76.6259994506836,-8.211445808410645,-5.339377403259277,-0.4833244979381561,1001.969970703125,2.021658420562744,0.38667771220207214,0.6869179606437683,-11.393406867980955,-4.715978622436523,-1.3515268564224243,0.8115310668945312,-2.52779221534729,2.17771577835083
340,22000.0,-38.80699920654297,-118.34700012207031,-73.44000244140625,-9.080145835876463,-3.4425737857818604,1.3674942255020142,1001.8599853515624,-0.3268128931522369,-1.3781119585037231,-0.14874568581581116,-3.8277299404144287,-5.956175327301025,0.4698620736598969,3.5000314712524414,2.889033555984497,-0.21041035652160645
341,22100.0,-39.180999755859375,-116.22699737548828,-71.54299926757812,-9.080145835876463,-3.4425737857818604,1.3674942255020142,1001.8599853515624,-0.3268128931522369,-1.3781119585037231,-0.14874568581581116,-3.8277299404144287,-5.956175327301025,0.4698620736598969,3.5000314712524414,2.889033555984497,-0.21041035652160645
342,22200.0,-38.30799865722656,-115.30699920654295,-73.48600006103516,-8.433882713317871,-3.6994707584381104,3.369559526443481,1001.9299926757812,-1.01617431640625,0.1010981947183609,-0.9828822016716005,-4.93385124206543,-0.8104372620582581,3.159149169921875,4.193346977233887,4.141974449157715,-2.369792461395264
343,22300.0,-31.43000030517578,-116.59200286865234,-77.9280014038086,-8.433882713317871,-3.6994707584381104,3.369559526443481,1001.9299926757812,-1.01617431640625,0.1010981947183609,-0.9828822016716005,-4.93385124206543,-0.8104372620582581,3.159149169921875,4.193346977233887,4.141974449157715,-2.369792461395264
344,22400.0,-30.29599952697754,-115.04299926757812,-76.85600280761719,-7.706239700317383,-5.5659260749816895,2.409296751022339,1001.9199829101564,-0.4431827366352081,-0.16798794269561768,-0.39675697684288025,-3.512892484664917,-1.423951506614685,0.03950432687997818,-2.059391021728516,1.9534108638763428,0.4992808103561402
345,22500.0,-28.64900016784668,-113.54900360107422,-76.78900146484375,-7.706239700317383,-5.5659260749816895,2.409296751022339,1001.9199829101564,-0.4431827366352081,-0.16798794269561768,-0.39675697684288025,-3.512892484664917,-1.423951506614685,0.03950432687997818,-2.059391021728516,1.9534108638763428,0.4992808103561402
346,22600.0,-26.256999969482425,-111.35800170898438,-76.99199676513672,-8.215325355529785,-5.354374408721924,0.09747399389743804,1001.9199829101564,0.2321287989616394,-0.2922990322113037,-0.009162978269159794,-10.2747163772583,-3.400963544845581,0.596754789352417,1.4416885375976565,0.4222946166992188,-1.780205488204956
347,22700.0,-23.22599983215332,-110.53399658203124,-76.6259994506836,-8.536905288696289,-4.765974998474121,0.7596771121025085,1001.8900146484376,0.4877758920192719,0.5836817622184753,-0.4499022662639618,-7.095216751098633,-4.3436803817749015,-1.0205284357070925,1.4416885375976565,0.4222946166992188,-1.780205488204956
348,22800.0,-21.341999053955078,-110.84100341796876,-76.6259994506836,-8.536905288696289,-4.765974998474121,0.7596771121025085,1001.8900146484376,0.4877758920192719,0.5836817622184753,-0.4499022662639618,-7.095216751098633,-4.3436803817749015,-1.0205284357070925,-3.1819610595703125,0.6233987808227539,-0.8682023286819458
349,22900.0,-19.700000762939453,-111.2480010986328,-76.6259994506836,-8.211445808410645,-5.339377403259277,-0.4833244979381561,1001.969970703125,2.021658420562744,0.38667771220207214,0.6869179606437683,-11.393406867980955,-4.715978622436523,-1.3515268564224243,0.8115310668945312,-2.52779221534729,2.17771577835083
350,23000.0,-22.67900085449219,-115.10299682617188,-77.50499725341797,-8.211445808410645,-5.339377403259277,-0.4833244979381561,1001.969970703125,2.021658420562744,0.38667771220207214,0.6869179606437683,-11.393406867980955,-4.715978622436523,-1.3515268564224243,0.8115310668945312,-2.52779221534729,2.17771577835083
351,23100.0,-21.982999801635746,-130.42399597167972,-81.70099639892578,-9.135571479797363,-3.357155561447144,1.200502872467041,1001.7899780273438,0.2974913716316223,-1.587027907371521,1.056185960769653,-8.324040412902832,-5.884947776794434,3.378218650817871,3.452678680419922,-2.47024154663086,-1.196373462677002
352,23200.0,-26.2189998626709,-133.64199829101565,-80.37699890136719,-9.135571479797363,-3.357155561447144,1.200502872467041,1001.7899780273438,0.2974913716316223,-1.587027907371521,1.056185960769653,-8.324040412902832,-5.884947776794434,3.378218650817871,3.452678680419922,-2.47024154663086,-1.196373462677002
353,23300.0,-30.80400085449219,-134.76199340820312,-79.30999755859375,-8.706155776977539,-3.2315497398376465,3.1512391567230225,1001.739990234375,-0.04276056587696075,-1.5241087675094604,-0.05375614017248154,-5.253477096557617,-5.701791286468506,1.9548656940460205,2.7563319206237797,2.95835542678833,-2.79768705368042
354,23400.0,-32.285999298095696,-134.76199340820312,-77.64700317382812,-8.706155776977539,-3.2315497398376465,3.1512391567230225,1001.739990234375,-0.04276056587696075,-1.5241087675094604,-0.05375614017248154,-5.253477096557617,-5.701791286468506,1.9548656940460205,2.7563319206237797,2.95835542678833,-2.79768705368042
355,23500.0,-25.77199935913086,-134.09700012207028,-81.1520004272461,-7.516603469848633,-3.2187247276306152,5.4139509201049805,1001.8699951171876,0.4990769028663635,0.020463986322283745,-0.5204572081565857,-4.7602715492248535,-0.2603694200515747,2.6162638664245605,0.9258623123168944,4.0105857849121085,-1.8926553726196291
356,23600.0,-17.14900016784668,-134.49699401855472,-84.14700317382812,-7.516603469848633,-3.2187247276306152,5.4139509201049805,1001.8699951171876,-0.14233160018920898,1.9724838733673096,-0.8069530129432678,-4.7602715492248535,-0.2603694200515747,2.6162638664245605,0.9258623123168944,4.0105857849121085,-1.8926553726196291
357,23700.0,-6.3979997634887695,-134.12300109863278,-85.41400146484375,-8.270075798034668,-5.167583465576172,1.0355311632156372,1001.8599853515624,-0.14233160018920898,1.9724838733673096,-0.8069530129432678,-7.3442134857177725,-1.1569979190826416,-0.8571242094039917,-6.345175266265869,1.3626561164855957,0.5668787956237793
358,23800.0,1.246000051498413,-133.76100158691406,-85.48500061035156,-7.740511417388916,-5.351396083831787,-2.759967565536499,1001.8599853515624,1.2724323272705078,1.649030685424805,0.7299839854240417,-14.085686683654785,-3.988739967346192,-2.19308876991272,2.9094295501708984,-0.9929430484771729,0.3197270631790161
359,23900.0,5.894999980926514,-133.35099792480472,-85.37999725341797,-7.740511417388916,-5.351396083831787,-2.759967565536499,1001.8599853515624,1.2724323272705078,1.649030685424805,0.7299839854240417,-14.085686683654785,-3.988739967346192,-2.19308876991272,2.9094295501708984,-0.9929430484771729,0.3197270631790161
360,23000.0,-22.67900085449219,-115.10299682617188,-77.50499725341797,-8.211445808410645,-5.339377403259277,-0.4833244979381561,1001.969970703125,2.021658420562744,0.38667771220207214,0.6869179606437683,-11.393406867980955,-4.715978622436523,-1.3515268564224243,0.8115310668945312,-2.52779221534729,2.17771577835083
361,23100.0,-21.982999801635746,-130.42399597167972,-81.70099639892578,-9.135571479797363,-3.357155561447144,1.200502872467041,1001.7899780273438,0.2974913716316223,-1.587027907371521,1.056185960769653,-8.324040412902832,-5.884947776794434,3.378218650817871,3.452678680419922,-2.47024154663086,-1.196373462677002
362,23200.0,-26.2189998626709,-133.64199829101565,-80.37699890136719,-9.135571479797363,-3.357155561447144,1.200502872467041,1001.7899780273438,0.2974913716316223,-1.587027907371521,1.056185960769653,-8.324040412902832,-5.884947776794434,3.378218650817871,3.452678680419922,-2.47024154663086,-1.196373462677002
363,23300.0,-30.80400085449219,-134.76199340820312,-79.30999755859375,-8.706155776977539,-3.2315497398376465,3.1512391567230225,1001.739990234375,-0.04276056587696075,-1.5241087675094604,-0.05375614017248154,-5.253477096557617,-5.701791286468506,1.9548656940460205,2.7563319206237797,2.95835542678833,-2.79768705368042
364,23400.0,-32.285999298095696,-134.76199340820312,-77.64700317382812,-8.706155776977539,-3.2315497398376465,3.1512391567230225,1001.739990234375,-0.04276056587696075,-1.5241087675094604,-0.05375614017248154,-5.253477096557617,-5.701791286468506,1.9548656940460205,2.7563319206237797,2.95835542678833,-2.79768705368042
365,23500.0,-25.77199935913086,-134.09700012207028,-81.1520004272461,-7.516603469848633,-3.2187247276306152,5.4139509201049805,1001.8699951171876,0.4990769028663635,0.020463986322283745,-0.5204572081565857,-4.7602715492248535,-0.2603694200515747,2.6162638664245605,0.9258623123168944,4.0105857849121085,-1.8926553726196291
366,23600.0,-17.14900016784668,-134.49699401855472,-84.14700317382812,-7.516603469848633,-3.2187247276306152,5.4139509201049805,1001.8699951171876,-0.14233160018920898,1.9724838733673096,-0.8069530129432678,-4.7602715492248535,-0.2603694200515747,2.6162638664245605,0.9258623123168944,4.0105857849121085,-1.8926553726196291
367,23700.0,-6.3979997634887695,-134.12300109863278,-85.41400146484375,-8.270075798034668,-5.167583465576172,1.0355311632156372,1001.8599853515624,-0.14233160018920898,1.9724838733673096,-0.8069530129432678,-7.3442134857177725,-1.1569979190826416,-0.8571242094039917,-6.345175266265869,1.3626561164855957,0.5668787956237793
368,23800.0,1.246000051498413,-133.76100158691406,-85.48500061035156,-7.740511417388916,-5.351396083831787,-2.759967565536499,1001.8599853515624,1.2724323272705078,1.649030685424805,0.7299839854240417,-14.085686683654785,-3.988739967346192,-2.19308876991272,2.9094295501708984,-0.9929430484771729,0.3197270631790161
369,23900.0,5.894999980926514,-133.35099792480472,-85.37999725341797,-7.740511417388916,-5.351396083831787,-2.759967565536499,1001.8599853515624,1.2724323272705078,1.649030685424805,0.7299839854240417,-14.085686683654785,-3.988739967346192,-2.19308876991272,2.9094295501708984,-0.9929430484771729,0.3197270631790161
370,24000.0,10.017000198364258,-141.04400634765625,-85.37999725341797,-9.088265419006348,-3.283101320266724,-1.671852469444275,1001.77001953125,0.8133670687675476,1.0674870014190674,-0.6148358583450317,-6.178835868835449,-4.2760443687438965,-1.3521254062652588,-1.9185466766357424,-1.0732259750366209,-1.9271453619003296
371,24100.0,13.298999786376953,-144.55099487304688,-85.69100189208984,-9.088265419006348,-3.283101320266724,-1.671852469444275,1001.77001953125,0.8133670687675476,1.0674870014190674,-0.6148358583450317,-6.178835868835449,-4.2760443687438965,-1.3521254062652588,-1.9185466766357424,-1.0732259750366209,-1.9271453619003296
372,24200.0,17.843000411987305,-148.50900268554688,-85.69100189208984,-8.079639434814451,-5.4503750801086435,-1.087753176689148,1001.9099731445312,2.0674734115600586,0.4969388842582703,-0.18967366218566886,-9.998186111450195,-6.523601055145264,-3.014898538589477,-2.3958654403686523,0.5026869773864746,2.2829689979553223
373,24300.0,14.802000045776367,-160.32400512695312,-85.69100189208984,-8.079639434814451,-5.4503750801086435,-1.087753176689148,1001.9099731445312,2.0674734115600586,0.4969388842582703,-0.18967366218566886,-9.998186111450195,-6.523601055145264,-3.014898538589477,-2.3958654403686523,0.5026869773864746,2.2829689979553223
374,24400.0,6.256999969482423,-166.33299255371094,-86.31999969482422,-8.736574172973633,-4.342986583709717,0.9905032515525818,1001.8599853515624,1.0891727209091189,-0.8799513578414917,0.3628539443016052,-11.132439613342283,-3.8402996063232417,3.273472309112549,1.7116312980651855,-6.981948852539063,-4.214837074279785
375,24500.0,0.0820000022649765,-162.10000610351562,-94.04900360107422,-8.736574172973633,-4.342986583709717,0.9905032515525818,1001.8599853515624,1.0891727209091189,-0.8799513578414917,0.3628539443016052,-11.132439613342283,-3.8402996063232417,3.273472309112549,1.7116312980651855,-6.981948852539063,-4.214837074279785
