,timestamp,ax,ay,az
0,7000.0,0.4908113479614258,-9.820416450500488,1.4688427448272705
1,7100.0,0.4908113479614258,-9.820416450500488,1.4688427448272705
2,7200.0,0.4908113479614258,-9.820416450500488,1.4688427448272705
3,7300.0,2.5983073711395264,-11.643601417541506,0.3501519858837128
4,7400.0,1.193509578704834,-10.608707427978516,1.256955862045288
5,7500.0,1.193509578704834,-10.608707427978516,1.256955862045288
6,7600.0,1.1767501831054688,-6.873753070831299,3.7487213611602783
7,7700.0,1.1767501831054688,-6.873753070831299,3.7487213611602783
8,7800.0,2.100313425064087,-5.178658485412598,5.368398666381836
9,7900.0,2.100313425064087,-5.178658485412598,5.368398666381836
10,8000.0,4.021660327911377,-5.920262336730957,4.89494514465332
11,8100.0,4.021660327911377,-5.920262336730957,4.89494514465332
12,8200.0,0.9175778031349182,-7.60637903213501,3.22139835357666
13,8300.0,-0.2537853717803955,-9.314641952514648,1.9674352407455444
14,8400.0,-0.2537853717803955,-9.314641952514648,1.9674352407455444
15,8500.0,0.06883329898118973,-8.315062522888184,1.7555483579635618
16,8600.0,0.06883329898118973,-8.315062522888184,1.7555483579635618
17,8700.0,0.07062894850969315,-8.848969459533691,1.8501193523406985
18,8800.0,0.07062894850969315,-8.848969459533691,1.8501193523406985
19,8900.0,5.723339080810548,-9.607333183288574,0.7218518257141113
20,9000.0,5.723339080810548,-9.607333183288574,0.7218518257141113
21,9100.0,0.14365209639072418,-9.074623107910156,0.8804676532745361
22,9200.0,0.7266402244567871,-7.887697696685791,0.9074024558067322
23,9300.0,0.7266402244567871,-7.887697696685791,0.9074024558067322
24,9400.0,-2.2122423648834233,-9.17817211151123,3.2190041542053223
25,9500.0,-2.2122423648834233,-9.17817211151123,3.2190041542053223
26,9600.0,0.9965864419937134,-8.158841133117676,3.9516298770904537
27,9700.0,0.9965864419937134,-8.158841133117676,3.9516298770904537
28,9800.0,0.9032126069068908,-8.168417930603027,3.8019924163818364
29,9900.0,0.9032126069068908,-8.168417930603027,3.8019924163818364
30,10000.0,0.06703764945268631,-6.231508255004883,-2.1057004928588867
31,10100.0,-0.2621650993824005,-10.116100311279297,0.8050503134727478
32,10200.0,-0.2621650993824005,-10.116100311279297,0.8050503134727478
33,10300.0,-0.9792284965515136,-9.497797966003418,1.370081901550293
34,10400.0,-0.9792284965515136,-9.497797966003418,1.370081901550293
35,10500.0,-0.74040687084198,-8.881889343261719,1.7004817724227903
36,10600.0,-0.74040687084198,-8.881889343261719,1.7004817724227903
37,10700.0,3.5021185874938965,-8.702922821044924,0.11671733111143112
38,10800.0,3.5021185874938965,-8.702922821044924,0.11671733111143112
39,10900.0,0.9498994946479796,-7.787739753723144,3.113060712814331
40,11000.0,0.5440823435783386,-9.175179481506348,5.286397457122803
41,11100.0,0.5440823435783386,-9.175179481506348,5.286397457122803
42,11200.0,1.1540051698684692,-7.128735542297362,4.963180065155028
43,11300.0,1.1540051698684692,-7.128735542297362,4.963180065155028
44,11400.0,0.32261869311332697,-8.022371292114258,-2.5803508758544917
45,11500.0,0.32261869311332697,-8.022371292114258,-2.5803508758544917
46,11600.0,-1.88244104385376,-10.40460205078125,1.2994530200958252
47,11700.0,-1.88244104385376,-10.40460205078125,1.2994530200958252
48,11800.0,-0.038307227194309235,-8.558073997497559,2.254140853881836
49,11900.0,-1.547252893447876,-11.739968299865724,0.7392097711563109
50,12000.0,-1.547252893447876,-11.739968299865724,0.7392097711563109
51,12100.0,-0.12689268589019775,-10.599130630493164,0.7122750282287598
52,12200.0,-0.12689268589019775,-10.599130630493164,0.7122750282287598
53,12300.0,0.861314058303833,-8.386289596557617,3.3028011322021484
54,12400.0,0.861314058303833,-8.386289596557617,3.3028011322021484
55,12500.0,2.2792799472808842,-7.293935298919678,5.060145378112793
56,12600.0,2.2792799472808842,-7.293935298919678,5.060145378112793
57,12700.0,2.9029695987701416,-6.798934459686278,10.270526885986328
58,12800.0,-2.1817162036895748,-9.220070838928224,4.510077476501465
59,12900.0,-2.1817162036895748,-9.220070838928224,4.510077476501465
60,13000.0,0.021547814831137657,-7.615356922149657,2.371456861495972
61,13100.0,0.021547814831137657,-7.615356922149657,2.371456861495972
62,13200.0,-0.9421183466911316,-8.679579734802246,1.7495628595352173
63,13300.0,-0.9421183466911316,-8.679579734802246,1.7495628595352173
64,13400.0,-1.5418659448623655,-10.771512985229492,1.6442179679870603
65,13500.0,-1.5418659448623655,-10.771512985229492,1.6442179679870603
66,13600.0,-0.1999158412218094,-10.482413291931152,-1.9177556037902832
67,13700.0,-1.0211269855499268,-8.698733329772951,0.9750386476516724
68,13800.0,-1.0211269855499268,-8.698733329772951,0.9750386476516724
69,13900.0,0.8200140595436096,-7.762600421905518,3.444657802581787
70,14000.0,0.8200140595436096,-7.762600421905518,3.444657802581787
71,14100.0,1.4784195423126218,-6.082469463348389,5.221155166625977
72,14200.0,1.4784195423126218,-6.082469463348389,5.221155166625977
73,14300.0,1.1396399736404421,-5.542576789855957,6.891110897064209
74,14400.0,1.1396399736404421,-5.542576789855957,6.891110897064209
75,14500.0,2.298433542251587,-9.9371337890625,5.503671169281006
76,14600.0,0.9229647517204284,-9.050681114196776,3.0663738250732417
77,14700.0,0.9229647517204284,-9.050681114196776,3.0663738250732417
78,14800.0,-0.16220717132091522,-8.15524959564209,2.0458452701568604
79,14900.0,-0.16220717132091522,-8.15524959564209,2.0458452701568604
80,15000.0,-0.4818331003189087,-9.25299072265625,1.182137131690979
81,15100.0,-0.4818331003189087,-9.25299072265625,1.182137131690979
82,15200.0,0.812831461429596,-10.294468879699707,2.319382905960083
83,15300.0,0.812831461429596,-10.294468879699707,2.319382905960083
84,15400.0,-0.7398083209991455,-11.433509826660154,-0.1801636815071106
85,15500.0,0.34596213698387146,-8.918401718139648,-0.262763649225235
86,15600.0,0.34596213698387146,-8.918401718139648,-0.262763649225235
87,15700.0,1.3569138050079346,-6.435015678405763,3.90554141998291
88,15800.0,1.3569138050079346,-6.435015678405763,3.90554141998291
89,15900.0,1.4891934394836426,-5.743690013885497,6.1327476501464835
90,16000.0,1.4891934394836426,-5.743690013885497,6.1327476501464835
91,16100.0,2.561795711517334,-12.17571258544922,8.976460456848145
92,16200.0,2.561795711517334,-12.17571258544922,8.976460456848145
93,16300.0,2.1146786212921143,-8.498218536376951,5.7520694732666025
94,16400.0,0.3363853394985199,-8.034342765808105,2.7467479705810547
95,16500.0,0.3363853394985199,-8.034342765808105,2.7467479705810547
96,16600.0,-0.2974795699119568,-8.62511157989502,1.954267144203186
97,16700.0,-0.2974795699119568,-8.62511157989502,1.954267144203186
98,16800.0,-0.017956512048840526,-9.288305282592773,2.1799206733703613
99,16900.0,-0.017956512048840526,-9.288305282592773,2.1799206733703613
100,17000.0,0.4076128304004669,-9.50857162475586,1.5107412338256836
101,17100.0,0.4076128304004669,-9.50857162475586,1.5107412338256836
102,17200.0,-0.10474632680416107,-12.540828704833984,0.4429273009300232
103,17300.0,1.5400702953338623,-10.591948509216307,1.986588835716248
104,17400.0,1.5400702953338623,-10.591948509216307,1.986588835716248
105,17500.0,1.841739654541016,-9.769539833068848,4.291007995605469
106,17600.0,1.841739654541016,-9.769539833068848,4.291007995605469
107,17700.0,1.8058266639709477,-4.716577529907227,3.072359323501587
108,17800.0,1.8058266639709477,-4.716577529907227,3.072359323501587
109,17900.0,1.4712369441986084,-5.282207489013672,6.619967937469482
110,18000.0,1.4712369441986084,-5.282207489013672,6.619967937469482
111,18100.0,3.667917013168335,-10.004171371459961,5.76942777633667
112,18200.0,3.667917013168335,-10.004171371459961,5.76942777633667
113,18300.0,1.0564415454864502,-9.334393501281738,3.1525650024414062
114,18400.0,-0.2795230448246002,-7.9631147384643555,2.495356798171997
115,18500.0,-0.2795230448246002,-7.9631147384643555,2.495356798171997
116,18600.0,0.16759411990642548,-8.752004623413086,1.985990285873413
117,18700.0,0.16759411990642548,-8.752004623413086,1.985990285873413
118,18800.0,0.0347159244120121,-10.654197692871094,0.1346738487482071
119,18900.0,0.0347159244120121,-10.654197692871094,0.1346738487482071
120,19000.0,1.5011644363403318,-9.541492462158203,-0.7577648162841797
121,19100.0,1.5011644363403318,-9.541492462158203,-0.7577648162841797
122,19200.0,2.30022931098938,-8.864531517028809,-0.689530074596405
123,19300.0,2.060809135437012,-7.255628108978271,2.1553800106048584
124,19400.0,2.060809135437012,-7.255628108978271,2.1553800106048584
125,19500.0,1.269525408744812,-7.496844291687013,3.02327823638916
126,19600.0,1.269525408744812,-7.496844291687013,3.02327823638916
127,19700.0,0.7823054194450378,-9.925761222839355,4.711190223693848
128,19800.0,0.7823054194450378,-9.925761222839355,4.711190223693848
129,19900.0,-0.8277952671051025,-9.603741645812988,4.781819343566895
130,20000.0,-0.8277952671051025,-9.603741645812988,4.781819343566895
131,20100.0,0.2567781209945679,-8.702324867248535,0.14006079733371735
132,20200.0,-1.337161660194397,-9.82759952545166,1.149815320968628
133,20300.0,-1.337161660194397,-9.82759952545166,1.149815320968628
134,20400.0,-1.4454993009567259,-9.522936820983887,0.8463503122329712
135,20500.0,-1.4454993009567259,-9.522936820983887,0.8463503122329712
136,20600.0,-2.4881742000579834,-11.419144630432127,-0.22625206410884854
137,20700.0,-2.4881742000579834,-11.419144630432127,-0.22625206410884854
138,20800.0,2.9340941905975337,-9.72285270690918,-0.9229647517204284
139,20900.0,2.9340941905975337,-9.72285270690918,-0.9229647517204284
140,21000.0,0.6769605278968811,-7.94635534286499,2.7311856746673584
141,21100.0,1.2192472219467163,-8.176796913146973,3.7038300037384033
142,21200.0,1.2192472219467163,-8.176796913146973,3.7038300037384033
143,21300.0,3.043030261993408,-7.320271492004394,4.7405195236206055
144,21400.0,3.043030261993408,-7.320271492004394,4.7405195236206055
145,21500.0,0.5297171473503113,-6.446388244628906,3.0867245197296143
146,21600.0,0.5297171473503113,-6.446388244628906,3.0867245197296143
147,21700.0,-0.6985083222389221,-9.564237594604492,0.3734954595565796
148,21800.0,-0.6985083222389221,-9.564237594604492,0.3734954595565796
149,21900.0,-1.0456676483154297,-10.028712272644043,1.6214730739593506
150,22000.0,-1.4269442558288574,-9.865307807922363,0.8798691034317017
151,22100.0,-1.4269442558288574,-9.865307807922363,0.8798691034317017
152,22200.0,-0.6673837304115295,-9.54628086090088,0.7805097699165344
153,22300.0,-0.6673837304115295,-9.54628086090088,0.7805097699165344
154,22400.0,-0.29628247022628784,-11.754931449890135,-0.9181763529777528
155,22500.0,-0.29628247022628784,-11.754931449890135,-0.9181763529777528
156,22600.0,-0.33997663855552673,-9.35893440246582,-1.6723499298095703
157,22700.0,-0.33997663855552673,-9.35893440246582,-1.6723499298095703
158,22800.0,0.4590881764888763,-8.918999671936035,0.9451110959053041
159,22900.0,1.4772224426269531,-8.202534675598145,4.006696701049806
160,23000.0,1.4772224426269531,-8.202534675598145,4.006696701049806
161,23100.0,1.9195512533187864,-6.370970726013184,5.921459197998048
162,23200.0,1.9195512533187864,-6.370970726013184,5.921459197998048
163,23300.0,1.631049871444702,-5.582081317901611,6.411672115325928
164,23400.0,1.631049871444702,-5.582081317901611,6.411672115325928
165,23500.0,1.7004817724227903,-10.737396240234377,9.080608367919922
166,23600.0,1.7004817724227903,-10.737396240234377,9.080608367919922
167,23700.0,1.5412673950195312,-9.203909873962402,6.624756336212157
168,23800.0,-0.26994624733924866,-7.799111843109131,2.8628666400909424
169,23900.0,-0.26994624733924866,-7.799111843109131,2.8628666400909424
170,24000.0,-0.8385691642761229,-8.728660583496094,1.7705121040344238
171,24100.0,-0.8385691642761229,-8.728660583496094,1.7705121040344238
172,24200.0,-0.4626794755458832,-9.749189376831056,1.61069917678833
173,24300.0,-0.4626794755458832,-9.749189376831056,1.61069917678833
174,24400.0,-0.24181437492370605,-10.301053047180176,1.8986018896102903
175,24500.0,-0.24181437492370605,-10.301053047180176,1.8986018896102903
176,24600.0,-0.10654197633266448,-10.81460952758789,-0.2124854028224945
177,24700.0,-1.1174936294555664,-9.363722801208496,-2.287061214447021
178,24800.0,-1.1174936294555664,-9.363722801208496,-2.287061214447021
179,24900.0,0.7308300733566284,-9.039308547973633,1.6238672733306885
180,25000.0,0.7308300733566284,-9.039308547973633,1.6238672733306885
181,25100.0,1.6543933153152466,-8.603564262390138,5.564723491668701
182,25200.0,1.6543933153152466,-8.603564262390138,5.564723491668701
183,25300.0,1.678335428237915,-6.274604320526122,5.464166641235352
184,25400.0,1.678335428237915,-6.274604320526122,5.464166641235352
185,25500.0,1.7483657598495483,-5.914276599884032,6.2410850524902335
186,25600.0,1.6843209266662598,-9.621099472045898,6.252457618713379
187,25700.0,1.6843209266662598,-9.621099472045898,6.252457618713379
188,25800.0,0.8792705535888672,-9.305663108825684,3.455431699752808
189,25900.0,0.8792705535888672,-9.305663108825684,3.455431699752808
190,26000.0,-0.7134721279144287,-8.497620582580566,1.8884265422821045
191,26100.0,-0.7134721279144287,-8.497620582580566,1.8884265422821045
192,26200.0,-0.6649895310401917,-9.688735961914064,2.1326351165771484
193,26300.0,-0.6649895310401917,-9.688735961914064,2.1326351165771484
194,26400.0,-0.30885201692581177,-9.556455612182617,1.5598224401474
195,26500.0,0.7709329724311829,-10.936713218688963,1.1480196714401243
196,26600.0,0.7709329724311829,-10.936713218688963,1.1480196714401243
197,26700.0,-0.15083470940589905,-10.94808578491211,-0.3902548849582672
198,26800.0,-0.15083470940589905,-10.94808578491211,-0.3902548849582672
199,26900.0,0.03292027488350868,-8.100781440734862,0.5291185975074768
200,27000.0,0.03292027488350868,-8.100781440734862,0.5291185975074768
201,27100.0,1.6861165761947632,-7.269993305206299,3.989338636398315
202,27200.0,1.6861165761947632,-7.269993305206299,3.989338636398315
203,27300.0,1.0666168928146362,-4.70879602432251,5.559935092926025
204,27400.0,1.416170358657837,-5.814318656921388,6.07588529586792
205,27500.0,1.416170358657837,-5.814318656921388,6.07588529586792
206,27600.0,1.1971008777618408,-8.707711219787598,6.540360450744629
207,27700.0,1.1971008777618408,-8.707711219787598,6.540360450744629
208,27800.0,-0.1149216815829277,-8.802282333374023,4.0102877616882315
209,27900.0,-0.1149216815829277,-8.802282333374023,4.0102877616882315
210,28000.0,-0.2190694510936737,-8.347982406616211,2.145204782485962
211,28100.0,-0.2190694510936737,-8.347982406616211,2.145204782485962
212,28200.0,-0.07541735470294952,-9.20211410522461,2.145803213119507
213,28300.0,-1.225232720375061,-10.491392135620117,1.942894697189331
214,28400.0,-1.225232720375061,-10.491392135620117,1.942894697189331
215,28500.0,-2.2433669567108154,-10.476428031921387,0.0041898530907928935
216,28600.0,-2.2433669567108154,-10.476428031921387,0.0041898530907928935
217,28700.0,-0.5931634902954102,-14.969746589660645,0.7158663272857666
218,28800.0,-0.5931634902954102,-14.969746589660645,0.7158663272857666
219,28900.0,2.184110403060913,-11.053430557250977,2.742558002471924
220,29000.0,2.184110403060913,-11.053430557250977,2.742558002471924
221,29100.0,1.6992846727371216,-8.212710380554201,3.0819361209869385
222,29200.0,1.4927847385406494,-6.908469200134277,5.527613162994385
223,29300.0,1.4927847385406494,-6.908469200134277,5.527613162994385
224,29400.0,2.517503023147583,-5.84843635559082,6.427234649658202
225,29500.0,2.517503023147583,-5.84843635559082,6.427234649658202
226,29600.0,1.4101848602294922,-6.512228488922119,7.152677536010742
227,29700.0,1.4101848602294922,-6.512228488922119,7.152677536010742
228,29800.0,0.5578489899635315,-9.686341285705566,5.3145294189453125
229,29900.0,0.5578489899635315,-9.686341285705566,5.3145294189453125
230,30000.0,1.246780514717102,-8.511985778808594,3.22139835357666
231,30100.0,-0.17836803197860718,-8.810063362121582,2.564189910888672
232,30200.0,-0.17836803197860718,-8.810063362121582,2.564189910888672
233,30300.0,-0.2789244949817657,-9.244012832641602,1.567603588104248
234,30400.0,-0.2789244949817657,-9.244012832641602,1.567603588104248
235,30500.0,-0.6254851818084717,-9.494206428527832,1.2575544118881226
236,30600.0,-0.6254851818084717,-9.494206428527832,1.2575544118881226
237,30700.0,-1.1994950771331787,-10.431536674499512,0.7697358727455139
238,30800.0,-1.1994950771331787,-10.431536674499512,0.7697358727455139
239,30900.0,-0.12210428714752194,-13.153743743896484,-2.3116016387939453
240,31000.0,-0.4501099288463593,-9.82999324798584,-0.6087257862091064
241,31100.0,-0.4501099288463593,-9.82999324798584,-0.6087257862091064
242,31200.0,1.0271124839782717,-7.458536624908447,1.9985598325729368
243,31300.0,1.0271124839782717,-7.458536624908447,1.9985598325729368
244,31400.0,1.2880805730819702,-7.1915831565856925,3.059789657592773
245,31500.0,1.2880805730819702,-7.1915831565856925,3.059789657592773
246,31600.0,0.8457517623901367,-8.499416351318361,4.547187805175781
247,31700.0,0.8457517623901367,-8.499416351318361,4.547187805175781
248,31800.0,2.3576900959014893,-8.707711219787598,3.144783973693848
249,31900.0,1.405994892120361,-6.92462968826294,-1.2318167686462402
250,32000.0,1.405994892120361,-6.92462968826294,-1.2318167686462402
251,32100.0,-0.3429693877696991,-9.39903736114502,1.6286556720733645
252,32200.0,-0.3429693877696991,-9.39903736114502,1.6286556720733645
253,32300.0,-0.8307880163192749,-10.018536567687988,1.7070658206939695
254,32400.0,-0.8307880163192749,-10.018536567687988,1.7070658206939695
255,32500.0,-0.790086567401886,-9.04828643798828,0.7242460250854492
256,32600.0,-0.790086567401886,-9.04828643798828,0.7242460250854492
257,32700.0,-2.360682964324951,-11.8812255859375,-0.444722980260849
258,32800.0,1.9931728839874268,-8.82323169708252,-1.4688427448272705
259,32900.0,1.9931728839874268,-8.82323169708252,-1.4688427448272705
260,33000.0,0.0065840547904372215,-9.066243171691896,2.5462334156036377
261,33100.0,0.0065840547904372215,-9.066243171691896,2.5462334156036377
262,33200.0,0.8271966576576233,-7.343016624450684,3.4171242713928223
263,33300.0,0.8271966576576233,-7.343016624450684,3.4171242713928223
264,33400.0,1.0432734489440918,-8.557475090026855,4.4705729484558105
265,33500.0,1.0432734489440918,-8.557475090026855,4.4705729484558105
266,33600.0,0.8834604024887085,-7.377732753753662,2.63362193107605
267,33700.0,1.0785878896713257,-8.938153266906738,1.9812018871307373
268,33800.0,1.0785878896713257,-8.938153266906738,1.9812018871307373
269,33900.0,-0.4698620736598969,-9.43494987487793,2.27748441696167
270,34000.0,-0.4698620736598969,-9.43494987487793,2.27748441696167
271,34100.0,-1.4508862495422363,-9.563039779663086,0.3842693865299225
272,34200.0,-1.4508862495422363,-9.563039779663086,0.3842693865299225
273,34300.0,-0.30885201692581177,-12.573150634765625,1.4879963397979736
274,34400.0,-0.30885201692581177,-12.573150634765625,1.4879963397979736
275,34500.0,1.1803414821624756,-10.836755752563477,1.3766659498214722
276,34600.0,0.6254851818084717,-7.747636795043945,1.6633716821670532
277,34700.0,0.6254851818084717,-7.747636795043945,1.6633716821670532
278,34800.0,1.580173134803772,-7.2813658714294425,4.7129859924316415
279,34900.0,1.580173134803772,-7.2813658714294425,4.7129859924316415
280,35000.0,1.5939397811889648,-4.984129428863525,6.019022941589356
281,35100.0,1.5939397811889648,-4.984129428863525,6.019022941589356
282,35200.0,1.3180080652236938,-10.618284225463867,9.455899238586426
283,35300.0,1.3180080652236938,-10.618284225463867,9.455899238586426
284,35400.0,1.8596961498260496,-7.976283073425293,5.5318031311035165
285,35500.0,-0.20769700407981875,-8.762778282165527,2.8778305053710938
286,35600.0,-0.20769700407981875,-8.762778282165527,2.8778305053710938
287,35700.0,-0.11372458189725874,-7.890091896057129,2.041056871414185
288,35800.0,-0.11372458189725874,-7.890091896057129,2.041056871414185
289,35900.0,0.15741875767707825,-9.281721115112305,1.52630352973938
290,36000.0,0.15741875767707825,-9.281721115112305,1.52630352973938
291,36100.0,0.1604115068912506,-9.214085578918457,1.4862006902694702
292,36200.0,0.1604115068912506,-9.214085578918457,1.4862006902694702
293,36300.0,0.262763649225235,-12.294824600219727,0.07721300423145294
294,36400.0,0.8313865661621094,-9.79408073425293,3.391386747360229
295,36500.0,0.8313865661621094,-9.79408073425293,3.391386747360229
296,36600.0,1.255160212516785,-8.200140953063965,2.3337481021881104
297,36700.0,1.255160212516785,-8.200140953063965,2.3337481021881104
298,36800.0,1.6944962739944458,-7.911040782928468,4.58310079574585
299,36900.0,1.6944962739944458,-7.911040782928468,4.58310079574585
300,37000.0,2.0733785629272456,-5.552153587341309,5.642534732818604
301,37100.0,2.0733785629272456,-5.552153587341309,5.642534732818604
302,37200.0,2.168548107147217,-7.537545680999756,7.929595947265625
303,37300.0,0.6524199843406677,-8.942343711853027,4.709993362426758
304,37400.0,0.6524199843406677,-8.942343711853027,4.709993362426758
305,37500.0,0.4626794755458832,-8.373122215270996,2.936488389968872
306,37600.0,0.4626794755458832,-8.373122215270996,2.936488389968872
307,37700.0,0.2693476974964142,-8.410231590270996,2.2236149311065674
308,37800.0,0.2693476974964142,-8.410231590270996,2.2236149311065674
309,37900.0,-0.6506243348121643,-9.531316757202148,2.297835111618042
310,38000.0,-0.6506243348121643,-9.531316757202148,2.297835111618042
311,38100.0,-1.3832499980926514,-10.684124946594238,0.6751648783683777
312,38200.0,-1.3832499980926514,-10.684124946594238,0.6751648783683777
313,38300.0,0.5835866928100586,-12.18648624420166,-0.061052143573760986
314,38400.0,0.2256535142660141,-9.542689323425293,0.9133879542350768
315,38500.0,0.2256535142660141,-9.542689323425293,0.9133879542350768
316,38600.0,-0.07003039866685867,-7.162852764129639,2.484582901000977
317,38700.0,-0.07003039866685867,-7.162852764129639,2.484582901000977
318,38800.0,2.2487540245056152,-6.495469093322754,4.210802078247069
319,38900.0,2.2487540245056152,-6.495469093322754,4.210802078247069
320,39000.0,1.2713210582733154,-5.296572685241699,6.645705223083496
321,39100.0,1.2713210582733154,-5.296572685241699,6.645705223083496
322,39200.0,1.9422961473464968,-6.850409507751465,6.300341606140138
323,39300.0,1.634641170501709,-8.880094528198242,6.189011573791504
324,39400.0,1.634641170501709,-8.880094528198242,6.189011573791504
325,39500.0,2.284667015075684,-7.8960771560668945,3.7175967693328857
326,39600.0,2.284667015075684,-7.8960771560668945,3.7175967693328857
327,39700.0,0.4058171808719635,-8.868721961975098,2.1487960815429688
328,39800.0,0.4058171808719635,-8.868721961975098,2.1487960815429688
329,39900.0,-0.5374982953071594,-10.011354446411133,2.0009541511535645
330,40000.0,-0.39145198464393616,-9.743204116821287,1.2030863761901855
331,40100.0,-0.39145198464393616,-9.743204116821287,1.2030863761901855
332,40200.0,-0.8367735147476196,-10.338163375854492,0.3250128924846649
333,40300.0,-0.8367735147476196,-10.338163375854492,0.3250128924846649
334,40400.0,0.2448071241378784,-11.298836708068848,0.05446808785200119
335,40500.0,0.2448071241378784,-11.298836708068848,0.05446808785200119
336,40600.0,0.8301894664764404,-10.035296440124512,-0.6859387755393982
337,40700.0,0.8301894664764404,-10.035296440124512,-0.6859387755393982
338,40800.0,0.4638765752315521,-9.894038200378418,-0.33099839091300964
339,40900.0,0.4638765752315521,-9.894038200378418,-0.33099839091300964
340,41000.0,0.12330138683319093,-8.365939140319824,3.140594005584717
341,41100.0,0.9421183466911316,-7.870938301086426,5.361814498901367
342,41200.0,0.9421183466911316,-7.870938301086426,5.361814498901367
343,41300.0,1.8339585065841677,-5.725733280181885,5.918466567993164
344,41400.0,1.8339585065841677,-5.725733280181885,5.918466567993164
345,41500.0,2.075772762298584,-7.797914981842041,8.527547836303711
346,41600.0,2.075772762298584,-7.797914981842041,8.527547836303711
347,41700.0,1.1438298225402832,-8.126519203186035,5.319317817687988
348,41800.0,1.1438298225402832,-8.126519203186035,5.319317817687988
349,41900.0,-0.3908534348011017,-8.070854187011719,3.117250680923462
350,42000.0,0.002992752008140087,-8.917802810668945,2.291250944137573
351,42100.0,0.002992752008140087,-8.917802810668945,2.291250944137573
352,42200.0,-0.5704185366630554,-9.050082206726074,1.58795428276062
353,42300.0,-0.5704185366630554,-9.050082206726074,1.58795428276062
354,42400.0,-0.4159925580024719,-9.520543098449707,1.347337007522583
355,42500.0,-0.4159925580024719,-9.520543098449707,1.347337007522583
356,42600.0,-0.5728127360343933,-9.742605209350586,1.358709454536438
357,42700.0,-0.5728127360343933,-9.742605209350586,1.358709454536438
358,42800.0,-0.7158663272857666,-11.36168384552002,-0.4776432514190674
359,42900.0,1.3066356182098389,-10.290278434753418,-1.22642982006073
360,43000.0,1.3066356182098389,-10.290278434753418,-1.22642982006073
361,43100.0,0.9989806413650512,-9.734824180603027,1.6861165761947632
362,43200.0,0.9989806413650512,-9.734824180603027,1.6861165761947632
363,43300.0,1.5203180313110352,-7.378331184387207,2.365471363067627
364,43400.0,1.5203180313110352,-7.378331184387207,2.365471363067627
365,43500.0,1.6089035272598269,-8.06546688079834,2.896984100341797
366,43600.0,1.6089035272598269,-8.06546688079834,2.896984100341797
367,43700.0,0.7673416733741759,-9.008782386779783,3.889380693435669
368,43800.0,1.6968904733657837,-9.874884605407717,3.0837318897247314
369,43900.0,1.6968904733657837,-9.874884605407717,3.0837318897247314
370,44000.0,1.1899182796478271,-10.073603630065918,1.922544002532959
371,44100.0,1.1899182796478271,-10.073603630065918,1.922544002532959
372,44200.0,0.646434485912323,-9.570821762084961,0.9534908533096312
373,44300.0,0.646434485912323,-9.570821762084961,0.9534908533096312
374,44400.0,-0.5051765441894531,-9.598953247070312,1.1785458326339722
375,44500.0,-0.5051765441894531,-9.598953247070312,1.1785458326339722
376,44600.0,-0.3675099611282349,-8.907029151916504,0.7236474752426147
377,44700.0,-1.2108675241470337,-9.77672290802002,0.7511807680130005
378,44800.0,-1.2108675241470337,-9.77672290802002,0.7511807680130005
379,44900.0,2.1248540878295903,-8.741828918457031,-0.36391866207122797
380,45000.0,2.1248540878295903,-8.741828918457031,-0.36391866207122797
381,45100.0,-0.2292448133230209,-9.66539192199707,1.9351135492324831
382,45200.0,-0.2292448133230209,-9.66539192199707,1.9351135492324831
383,45300.0,0.4967968463897705,-7.131129741668701,3.8833951950073238
384,45400.0,0.4967968463897705,-7.131129741668701,3.8833951950073238
385,45500.0,1.6633716821670532,-7.924807548522949,4.115034103393556
386,45600.0,-0.9080010056495668,-7.645883083343506,-0.7416039705276489
387,45700.0,-0.9080010056495668,-7.645883083343506,-0.7416039705276489
388,45800.0,-0.5728127360343933,-10.11669921875,0.7032967209815979
389,45900.0,-0.5728127360343933,-10.11669921875,0.7032967209815979
390,46000.0,-0.6548141837120056,-9.90241813659668,1.1575964689254759
391,46100.0,-0.6548141837120056,-9.90241813659668,1.1575964689254759
392,46200.0,-0.8032546639442444,-9.336788177490234,0.8032546639442444
393,46300.0,-0.8032546639442444,-9.336788177490234,0.8032546639442444
394,46400.0,-1.3706804513931274,-12.461221694946287,-0.6715735793113708
395,46500.0,3.772064685821533,-8.793902397155763,0.9917980432510376
396,46600.0,3.772064685821533,-8.793902397155763,0.9917980432510376
397,46700.0,2.564788579940796,-7.867945194244385,4.150348663330078
398,46800.0,2.564788579940796,-7.867945194244385,4.150348663330078
399,46900.0,1.8567034006118772,-6.658275127410889,5.852027416229247
400,47000.0,1.8567034006118772,-6.658275127410889,5.852027416229247
401,47100.0,0.8385691642761229,-6.807912349700928,6.536170482635497
402,47200.0,0.8385691642761229,-6.807912349700928,6.536170482635497
403,47300.0,4.138976097106934,-7.716512203216553,5.443217754364014
404,47400.0,-0.07122749835252762,-9.123106002807617,3.3321301937103267
405,47500.0,-0.07122749835252762,-9.123106002807617,3.3321301937103267
406,47600.0,-0.7691373229026794,-8.56645393371582,2.042852640151977
407,47700.0,-0.7691373229026794,-8.56645393371582,2.042852640151977
408,47800.0,-0.4513070285320282,-8.916007041931152,1.9913772344589236
409,47900.0,-0.4513070285320282,-8.916007041931152,1.9913772344589236
410,48000.0,-1.3096283674240112,-10.587160110473633,0.9983820915222168
411,48100.0,-1.3096283674240112,-10.587160110473633,0.9983820915222168
412,48200.0,1.291671872138977,-12.339117050170898,1.2856862545013428
413,48300.0,0.3220201432704925,-10.248380661010742,0.5877765417098999
414,48400.0,0.3220201432704925,-10.248380661010742,0.5877765417098999
415,48500.0,1.3036428689956665,-7.5429325103759775,1.8154034614562988
416,48600.0,1.3036428689956665,-7.5429325103759775,1.8154034614562988
417,48700.0,0.4129997789859772,-8.393472671508789,5.349843502044678
418,48800.0,0.4129997789859772,-8.393472671508789,5.349843502044678
419,48900.0,1.4101848602294922,-4.499902248382568,5.814318656921388
420,49000.0,1.4101848602294922,-4.499902248382568,5.814318656921388
421,49100.0,2.8299465179443364,-8.172008514404299,8.759785652160645
422,49200.0,1.6077064275741575,-9.067440032958984,6.110002517700195
423,49300.0,1.6077064275741575,-9.067440032958984,6.110002517700195
424,49400.0,1.5478514432907104,-8.881889343261719,2.557007312774658
425,49500.0,1.5478514432907104,-8.881889343261719,2.557007312774658
426,49600.0,-0.6590040326118469,-8.462306022644043,1.7729063034057615
427,49700.0,-0.6590040326118469,-8.462306022644043,1.7729063034057615
428,49800.0,-0.062249243259429925,-9.272144317626953,1.0384849309921265
429,49900.0,-0.062249243259429925,-9.272144317626953,1.0384849309921265
430,50000.0,-1.580173134803772,-11.6244478225708,-0.6488286852836609
431,50100.0,1.7220295667648315,-8.281543731689451,0.023942016065120697
432,50200.0,1.7220295667648315,-8.281543731689451,0.023942016065120697
433,50300.0,2.0452468395233154,-9.560646057128906,1.2994530200958252
434,50400.0,2.0452468395233154,-9.560646057128906,1.2994530200958252
435,50500.0,1.7220295667648315,-7.268796443939209,3.4105403423309326
436,50600.0,1.7220295667648315,-7.268796443939209,3.4105403423309326
437,50700.0,1.841739654541016,-6.736684799194336,5.900510311126709
438,50800.0,1.841739654541016,-6.736684799194336,5.900510311126709
439,50900.0,1.1522095203399658,-5.744886875152588,6.4170589447021475
440,51000.0,1.6855180263519287,-8.450334548950195,6.035782337188722
441,51100.0,1.6855180263519287,-8.450334548950195,6.035782337188722
442,51200.0,-0.8631097078323364,-8.406641006469728,3.338115692138672
443,51300.0,-0.8631097078323364,-8.406641006469728,3.338115692138672
444,51400.0,0.7709329724311829,-8.592789649963379,2.655768156051636
445,51500.0,0.7709329724311829,-8.592789649963379,2.655768156051636
446,51600.0,-0.5452794432640076,-9.05247688293457,1.9602526426315308
447,51700.0,-0.5452794432640076,-9.05247688293457,1.9602526426315308
448,51800.0,-1.4335283041000366,-9.404424667358398,0.6949170231819153
449,51900.0,-1.5382746458053589,-10.28130054473877,0.6919242739677429
450,52000.0,-1.5382746458053589,-10.28130054473877,0.6919242739677429
451,52100.0,0.4225766062736511,-11.678317070007324,-0.7445967197418213
452,52200.0,0.4225766062736511,-11.678317070007324,-0.7445967197418213
453,52300.0,0.6308721303939819,-8.722675323486326,-1.1917139291763306
454,52400.0,0.6308721303939819,-8.722675323486326,-1.1917139291763306
455,52500.0,0.2693476974964142,-8.60236644744873,2.872443437576294
456,52600.0,0.2693476974964142,-8.60236644744873,2.872443437576294
457,52700.0,0.518943190574646,-7.129932880401611,4.749497413635254
458,52800.0,1.294066071510315,-4.6285905838012695,6.580463409423827
459,52900.0,1.294066071510315,-4.6285905838012695,6.580463409423827
460,53000.0,1.5849615335464478,-5.819107055664063,7.525574684143066
461,53100.0,1.5849615335464478,-5.819107055664063,7.525574684143066
462,53200.0,1.247977614402771,-9.745597839355467,7.041347026824951
463,53300.0,1.247977614402771,-9.745597839355467,7.041347026824951
464,53400.0,0.7469909191131592,-8.888473510742188,3.8833951950073238
465,53500.0,0.7469909191131592,-8.888473510742188,3.8833951950073238
466,53600.0,-0.8631097078323364,-8.45931339263916,2.8580782413482666
467,53700.0,-0.3770867586135864,-9.303269386291504,1.9057846069335935
468,53800.0,-0.3770867586135864,-9.303269386291504,1.9057846069335935
469,53900.0,-1.1953052282333374,-9.565434455871582,1.8794482946395876
470,54000.0,-1.1953052282333374,-9.565434455871582,1.8794482946395876
471,54100.0,-0.29628247022628784,-10.25855541229248,0.9014169573783876
472,54200.0,-0.29628247022628784,-10.25855541229248,0.9014169573783876
473,54300.0,0.11372458189725874,-11.598111152648926,-0.14484919607639313
474,54400.0,0.11372458189725874,-11.598111152648926,-0.14484919607639313
475,54500.0,0.3615244626998901,-9.900622367858887,0.21009120345115664
476,54600.0,-0.02693476900458336,-9.21947193145752,4.7381253242492685
477,54700.0,-0.02693476900458336,-9.21947193145752,4.7381253242492685
478,54800.0,0.4165911078453064,-6.1746463775634775,5.424064159393311
479,54900.0,0.4165911078453064,-6.1746463775634775,5.424064159393311
480,55000.0,2.24935245513916,-5.850830554962157,7.2298903465271
481,55100.0,2.24935245513916,-5.850830554962157,7.2298903465271
482,55200.0,1.436521053314209,-9.190143585205078,5.216965675354004
483,55300.0,1.436521053314209,-9.190143585205078,5.216965675354004
484,55400.0,-0.33997663855552673,-9.282918930053713,2.9107506275177
485,55500.0,0.27653029561042786,-8.134899139404299,2.079364061355591
486,55600.0,0.27653029561042786,-8.134899139404299,2.079364061355591
487,55700.0,-1.1791443824768066,-9.293692588806152,2.9718029499053955
488,55800.0,-1.1791443824768066,-9.293692588806152,2.9718029499053955
489,55900.0,2.586336374282837,-12.47079849243164,0.24600422382354736
490,56000.0,2.586336374282837,-12.47079849243164,0.24600422382354736
491,56100.0,0.05147533491253853,-10.244789123535156,2.803011655807495
492,56200.0,0.05147533491253853,-10.244789123535156,2.803011655807495
493,56300.0,1.3090298175811768,-6.872556209564209,2.870049238204956
494,56400.0,0.9780313968658448,-9.1446533203125,5.004479885101318
495,56500.0,0.9780313968658448,-9.1446533203125,5.004479885101318
496,56600.0,2.4684219360351562,-9.871294021606444,2.4917654991149902
497,56700.0,2.4684219360351562,-9.871294021606444,2.4917654991149902
498,56800.0,0.6248866319656372,-8.330624580383299,0.8188169598579407
499,56900.0,0.6248866319656372,-8.330624580383299,0.8188169598579407
500,57000.0,-1.5442601442337036,-9.369708061218262,1.3365631103515625
501,57100.0,-1.5442601442337036,-9.369708061218262,1.3365631103515625
502,57200.0,-1.4305355548858645,-9.33499240875244,1.5209165811538696
503,57300.0,0.2513911724090576,-10.778696060180664,0.17058686912059784
504,57400.0,0.2513911724090576,-10.778696060180664,0.17058686912059784
505,57500.0,2.718616008758545,-9.503185272216797,2.00574254989624
506,57600.0,2.718616008758545,-9.503185272216797,2.00574254989624
507,57700.0,0.900818407535553,-6.777386665344237,3.5272576808929443
508,57800.0,0.900818407535553,-6.777386665344237,3.5272576808929443
509,57900.0,0.7206547260284424,-9.586981773376463,4.963180065155028
510,58000.0,0.7206547260284424,-9.586981773376463,4.963180065155028
511,58100.0,2.053027868270874,-11.842918395996096,3.354875087738037
512,58200.0,-2.9382839202880864,-13.854047775268555,0.811634361743927
513,58300.0,-2.9382839202880864,-13.854047775268555,0.811634361743927
514,58400.0,-0.7104793787002563,-9.1632080078125,0.5267243981361389
515,58500.0,-0.7104793787002563,-9.1632080078125,0.5267243981361389
516,58600.0,-1.37906014919281,-9.096170425415039,1.6986861228942869
517,58700.0,-1.37906014919281,-9.096170425415039,1.6986861228942869
518,58800.0,-0.2406172752380371,-10.957662582397461,0.3609259128570557
519,58900.0,-0.2406172752380371,-10.957662582397461,0.3609259128570557
520,59000.0,1.9776105880737305,-9.741408348083496,-0.7763199210166931
521,59100.0,1.3419500589370728,-9.14585018157959,1.492186188697815
522,59200.0,1.3419500589370728,-9.14585018157959,1.492186188697815
523,59300.0,1.3012486696243286,-6.139331817626952,4.385579109191895
524,59400.0,1.3012486696243286,-6.139331817626952,4.385579109191895
525,59500.0,1.8052281141281128,-4.8255133628845215,5.462371349334717
526,59600.0,1.8052281141281128,-4.8255133628845215,5.462371349334717
527,59700.0,1.2880805730819702,-7.981669902801514,7.061099529266357
528,59800.0,1.2880805730819702,-7.981669902801514,7.061099529266357
529,59900.0,-0.11432313174009325,-7.909843921661378,4.786009311676025
530,60000.0,0.23762452602386475,-9.199121475219727,2.50373649597168
531,60100.0,0.23762452602386475,-9.199121475219727,2.50373649597168
532,60200.0,0.9451110959053041,-8.039729118347168,1.833359956741333
533,60300.0,0.9451110959053041,-8.039729118347168,1.833359956741333
534,60400.0,-1.3844470977783203,-9.28531265258789,1.9985598325729368
535,60500.0,-1.3844470977783203,-9.28531265258789,1.9985598325729368
536,60600.0,0.7990648150444031,-13.125612258911133,-0.4411316514015198
537,60700.0,0.7990648150444031,-13.125612258911133,-0.4411316514015198
538,60800.0,-0.11432313174009325,-8.850166320800781,1.4065934419631958
539,60900.0,-0.11432313174009325,-8.850166320800781,1.4065934419631958
540,61000.0,1.4053963422775269,-7.891887187957764,1.4179660081863403
541,61100.0,0.969651699066162,-7.202357292175293,3.638587951660156
542,61200.0,0.969651699066162,-7.202357292175293,3.638587951660156
543,61300.0,2.1057004928588867,-6.560112476348878,5.245097160339356
544,61400.0,2.1057004928588867,-6.560112476348878,5.245097160339356
545,61500.0,3.455431699752808,-6.260239124298097,6.412270545959473
546,61600.0,3.455431699752808,-6.260239124298097,6.412270545959473
547,61700.0,-0.5500678420066833,-7.957727909088135,3.5182793140411377
548,61800.0,-0.5500678420066833,-7.957727909088135,3.5182793140411377
549,61900.0,0.05746084079146385,-9.15961742401123,2.590526342391968
550,62000.0,0.10594342648983003,-8.597578048706055,1.7603367567062378
551,62100.0,0.10594342648983003,-8.597578048706055,1.7603367567062378
552,62200.0,-0.4686649739742279,-9.074024200439453,1.3736732006072998
553,62300.0,-0.4686649739742279,-9.074024200439453,1.3736732006072998
554,62400.0,-1.9776105880737305,-11.155782699584961,0.4141969084739685
555,62500.0,-1.9776105880737305,-11.155782699584961,0.4141969084739685
556,62600.0,0.4979939460754394,-13.523049354553224,0.04010287672281265
557,62700.0,0.2825157940387726,-9.579200744628906,0.3405751883983612
558,62800.0,0.2825157940387726,-9.579200744628906,0.3405751883983612
559,62900.0,1.3329718112945557,-7.296928405761719,1.2904747724533079
560,63000.0,1.3329718112945557,-7.296928405761719,1.2904747724533079
561,63100.0,0.6817489266395569,-7.328651428222656,5.163095951080322
562,63200.0,0.6817489266395569,-7.328651428222656,5.163095951080322
563,63300.0,1.932719349861145,-4.935647010803223,6.072294235229492
564,63400.0,1.932719349861145,-4.935647010803223,6.072294235229492
565,63500.0,2.319981336593628,-10.583568572998047,9.828198432922363
566,63600.0,2.319981336593628,-10.583568572998047,9.828198432922363
567,63700.0,4.377199172973634,-6.999448776245117,7.219116687774657
568,63800.0,1.4640543460845947,-8.145672798156737,3.821744441986084
569,63900.0,1.4640543460845947,-8.145672798156737,3.821744441986084
570,64000.0,0.3184288144111633,-8.510190010070799,1.8722656965255735
571,64100.0,0.3184288144111633,-8.510190010070799,1.8722656965255735
572,64200.0,-0.3477577865123749,-9.532513618469238,1.2384008169174194
573,64300.0,-0.3477577865123749,-9.532513618469238,1.2384008169174194
574,64400.0,-0.31364041566848755,-9.466673851013184,1.4490906000137331
575,64500.0,-0.31364041566848755,-9.466673851013184,1.4490906000137331
576,64600.0,1.7040730714797974,-13.227365493774414,-0.11851298063993455
577,64700.0,1.1013327836990356,-8.81784439086914,1.4490906000137331
578,64800.0,1.1013327836990356,-8.81784439086914,1.4490906000137331
579,64900.0,2.355295896530152,-8.288127899169924,2.160767078399658
580,65000.0,2.355295896530152,-8.288127899169924,2.160767078399658
581,65100.0,1.8794482946395876,-8.716690063476562,4.672883033752441
582,65200.0,1.8794482946395876,-8.716690063476562,4.672883033752441
583,65300.0,1.2880805730819702,-4.453813552856445,5.501276969909668
584,65400.0,1.2880805730819702,-4.453813552856445,5.501276969909668
585,65500.0,2.060210466384888,-10.240599632263184,8.429984092712402
586,65600.0,2.127248287200928,-8.526350975036621,5.647922039031982
587,65700.0,2.127248287200928,-8.526350975036621,5.647922039031982
588,65800.0,0.6859387755393982,-8.254609107971191,2.897582530975342
589,65900.0,0.6859387755393982,-8.254609107971191,2.897582530975342
590,66000.0,-0.004788403399288654,-8.506598472595215,2.3241713047027592
591,66100.0,-0.004788403399288654,-8.506598472595215,2.3241713047027592
592,66200.0,-0.524330198764801,-9.40023422241211,1.7609353065490725
593,66300.0,-0.524330198764801,-9.40023422241211,1.7609353065490725
594,66400.0,-0.5746083855628967,-9.74440097808838,1.5526398420333862
595,66500.0,1.346139907836914,-13.631985664367676,0.5428852438926697
596,66600.0,1.346139907836914,-13.631985664367676,0.5428852438926697
597,66700.0,1.7399860620498655,-10.18134307861328,2.9065608978271484
598,66800.0,1.7399860620498655,-10.18134307861328,2.9065608978271484
599,66900.0,1.9273324012756348,-8.254010200500487,0.8876502513885498
600,67000.0,1.9273324012756348,-8.254010200500487,0.8876502513885498
601,67100.0,0.9828197956085204,-7.749432563781737,2.7030537128448486
602,67200.0,0.9828197956085204,-7.749432563781737,2.7030537128448486
603,67300.0,1.1659762859344482,-8.337807655334473,4.786009311676025
604,67400.0,3.79181694984436,-12.443862915039064,2.167949676513672
605,67500.0,3.79181694984436,-12.443862915039064,2.167949676513672
606,67600.0,1.6711528301239014,-11.782464981079102,2.616862535476685
607,67700.0,1.6711528301239014,-11.782464981079102,2.616862535476685
608,67800.0,0.679354727268219,-8.89565658569336,1.1779472827911377
609,67900.0,0.679354727268219,-8.89565658569336,1.1779472827911377
610,68000.0,-0.6745663285255432,-9.35055446624756,1.0923545360565186
611,68100.0,-0.6745663285255432,-9.35055446624756,1.0923545360565186
612,68200.0,-0.7882909178733826,-9.691728591918944,1.1330559253692627
613,68300.0,-2.164358377456665,-11.168951034545898,-0.8020575642585754
614,68400.0,-2.164358377456665,-11.168951034545898,-0.8020575642585754
615,68500.0,2.3026235103607178,-10.28130054473877,0.7439981698989868
616,68600.0,2.3026235103607178,-10.28130054473877,0.7439981698989868
617,68700.0,0.23762452602386475,-7.399878978729247,2.834136247634888
618,68800.0,0.23762452602386475,-7.399878978729247,2.834136247634888
619,68900.0,1.125873327255249,-8.228272438049316,4.095282077789307
620,69000.0,1.125873327255249,-8.228272438049316,4.095282077789307
621,69100.0,0.3866635859012604,-7.723694801330566,4.88836145401001
622,69200.0,0.4704606235027313,-5.613804340362549,-5.329493045806885
623,69300.0,0.4704606235027313,-5.613804340362549,-5.329493045806885
624,69400.0,-0.7655459642410278,-9.327211380004883,1.3652935028076172
625,69500.0,-0.7655459642410278,-9.327211380004883,1.3652935028076172
626,69600.0,0.16340427100658414,-8.759186744689941,1.4712369441986084
627,69700.0,0.16340427100658414,-8.759186744689941,1.4712369441986084
628,69800.0,-0.8242039084434509,-9.420584678649902,1.614290475845337
629,69900.0,-0.8242039084434509,-9.420584678649902,1.614290475845337
630,70000.0,-0.4967968463897705,-13.476961135864258,0.8780734539031982
631,70100.0,0.8439561128616333,-10.287884712219238,0.9876081943511964
632,70200.0,0.8439561128616333,-10.287884712219238,0.9876081943511964
633,70300.0,0.25318682193756104,-7.181407928466798,1.6932991743087769
634,70400.0,0.25318682193756104,-7.181407928466798,1.6932991743087769
635,70500.0,0.5668272376060486,-6.786364555358888,5.379172801971436
636,70600.0,0.5668272376060486,-6.786364555358888,5.379172801971436
637,70700.0,0.6883329749107361,-4.771045207977295,6.561309814453125
638,70800.0,0.6883329749107361,-4.771045207977295,6.561309814453125
639,70900.0,2.2810757160186768,-4.991312026977539,6.135141849517822
640,71000.0,0.38367083668708796,-7.752425193786621,3.645172119140625
641,71100.0,0.38367083668708796,-7.752425193786621,3.645172119140625
642,71200.0,-0.8313865661621094,-9.457097053527832,1.8303672075271609
643,71300.0,-0.8313865661621094,-9.457097053527832,1.8303672075271609
644,71400.0,-0.6434416770935059,-9.174580574035645,1.3395558595657349
645,71500.0,-0.6434416770935059,-9.174580574035645,1.3395558595657349
646,71600.0,-0.7769184708595276,-9.77253246307373,2.08056116104126
647,71700.0,-0.7769184708595276,-9.77253246307373,2.08056116104126
648,71800.0,0.9528923034667968,-14.743494033813475,0.29628247022628784
649,71900.0,1.6633716821670532,-9.990405082702637,2.7760767936706543
650,72000.0,1.6633716821670532,-9.990405082702637,2.7760767936706543
651,72100.0,1.6412252187728882,-9.121908187866213,2.3020248413085938
652,72200.0,1.6412252187728882,-9.121908187866213,2.3020248413085938
653,72300.0,0.9750386476516724,-6.581660270690918,4.7578773498535165
654,72400.0,0.9750386476516724,-6.581660270690918,4.7578773498535165
655,72500.0,1.834557056427002,-5.421669960021973,6.213551998138428
656,72600.0,1.834557056427002,-5.421669960021973,6.213551998138428
657,72700.0,1.7495628595352173,-10.156203269958496,9.064447402954102
658,72800.0,0.9451110959053041,-8.967482566833496,4.48134708404541
659,72900.0,0.9451110959053041,-8.967482566833496,4.48134708404541
660,73000.0,-0.4327519536018372,-7.717110633850098,2.373252391815185
661,73100.0,-0.4327519536018372,-7.717110633850098,2.373252391815185
662,73200.0,-0.5728127360343933,-8.963293075561523,2.1625626087188716
663,73300.0,-0.5728127360343933,-8.963293075561523,2.1625626087188716
664,73400.0,-0.3770867586135864,-8.979453086853027,1.4089876413345337
665,73500.0,-0.3770867586135864,-8.979453086853027,1.4089876413345337
666,73600.0,0.32441434264183044,-9.575610160827637,1.1288660764694214
667,73700.0,0.11851298063993455,-12.63120937347412,0.12689268589019775
668,73800.0,0.11851298063993455,-12.63120937347412,0.12689268589019775
669,73900.0,0.9864110946655272,-9.728838920593262,3.092710018157959
670,74000.0,0.9864110946655272,-9.728838920593262,3.092710018157959
671,74100.0,1.4419080018997192,-8.778340339660645,1.908777356147766
672,74200.0,1.4419080018997192,-8.778340339660645,1.908777356147766
673,74300.0,1.4957774877548218,-6.909067630767822,4.721365928649902
674,74400.0,1.4957774877548218,-6.909067630767822,4.721365928649902
675,74500.0,1.27191960811615,-5.179855346679688,6.891110897064209
676,74600.0,2.403179883956909,-7.350797653198242,7.9212164878845215
677,74700.0,2.403179883956909,-7.350797653198242,7.9212164878845215
678,74800.0,-0.3740940093994141,-7.58483076095581,3.8073792457580566
679,74900.0,-0.3740940093994141,-7.58483076095581,3.8073792457580566
680,75000.0,-0.43754035234451294,-9.015965461730957,2.3798365592956543
681,75100.0,-0.43754035234451294,-9.015965461730957,2.3798365592956543
682,75200.0,0.4381389021873474,-9.04828643798828,2.271498918533325
683,75300.0,0.4381389021873474,-9.04828643798828,2.271498918533325
684,75400.0,-0.09397241473197936,-8.964489936828613,1.1438298225402832
685,75500.0,0.8978256583213806,-10.477624893188477,0.23942017555236814
686,75600.0,0.8978256583213806,-10.477624893188477,0.23942017555236814
687,75700.0,0.7942764163017273,-10.430938720703123,-1.0301052331924438
688,75800.0,0.7942764163017273,-10.430938720703123,-1.0301052331924438
689,75900.0,1.2850877046585083,-7.868544101715088,1.41257905960083
690,76000.0,1.2850877046585083,-7.868544101715088,1.41257905960083
691,76100.0,2.2685060501098637,-8.289324760437013,5.890334606170653
692,76200.0,2.2685060501098637,-8.289324760437013,5.890334606170653
693,76300.0,1.627458572387695,-4.7644615173339835,5.553949356079102
694,76400.0,2.9191303253173833,-10.55184555053711,7.095216751098633
695,76500.0,2.9191303253173833,-10.55184555053711,7.095216751098633
696,76600.0,0.8912416100502014,-7.293336868286133,4.047398090362549
697,76700.0,0.8912416100502014,-7.293336868286133,4.047398090362549
698,76800.0,-0.2920926213264465,-7.826046943664551,2.585139274597168
699,76900.0,-0.2920926213264465,-7.826046943664551,2.585139274597168
700,77000.0,0.4578910768032074,-8.379107475280763,1.9967641830444336
701,77100.0,0.4578910768032074,-8.379107475280763,1.9967641830444336
702,77200.0,0.08439560979604721,-9.404424667358398,1.3174095153808594
703,77300.0,-2.559401512145996,-11.11987018585205,-0.5027823448181152
704,77400.0,-2.559401512145996,-11.11987018585205,-0.5027823448181152
705,77500.0,1.6400281190872192,-10.499173164367676,-0.4884171485900879
706,77600.0,1.6400281190872192,-10.499173164367676,-0.4884171485900879
707,77700.0,2.234388828277588,-8.679579734802246,-0.18614917993545527
708,77800.0,2.234388828277588,-8.679579734802246,-0.18614917993545527
709,77900.0,2.097320795059204,-7.267599105834961,1.7896658182144165
710,78000.0,2.097320795059204,-7.267599105834961,1.7896658182144165
711,78100.0,1.2665326595306396,-7.159860134124756,3.398569345474243
712,78200.0,1.2844891548156738,-9.28531265258789,4.7590742111206055
713,78300.0,1.2844891548156738,-9.28531265258789,4.7590742111206055
714,78400.0,-1.5466543436050415,-8.595184326171875,3.5972881317138667
715,78500.0,-1.5466543436050415,-8.595184326171875,3.5972881317138667
716,78600.0,0.14425064623355865,-8.519766807556152,-0.3866635859012604
717,78700.0,0.14425064623355865,-8.519766807556152,-0.3866635859012604
718,78800.0,-1.8944120407104488,-9.239224433898926,1.1647791862487793
719,78900.0,-1.8944120407104488,-9.239224433898926,1.1647791862487793
720,79000.0,-0.8846575021743774,-9.61212158203125,1.2132617235183716
721,79100.0,-3.206434726715088,-12.248735427856445,0.2669534981250763
722,79200.0,-3.206434726715088,-12.248735427856445,0.2669534981250763
723,79300.0,2.1912930011749268,-11.432312965393065,0.667982280254364
724,79400.0,2.1912930011749268,-11.432312965393065,0.667982280254364
725,79500.0,1.8740613460540767,-7.048529624938965,2.5492262840271
726,79600.0,1.8740613460540767,-7.048529624938965,2.5492262840271
727,79700.0,1.335964560508728,-8.487444877624513,4.6046485900878915
728,79800.0,1.335964560508728,-8.487444877624513,4.6046485900878915
729,79900.0,1.8315643072128296,-7.438186168670653,3.5069069862365723
730,80000.0,3.0244753360748287,-4.926668643951416,-0.8864531517028809
731,80100.0,3.0244753360748287,-4.926668643951416,-0.8864531517028809
732,80200.0,0.02274491637945175,-9.93474006652832,1.3826514482498171
733,80300.0,0.02274491637945175,-9.93474006652832,1.3826514482498171
734,80400.0,0.020350715145468712,-9.030330657958984,2.2457611560821533
735,80500.0,0.020350715145468712,-9.030330657958984,2.2457611560821533
736,80600.0,-1.5119383335113523,-9.03631591796875,1.2755109071731567
737,80700.0,-1.5119383335113523,-9.03631591796875,1.2755109071731567
738,80800.0,0.1927332431077957,-11.73817253112793,1.4101848602294922
739,80900.0,0.1927332431077957,-11.73817253112793,1.4101848602294922
740,81000.0,0.7882909178733826,-9.45111083984375,-1.278503656387329
741,81100.0,-0.5374982953071594,-9.68155288696289,3.437475204467773
742,81200.0,-0.5374982953071594,-9.68155288696289,3.437475204467773
743,81300.0,1.7399860620498655,-6.982689380645753,3.914519786834717
744,81400.0,1.7399860620498655,-6.982689380645753,3.914519786834717
745,81500.0,1.447893500328064,-5.595848083496094,5.999270915985107
746,81600.0,1.447893500328064,-5.595848083496094,5.999270915985107
747,81700.0,2.228403329849243,-9.349956512451172,8.635287284851074
748,81800.0,1.9650410413742063,-8.337807655334473,4.986523628234863
749,81900.0,1.9650410413742063,-8.337807655334473,4.986523628234863
750,82000.0,0.007781155407428741,-8.037933349609375,3.256712913513184
751,82100.0,0.007781155407428741,-8.037933349609375,3.256712913513184
752,82200.0,0.05686229094862937,-9.156624794006348,2.322375535964966
753,82300.0,0.05686229094862937,-9.156624794006348,2.322375535964966
754,82400.0,-0.0867898091673851,-9.276334762573242,1.7950527667999268
755,82500.0,-0.0867898091673851,-9.276334762573242,1.7950527667999268
756,82600.0,-0.2064998894929886,-9.211092948913574,1.6298527717590332
757,82700.0,-0.2064998894929886,-9.211092948913574,1.6298527717590332
758,82800.0,-0.07062894850969315,-11.899781227111815,0.34416648745536804
759,82900.0,1.3826514482498171,-9.062053680419922,1.0552444458007812
760,83000.0,1.3826514482498171,-9.062053680419922,1.0552444458007812
761,83100.0,0.9977835416793824,-9.49839687347412,4.013280391693115
762,83200.0,0.9977835416793824,-9.49839687347412,4.013280391693115
763,83300.0,0.8702923059463501,-5.433640956878662,3.9821560382843018
764,83400.0,0.8702923059463501,-5.433640956878662,3.9821560382843018
765,83500.0,1.1528080701828003,-4.851251125335693,6.915052890777588
766,83600.0,1.1528080701828003,-4.851251125335693,6.915052890777588
767,83700.0,1.2689268589019775,-6.959345817565918,7.183802127838135
768,83800.0,1.4820108413696291,-8.130110740661621,6.045359134674072
769,83900.0,1.4820108413696291,-8.130110740661621,6.045359134674072
770,84000.0,-0.7332242727279663,-8.67359447479248,2.872443437576294
771,84100.0,-0.7332242727279663,-8.67359447479248,2.872443437576294
772,84200.0,0.6099228858947754,-8.769960403442383,2.325368404388428
773,84300.0,0.6099228858947754,-8.769960403442383,2.325368404388428
774,84400.0,-0.4465186297893524,-9.306262016296387,1.0019733905792236
775,84500.0,-0.4465186297893524,-9.306262016296387,1.0019733905792236
776,84600.0,-0.558447539806366,-10.40579891204834,0.7392097711563109
777,84700.0,0.4285621047019959,-10.71644687652588,-1.4718354940414429
778,84800.0,0.4285621047019959,-10.71644687652588,-1.4718354940414429
779,84900.0,1.0205284357070925,-9.922768592834473,-0.910993754863739
780,85000.0,1.0205284357070925,-9.922768592834473,-0.910993754863739
781,85100.0,-0.2855085432529449,-7.316680431365968,3.2148144245147705
782,85200.0,-0.2855085432529449,-7.316680431365968,3.2148144245147705
783,85300.0,1.1013327836990356,-5.460575580596924,4.610035419464111
784,85400.0,1.1013327836990356,-5.460575580596924,4.610035419464111
785,85500.0,1.391629695892334,-5.45339298248291,6.085462093353272
786,85600.0,1.615487575531006,-7.880515098571777,7.177217960357666
787,85700.0,1.615487575531006,-7.880515098571777,7.177217960357666
788,85800.0,-0.0017956512747332454,-8.993818283081055,4.459799289703369
789,85900.0,-0.0017956512747332454,-8.993818283081055,4.459799289703369
790,86000.0,-0.1125274822115898,-9.071630477905273,3.1663317680358887
791,86100.0,-0.1125274822115898,-9.071630477905273,3.1663317680358887
792,86200.0,0.5279214978218079,-8.355764389038086,1.5628151893615725
793,86300.0,-0.2190694510936737,-9.35773754119873,1.1216834783554075
794,86400.0,-0.2190694510936737,-9.35773754119873,1.1216834783554075
795,86500.0,-0.4159925580024719,-9.026739120483398,1.8022353649139404
796,86600.0,-0.4159925580024719,-9.026739120483398,1.8022353649139404
797,86700.0,-0.849941611289978,-10.13286018371582,0.7260416746139526
798,86800.0,-0.849941611289978,-10.13286018371582,0.7260416746139526
799,86900.0,0.9702502489089966,-11.91474437713623,0.34656068682670593
800,87000.0,0.9702502489089966,-11.91474437713623,0.34656068682670593
801,87100.0,0.8188169598579407,-9.445125579833984,-0.10953472554683684
802,87200.0,0.8188169598579407,-9.445125579833984,-0.10953472554683684
803,87300.0,0.3489548861980438,-9.047089576721193,3.0346505641937256
804,87400.0,2.2607250213623047,-8.249221801757812,4.705204963684082
805,87500.0,2.2607250213623047,-8.249221801757812,4.705204963684082
806,87600.0,1.7776948213577268,-4.766855716705322,6.538564682006836
807,87700.0,1.7776948213577268,-4.766855716705322,6.538564682006836
808,87800.0,0.9588778018951416,-5.773018836975098,6.568492412567139
809,87900.0,0.9588778018951416,-5.773018836975098,6.568492412567139
810,88000.0,2.075174331665039,-9.858125686645508,4.1856632232666025
811,88100.0,2.075174331665039,-9.858125686645508,4.1856632232666025
812,88200.0,0.6655880808830261,-10.0580415725708,3.2411506175994877
813,88300.0,0.6500257849693298,-7.648277282714844,1.9500772953033447
814,88400.0,0.6500257849693298,-7.648277282714844,1.9500772953033447
815,88500.0,-0.05386953800916672,-9.232640266418457,2.0919337272644043
816,88600.0,-0.05386953800916672,-9.232640266418457,2.0919337272644043
817,88700.0,-0.9738415479660034,-9.532513618469238,1.6436194181442259
818,88800.0,-0.9738415479660034,-9.532513618469238,1.6436194181442259
