,timestamp,ax,ay,az
0,7000.0,1.2964602708816528,-8.130110740661621,1.2844891548156738
1,7100.0,1.2964602708816528,-8.130110740661621,1.2844891548156738
2,7200.0,1.2964602708816528,-8.130110740661621,1.2844891548156738
3,7300.0,-0.3046621680259705,-9.366117477416992,0.618302583694458
4,7400.0,-0.2986766695976257,-9.702502250671387,-0.48602294921875
5,7500.0,-0.2986766695976257,-9.702502250671387,-0.48602294921875
6,7600.0,-0.08798690885305405,-12.322956085205078,-2.8556840419769287
7,7700.0,-0.08798690885305405,-12.322956085205078,-2.8556840419769287
8,7800.0,1.889025092124939,-10.031106948852539,0.8678981065750122
9,7900.0,1.889025092124939,-10.031106948852539,0.8678981065750122
10,8000.0,1.7507599592208862,-9.09377670288086,0.10534487664699554
11,8100.0,1.7507599592208862,-9.09377670288086,0.10534487664699554
12,8200.0,0.18614917993545527,-7.511807918548584,3.112462282180786
13,8300.0,0.8110358119010925,-5.149928092956543,4.667496204376222
14,8400.0,0.8110358119010925,-5.149928092956543,4.667496204376222
15,8500.0,2.340930700302124,-9.264363288879396,4.183269023895264
16,8600.0,2.340930700302124,-9.264363288879396,4.183269023895264
17,8700.0,-0.9858125448226928,-10.372879028320312,0.7990648150444031
18,8800.0,-0.9858125448226928,-10.372879028320312,0.7990648150444031
19,8900.0,-0.3477577865123749,-9.151237487792967,0.1975216418504715
20,9000.0,-0.3477577865123749,-9.151237487792967,0.1975216418504715
21,9100.0,-0.10115502029657364,-9.619303703308104,-0.3699041604995728
22,9200.0,0.6212953329086304,-10.653000831604004,-0.6913257241249084
23,9300.0,0.6212953329086304,-10.653000831604004,-0.6913257241249084
24,9400.0,1.3431471586227417,-10.699687004089355,1.4209587574005127
25,9500.0,1.3431471586227417,-10.699687004089355,1.4209587574005127
26,9600.0,1.558625340461731,-9.096170425415039,-0.3800795078277588
27,9700.0,1.558625340461731,-9.096170425415039,-0.3800795078277588
28,9800.0,0.12270283699035645,-6.661866188049316,3.278859138488769
29,9900.0,0.12270283699035645,-6.661866188049316,3.278859138488769
30,10000.0,1.0253168344497678,-4.372410774230957,4.844666957855225
31,10100.0,4.698022365570068,-8.403049468994139,2.273893117904663
32,10200.0,4.698022365570068,-8.403049468994139,2.273893117904663
33,10300.0,-0.1107318252325058,-9.445125579833984,0.2759317457675934
34,10400.0,-0.1107318252325058,-9.445125579833984,0.2759317457675934
35,10500.0,-0.7433996200561523,-9.802460670471193,-0.4656722247600555
36,10600.0,-0.7433996200561523,-9.802460670471193,-0.4656722247600555
37,10700.0,-0.3824737071990967,-9.99339771270752,0.0454898327589035
38,10800.0,-0.3824737071990967,-9.99339771270752,0.0454898327589035
39,10900.0,0.17178396880626678,-12.78503704071045,-0.3250128924846649
40,11000.0,-0.7924807667732239,-13.615824699401855,0.23104046285152435
41,11100.0,-0.7924807667732239,-13.615824699401855,0.23104046285152435
42,11200.0,0.9409212470054626,-6.550535678863525,1.6597803831100464
43,11300.0,0.9409212470054626,-6.550535678863525,1.6597803831100464
44,11400.0,0.8050503134727478,-5.249885559082031,4.839280128479004
45,11500.0,0.8050503134727478,-5.249885559082031,4.839280128479004
46,11600.0,0.5261258482933044,-7.12693977355957,10.804433822631836
47,11700.0,0.5261258482933044,-7.12693977355957,10.804433822631836
48,11800.0,0.4070142805576325,-9.905410766601564,2.270900249481201
49,11900.0,0.35733461380004883,-8.877699851989746,0.5398924946784973
50,12000.0,0.35733461380004883,-8.877699851989746,0.5398924946784973
51,12100.0,1.0546458959579468,-9.242815971374512,0.8870517015457153
52,12200.0,1.0546458959579468,-9.242815971374512,0.8870517015457153
53,12300.0,0.2992752194404602,-9.724648475646973,-0.6985083222389221
54,12400.0,0.2992752194404602,-9.724648475646973,-0.6985083222389221
55,12500.0,-0.13826514780521393,-13.350666999816895,1.2054805755615234
56,12600.0,-0.13826514780521393,-13.350666999816895,1.2054805755615234
57,12700.0,1.2006921768188477,-11.157578468322754,-1.2413935661315918
58,12800.0,1.2006921768188477,-11.157578468322754,-1.2413935661315918
59,12900.0,-0.29568392038345337,-8.576628684997559,-2.3080103397369385
60,13000.0,1.1737574338912964,-6.27400541305542,-0.7368155717849731
61,13100.0,1.1737574338912964,-6.27400541305542,-0.7368155717849731
62,13200.0,0.6596025824546814,-14.457985877990724,7.504026889801025
63,13300.0,0.6596025824546814,-14.457985877990724,7.504026889801025
64,13400.0,-1.5280991792678833,-5.397727966308594,-5.615001678466797
65,13500.0,-1.5280991792678833,-5.397727966308594,-5.615001678466797
66,13600.0,1.85430920124054,-9.943717956542967,-1.2018892765045166
67,13700.0,0.4788403511047363,-9.576208114624023,-0.760757565498352
68,13800.0,0.4788403511047363,-9.576208114624023,-0.760757565498352
69,13900.0,0.32022446393966675,-9.641449928283693,-0.9044097065925598
70,14000.0,0.32022446393966675,-9.641449928283693,-0.9044097065925598
71,14100.0,-0.010175357572734356,-12.370241165161133,0.5877765417098999
72,14200.0,-0.010175357572734356,-12.370241165161133,0.5877765417098999
73,14300.0,2.1984755992889404,-9.462483406066896,-1.129464626312256
74,14400.0,2.1984755992889404,-9.462483406066896,-1.129464626312256
75,14500.0,1.5735890865325928,-8.322244644165039,1.7393875122070312
76,14600.0,1.4083890914916992,-6.235099792480469,3.975571870803833
77,14700.0,1.4083890914916992,-6.235099792480469,3.975571870803833
78,14800.0,0.5434837937355042,-6.141127586364746,5.68084192276001
79,14900.0,0.5434837937355042,-6.141127586364746,5.68084192276001
80,15000.0,-1.1091139316558838,-13.890560150146484,2.042253971099853
81,15100.0,-1.1091139316558838,-13.890560150146484,2.042253971099853
82,15200.0,-3.6780924797058105,-8.324040412902832,-0.487220048904419
83,15300.0,-3.6780924797058105,-8.324040412902832,-0.487220048904419
84,15400.0,0.7302315235137941,-9.173383712768556,-2.5282769203186035
85,15500.0,0.023942016065120697,-10.629058837890623,-0.7948749661445618
86,15600.0,0.023942016065120697,-10.629058837890623,-0.7948749661445618
87,15700.0,0.8756792545318604,-11.623848915100098,-1.4443022012710571
88,15800.0,0.8756792545318604,-11.623848915100098,-1.4443022012710571
89,15900.0,-0.08798690885305405,-10.864887237548828,-0.4022258818149567
90,16000.0,-0.08798690885305405,-10.864887237548828,-0.4022258818149567
91,16100.0,-0.706289529800415,-8.831012725830078,1.6789339780807495
92,16200.0,-0.706289529800415,-8.831012725830078,1.6789339780807495
93,16300.0,0.4836287498474121,-6.7696051597595215,4.522646903991699
94,16400.0,0.5440823435783386,-4.591480255126953,5.153519153594972
95,16500.0,0.5440823435783386,-4.591480255126953,5.153519153594972
96,16600.0,5.503072738647461,-4.618414878845215,3.380612850189209
97,16700.0,5.503072738647461,-4.618414878845215,3.380612850189209
98,16800.0,-1.193509578704834,-9.764751434326172,1.2324153184890747
99,16900.0,-1.193509578704834,-9.764751434326172,1.2324153184890747
100,17000.0,-0.7679402232170105,-9.03751277923584,-0.023942016065120697
101,17100.0,-0.7679402232170105,-9.03751277923584,-0.023942016065120697
102,17200.0,-0.3303998410701752,-10.11430549621582,0.7015010714530945
103,17300.0,-0.3303998410701752,-10.11430549621582,0.7015010714530945
104,17400.0,-0.4255693554878235,-9.573814392089844,-0.21308395266532895
105,17500.0,0.639850378036499,-11.930307388305664,-0.2711433470249176
106,17600.0,0.639850378036499,-11.930307388305664,-0.2711433470249176
107,17700.0,-0.6524199843406677,-10.046669006347656,1.2455834150314329
108,17800.0,-0.6524199843406677,-10.046669006347656,1.2455834150314329
109,17900.0,1.9560627937316892,-9.18715000152588,2.208052635192871
110,18000.0,1.9560627937316892,-9.18715000152588,2.208052635192871
111,18100.0,-0.15682020783424375,-7.869142532348633,3.539228677749634
112,18200.0,0.1412578970193863,-4.627991676330566,5.69700288772583
113,18300.0,0.1412578970193863,-4.627991676330566,5.69700288772583
114,18400.0,-0.3076549172401428,-8.103176116943361,6.0812721252441415
115,18500.0,-0.3076549172401428,-8.103176116943361,6.0812721252441415
116,18600.0,-0.6362590789794922,-8.289923667907715,1.9572598934173584
117,18700.0,-0.6362590789794922,-8.289923667907715,1.9572598934173584
118,18800.0,-0.3806780576705933,-9.765350341796877,0.3633201122283936
119,18900.0,-0.3806780576705933,-9.765350341796877,0.3633201122283936
120,19000.0,0.5015852451324463,-9.640851974487305,0.18315643072128296
121,19100.0,0.5015852451324463,-9.640851974487305,0.18315643072128296
122,19200.0,-0.7475894689559937,-9.85393524169922,-0.22206220030784607
123,19300.0,-0.16340427100658414,-11.811195373535154,-1.0684125423431396
124,19400.0,-0.16340427100658414,-11.811195373535154,-1.0684125423431396
125,19500.0,-0.32261869311332697,-10.976217269897461,1.7232266664505005
126,19600.0,-0.32261869311332697,-10.976217269897461,1.7232266664505005
127,19700.0,0.3711012601852417,-8.695740699768066,2.5246856212615967
128,19800.0,0.3711012601852417,-8.695740699768066,2.5246856212615967
129,19900.0,0.2873041927814484,-7.189188957214356,4.158129692077637
130,20000.0,0.2873041927814484,-7.189188957214356,4.158129692077637
131,20100.0,0.9900023937225342,-3.8145618438720703,5.1158103942871085
132,20200.0,0.3603273630142212,-8.940547943115234,2.8844144344329834
133,20300.0,0.3603273630142212,-8.940547943115234,2.8844144344329834
134,20400.0,-1.2862848043441772,-9.032724380493164,1.1659762859344482
135,20500.0,-1.2862848043441772,-9.032724380493164,1.1659762859344482
136,20600.0,0.17896658182144165,-9.138668060302734,-0.22086510062217712
137,20700.0,0.17896658182144165,-9.138668060302734,-0.22086510062217712
138,20800.0,0.08858546614646913,-9.446322441101074,-0.22026655077934265
139,20900.0,0.08858546614646913,-9.446322441101074,-0.22026655077934265
140,21000.0,0.5225345492362976,-10.58656120300293,-0.7439981698989868
141,21100.0,1.7028759717941284,-10.60032844543457,-0.12509703636169436
142,21200.0,1.7028759717941284,-10.60032844543457,-0.12509703636169436
143,21300.0,1.3192051649093628,-9.327211380004883,-2.313995838165283
144,21400.0,1.3192051649093628,-9.327211380004883,-2.313995838165283
145,21500.0,0.03950432687997818,-8.892065048217773,2.2403743267059326
146,21600.0,0.03950432687997818,-8.892065048217773,2.2403743267059326
147,21700.0,-0.19033902883529666,-4.532223701477051,5.152322292327881
148,21800.0,-0.19033902883529666,-4.532223701477051,5.152322292327881
149,21900.0,-0.568622887134552,-9.294889450073242,5.785588264465332
150,22000.0,0.2501940727233887,-8.419808387756348,2.2242133617401123
151,22100.0,0.2501940727233887,-8.419808387756348,2.2242133617401123
152,22200.0,-0.7026981711387634,-9.30027675628662,0.11432313174009325
153,22300.0,-0.7026981711387634,-9.30027675628662,0.11432313174009325
154,22400.0,-0.6476315855979919,-9.657610893249512,0.1843535304069519
155,22500.0,-0.6476315855979919,-9.657610893249512,0.1843535304069519
156,22600.0,-0.28311434388160706,-9.322422981262207,0.4501099288463593
157,22700.0,-0.28311434388160706,-9.322422981262207,0.4501099288463593
158,22800.0,0.6524199843406677,-14.09705924987793,-0.5626373887062073
159,22900.0,-2.6593594551086426,-13.204022407531738,-3.846883535385132
160,23000.0,-2.6593594551086426,-13.204022407531738,-3.846883535385132
161,23100.0,-0.2675520479679108,-8.087015151977539,2.275688648223877
162,23200.0,-0.2675520479679108,-8.087015151977539,2.275688648223877
163,23300.0,1.6837223768234253,-2.388814687728882,3.765480756759644
164,23400.0,1.6837223768234253,-2.388814687728882,3.765480756759644
165,23500.0,1.6974890232086182,-3.4584243297576904,8.952518463134766
166,23600.0,1.6974890232086182,-3.4584243297576904,8.952518463134766
167,23700.0,4.385579109191895,-6.745663166046143,2.588730573654175
168,23800.0,-1.6214730739593506,-8.992621421813965,3.0771477222442627
169,23900.0,-1.6214730739593506,-8.992621421813965,3.0771477222442627
170,24000.0,-1.300650119781494,-9.716269493103027,0.33937808871269226
171,24100.0,-1.300650119781494,-9.716269493103027,0.33937808871269226
172,24200.0,-1.1103110313415527,-9.066243171691896,0.3411737382411957
173,24300.0,-1.1103110313415527,-9.066243171691896,0.3411737382411957
174,24400.0,1.659181833267212,-9.817423820495604,2.0045454502105717
175,24500.0,1.659181833267212,-9.817423820495604,2.0045454502105717
176,24600.0,-1.459265947341919,-14.0048828125,-2.3948001861572266
177,24700.0,-0.7781155705451965,-12.166135787963867,-0.1867477297782898
178,24800.0,-0.7781155705451965,-12.166135787963867,-0.1867477297782898
179,24900.0,0.9032126069068908,-6.826467514038086,3.309983968734741
180,25000.0,0.9032126069068908,-6.826467514038086,3.309983968734741
181,25100.0,0.08439560979604721,-4.982932090759277,5.999869346618652
182,25200.0,0.08439560979604721,-4.982932090759277,5.999869346618652
183,25300.0,-0.20530278980731964,-8.854954719543457,3.66851544380188
184,25400.0,-0.20530278980731964,-8.854954719543457,3.66851544380188
185,25500.0,-0.9810241460800172,-8.976460456848145,2.060809135437012
186,25600.0,-1.591545581817627,-9.778518676757812,-1.039083480834961
187,25700.0,-1.591545581817627,-9.778518676757812,-1.039083480834961
188,25800.0,-1.0576386451721191,-9.69651699066162,-0.050876785069704056
189,25900.0,-1.0576386451721191,-9.69651699066162,-0.050876785069704056
190,26000.0,0.5183446407318115,-10.414178848266602,-0.8607155084609985
191,26100.0,0.5183446407318115,-10.414178848266602,-0.8607155084609985
192,26200.0,2.3540987968444824,-12.82693576812744,-0.4854243993759155
193,26300.0,2.3540987968444824,-12.82693576812744,-0.4854243993759155
194,26400.0,-0.152031809091568,-10.467450141906738,1.801636815071106
195,26500.0,2.172139406204224,-8.24383544921875,2.8443117141723637
196,26600.0,2.172139406204224,-8.24383544921875,2.8443117141723637
197,26700.0,1.0791864395141602,-7.311892032623291,3.7277719974517822
198,26800.0,1.0791864395141602,-7.311892032623291,3.7277719974517822
199,26900.0,1.04028058052063,-4.595071792602539,5.095459938049316
200,27000.0,1.04028058052063,-4.595071792602539,5.095459938049316
201,27100.0,-2.4025814533233643,-9.206304550170898,4.0521864891052255
202,27200.0,-2.4025814533233643,-9.206304550170898,4.0521864891052255
203,27300.0,-2.208052635192871,-10.10173511505127,0.3896563351154328
204,27400.0,-1.5382746458053589,-9.429563522338867,-1.2443863153457642
205,27500.0,-1.5382746458053589,-9.429563522338867,-1.2443863153457642
206,27600.0,-0.5333084464073181,-9.828198432922363,-0.8960300087928772
207,27700.0,-0.5333084464073181,-9.828198432922363,-0.8960300087928772
208,27800.0,0.5351040959358215,-10.620678901672363,-0.618302583694458
209,27900.0,0.5351040959358215,-10.620678901672363,-0.618302583694458
210,28000.0,1.1091139316558838,-11.150994300842283,-0.034117374569177635
211,28100.0,1.1091139316558838,-11.150994300842283,-0.034117374569177635
212,28200.0,1.5478514432907104,-9.103952407836914,-0.5602431893348694
213,28300.0,-0.2489969730377197,-8.85555362701416,2.9239187240600586
214,28400.0,-0.2489969730377197,-8.85555362701416,2.9239187240600586
215,28500.0,0.7817068696022034,-3.991732835769653,5.132569789886475
216,28600.0,0.7817068696022034,-3.991732835769653,5.132569789886475
217,28700.0,-0.10714052617549896,-7.982867240905763,5.916670799255371
218,28800.0,-0.10714052617549896,-7.982867240905763,5.916670799255371
219,28900.0,-1.9171570539474487,-10.209474563598633,1.158793568611145
220,29000.0,-1.9171570539474487,-10.209474563598633,1.158793568611145
221,29100.0,-0.586579442024231,-9.21827507019043,0.4255693554878235
222,29200.0,0.9433154463768004,-9.435548782348633,-0.1472434103488922
223,29300.0,0.9433154463768004,-9.435548782348633,-0.1472434103488922
224,29400.0,0.6332663297653198,-12.66891860961914,-1.7974469661712646
225,29500.0,0.6332663297653198,-12.66891860961914,-1.7974469661712646
226,29600.0,0.9618705511093141,-10.89840602874756,1.247977614402771
227,29700.0,0.9618705511093141,-10.89840602874756,1.247977614402771
228,29800.0,1.1929110288619995,-9.026739120483398,1.7381904125213623
229,29900.0,1.1929110288619995,-9.026739120483398,1.7381904125213623
230,30000.0,0.596754789352417,-7.83801794052124,3.6355953216552734
231,30100.0,0.3806780576705933,-3.9061400890350337,4.837484359741211
232,30200.0,0.3806780576705933,-3.9061400890350337,4.837484359741211
233,30300.0,-0.579995334148407,-9.051877975463867,3.816956043243408
234,30400.0,-0.579995334148407,-9.051877975463867,3.816956043243408
235,30500.0,-1.6226701736450195,-9.734225273132324,1.1659762859344482
236,30600.0,-1.6226701736450195,-9.734225273132324,1.1659762859344482
237,30700.0,-0.7493851184844971,-9.41100788116455,-0.17956513166427612
238,30800.0,-0.7493851184844971,-9.41100788116455,-0.17956513166427612
239,30900.0,0.058059390634298325,-9.621099472045898,0.42437225580215454
240,31000.0,0.9558850526809692,-11.006145477294922,-0.3902548849582672
241,31100.0,0.9558850526809692,-11.006145477294922,-0.3902548849582672
242,31200.0,1.3515268564224243,-9.556455612182617,0.12868833541870114
243,31300.0,1.3515268564224243,-9.556455612182617,0.12868833541870114
244,31400.0,1.3832499980926514,-9.642048835754396,0.1849520802497864
245,31500.0,1.3832499980926514,-9.642048835754396,0.1849520802497864
246,31600.0,0.17956513166427612,-8.400654792785645,2.9047651290893555
247,31700.0,0.17956513166427612,-8.400654792785645,2.9047651290893555
248,31800.0,0.5464765429496765,-4.779425144195557,4.566939830780028
249,31900.0,-2.3457190990448,-10.72482681274414,4.817732334136963
250,32000.0,-2.3457190990448,-10.72482681274414,4.817732334136963
251,32100.0,-0.7511807680130005,-6.692990779876709,2.252943754196167
252,32200.0,-0.7511807680130005,-6.692990779876709,2.252943754196167
253,32300.0,-0.6739677786827087,-9.229048728942873,0.8391677141189575
254,32400.0,-0.6739677786827087,-9.229048728942873,0.8391677141189575
255,32500.0,-0.974440097808838,-9.633668899536133,0.009576806798577309
256,32600.0,-0.974440097808838,-9.633668899536133,0.009576806798577309
257,32700.0,0.16579847037792206,-9.891644477844238,-0.4926069974899292
258,32800.0,0.5482721924781799,-11.141417503356934,-0.3405751883983612
259,32900.0,0.5482721924781799,-11.141417503356934,-0.3405751883983612
260,33000.0,-1.5292962789535522,-11.389217376708984,1.0235211849212646
261,33100.0,-1.5292962789535522,-11.389217376708984,1.0235211849212646
262,33200.0,0.9654618501663208,-8.742427825927733,1.5933412313461304
263,33300.0,0.9654618501663208,-8.742427825927733,1.5933412313461304
264,33400.0,0.800261914730072,-5.946598529815674,4.598064422607422
265,33500.0,0.800261914730072,-5.946598529815674,4.598064422607422
266,33600.0,0.9720458984375,-4.99669885635376,9.433155059814453
267,33700.0,0.5811924338340759,-10.818799018859863,2.8395233154296875
268,33800.0,0.5811924338340759,-10.818799018859863,2.8395233154296875
269,33900.0,-0.7230489253997803,-8.920795440673828,0.6775590777397156
270,34000.0,-0.7230489253997803,-8.920795440673828,0.6775590777397156
271,34100.0,-0.3519476354122162,-9.346963882446287,0.910993754863739
272,34200.0,-0.3519476354122162,-9.346963882446287,0.910993754863739
273,34300.0,1.0366892814636228,-8.203732490539549,0.10534487664699554
274,34400.0,1.0366892814636228,-8.203732490539549,0.10534487664699554
275,34500.0,-1.6597803831100464,-14.375984191894533,-2.301426410675049
276,34600.0,-4.6495394706726065,-10.38604736328125,-0.6039373874664307
277,34700.0,-4.6495394706726065,-10.38604736328125,-0.6039373874664307
278,34800.0,-1.5598224401474,-9.746196746826172,-3.963002443313599
279,34900.0,-1.5598224401474,-9.746196746826172,-3.963002443313599
280,35000.0,-0.7410054206848145,-7.547122478485107,-0.3369838893413544
281,35100.0,-0.7410054206848145,-7.547122478485107,-0.3369838893413544
282,35200.0,2.996942043304444,-4.499303340911865,0.9068039059638976
283,35300.0,2.996942043304444,-4.499303340911865,0.9068039059638976
284,35400.0,3.308786630630493,-12.522871971130373,-1.8273744583129885
285,35500.0,-0.4896142482757568,-8.65743350982666,-0.8200140595436096
286,35600.0,-0.4896142482757568,-8.65743350982666,-0.8200140595436096
287,35700.0,-1.0444705486297607,-10.740987777709961,1.0989385843276978
288,35800.0,-1.0444705486297607,-10.740987777709961,1.0989385843276978
289,35900.0,0.1843535304069519,-9.027935981750488,-0.6655880808830261
290,36000.0,0.1843535304069519,-9.027935981750488,-0.6655880808830261
291,36100.0,-0.3621230125427246,-13.57093334197998,0.32022446393966675
292,36200.0,-0.3621230125427246,-13.57093334197998,0.32022446393966675
293,36300.0,0.9672574996948242,-12.233173370361328,-1.0696096420288086
294,36400.0,-1.7292121648788452,-9.553462982177734,0.09157821536064148
295,36500.0,-1.7292121648788452,-9.553462982177734,0.09157821536064148
296,36600.0,0.9373299479484558,-6.2410850524902335,2.492363929748535
297,36700.0,0.9373299479484558,-6.2410850524902335,2.492363929748535
298,36800.0,-0.6033388376235962,-4.859631061553955,5.162497520446777
299,36900.0,-0.6033388376235962,-4.859631061553955,5.162497520446777
300,37000.0,0.4058171808719635,-8.889671325683594,2.1045033931732178
301,37100.0,0.4058171808719635,-8.889671325683594,2.1045033931732178
302,37200.0,-0.6254851818084717,-9.368511199951172,0.7595604658126831
303,37300.0,0.4028244316577912,-9.941324234008787,1.0372878313064575
304,37400.0,0.4028244316577912,-9.941324234008787,1.0372878313064575
305,37500.0,0.3166331648826599,-9.097368240356444,0.6326677799224854
306,37600.0,0.3166331648826599,-9.097368240356444,0.6326677799224854
307,37700.0,0.9828197956085204,-11.307814598083494,-0.6159083843231201
308,37800.0,0.9828197956085204,-11.307814598083494,-0.6159083843231201
309,37900.0,0.5991489887237549,-10.39801788330078,-0.08918401598930359
310,38000.0,0.5991489887237549,-10.39801788330078,-0.08918401598930359
311,38100.0,1.0121487379074097,-8.617330551147461,2.1045033931732178
312,38200.0,1.0025719404220579,-5.492298603057861,4.064755916595459
313,38300.0,1.0025719404220579,-5.492298603057861,4.064755916595459
314,38400.0,-1.4760253429412842,-9.871891975402832,6.119579315185548
315,38500.0,-1.4760253429412842,-9.871891975402832,6.119579315185548
316,38600.0,-0.8756792545318604,-10.070611000061037,1.3634978532791138
317,38700.0,-0.8756792545318604,-10.070611000061037,1.3634978532791138
318,38800.0,-0.7236474752426147,-9.382277488708496,0.6554127335548401
319,38900.0,-0.7236474752426147,-9.382277488708496,0.6554127335548401
320,39000.0,0.629675030708313,-9.383475303649902,0.056263741105794914
321,39100.0,0.629675030708313,-9.383475303649902,0.056263741105794914
322,39200.0,0.2777273952960968,-10.977415084838867,-0.056263741105794914
323,39300.0,0.3178302645683289,-10.460267066955566,0.0736217051744461
324,39400.0,0.3178302645683289,-10.460267066955566,0.0736217051744461
325,39500.0,2.121262788772583,-11.02410125732422,-1.2958617210388184
326,39600.0,2.121262788772583,-11.02410125732422,-1.2958617210388184
327,39700.0,0.2555810213088989,-7.511209487915039,2.3798365592956543
328,39800.0,0.2555810213088989,-7.511209487915039,2.3798365592956543
329,39900.0,1.2324153184890747,-3.9402575492858887,3.800795316696167
330,40000.0,1.2324153184890747,-3.9402575492858887,3.800795316696167
331,40100.0,2.1033062934875493,-6.450577735900879,4.988319396972656
332,40200.0,-1.3946224451065063,-9.418789863586426,0.6027402877807617
333,40300.0,-1.3946224451065063,-9.418789863586426,0.6027402877807617
334,40400.0,-0.9828197956085204,-10.30404567718506,0.4830302000045776
335,40500.0,-0.9828197956085204,-10.30404567718506,0.4830302000045776
336,40600.0,-0.13946224749088287,-9.575011253356934,-0.6931213736534119
337,40700.0,-0.13946224749088287,-9.575011253356934,-0.6931213736534119
338,40800.0,1.4281413555145264,-12.164340019226074,-0.3693056106567383
339,40900.0,-0.14844051003456116,-11.120468139648438,1.2443863153457642
340,41000.0,-0.14844051003456116,-11.120468139648438,1.2443863153457642
341,41100.0,0.27054479718208313,-9.345168113708496,2.097919225692749
342,41200.0,0.27054479718208313,-9.345168113708496,2.097919225692749
343,41300.0,0.405218631029129,-5.936423301696777,4.232948780059815
344,41400.0,0.405218631029129,-5.936423301696777,4.232948780059815
345,41500.0,0.3166331648826599,-3.816956043243408,6.104615688323975
346,41600.0,0.3166331648826599,-3.816956043243408,6.104615688323975
347,41700.0,-0.6955155730247498,-10.545860290527344,2.7670986652374268
348,41800.0,-0.6955155730247498,-10.545860290527344,2.7670986652374268
349,41900.0,-0.2890998423099518,-9.208698272705078,0.4614823758602142
350,42000.0,-0.3567360639572144,-9.522936820983887,0.6129156351089478
351,42100.0,-0.3567360639572144,-9.522936820983887,0.6129156351089478
352,42200.0,0.1107318252325058,-9.592967987060547,0.35913026332855225
353,42300.0,0.1107318252325058,-9.592967987060547,0.35913026332855225
354,42400.0,2.0213048458099365,-11.264719009399414,-0.5626373887062073
355,42500.0,2.0213048458099365,-11.264719009399414,-0.5626373887062073
356,42600.0,-0.9528923034667968,-11.68849277496338,-1.0797849893569946
357,42700.0,-0.9528923034667968,-11.68849277496338,-1.0797849893569946
358,42800.0,1.0019733905792236,-8.489240646362305,1.7753005027770996
359,42900.0,0.27712884545326233,-6.176441669464111,4.20421838760376
360,43000.0,0.27712884545326233,-6.176441669464111,4.20421838760376
361,43100.0,-0.4620809257030487,-8.282740592956543,11.279683113098145
362,43200.0,-0.4620809257030487,-8.282740592956543,11.279683113098145
363,43300.0,-0.8535329103469849,-9.96107578277588,2.762908697128296
364,43400.0,-0.8535329103469849,-9.96107578277588,2.762908697128296
365,43500.0,-0.1538274586200714,-8.809465408325195,0.8690952062606812
366,43600.0,-0.1538274586200714,-8.809465408325195,0.8690952062606812
367,43700.0,0.14903905987739566,-9.359533309936523,0.5015852451324463
368,43800.0,-0.29568392038345337,-10.10173511505127,-0.5476736426353455
369,43900.0,-0.29568392038345337,-10.10173511505127,-0.5476736426353455
370,44000.0,0.9421183466911316,-13.180679321289064,-0.2106897532939911
371,44100.0,0.9421183466911316,-13.180679321289064,-0.2106897532939911
372,44200.0,-2.9382839202880864,-11.510723114013672,-0.729034423828125
373,44300.0,-2.9382839202880864,-11.510723114013672,-0.729034423828125
374,44400.0,-0.8846575021743774,-8.466495513916017,3.224391222000122
375,44500.0,-0.8846575021743774,-8.466495513916017,3.224391222000122
376,44600.0,1.1300631761550903,-4.32871675491333,3.662529945373535
377,44700.0,1.8812439441680908,-2.2643163204193115,7.77756404876709
378,44800.0,1.8812439441680908,-2.2643163204193115,7.77756404876709
379,44900.0,2.2631192207336426,-6.019621849060059,3.0831332206726074
380,45000.0,2.2631192207336426,-6.019621849060059,3.0831332206726074
381,45100.0,-2.146401882171631,-10.936115264892578,1.823184609413147
382,45200.0,-2.146401882171631,-10.936115264892578,1.823184609413147
383,45300.0,-1.9458874464035036,-9.400833129882812,0.07003039866685867
384,45400.0,-1.9458874464035036,-9.400833129882812,0.07003039866685867
385,45500.0,1.2994530200958252,-9.971850395202637,1.1180921792984009
386,45600.0,-1.918952703475952,-13.685855865478516,0.7523778676986694
387,45700.0,-1.918952703475952,-13.685855865478516,0.7523778676986694
388,45800.0,-0.639850378036499,-12.312182426452635,-3.3614592552185063
389,45900.0,-0.639850378036499,-12.312182426452635,-3.3614592552185063
390,46000.0,0.4495113790035248,-10.038289070129396,0.6494272351264954
391,46100.0,0.4495113790035248,-10.038289070129396,0.6494272351264954
392,46200.0,0.7739257216453552,-5.147533416748047,4.0737342834472665
393,46300.0,0.7739257216453552,-5.147533416748047,4.0737342834472665
394,46400.0,-0.29388827085494995,-4.487332344055176,7.106589317321777
395,46500.0,0.20290859043598172,-12.723984718322756,2.9508535861968994
396,46600.0,0.20290859043598172,-12.723984718322756,2.9508535861968994
397,46700.0,0.7003039717674255,-8.13669490814209,1.4131776094436646
398,46800.0,0.7003039717674255,-8.13669490814209,1.4131776094436646
399,46900.0,-0.921169102191925,-10.107721328735352,-0.5943605899810791
400,47000.0,-0.921169102191925,-10.107721328735352,-0.5943605899810791
401,47100.0,-1.0181342363357544,-10.14902114868164,0.7559691667556763
402,47200.0,-1.0181342363357544,-10.14902114868164,0.7559691667556763
403,47300.0,0.21966800093650815,-12.485163688659668,-1.18094003200531
404,47400.0,-2.141613483428955,-11.354501724243164,-0.9241618514060974
405,47500.0,-2.141613483428955,-11.354501724243164,-0.9241618514060974
406,47600.0,0.7667431235313416,-8.099584579467772,1.578976035118103
407,47700.0,0.7667431235313416,-8.099584579467772,1.578976035118103
408,47800.0,0.5817909836769104,-4.281431198120116,3.83191990852356
409,47900.0,0.5817909836769104,-4.281431198120116,3.83191990852356
410,48000.0,1.8201918601989744,-8.990227699279785,3.6673183441162114
411,48100.0,1.8201918601989744,-8.990227699279785,3.6673183441162114
412,48200.0,-1.5526398420333862,-9.240421295166016,0.4129997789859772
413,48300.0,-0.39803603291511536,-9.608530044555664,-0.4070142805576325
414,48400.0,-0.39803603291511536,-9.608530044555664,-0.4070142805576325
415,48500.0,-0.6248866319656372,-10.11550235748291,-0.20290859043598172
416,48600.0,-0.6248866319656372,-10.11550235748291,-0.20290859043598172
417,48700.0,-1.6531962156295776,-12.503119468688965,-0.6075286865234375
418,48800.0,-1.6531962156295776,-12.503119468688965,-0.6075286865234375
419,48900.0,-0.4040215313434601,-11.320982933044435,-1.3000515699386597
420,49000.0,-0.4040215313434601,-11.320982933044435,-1.3000515699386597
421,49100.0,0.198120191693306,-8.070255279541017,2.850297212600708
422,49200.0,0.050876785069704056,-5.340865612030028,3.8827965259552
423,49300.0,0.050876785069704056,-5.340865612030028,3.8827965259552
424,49400.0,-2.5252842903137207,-13.945027351379395,5.816712856292725
425,49500.0,-2.5252842903137207,-13.945027351379395,5.816712856292725
426,49600.0,-1.037886381149292,-10.143633842468262,1.972822189331055
427,49700.0,-1.037886381149292,-10.143633842468262,1.972822189331055
428,49800.0,-0.3633201122283936,-9.056666374206543,0.6823474764823914
429,49900.0,-0.3633201122283936,-9.056666374206543,0.6823474764823914
430,50000.0,-0.465073674917221,-9.824007987976074,0.2675520479679108
431,50100.0,0.20111294090747836,-10.982203483581543,-0.1693897694349289
432,50200.0,0.20111294090747836,-10.982203483581543,-0.1693897694349289
433,50300.0,1.3646949529647827,-10.399214744567873,1.0295066833496094
434,50400.0,1.3646949529647827,-10.399214744567873,1.0295066833496094
435,50500.0,1.015141487121582,-9.202713012695312,0.32441434264183044
436,50600.0,1.015141487121582,-9.202713012695312,0.32441434264183044
437,50700.0,0.2286462634801865,-7.569867134094237,2.7994203567504883
438,50800.0,0.2286462634801865,-7.569867134094237,2.7994203567504883
439,50900.0,1.679532527923584,-4.9996914863586435,4.454412460327148
440,51000.0,3.0544028282165527,-5.764639377593994,6.464344501495361
441,51100.0,3.0544028282165527,-5.764639377593994,6.464344501495361
442,51200.0,-2.2571337223052983,-10.873865127563477,0.7080851793289185
443,51300.0,-2.2571337223052983,-10.873865127563477,0.7080851793289185
444,51400.0,-1.6855180263519287,-9.758167266845703,-0.07481880486011505
445,51500.0,-1.6855180263519287,-9.758167266845703,-0.07481880486011505
446,51600.0,-0.3645172119140625,-9.755773544311523,-0.08918401598930359
447,51700.0,-0.3645172119140625,-9.755773544311523,-0.08918401598930359
448,51800.0,0.12030863761901855,-11.038467407226564,-0.7044938206672668
449,51900.0,2.0703859329223637,-10.481815338134766,0.6877344250679016
450,52000.0,2.0703859329223637,-10.481815338134766,0.6877344250679016
451,52100.0,0.7218518257141113,-10.017339706420898,0.4171896576881409
452,52200.0,0.7218518257141113,-10.017339706420898,0.4171896576881409
453,52300.0,0.689530074596405,-7.681197643280028,3.1184477806091313
454,52400.0,0.689530074596405,-7.681197643280028,3.1184477806091313
455,52500.0,0.6709750294685364,-4.1629180908203125,4.898536682128906
456,52600.0,0.6709750294685364,-4.1629180908203125,4.898536682128906
457,52700.0,2.0254945755004883,-6.363189697265625,6.358401298522949
458,52800.0,-1.4766238927841189,-10.52790355682373,0.9355342984199524
459,52900.0,-1.4766238927841189,-10.52790355682373,0.9355342984199524
460,53000.0,-1.1330559253692627,-8.963293075561523,-0.10654197633266448
461,53100.0,-1.1330559253692627,-8.963293075561523,-0.10654197633266448
462,53200.0,-0.10474632680416107,-9.601346969604492,-0.6386532783508301
463,53300.0,-0.10474632680416107,-9.601346969604492,-0.6386532783508301
464,53400.0,-0.023343466222286224,-11.909358024597168,-0.9457096457481384
465,53500.0,-0.023343466222286224,-11.909358024597168,-0.9457096457481384
466,53600.0,1.8782511949539185,-11.318588256835938,2.2254104614257812
467,53700.0,2.5336639881134038,-8.56884765625,1.2395979166030884
468,53800.0,2.5336639881134038,-8.56884765625,1.2395979166030884
469,53900.0,0.18136078119277954,-5.9974751472473145,2.6605565547943115
470,54000.0,0.18136078119277954,-5.9974751472473145,2.6605565547943115
471,54100.0,-0.1454477459192276,-3.5021185874938965,6.145317077636719
472,54200.0,-0.1454477459192276,-3.5021185874938965,6.145317077636719
473,54300.0,1.3395558595657349,-8.511985778808594,1.852513551712036
474,54400.0,1.3395558595657349,-8.511985778808594,1.852513551712036
475,54500.0,-1.568800687789917,-9.852738380432127,0.70090252161026
476,54600.0,0.06464344263076782,-9.446322441101074,1.521515130996704
477,54700.0,0.06464344263076782,-9.446322441101074,1.521515130996704
478,54800.0,0.3100491166114807,-8.543109893798826,0.4183867573738098
479,54900.0,0.3100491166114807,-8.543109893798826,0.4183867573738098
480,55000.0,-2.297835111618042,-15.819687843322756,-1.1659762859344482
481,55100.0,-2.297835111618042,-15.819687843322756,-1.1659762859344482
482,55200.0,-1.171961784362793,-10.679935455322266,-0.568622887134552
483,55300.0,-1.171961784362793,-10.679935455322266,-0.568622887134552
484,55400.0,0.041299980133771896,-8.04930591583252,-2.583942174911499
485,55500.0,-0.5033808946609497,-6.401496887207031,-0.3369838893413544
486,55600.0,-0.5033808946609497,-6.401496887207031,-0.3369838893413544
487,55700.0,-0.26336219906806946,-13.080121994018555,6.56071138381958
488,55800.0,-0.26336219906806946,-13.080121994018555,6.56071138381958
489,55900.0,3.95641827583313,-2.8167781829833984,-3.2800562381744385
490,56000.0,3.95641827583313,-2.8167781829833984,-3.2800562381744385
491,56100.0,0.8804676532745361,-10.390236854553224,-0.8595184087753296
492,56200.0,0.8804676532745361,-10.390236854553224,-0.8595184087753296
493,56300.0,0.6619967818260193,-9.311050415039064,-1.533486247062683
494,56400.0,0.5363011956214905,-9.604340553283693,-0.4686649739742279
495,56500.0,0.5363011956214905,-9.604340553283693,-0.4686649739742279
496,56600.0,0.8583213090896606,-11.64719295501709,1.6789339780807495
497,56700.0,0.8583213090896606,-11.64719295501709,1.6789339780807495
498,56800.0,0.18136078119277954,-11.942277908325195,-0.8672995567321777
499,56900.0,0.18136078119277954,-11.942277908325195,-0.8672995567321777
500,57000.0,0.15682020783424375,-9.080010414123537,1.2389993667602541
501,57100.0,0.15682020783424375,-9.080010414123537,1.2389993667602541
502,57200.0,0.25977087020874023,-6.449979305267334,3.5404257774353027
503,57300.0,0.6973112225532532,-4.650736808776856,5.747281074523926
504,57400.0,0.6973112225532532,-4.650736808776856,5.747281074523926
505,57500.0,0.07422025501728058,-8.415019989013674,4.1186256408691415
506,57600.0,0.07422025501728058,-8.415019989013674,4.1186256408691415
507,57700.0,-1.5280991792678833,-9.829395294189453,1.2755109071731567
508,57800.0,-1.5280991792678833,-9.829395294189453,1.2755109071731567
509,57900.0,-1.1073182821273804,-9.788095474243164,0.014365210197865963
510,58000.0,-1.1073182821273804,-9.788095474243164,0.014365210197865963
511,58100.0,-0.2861070930957794,-9.530718803405762,-0.12928688526153564
512,58200.0,0.6889315247535706,-12.101492881774902,-0.8888474106788635
513,58300.0,0.6889315247535706,-12.101492881774902,-0.8888474106788635
514,58400.0,-0.09935937076807022,-10.76852035522461,0.7134721279144287
515,58500.0,-0.09935937076807022,-10.76852035522461,0.7134721279144287
516,58600.0,1.1982979774475098,-8.124124526977539,1.4616601467132568
517,58700.0,1.1982979774475098,-8.124124526977539,1.4616601467132568
518,58800.0,0.2424129247665405,-7.4345946311950675,3.324349164962769
519,58900.0,0.2424129247665405,-7.4345946311950675,3.324349164962769
520,59000.0,0.6123170852661133,-4.2299556732177725,4.709394931793213
521,59100.0,1.5969325304031372,-6.56190824508667,5.022436618804932
522,59200.0,1.5969325304031372,-6.56190824508667,5.022436618804932
523,59300.0,-3.22678542137146,-11.224616050720217,0.4519055783748626
524,59400.0,-3.22678542137146,-11.224616050720217,0.4519055783748626
525,59500.0,-0.11671733111143112,-9.970054626464844,-0.3232172429561615
526,59600.0,-0.11671733111143112,-9.970054626464844,-0.3232172429561615
527,59700.0,-0.043095629662275314,-9.758766174316406,-0.08619125932455063
528,59800.0,-0.043095629662275314,-9.758766174316406,-0.08619125932455063
529,59900.0,0.4800374507904053,-11.273696899414064,-0.6745663285255432
530,60000.0,1.702277421951294,-11.33654499053955,0.9774328470230104
531,60100.0,1.702277421951294,-11.33654499053955,0.9774328470230104
532,60200.0,3.308188199996948,-8.453327178955076,0.7356184720993042
533,60300.0,3.308188199996948,-8.453327178955076,0.7356184720993042
534,60400.0,-0.15741875767707825,-6.169259071350098,2.7659015655517583
535,60500.0,-0.15741875767707825,-6.169259071350098,2.7659015655517583
536,60600.0,1.1103110313415527,-4.9625816345214835,5.682039260864258
537,60700.0,1.1103110313415527,-4.9625816345214835,5.682039260864258
538,60800.0,-1.0696096420288086,-7.781754016876222,4.927267074584961
539,60900.0,-2.473210334777832,-9.839570045471193,0.8385691642761229
540,61000.0,-2.473210334777832,-9.839570045471193,0.8385691642761229
541,61100.0,-0.4620809257030487,-9.352949142456056,-0.2795230448246002
542,61200.0,-0.4620809257030487,-9.352949142456056,-0.2795230448246002
543,61300.0,0.15023615956306458,-9.78869342803955,-0.152031809091568
544,61400.0,0.15023615956306458,-9.78869342803955,-0.152031809091568
545,61500.0,0.8637082576751709,-11.101314544677734,-0.900818407535553
546,61600.0,0.8637082576751709,-11.101314544677734,-0.900818407535553
547,61700.0,1.7250223159790041,-10.072406768798828,0.7721300721168518
548,61800.0,1.7250223159790041,-10.072406768798828,0.7721300721168518
549,61900.0,2.8981812000274663,-9.269750595092773,0.4399345517158508
550,62000.0,0.4285621047019959,-8.192359924316406,3.324947595596313
551,62100.0,0.4285621047019959,-8.192359924316406,3.324947595596313
552,62200.0,1.0241197347640991,-5.2439002990722665,4.677073001861572
553,62300.0,1.0241197347640991,-5.2439002990722665,4.677073001861572
554,62400.0,-0.04668693244457245,-10.029909133911133,1.9662381410598757
555,62500.0,-0.04668693244457245,-10.029909133911133,1.9662381410598757
556,62600.0,-1.9381062984466555,-10.301053047180176,0.4794389009475708
557,62700.0,-1.9381062984466555,-10.301053047180176,0.4794389009475708
558,62800.0,-1.7286136150360107,-10.090961456298828,-0.8242039084434509
559,62900.0,-0.07661445438861847,-9.583391189575195,-0.1993172913789749
560,63000.0,-0.07661445438861847,-9.583391189575195,-0.1993172913789749
561,63100.0,-1.192312479019165,-12.325350761413574,-1.4065934419631958
562,63200.0,-1.192312479019165,-12.325350761413574,-1.4065934419631958
563,63300.0,0.35733461380004883,-11.134235382080078,1.0366892814636228
564,63400.0,0.35733461380004883,-11.134235382080078,1.0366892814636228
565,63500.0,1.8465280532836916,-9.391854286193848,1.0313023328781128
566,63600.0,1.8465280532836916,-9.391854286193848,1.0313023328781128
567,63700.0,0.7278373241424559,-7.2328834533691415,3.324947595596313
568,63800.0,1.394023895263672,-3.8564603328704834,4.90452241897583
569,63900.0,1.394023895263672,-3.8564603328704834,4.90452241897583
570,64000.0,1.4490906000137331,-4.389170169830321,5.7520694732666025
571,64100.0,1.4490906000137331,-4.389170169830321,5.7520694732666025
572,64200.0,-3.1016883850097656,-10.499771118164064,0.2256535142660141
573,64300.0,-3.1016883850097656,-10.499771118164064,0.2256535142660141
574,64400.0,-0.13287819921970367,-10.051457405090332,0.16220717132091522
575,64500.0,-0.13048399984836578,-9.990405082702637,0.0035913025494664907
576,64600.0,-0.13048399984836578,-9.990405082702637,0.0035913025494664907
577,64700.0,-0.5219359993934631,-12.765284538269045,-1.2946646213531494
578,64800.0,-0.5219359993934631,-12.765284538269045,-1.2946646213531494
579,64900.0,-2.999934673309326,-12.72757625579834,0.5770025849342346
580,65000.0,-2.999934673309326,-12.72757625579834,0.5770025849342346
581,65100.0,-0.7026981711387634,-9.962871551513672,2.5073277950286865
582,65200.0,-0.7026981711387634,-9.962871551513672,2.5073277950286865
583,65300.0,0.5033808946609497,-4.726752758026123,4.671087741851807
584,65400.0,0.5033808946609497,-4.726752758026123,4.671087741851807
585,65500.0,0.4632780253887177,-2.6659436225891118,7.531559944152832
586,65600.0,1.9530700445175169,-11.172542572021484,3.179499864578247
587,65700.0,1.9530700445175169,-11.172542572021484,3.179499864578247
588,65800.0,-4.465784549713135,-9.149441719055176,0.2448071241378784
589,65900.0,-4.465784549713135,-9.149441719055176,0.2448071241378784
590,66000.0,-2.236783027648926,-10.217255592346193,0.2214636504650116
591,66100.0,-2.236783027648926,-10.217255592346193,0.2214636504650116
592,66200.0,0.18076223134994507,-9.153631210327148,-0.2735375463962555
593,66300.0,0.18076223134994507,-9.153631210327148,-0.2735375463962555
594,66400.0,0.6458359360694885,-10.477624893188477,0.4022258818149567
595,66500.0,-0.4279635548591614,-10.04068374633789,-0.6147112846374512
596,66600.0,-0.4279635548591614,-10.04068374633789,-0.6147112846374512
597,66700.0,-0.008379706181585789,-11.713631629943848,-0.6374561786651611
598,66800.0,-0.008379706181585789,-11.713631629943848,-0.6374561786651611
599,66900.0,2.4606409072875977,-7.981071472167969,1.354519605636597
600,67000.0,2.4606409072875977,-7.981071472167969,1.354519605636597
601,67100.0,0.13108254969120026,-4.126406669616698,5.317522048950195
602,67200.0,0.13108254969120026,-4.126406669616698,5.317522048950195
603,67300.0,4.629189014434815,-6.626551628112793,4.999093055725098
604,67400.0,-1.3826514482498171,-8.707113265991211,1.0881646871566772
605,67500.0,-1.3826514482498171,-8.707113265991211,1.0881646871566772
606,67600.0,-1.3850456476211548,-9.86650562286377,-0.17537526786327362
607,67700.0,-1.3850456476211548,-9.86650562286377,-0.17537526786327362
608,67800.0,-0.9672574996948242,-10.114903450012207,0.2214636504650116
609,67900.0,-0.9672574996948242,-10.114903450012207,0.2214636504650116
610,68000.0,0.9157821536064148,-11.43291187286377,-0.3633201122283936
611,68100.0,0.9157821536064148,-11.43291187286377,-0.3633201122283936
612,68200.0,1.9243396520614624,-10.314221382141113,0.34596213698387146
613,68300.0,1.1097124814987185,-9.466673851013184,0.2112883031368256
614,68400.0,1.1097124814987185,-9.466673851013184,0.2112883031368256
615,68500.0,-0.2346317619085312,-8.953117370605469,3.1280245780944824
616,68600.0,-0.2346317619085312,-8.953117370605469,3.1280245780944824
617,68700.0,0.4902127981185913,-5.3773770332336435,4.7578773498535165
618,68800.0,0.4902127981185913,-5.3773770332336435,4.7578773498535165
619,68900.0,-4.705204963684082,-13.612234115600586,6.925228595733643
620,69000.0,-4.705204963684082,-13.612234115600586,6.925228595733643
621,69100.0,0.4010287821292877,-7.893084526062013,2.0632033348083496
622,69200.0,-1.7603367567062378,-9.747393608093262,0.5949591398239136
623,69300.0,-1.7603367567062378,-9.747393608093262,0.5949591398239136
624,69400.0,-0.32441434264183044,-9.821015357971193,0.8535329103469849
625,69500.0,-0.32441434264183044,-9.821015357971193,0.8535329103469849
626,69600.0,0.7128735780715942,-11.575366973876953,-1.2384008169174194
627,69700.0,0.7128735780715942,-11.575366973876953,-1.2384008169174194
628,69800.0,1.843535304069519,-11.508329391479492,1.6861165761947632
629,69900.0,1.843535304069519,-11.508329391479492,1.6861165761947632
630,70000.0,1.301847219467163,-8.972869873046875,0.9690531492233276
631,70100.0,-0.25917232036590576,-6.1291561126708975,3.535637378692627
632,70200.0,-0.25917232036590576,-6.1291561126708975,3.535637378692627
633,70300.0,1.3652935028076172,-3.2411506175994877,5.559336185455322
634,70400.0,1.3652935028076172,-3.2411506175994877,5.559336185455322
635,70500.0,-0.323815792798996,-9.621099472045898,2.499546527862549
636,70600.0,-0.323815792798996,-9.621099472045898,2.499546527862549
637,70700.0,-1.5981296300888062,-9.212289810180664,0.8433575630187988
638,70800.0,-1.5981296300888062,-9.212289810180664,0.8433575630187988
639,70900.0,0.08559270948171616,-9.886856079101564,0.4058171808719635
640,71000.0,-1.0031704902648926,-9.451709747314453,-0.004788403399288654
641,71100.0,-1.0031704902648926,-9.451709747314453,-0.004788403399288654
642,71200.0,1.0133458375930786,-12.573748588562012,-0.9481038451194764
643,71300.0,1.0133458375930786,-12.573748588562012,-0.9481038451194764
644,71400.0,-1.106719732284546,-11.730989456176758,0.9917980432510376
645,71500.0,-1.106719732284546,-11.730989456176758,0.9917980432510376
646,71600.0,0.7631517648696899,-9.437943458557127,1.354519605636597
647,71700.0,0.7631517648696899,-9.437943458557127,1.354519605636597
648,71800.0,-0.1041477769613266,-6.295553207397461,3.813364744186402
649,71900.0,0.8984242081642151,-4.926070213317871,5.56173038482666
650,72000.0,0.8984242081642151,-4.926070213317871,5.56173038482666
651,72100.0,-1.259350061416626,-10.622474670410156,3.1687259674072266
652,72200.0,-1.259350061416626,-10.622474670410156,3.1687259674072266
653,72300.0,-2.437297344207764,-9.160215377807617,1.1444283723831177
654,72400.0,-2.437297344207764,-9.160215377807617,1.1444283723831177
655,72500.0,-1.0492589473724363,-9.543288230895996,-0.07182604819536209
656,72600.0,-1.0492589473724363,-9.543288230895996,-0.07182604819536209
657,72700.0,-0.7655459642410278,-10.137648582458496,-0.4231751561164856
658,72800.0,0.7044938206672668,-11.447277069091795,-0.667982280254364
659,72900.0,0.7044938206672668,-11.447277069091795,-0.667982280254364
660,73000.0,0.7930793166160583,-10.596736907958984,-0.5021837949752808
661,73100.0,0.7930793166160583,-10.596736907958984,-0.5021837949752808
662,73200.0,1.127070426940918,-8.528146743774414,2.254140853881836
663,73300.0,1.127070426940918,-8.528146743774414,2.254140853881836
664,73400.0,0.669179379940033,-4.745307922363281,4.439448356628418
665,73500.0,0.669179379940033,-4.745307922363281,4.439448356628418
666,73600.0,-2.7670986652374268,-12.049418449401855,8.131906509399414
667,73700.0,-0.13168109953403473,-8.626907348632812,1.3509283065795898
668,73800.0,-0.13168109953403473,-8.626907348632812,1.3509283065795898
669,73900.0,-0.7116764783859253,-9.07103157043457,0.3232172429561615
670,74000.0,-0.7116764783859253,-9.07103157043457,0.3232172429561615
671,74100.0,0.10055647045373917,-9.689932823181152,0.6697779297828674
672,74200.0,0.10055647045373917,-9.689932823181152,0.6697779297828674
673,74300.0,-0.14844051003456116,-10.922348022460938,0.08619125932455063
674,74400.0,-0.14844051003456116,-10.922348022460938,0.08619125932455063
675,74500.0,1.5520412921905518,-10.08318042755127,0.7876923680305481
676,74600.0,1.810615062713623,-8.8878755569458,1.0540473461151123
677,74700.0,1.810615062713623,-8.8878755569458,1.0540473461151123
678,74800.0,0.04967968538403511,-8.350377082824707,3.3542766571044917
679,74900.0,0.04967968538403511,-8.350377082824707,3.3542766571044917
680,75000.0,0.15083470940589905,-4.318541526794434,5.339069843292236
681,75100.0,0.15083470940589905,-4.318541526794434,5.339069843292236
682,75200.0,-3.002927541732788,-11.683704376220705,6.825869083404541
683,75300.0,-3.002927541732788,-11.683704376220705,6.825869083404541
684,75400.0,-2.1847090721130367,-10.11550235748291,0.8032546639442444
685,75500.0,0.2112883031368256,-9.214683532714844,1.0624270439147951
686,75600.0,0.2112883031368256,-9.214683532714844,1.0624270439147951
687,75700.0,0.6476315855979919,-9.340977668762207,0.8415619134902954
688,75800.0,0.6476315855979919,-9.340977668762207,0.8415619134902954
689,75900.0,0.4135983288288117,-11.719616889953613,-0.9780313968658448
690,76000.0,0.4135983288288117,-11.719616889953613,-0.9780313968658448
691,76100.0,-0.9726444482803344,-11.063606262207033,0.9163807034492492
692,76200.0,-0.9726444482803344,-11.063606262207033,0.9163807034492492
693,76300.0,0.7499836683273315,-10.512939453125,-3.1639375686645512
694,76400.0,0.059855043888092034,-7.534552574157715,-0.32620999217033386
695,76500.0,0.059855043888092034,-7.534552574157715,-0.32620999217033386
696,76600.0,2.1978771686553955,-6.37994909286499,0.20530278980731964
697,76700.0,2.1978771686553955,-6.37994909286499,0.20530278980731964
698,76800.0,0.6159083843231201,-6.910264492034912,3.525461912155152
699,76900.0,0.6159083843231201,-6.910264492034912,3.525461912155152
700,77000.0,-3.648763418197632,-11.232397079467773,-2.523488521575928
701,77100.0,-3.648763418197632,-11.232397079467773,-2.523488521575928
702,77200.0,2.2703018188476562,-9.98681354522705,0.26994624733924866
703,77300.0,0.8080430626869202,-9.782708168029783,-0.39145198464393616
704,77400.0,0.8080430626869202,-9.782708168029783,-0.39145198464393616
705,77500.0,-0.6488286852836609,-10.872668266296387,-0.2807201445102692
706,77600.0,-0.6488286852836609,-10.872668266296387,-0.2807201445102692
707,77700.0,-0.4094084799289704,-13.527837753295898,-1.0989385843276978
708,77800.0,-0.4094084799289704,-13.527837753295898,-1.0989385843276978
709,77900.0,4.1174283027648935,-9.974244117736816,-1.9752163887023928
710,78000.0,4.1174283027648935,-9.974244117736816,-1.9752163887023928
711,78100.0,0.7194576263427734,-8.732851028442383,1.6549919843673706
712,78200.0,0.3471592366695404,-5.400720596313477,4.733935356140137
713,78300.0,0.3471592366695404,-5.400720596313477,4.733935356140137
714,78400.0,-0.2501940727233887,-11.200075149536133,7.073668956756593
715,78500.0,-0.2501940727233887,-11.200075149536133,7.073668956756593
716,78600.0,0.8547300100326538,-9.823410034179688,2.255936622619629
717,78700.0,0.8547300100326538,-9.823410034179688,2.255936622619629
718,78800.0,-2.2924480438232417,-8.954913139343262,-0.639850378036499
719,78900.0,-2.2924480438232417,-8.954913139343262,-0.639850378036499
720,79000.0,0.3884592354297638,-9.901819229125977,0.2190694510936737
721,79100.0,0.3058592677116394,-12.74613094329834,-1.3425486087799072
722,79200.0,0.3058592677116394,-12.74613094329834,-1.3425486087799072
723,79300.0,0.9080010056495668,-11.170147895812988,1.7345991134643557
724,79400.0,0.9080010056495668,-11.170147895812988,1.7345991134643557
725,79500.0,2.6653449535369877,-9.479243278503418,1.5071499347686768
726,79600.0,2.6653449535369877,-9.479243278503418,1.5071499347686768
727,79700.0,0.4237737059593201,-6.576273441314697,3.0508115291595463
728,79800.0,0.4237737059593201,-6.576273441314697,3.0508115291595463
729,79900.0,-0.17238251864910126,-3.9474401473999023,5.231929302215576
730,80000.0,0.15921440720558167,-8.29830265045166,2.0368671417236333
731,80100.0,0.15921440720558167,-8.29830265045166,2.0368671417236333
732,80200.0,-0.11552023142576218,-8.293514251708983,1.261744260787964
733,80300.0,-0.11552023142576218,-8.293514251708983,1.261744260787964
734,80400.0,0.028131870552897453,-9.665990829467773,1.0019733905792236
735,80500.0,0.028131870552897453,-9.665990829467773,1.0019733905792236
736,80600.0,-0.14484919607639313,-9.930550575256348,0.6631938815116882
737,80700.0,-0.14484919607639313,-9.930550575256348,0.6631938815116882
738,80800.0,1.9261353015899656,-10.430339813232422,0.3758896589279175
739,80900.0,0.33997663855552673,-9.199121475219727,-0.4501099288463593
740,81000.0,0.33997663855552673,-9.199121475219727,-0.4501099288463593
741,81100.0,0.3896563351154328,-9.323619842529297,2.868852138519287
742,81200.0,0.3896563351154328,-9.323619842529297,2.868852138519287
743,81300.0,0.25917232036590576,-4.921281814575195,4.739920616149902
744,81400.0,0.25917232036590576,-4.921281814575195,4.739920616149902
745,81500.0,3.2405519485473637,-8.216301918029785,2.8353333473205566
746,81600.0,3.2405519485473637,-8.216301918029785,2.8353333473205566
747,81700.0,-1.7651251554489136,-11.11987018585205,1.5867571830749512
748,81800.0,-1.7651251554489136,-11.11987018585205,1.5867571830749512
749,81900.0,-1.315613865852356,-9.48462963104248,-0.4141969084739685
750,82000.0,-0.6518214344978333,-9.489418029785156,-0.32620999217033386
751,82100.0,-0.6518214344978333,-9.489418029785156,-0.32620999217033386
752,82200.0,0.21966800093650815,-10.739192008972168,-0.06883329898118973
753,82300.0,0.21966800093650815,-10.739192008972168,-0.06883329898118973
754,82400.0,0.801459014415741,-11.132439613342283,0.6661866307258606
755,82500.0,0.801459014415741,-11.132439613342283,0.6661866307258606
756,82600.0,1.5221136808395386,-9.464279174804688,-0.14784196019172668
757,82700.0,0.4632780253887177,-8.525154113769531,2.8305449485778813
758,82800.0,0.4632780253887177,-8.525154113769531,2.8305449485778813
759,82900.0,0.7529764175415039,-5.060145378112793,4.636371612548828
760,83000.0,0.7529764175415039,-5.060145378112793,4.636371612548828
761,83100.0,-4.793191909790039,-14.084489822387695,7.905055522918701
762,83200.0,-4.793191909790039,-14.084489822387695,7.905055522918701
763,83300.0,-0.12509703636169436,-8.734047889709473,1.8285715579986568
764,83400.0,-0.12509703636169436,-8.734047889709473,1.8285715579986568
765,83500.0,-0.05027823522686958,-8.788516044616701,0.7170634269714355
766,83600.0,-0.05027823522686958,-8.788516044616701,0.7170634269714355
767,83700.0,0.21966800093650815,-9.768342971801758,0.30226796865463257
768,83800.0,0.1346738487482071,-9.57321548461914,-0.002992752008140087
769,83900.0,0.1346738487482071,-9.57321548461914,-0.002992752008140087
770,84000.0,0.7661445140838623,-12.121244430541992,-0.4489128291606903
771,84100.0,0.7661445140838623,-12.121244430541992,-0.4489128291606903
772,84200.0,-1.7142484188079834,-11.204265594482422,2.349310398101806
773,84300.0,-1.7142484188079834,-11.204265594482422,2.349310398101806
774,84400.0,0.9241618514060974,-8.422203063964844,2.431910276412964
775,84500.0,0.9241618514060974,-8.422203063964844,2.431910276412964
776,84600.0,1.0109516382217407,-5.872976779937744,4.2521023750305185
777,84700.0,1.2348095178604126,-4.711789131164551,5.564124584197998
778,84800.0,1.2348095178604126,-4.711789131164551,5.564124584197998
779,84900.0,-0.902015507221222,-11.710040092468262,2.583343744277954
780,85000.0,-0.902015507221222,-11.710040092468262,2.583343744277954
781,85100.0,-0.20889410376548767,-8.801684379577637,1.2419921159744265
782,85200.0,-0.20889410376548767,-8.801684379577637,1.2419921159744265
783,85300.0,-0.4728548228740692,-8.919598579406738,-0.008379706181585789
784,85400.0,-0.4728548228740692,-8.919598579406738,-0.008379706181585789
785,85500.0,-0.9002198576927185,-9.959280967712402,-0.13048399984836578
786,85600.0,-0.2364274114370346,-13.05019474029541,-0.9265560507774352
787,85700.0,-0.2364274114370346,-13.05019474029541,-0.9265560507774352
788,85800.0,-1.71245276927948,-12.720393180847168,2.5306711196899414
789,85900.0,-1.71245276927948,-12.720393180847168,2.5306711196899414
790,86000.0,0.8289923667907715,-9.1847562789917,2.2224178314208984
791,86100.0,0.8289923667907715,-9.1847562789917,2.2224178314208984
792,86200.0,0.2867056429386139,-5.878363609313965,3.86543869972229
793,86300.0,0.2867056429386139,-5.878363609313965,3.86543869972229
794,86400.0,2.1140801906585693,-2.5731682777404785,7.445368766784668
795,86500.0,5.329493045806885,-3.0693666934967037,5.473145008087158
796,86600.0,5.329493045806885,-3.0693666934967037,5.473145008087158
797,86700.0,-6.247669219970702,-9.31045150756836,0.1454477459192276
798,86800.0,-6.247669219970702,-9.31045150756836,0.1454477459192276
799,86900.0,-2.788047790527344,-10.131064414978027,-0.24600422382354736
800,87000.0,-2.788047790527344,-10.131064414978027,-0.24600422382354736
801,87100.0,0.21368250250816345,-8.261791229248049,-0.31543606519699097
802,87200.0,0.21368250250816345,-8.261791229248049,-0.31543606519699097
803,87300.0,-3.2094273567199707,-14.428656578063965,0.8277952671051025
804,87400.0,-2.586935043334961,-10.53688144683838,-2.8658595085144043
805,87500.0,-2.586935043334961,-10.53688144683838,-2.8658595085144043
806,87600.0,-1.6921020746231081,-11.006743431091307,-0.4028244316577912
807,87700.0,-1.6921020746231081,-11.006743431091307,-0.4028244316577912
808,87800.0,1.2988544702529907,-6.84981107711792,2.7892448902130127
809,87900.0,1.2988544702529907,-6.84981107711792,2.7892448902130127
810,88000.0,0.3693056106567383,-4.483142852783203,6.139930248260497
811,88100.0,0.3693056106567383,-4.483142852783203,6.139930248260497
812,88200.0,2.756923198699951,-6.478111267089844,6.800131320953369
813,88300.0,-2.6785130500793457,-11.604695320129395,1.7615338563919067
814,88400.0,-2.6785130500793457,-11.604695320129395,1.7615338563919067
815,88500.0,0.42437225580215454,-8.341399192810059,1.3946224451065063
816,88600.0,0.42437225580215454,-8.341399192810059,1.3946224451065063
817,88700.0,-0.6386532783508301,-10.016142845153807,0.2286462634801865
818,88800.0,-0.6386532783508301,-10.016142845153807,0.2286462634801865
819,88900.0,-0.7481880187988281,-9.658807754516602,-0.017956512048840526
820,89000.0,-0.7481880187988281,-9.658807754516602,-0.017956512048840526
821,89100.0,-0.4153940081596375,-11.569979667663574,-0.5386953949928284
822,89200.0,-1.699883222579956,-10.770915031433104,-1.898003339767456
823,89300.0,-1.699883222579956,-10.770915031433104,-1.898003339767456
824,89400.0,0.4620809257030487,-9.683348655700684,1.8375498056411743
825,89500.0,0.4620809257030487,-9.683348655700684,1.8375498056411743
826,89600.0,-0.062249243259429925,-5.801749229431152,4.043806552886963
827,89700.0,-0.062249243259429925,-5.801749229431152,4.043806552886963
828,89800.0,0.5925649404525757,-6.10401725769043,8.093599319458008
829,89900.0,0.5925649404525757,-6.10401725769043,8.093599319458008
830,90000.0,-1.3694833517074585,-11.7232084274292,2.8419175148010254
831,90100.0,-0.6542156338691711,-8.360552787780763,1.1779472827911377
832,90200.0,-0.6542156338691711,-8.360552787780763,1.1779472827911377
833,90300.0,-1.0229226350784302,-9.302072525024414,0.456095427274704
834,90400.0,-1.0229226350784302,-9.302072525024414,0.456095427274704
835,90500.0,-0.8038532137870789,-9.527127265930176,0.487220048904419
836,90600.0,-0.8038532137870789,-9.527127265930176,0.487220048904419
837,90700.0,0.5776011347770691,-11.85488986968994,-1.91595995426178
838,90800.0,0.5776011347770691,-11.85488986968994,-1.91595995426178
839,90900.0,0.9528923034667968,-10.323199272155762,2.68569564819336
840,91000.0,0.6871358752250671,-8.227075576782228,1.4927847385406494
