,timestamp,ax,ay,az
0,7000.0,-2.1475989818573002,-7.225700855255128,1.2234370708465576
1,7100.0,-2.1475989818573002,-7.225700855255128,1.2234370708465576
2,7200.0,-2.1475989818573002,-7.225700855255128,1.2234370708465576
3,7300.0,-3.0885202884674072,-6.65288782119751,4.887164115905762
4,7400.0,-3.338115692138672,-5.5790886878967285,5.919064998626709
5,7500.0,-3.338115692138672,-5.5790886878967285,5.919064998626709
6,7600.0,-4.662707805633545,-7.790133953094482,6.3081231117248535
7,7700.0,-4.662707805633545,-7.790133953094482,6.3081231117248535
8,7800.0,-3.3961751461029053,-7.439383029937744,2.850297212600708
9,7900.0,-3.3961751461029053,-7.439383029937744,2.850297212600708
10,8000.0,-2.1763293743133545,-8.419210433959961,1.2210428714752195
11,8100.0,-2.1763293743133545,-8.419210433959961,1.2210428714752195
12,8200.0,-3.7415387630462646,-7.997232437133789,0.4225766062736511
13,8300.0,-5.718550682067871,-8.587403297424316,1.2731167078018188
14,8400.0,-5.718550682067871,-8.587403297424316,1.2731167078018188
15,8500.0,-5.2055931091308585,-8.848969459533691,0.11432313174009325
16,8600.0,-5.2055931091308585,-8.848969459533691,0.11432313174009325
17,8700.0,-2.9676129817962646,-10.922348022460938,-1.4083890914916992
18,8800.0,-2.9676129817962646,-10.922348022460938,-1.4083890914916992
19,8900.0,-4.183269023895264,-8.09778881072998,-1.2503718137741089
20,9000.0,-4.183269023895264,-8.09778881072998,-1.2503718137741089
21,9100.0,-3.9133226871490483,-7.575852870941162,1.2761094570159912
22,9200.0,-1.6148890256881714,-7.158064365386963,1.723825216293335
23,9300.0,-1.6148890256881714,-7.158064365386963,1.723825216293335
24,9400.0,-3.67928957939148,-7.914033889770508,4.10366153717041
25,9500.0,-3.67928957939148,-7.914033889770508,4.10366153717041
26,9600.0,-3.530848979949951,-5.941810131072997,3.784035682678223
27,9700.0,-3.530848979949951,-5.941810131072997,3.784035682678223
28,9800.0,-6.351218700408936,-13.040019989013672,0.2477998733520508
29,9900.0,-6.351218700408936,-13.040019989013672,0.2477998733520508
30,10000.0,-2.519298791885376,-8.319252014160156,0.7906851172447205
31,10100.0,-4.4741644859313965,-8.79809284210205,0.924760401248932
32,10200.0,-4.4741644859313965,-8.79809284210205,0.924760401248932
33,10300.0,-5.0236334800720215,-7.9643120765686035,0.5590460896492004
34,10400.0,-5.0236334800720215,-7.9643120765686035,0.5590460896492004
35,10500.0,-5.2253451347351065,-9.496002197265623,-0.011372458189725876
36,10600.0,-5.2253451347351065,-9.496002197265623,-0.011372458189725876
37,10700.0,-4.138377666473389,-10.490793228149414,-2.0260932445526123
38,10800.0,-4.138377666473389,-10.490793228149414,-2.0260932445526123
39,10900.0,-3.4123358726501465,-8.588600158691406,1.0588357448577879
40,11000.0,-2.3127987384796143,-6.718728542327881,2.721608877182007
41,11100.0,-2.3127987384796143,-6.718728542327881,2.721608877182007
42,11200.0,-1.9758149385452268,-5.944204330444336,5.167285919189453
43,11300.0,-1.9758149385452268,-5.944204330444336,5.167285919189453
44,11400.0,-5.442618846893311,-10.210671424865724,8.521562576293945
45,11500.0,-5.442618846893311,-10.210671424865724,8.521562576293945
46,11600.0,-2.7706899642944336,-8.427590370178223,2.624643564224243
47,11700.0,-2.7706899642944336,-8.427590370178223,2.624643564224243
48,11800.0,-1.3706804513931274,-7.413046836853027,3.053205728530884
49,11900.0,-3.0921115875244136,-9.182960510253906,0.7433996200561523
50,12000.0,-3.0921115875244136,-9.182960510253906,0.7433996200561523
51,12100.0,-4.613626480102539,-7.283161640167236,0.545877993106842
52,12200.0,-4.613626480102539,-7.283161640167236,0.545877993106842
53,12300.0,-5.07451057434082,-10.58656120300293,-0.038307227194309235
54,12400.0,-5.07451057434082,-10.58656120300293,-0.038307227194309235
55,12500.0,-2.364872694015503,-9.884461402893066,1.2802993059158323
56,12600.0,-2.364872694015503,-9.884461402893066,1.2802993059158323
57,12700.0,-2.256535053253174,-7.1197571754455575,3.5751416683197017
58,12800.0,-2.319382905960083,-7.261613845825195,4.194042682647705
59,12900.0,-2.319382905960083,-7.261613845825195,4.194042682647705
60,13000.0,-2.033874273300171,-6.096236228942871,5.513846397399902
61,13100.0,-2.033874273300171,-6.096236228942871,5.513846397399902
62,13200.0,-3.745130062103272,-10.121487617492676,6.120776653289795
63,13300.0,-3.745130062103272,-10.121487617492676,6.120776653289795
64,13400.0,-4.179079055786134,-8.531737327575684,0.6314706802368164
65,13500.0,-4.179079055786134,-8.531737327575684,0.6314706802368164
66,13600.0,-3.990535736083984,-7.436390399932861,1.0121487379074097
67,13700.0,-4.483142852783203,-8.514978408813478,0.3609259128570557
68,13800.0,-4.483142852783203,-8.514978408813478,0.3609259128570557
69,13900.0,-4.547187805175781,-9.999981880187988,0.10534487664699554
70,14000.0,-4.547187805175781,-9.999981880187988,0.10534487664699554
71,14100.0,-2.258330821990967,-9.258976936340332,-3.089717388153076
72,14200.0,-2.258330821990967,-9.258976936340332,-3.089717388153076
73,14300.0,-3.200449228286743,-7.088034152984619,0.444722980260849
74,14400.0,-3.200449228286743,-7.088034152984619,0.444722980260849
75,14500.0,-1.9979612827301023,-6.759429931640625,2.985569477081299
76,14600.0,-1.9039889574050903,-5.850231647491455,5.140350818634033
77,14700.0,-1.9039889574050903,-5.850231647491455,5.140350818634033
78,14800.0,-3.744531393051148,-11.613075256347654,6.7911529541015625
79,14900.0,-3.744531393051148,-11.613075256347654,6.7911529541015625
80,15000.0,-2.3289597034454346,-5.737105846405028,1.0408791303634644
81,15100.0,-2.3289597034454346,-5.737105846405028,1.0408791303634644
82,15200.0,-3.4362781047821045,-8.319252014160156,0.5231330990791321
83,15300.0,-3.4362781047821045,-8.319252014160156,0.5231330990791321
84,15400.0,-4.630385875701903,-8.254609107971191,0.6613982319831848
85,15500.0,-4.440645694732666,-7.921814918518066,1.258152961730957
86,15600.0,-4.440645694732666,-7.921814918518066,1.258152961730957
87,15700.0,-4.241926670074463,-8.793902397155763,1.0324994325637815
88,15800.0,-4.241926670074463,-8.793902397155763,1.0324994325637815
89,15900.0,-5.90709400177002,-13.52005672454834,0.3351882398128509
90,16000.0,-5.90709400177002,-13.52005672454834,0.3351882398128509
91,16100.0,-2.741360902786255,-9.349956512451172,1.2874820232391355
92,16200.0,-2.741360902786255,-9.349956512451172,1.2874820232391355
93,16300.0,-2.4361002445220947,-7.346607685089111,1.7932571172714231
94,16400.0,-2.449268341064453,-5.8598084449768075,5.05715274810791
95,16500.0,-2.449268341064453,-5.8598084449768075,5.05715274810791
96,16600.0,-2.3110032081604004,-5.940014362335205,6.218340396881104
97,16700.0,-2.3110032081604004,-5.940014362335205,6.218340396881104
98,16800.0,-3.7032315731048575,-10.532691955566406,5.102043628692627
99,16900.0,-3.7032315731048575,-10.532691955566406,5.102043628692627
100,17000.0,-2.5576059818267822,-6.671442985534668,2.4001872539520264
101,17100.0,-2.5576059818267822,-6.671442985534668,2.4001872539520264
102,17200.0,-2.829347848892212,-7.715314865112305,0.729034423828125
103,17300.0,-5.322908878326416,-7.541735172271728,1.2054805755615234
104,17400.0,-5.322908878326416,-7.541735172271728,1.2054805755615234
105,17500.0,-4.638167381286621,-8.558073997497559,-0.2645592987537384
106,17600.0,-4.638167381286621,-8.558073997497559,-0.2645592987537384
107,17700.0,-3.7481226921081534,-11.34193229675293,-1.148618221282959
108,17800.0,-3.7481226921081534,-11.34193229675293,-1.148618221282959
109,17900.0,-3.84269380569458,-8.13789176940918,0.4728548228740692
110,18000.0,-3.84269380569458,-8.13789176940918,0.4728548228740692
111,18100.0,-2.6982653141021733,-7.470507621765138,1.0229226350784302
112,18200.0,-2.6982653141021733,-7.470507621765138,1.0229226350784302
113,18300.0,-2.7054479122161865,-7.689577102661133,2.607285737991333
114,18400.0,-3.3854012489318848,-8.643068313598633,2.918531894683838
115,18500.0,-3.3854012489318848,-8.643068313598633,2.918531894683838
116,18600.0,-2.5145103931427,-8.661623001098633,3.587112665176392
117,18700.0,-2.5145103931427,-8.661623001098633,3.587112665176392
118,18800.0,-0.8475474119186401,-7.1012020111083975,1.5610195398330688
119,18900.0,-0.8475474119186401,-7.1012020111083975,1.5610195398330688
120,19000.0,-0.07062894850969315,-9.224859237670898,2.106897592544556
121,19100.0,-2.7240030765533447,-8.661025047302246,0.3172317147254944
122,19200.0,-2.7240030765533447,-8.661025047302246,0.3172317147254944
123,19300.0,-3.784035682678223,-9.221866607666016,0.28131869435310364
124,19400.0,-3.784035682678223,-9.221866607666016,0.28131869435310364
125,19500.0,-6.1560912132263175,-12.556390762329102,-1.6807296276092532
126,19600.0,-6.1560912132263175,-12.556390762329102,-1.6807296276092532
127,19700.0,-5.123591423034668,-9.126696586608887,-0.04668693244457245
128,19800.0,-5.123591423034668,-9.126696586608887,-0.04668693244457245
129,19900.0,-3.778648853302002,-7.776965618133545,3.533841609954834
130,20000.0,-3.778648853302002,-7.776965618133545,3.533841609954834
131,20100.0,-2.5246856212615967,-5.697601318359375,5.063736438751222
132,20200.0,-11.261726379394533,-13.010690689086914,7.7470383644104
133,20300.0,-11.261726379394533,-13.010690689086914,7.7470383644104
134,20400.0,-1.6825252771377563,-6.630741596221924,3.2836475372314453
135,20500.0,-1.6825252771377563,-6.630741596221924,3.2836475372314453
136,20600.0,-3.2716765403747563,-8.103774070739746,0.6177040338516235
137,20700.0,-3.2716765403747563,-8.103774070739746,0.6177040338516235
138,20800.0,-3.973177671432495,-9.091980934143066,1.0791864395141602
139,20900.0,-3.973177671432495,-9.091980934143066,1.0791864395141602
140,21000.0,-4.443638324737549,-7.979874134063722,0.7463923692703247
141,21100.0,-5.234921932220459,-11.768698692321776,1.5394717454910278
142,21200.0,-5.234921932220459,-11.768698692321776,1.5394717454910278
143,21300.0,-1.9399019479751587,-9.99339771270752,2.1140801906585693
144,21400.0,-1.9399019479751587,-9.99339771270752,2.1140801906585693
145,21500.0,-2.7730841636657715,-8.609549522399902,2.4893712997436523
146,21600.0,-2.7730841636657715,-8.609549522399902,2.4893712997436523
147,21700.0,-2.1912930011749268,-5.9304375648498535,4.0108861923217765
148,21800.0,-2.1332337856292725,-5.207987308502197,4.9368438720703125
149,21900.0,-2.1332337856292725,-5.207987308502197,4.9368438720703125
150,22000.0,-3.3710360527038574,-9.522936820983887,4.354454517364502
151,22100.0,-3.3710360527038574,-9.522936820983887,4.354454517364502
152,22200.0,-2.6982653141021733,-8.323442459106445,3.818751811981201
153,22300.0,-2.6982653141021733,-8.323442459106445,3.818751811981201
154,22400.0,-3.025672435760498,-8.780136108398438,1.3329718112945557
155,22500.0,-3.025672435760498,-8.780136108398438,1.3329718112945557
156,22600.0,-4.864419460296631,-8.382100105285645,0.5201402902603149
157,22700.0,-4.864419460296631,-8.382100105285645,0.5201402902603149
158,22800.0,-4.751891613006592,-9.424775123596193,-0.6135141849517822
159,22900.0,-3.112462282180786,-10.975619316101074,-0.3112462162971497
160,23000.0,-3.112462282180786,-10.975619316101074,-0.3112462162971497
161,23100.0,-2.6342203617095947,-8.406641006469728,0.36391866207122797
162,23200.0,-2.6342203617095947,-8.406641006469728,0.36391866207122797
163,23300.0,-2.5103204250335693,-6.647500991821289,0.8984242081642151
164,23400.0,-2.5103204250335693,-6.647500991821289,0.8984242081642151
165,23500.0,-3.02327823638916,-6.608595371246338,4.506485939025879
166,23600.0,-3.02327823638916,-6.608595371246338,4.506485939025879
167,23700.0,-3.959411144256592,-5.8681883811950675,6.163872241973878
168,23800.0,-4.279635429382323,-9.123703956604004,7.033565998077393
169,23900.0,-4.279635429382323,-9.123703956604004,7.033565998077393
170,24000.0,-2.40198278427124,-5.8861451148986825,-0.7326257228851318
171,24100.0,-2.40198278427124,-5.8861451148986825,-0.7326257228851318
172,24200.0,-4.0719385147094735,-8.146869659423826,0.05506663769483566
173,24300.0,-4.0719385147094735,-8.146869659423826,0.05506663769483566
174,24400.0,-3.7379474639892583,-8.118738174438478,0.24660277366638186
175,24500.0,-3.7379474639892583,-8.118738174438478,0.24660277366638186
176,24600.0,-4.214393615722656,-8.33601188659668,0.7721300721168518
177,24700.0,-5.073912143707275,-10.11430549621582,-0.35075053572654724
178,24800.0,-5.073912143707275,-10.11430549621582,-0.35075053572654724
179,24900.0,-2.9496564865112305,-9.898826599121094,-1.173158884048462
180,25000.0,-2.9496564865112305,-9.898826599121094,-1.173158884048462
181,25100.0,-4.047996520996094,-6.406883716583253,0.8236053586006165
182,25200.0,-4.047996520996094,-6.406883716583253,0.8236053586006165
183,25300.0,-3.907935619354248,-8.35097599029541,2.9101521968841557
184,25400.0,-3.907935619354248,-8.35097599029541,2.9101521968841557
185,25500.0,-1.9889830350875852,-6.616974830627441,5.728127479553223
186,25600.0,-3.6373908519744873,-6.452373504638673,6.1752448081970215
187,25700.0,-3.6373908519744873,-6.452373504638673,6.1752448081970215
188,25800.0,-2.880823135375977,-7.675810813903809,6.2380924224853525
189,25900.0,-2.880823135375977,-7.675810813903809,6.2380924224853525
190,26000.0,-2.6629507541656494,-7.259818077087402,0.11971008777618407
191,26100.0,-2.6629507541656494,-7.259818077087402,0.11971008777618407
192,26200.0,-4.264671802520752,-9.5408935546875,2.987365245819092
193,26300.0,-4.264671802520752,-9.5408935546875,2.987365245819092
194,26400.0,-2.9658174514770512,-8.287528991699219,0.7673416733741759
195,26500.0,-4.5423994064331055,-8.324040412902832,1.134851574897766
196,26600.0,-4.5423994064331055,-8.324040412902832,1.134851574897766
197,26700.0,-4.513070106506348,-9.161413192749023,-0.4734533727169037
198,26800.0,-4.513070106506348,-9.161413192749023,-0.4734533727169037
199,26900.0,-4.829703330993652,-12.732364654541016,-0.4435258507728577
200,27000.0,-4.829703330993652,-12.732364654541016,-0.4435258507728577
201,27100.0,-3.1968579292297363,-10.098742485046387,2.717418909072876
202,27200.0,-3.1968579292297363,-10.098742485046387,2.717418909072876
203,27300.0,-3.833117008209229,-8.650250434875487,0.872686505317688
204,27400.0,-1.9835960865020752,-6.8551979064941415,5.01405668258667
205,27500.0,-1.9835960865020752,-6.8551979064941415,5.01405668258667
206,27600.0,-2.5276784896850586,-5.063736438751222,6.898892402648926
207,27700.0,-2.5276784896850586,-5.063736438751222,6.898892402648926
208,27800.0,-2.680907249450684,-8.726266860961914,4.886565685272217
209,27900.0,-2.680907249450684,-8.726266860961914,4.886565685272217
210,28000.0,-2.1577742099761963,-8.191162109375,8.237251281738281
211,28100.0,-2.1577742099761963,-8.191162109375,8.237251281738281
212,28200.0,-2.3020248413085938,-8.009801864624022,3.450643301010132
213,28300.0,-2.7269957065582275,-7.611167430877685,1.1534066200256348
214,28400.0,-2.7269957065582275,-7.611167430877685,1.1534066200256348
215,28500.0,-3.6930561065673833,-9.147047996520996,1.4730325937271118
216,28600.0,-3.6930561065673833,-9.147047996520996,1.4730325937271118
217,28700.0,-2.4899697303771973,-8.552088737487793,1.0438719987869265
218,28800.0,-2.4899697303771973,-8.552088737487793,1.0438719987869265
219,28900.0,-3.971382141113281,-8.421006202697754,2.284667015075684
220,29000.0,-3.971382141113281,-8.421006202697754,2.284667015075684
221,29100.0,-1.9584569931030276,-11.769895553588867,1.432929754257202
222,29200.0,-4.8291049003601065,-9.625288963317873,1.6561890840530396
223,29300.0,-4.8291049003601065,-9.625288963317873,1.6561890840530396
224,29400.0,-3.681085109710693,-9.38048267364502,3.957615375518799
225,29500.0,-3.681085109710693,-9.38048267364502,3.957615375518799
226,29600.0,-2.759916067123413,-6.400299549102782,5.146934986114502
227,29700.0,-2.759916067123413,-6.400299549102782,5.146934986114502
228,29800.0,-3.437475204467773,-5.318718910217285,5.551555156707764
229,29900.0,-3.437475204467773,-5.318718910217285,5.551555156707764
230,30000.0,-2.6378116607666016,-5.771821975708008,4.906916618347168
231,30100.0,-3.6361937522888175,-8.316858291625978,2.319981336593628
232,30200.0,-3.6361937522888175,-8.316858291625978,2.319981336593628
233,30300.0,-2.4235305786132812,-9.080608367919922,1.016338586807251
234,30400.0,-2.4235305786132812,-9.080608367919922,1.016338586807251
235,30500.0,-2.3301568031311035,-7.484274387359619,0.2513911724090576
236,30600.0,-2.3301568031311035,-7.484274387359619,0.2513911724090576
237,30700.0,-4.449624061584473,-8.052897453308105,1.080383539199829
238,30800.0,-4.449624061584473,-8.052897453308105,1.080383539199829
239,30900.0,-4.593276023864746,-8.51258373260498,0.2992752194404602
240,31000.0,-5.082890033721924,-11.59332275390625,1.0737994909286501
241,31100.0,-5.082890033721924,-11.59332275390625,1.0737994909286501
242,31200.0,-2.7066450119018555,-9.028534889221193,1.3628993034362793
243,31300.0,-2.7066450119018555,-9.028534889221193,1.3628993034362793
244,31400.0,-2.4588451385498047,-8.447940826416017,3.318363666534424
245,31500.0,-2.4588451385498047,-8.447940826416017,3.318363666534424
246,31600.0,-2.1248540878295903,-7.868544101715088,3.178901195526123
247,31700.0,-2.1248540878295903,-7.868544101715088,3.178901195526123
248,31800.0,-3.2088289260864262,-6.229712963104247,5.8867435455322275
249,31900.0,-3.123834609985352,-4.8476600646972665,5.8382606506347665
250,32000.0,-3.123834609985352,-4.8476600646972665,5.8382606506347665
251,32100.0,-6.8043212890625,-11.118074417114258,7.7655930519104
252,32200.0,-6.8043212890625,-11.118074417114258,7.7655930519104
253,32300.0,-3.2375593185424805,-8.790311813354492,5.295974254608153
254,32400.0,-3.2375593185424805,-8.790311813354492,5.295974254608153
255,32500.0,-1.0899603366851809,-5.814318656921388,1.4107834100723269
256,32600.0,-1.0899603366851809,-5.814318656921388,1.4107834100723269
257,32700.0,-2.380434989929199,-8.842385292053223,1.591545581817627
258,32800.0,-3.909132719039917,-8.556278228759767,1.5939397811889648
259,32900.0,-3.909132719039917,-8.556278228759767,1.5939397811889648
260,33000.0,-3.983951568603516,-8.130708694458008,0.6655880808830261
261,33100.0,-3.983951568603516,-8.130708694458008,0.6655880808830261
262,33200.0,-4.3616371154785165,-10.053253173828123,-0.3872621357440949
263,33300.0,-4.3616371154785165,-10.053253173828123,-0.3872621357440949
264,33400.0,-2.96162748336792,-10.183736801147461,-0.6320692300796509
265,33500.0,-2.96162748336792,-10.183736801147461,-0.6320692300796509
266,33600.0,-4.196436882019043,-6.991068840026856,0.16579847037792206
267,33700.0,-2.58813214302063,-8.301894187927246,2.9077579975128174
268,33800.0,-2.58813214302063,-8.301894187927246,2.9077579975128174
269,33900.0,-2.1027076244354252,-6.809109687805176,4.954800605773926
270,34000.0,-2.1027076244354252,-6.809109687805176,4.954800605773926
271,34100.0,-3.437475204467773,-5.963357925415039,6.448183536529541
272,34200.0,-3.437475204467773,-5.963357925415039,6.448183536529541
273,34300.0,-4.626196384429932,-9.214683532714844,6.815094947814941
274,34400.0,-4.626196384429932,-9.214683532714844,6.815094947814941
275,34500.0,-1.9626468420028689,-6.022614479064941,3.658938646316528
276,34600.0,-1.6400281190872192,-7.687182903289795,2.3020248413085938
277,34700.0,-1.6400281190872192,-7.687182903289795,2.3020248413085938
278,34800.0,-3.0394389629364014,-9.781511306762695,1.8656816482543943
279,34900.0,-3.0394389629364014,-9.781511306762695,1.8656816482543943
280,35000.0,-3.9935283660888667,-7.987655639648437,0.09397241473197936
281,35100.0,-3.9935283660888667,-7.987655639648437,0.09397241473197936
282,35200.0,-4.337695121765137,-8.957905769348145,0.6105214357376099
283,35300.0,-4.337695121765137,-8.957905769348145,0.6105214357376099
284,35400.0,-4.095282077789307,-11.298237800598145,1.2443863153457642
285,35500.0,-2.389413356781006,-10.159794807434082,1.9470845460891724
286,35600.0,-2.389413356781006,-10.159794807434082,1.9470845460891724
287,35700.0,-1.7549498081207275,-8.739435195922853,3.84269380569458
288,35800.0,-1.7549498081207275,-8.739435195922853,3.84269380569458
289,35900.0,-1.8429367542266848,-7.0593037605285645,3.9480385780334473
290,36000.0,-1.8429367542266848,-7.0593037605285645,3.9480385780334473
291,36100.0,-2.7240030765533447,-5.783792972564697,5.919663906097412
292,36200.0,-2.7240030765533447,-5.783792972564697,5.919663906097412
293,36300.0,-2.4672248363494877,-6.04655647277832,6.093842029571532
294,36400.0,-3.9228994846344,-11.109694480895996,5.179855346679688
295,36500.0,-3.9228994846344,-11.109694480895996,5.179855346679688
296,36600.0,-3.292625904083252,-9.044695854187012,1.742978811264038
297,36700.0,-3.292625904083252,-9.044695854187012,1.742978811264038
298,36800.0,-5.036203384399414,-8.483853340148926,1.7387889623641968
299,36900.0,-5.036203384399414,-8.483853340148926,1.7387889623641968
300,37000.0,-3.6355953216552734,-8.582015991210938,0.5961562395095825
301,37100.0,-3.6355953216552734,-8.582015991210938,0.5961562395095825
302,37200.0,-4.110245704650879,-8.557475090026855,1.116895079612732
303,37300.0,-4.150348663330078,-8.415019989013674,-0.689530074596405
304,37400.0,-4.150348663330078,-8.415019989013674,-0.689530074596405
305,37500.0,-4.765059947967528,-10.271124839782717,0.8852560520172119
306,37600.0,-4.765059947967528,-10.271124839782717,0.8852560520172119
307,37700.0,-2.086546897888184,-9.255983352661133,0.07302315533161162
308,37800.0,-2.086546897888184,-9.255983352661133,0.07302315533161162
309,37900.0,-2.663549423217773,-7.673416614532472,0.4417302012443543
310,38000.0,-2.663549423217773,-7.673416614532472,0.4417302012443543
311,38100.0,-2.0727801322937007,-7.3220672607421875,3.3692402839660645
312,38200.0,-2.218826532363892,-5.500678539276123,5.190030574798584
313,38300.0,-2.218826532363892,-5.500678539276123,5.190030574798584
314,38400.0,-3.3393127918243413,-5.884349346160889,6.606201171875
315,38500.0,-3.3393127918243413,-5.884349346160889,6.606201171875
316,38600.0,-5.096058368682861,-7.668628215789795,7.603385925292969
317,38700.0,-5.096058368682861,-7.668628215789795,7.603385925292969
318,38800.0,-3.5476083755493164,-8.970475196838379,1.7932571172714231
319,38900.0,-3.5476083755493164,-8.970475196838379,1.7932571172714231
320,39000.0,-3.0585925579071045,-8.12053394317627,1.756745457649231
321,39100.0,-2.3570916652679443,-8.582015991210938,1.4472949504852295
322,39200.0,-2.3570916652679443,-8.582015991210938,1.4472949504852295
323,39300.0,-3.5140895843505864,-8.382699012756348,1.0079588890075684
324,39400.0,-3.5140895843505864,-8.382699012756348,1.0079588890075684
325,39500.0,-5.3995232582092285,-8.564658164978027,-3.7343561649322514
326,39600.0,-5.3995232582092285,-8.564658164978027,-3.7343561649322514
327,39700.0,-2.0356700420379643,-8.635885238647461,-1.486799240112305
328,39800.0,-2.0356700420379643,-8.635885238647461,-1.486799240112305
329,39900.0,-3.112462282180786,-8.933364868164062,1.234210968017578
330,40000.0,-2.9448680877685547,-8.33481502532959,2.3810336589813232
331,40100.0,-2.9448680877685547,-8.33481502532959,2.3810336589813232
332,40200.0,-2.9191303253173833,-8.08043098449707,3.380014181137085
333,40300.0,-2.9191303253173833,-8.08043098449707,3.380014181137085
334,40400.0,-2.0991163253784184,-13.372215270996096,2.6186580657958984
335,40500.0,-2.0991163253784184,-13.372215270996096,2.6186580657958984
336,40600.0,-3.7415387630462646,-8.631096839904785,1.5209165811538696
337,40700.0,-3.7415387630462646,-8.631096839904785,1.5209165811538696
338,40800.0,-2.676717519760132,-9.045293807983398,0.2974795699119568
339,40900.0,-2.676717519760132,-9.045293807983398,0.2974795699119568
340,41000.0,-2.8359320163726807,-9.171587944030762,0.8146271109580994
341,41100.0,-4.107851505279541,-8.780136108398438,0.019153613597154617
342,41200.0,-4.107851505279541,-8.780136108398438,0.019153613597154617
343,41300.0,-4.638167381286621,-9.469666481018066,-0.09516951441764833
344,41400.0,-4.638167381286621,-9.469666481018066,-0.09516951441764833
345,41500.0,-4.04201078414917,-11.407174110412598,-0.4878185987472534
346,41600.0,-4.04201078414917,-11.407174110412598,-0.4878185987472534
347,41700.0,-2.85987401008606,-8.432378768920897,-1.3521254062652588
348,41800.0,-2.85987401008606,-8.432378768920897,-1.3521254062652588
349,41900.0,-2.694674015045166,-8.561665534973145,1.2108675241470337
350,42000.0,-2.6659436225891118,-7.741651058197021,3.833117008209229
351,42100.0,-2.6659436225891118,-7.741651058197021,3.833117008209229
352,42200.0,-2.6533739566802983,-6.363189697265625,5.7778072357177725
353,42300.0,-2.6533739566802983,-6.363189697265625,5.7778072357177725
354,42400.0,-2.4887726306915283,-6.479907035827638,5.891531944274902
355,42500.0,-2.4887726306915283,-6.479907035827638,5.891531944274902
356,42600.0,-3.7876269817352295,-8.965686798095703,5.972336292266847
357,42700.0,-3.7876269817352295,-8.965686798095703,5.972336292266847
358,42800.0,-2.349310398101806,-7.8751277923583975,1.304241418838501
359,42900.0,-3.231573820114136,-8.826224327087402,1.8154034614562988
360,43000.0,-3.231573820114136,-8.826224327087402,1.8154034614562988
361,43100.0,-3.0771477222442627,-8.320449829101562,1.300650119781494
362,43200.0,-3.0771477222442627,-8.320449829101562,1.300650119781494
363,43300.0,-3.9857473373413086,-8.330624580383299,0.8403648138046265
364,43400.0,-3.9857473373413086,-8.330624580383299,0.8403648138046265
365,43500.0,-4.04081392288208,-8.819042205810547,0.7457938194274902
366,43600.0,-4.04081392288208,-8.819042205810547,0.7457938194274902
367,43700.0,-5.112817764282227,-12.12543487548828,0.6590040326118469
368,43800.0,-2.7305870056152344,-9.295488357543944,1.0564415454864502
369,43900.0,-2.7305870056152344,-9.295488357543944,1.0564415454864502
370,44000.0,-2.014720678329468,-8.028955459594728,1.777096152305603
371,44100.0,-2.014720678329468,-8.028955459594728,1.777096152305603
372,44200.0,-3.5458126068115234,-7.565078735351562,4.171298027038573
373,44300.0,-3.5458126068115234,-7.565078735351562,4.171298027038573
374,44400.0,-2.8119897842407227,-5.56053352355957,6.120776653289795
375,44500.0,-6.007051944732666,-10.745776176452637,7.379528045654298
376,44600.0,-6.007051944732666,-10.745776176452637,7.379528045654298
377,44700.0,-2.0811598300933842,-7.205349922180176,1.7519570589065552
378,44800.0,-2.0811598300933842,-7.205349922180176,1.7519570589065552
379,44900.0,-2.1362264156341557,-7.305906295776367,0.6835445761680603
380,45000.0,-2.1362264156341557,-7.305906295776367,0.6835445761680603
381,45100.0,-3.5703532695770264,-8.876502990722656,0.3106476664543152
382,45200.0,-3.5703532695770264,-8.876502990722656,0.3106476664543152
383,45300.0,-4.4508209228515625,-7.52198314666748,0.6021417379379272
384,45400.0,-4.4508209228515625,-7.52198314666748,0.6021417379379272
385,45500.0,-4.282029628753662,-9.63726043701172,-0.5781996846199036
386,45600.0,-4.1371803283691415,-12.387001037597654,-0.33937808871269226
387,45700.0,-4.1371803283691415,-12.387001037597654,-0.33937808871269226
388,45800.0,-2.1978771686553955,-8.96149730682373,-0.17836803197860718
389,45900.0,-2.1978771686553955,-8.96149730682373,-0.17836803197860718
390,46000.0,-0.8529343605041504,-7.311892032623291,1.4131776094436646
391,46100.0,-0.8529343605041504,-7.311892032623291,1.4131776094436646
392,46200.0,-2.674921751022339,-7.971494674682617,4.902726650238037
393,46300.0,-2.674921751022339,-7.971494674682617,4.902726650238037
394,46400.0,-2.1493945121765137,-5.808333396911621,5.9974751472473145
395,46500.0,-1.9638439416885376,-7.9655089378356925,7.0353617668151855
396,46600.0,-1.9638439416885376,-7.9655089378356925,7.0353617668151855
397,46700.0,-3.289034605026245,-11.17852783203125,2.381632089614868
398,46800.0,-3.289034605026245,-11.17852783203125,2.381632089614868
399,46900.0,-0.5117605924606323,-6.368576526641847,1.9506758451461792
400,47000.0,-0.5117605924606323,-6.368576526641847,1.9506758451461792
401,47100.0,-2.682703018188477,-8.951321601867676,1.1558008193969729
402,47200.0,-2.682703018188477,-8.951321601867676,1.1558008193969729
403,47300.0,-4.069544315338135,-8.233060836791992,0.7116764783859253
404,47400.0,-3.6092591285705566,-9.646238327026367,0.4171896576881409
405,47500.0,-3.6092591285705566,-9.646238327026367,0.4171896576881409
406,47600.0,-3.8756139278411865,-10.858901977539064,-0.5333084464073181
407,47700.0,-3.8756139278411865,-10.858901977539064,-0.5333084464073181
408,47800.0,-4.564545631408691,-8.867524147033691,0.6368576288223267
409,47900.0,-4.564545631408691,-8.867524147033691,0.6368576288223267
410,48000.0,-2.8987796306610107,-7.0150108337402335,1.1641805171966553
411,48100.0,-2.8987796306610107,-7.0150108337402335,1.1641805171966553
412,48200.0,-2.1805191040039062,-6.505644798278809,4.780622005462647
413,48300.0,-2.964620351791382,-5.819107055664063,6.33565616607666
414,48400.0,-2.964620351791382,-5.819107055664063,6.33565616607666
415,48500.0,-2.813785552978516,-8.905831336975098,6.733692169189452
416,48600.0,-2.813785552978516,-8.905831336975098,6.733692169189452
417,48700.0,-3.098097085952759,-7.731475830078125,1.1965023279190063
418,48800.0,-3.098097085952759,-7.731475830078125,1.1965023279190063
419,48900.0,-3.4691982269287114,-7.955333709716798,0.6643909811973572
420,49000.0,-3.4691982269287114,-7.955333709716798,0.6643909811973572
421,49100.0,-4.599261283874512,-8.06666374206543,1.857301950454712
422,49200.0,-3.955819845199585,-8.351573944091799,0.21368250250816345
423,49300.0,-3.955819845199585,-8.351573944091799,0.21368250250816345
424,49400.0,-4.503493309020996,-10.350133895874023,0.050876785069704056
425,49500.0,-4.503493309020996,-10.350133895874023,0.050876785069704056
426,49600.0,-3.778050184249878,-10.803236961364746,-1.4472949504852295
427,49700.0,-3.778050184249878,-10.803236961364746,-1.4472949504852295
428,49800.0,-4.0060977935791025,-8.561665534973145,-0.9307458996772766
429,49900.0,-4.0060977935791025,-8.561665534973145,-0.9307458996772766
430,50000.0,-2.499546527862549,-6.8162922859191895,1.3437457084655762
431,50100.0,-3.3686418533325195,-7.022193431854247,2.1098902225494385
432,50200.0,-3.3686418533325195,-7.022193431854247,2.1098902225494385
433,50300.0,-3.866635799407959,-9.956886291503906,4.648941040039063
434,50400.0,-3.866635799407959,-9.956886291503906,4.648941040039063
435,50500.0,-2.847304344177246,-6.36498498916626,3.0514099597930913
436,50600.0,-2.847304344177246,-6.36498498916626,3.0514099597930913
437,50700.0,-8.644864082336426,-18.25698471069336,4.867412090301514
438,50800.0,-8.644864082336426,-18.25698471069336,4.867412090301514
439,50900.0,0.03770867735147476,-9.894038200378418,2.8353333473205566
440,51000.0,-3.797802448272705,-10.1753568649292,0.9271546006202698
441,51100.0,-3.797802448272705,-10.1753568649292,0.9271546006202698
442,51200.0,-3.5936968326568604,-8.510788917541504,-0.3321954905986786
443,51300.0,-3.5936968326568604,-8.510788917541504,-0.3321954905986786
444,51400.0,-4.768052577972412,-8.57004451751709,1.5717934370040894
445,51500.0,-4.768052577972412,-8.57004451751709,1.5717934370040894
446,51600.0,-4.440047264099121,-8.983643531799316,0.518943190574646
447,51700.0,-4.440047264099121,-8.983643531799316,0.518943190574646
448,51800.0,-4.7195701599121085,-9.146449089050293,-0.6913257241249084
449,51900.0,-5.507262229919434,-11.601104736328125,-1.6017209291458132
450,52000.0,-5.507262229919434,-11.601104736328125,-1.6017209291458132
451,52100.0,-2.44747257232666,-8.456320762634277,-1.6196774244308472
452,52200.0,-2.44747257232666,-8.456320762634277,-1.6196774244308472
453,52300.0,-4.124012470245361,-7.800907611846924,1.9494787454605105
454,52400.0,-4.124012470245361,-7.800907611846924,1.9494787454605105
455,52500.0,-2.1487960815429688,-6.888118267059326,3.97257924079895
456,52600.0,-2.1487960815429688,-6.888118267059326,3.97257924079895
457,52700.0,-3.1639375686645512,-5.282207489013672,5.383362293243408
458,52800.0,-2.2361843585968018,-9.723451614379883,5.887940406799316
459,52900.0,-2.2361843585968018,-9.723451614379883,5.887940406799316
460,53000.0,-3.09151291847229,-9.201516151428224,1.12467622756958
461,53100.0,-3.09151291847229,-9.201516151428224,1.12467622756958
462,53200.0,-2.8209681510925293,-9.837775230407717,2.1966800689697266
463,53300.0,-2.8209681510925293,-9.837775230407717,2.1966800689697266
464,53400.0,-4.214393615722656,-7.881113529205322,0.8858546018600464
465,53500.0,-4.214393615722656,-7.881113529205322,0.8858546018600464
466,53600.0,-4.447229862213135,-8.851962089538574,1.2258312702178955
467,53700.0,-4.533421039581299,-9.724050521850586,-0.3758896589279175
468,53800.0,-4.533421039581299,-9.724050521850586,-0.3758896589279175
469,53900.0,-2.65097975730896,-10.18912410736084,0.03770867735147476
470,54000.0,-2.65097975730896,-10.18912410736084,0.03770867735147476
471,54100.0,-1.0031704902648926,-8.665214538574219,-0.32022446393966675
472,54200.0,-1.0031704902648926,-8.665214538574219,-0.32022446393966675
473,54300.0,-3.06876802444458,-8.58620548248291,2.720411777496338
474,54400.0,-3.06876802444458,-8.58620548248291,2.720411777496338
475,54500.0,-1.7208324670791626,-6.818686485290527,4.377199172973634
476,54600.0,-2.0207061767578125,-6.236895561218263,5.748478412628174
477,54700.0,-2.0207061767578125,-6.236895561218263,5.748478412628174
478,54800.0,-5.0236334800720215,-12.6551513671875,7.163451671600343
479,54900.0,-5.0236334800720215,-12.6551513671875,7.163451671600343
480,55000.0,-1.614290475845337,-7.261613845825195,3.745130062103272
481,55100.0,-1.614290475845337,-7.261613845825195,3.745130062103272
482,55200.0,-1.0307037830352783,-7.190386295318604,0.7170634269714355
483,55300.0,-1.0307037830352783,-7.190386295318604,0.7170634269714355
484,55400.0,-2.174533605575561,-8.29830265045166,0.5368997454643251
485,55500.0,-3.0250737667083736,-8.472481727600098,0.760757565498352
486,55600.0,-3.0250737667083736,-8.472481727600098,0.760757565498352
487,55700.0,-4.173692226409912,-8.226476669311522,0.6991068720817566
488,55800.0,-4.173692226409912,-8.226476669311522,0.6991068720817566
489,55900.0,-3.5494039058685303,-9.068038940429688,0.6111199855804443
490,56000.0,-3.5494039058685303,-9.068038940429688,0.6111199855804443
491,56100.0,-3.725976467132568,-12.163742065429688,-0.12749123573303225
492,56200.0,-3.725976467132568,-12.163742065429688,-0.12749123573303225
493,56300.0,-2.980781078338623,-9.297882080078123,0.7511807680130005
494,56400.0,-2.5270798206329346,-7.860164165496826,1.4622586965560913
495,56500.0,-2.5270798206329346,-7.860164165496826,1.4622586965560913
496,56600.0,-2.366069793701172,-7.219715118408202,4.000112533569337
497,56700.0,-2.366069793701172,-7.219715118408202,4.000112533569337
498,56800.0,-2.5228900909423833,-5.989694118499756,6.0399723052978525
499,56900.0,-2.5228900909423833,-5.989694118499756,6.0399723052978525
500,57000.0,-3.0059201717376713,-6.586448669433594,5.530007362365723
501,57100.0,-3.0059201717376713,-6.586448669433594,5.530007362365723
502,57200.0,-3.4620156288146973,-9.346364974975586,6.53257942199707
503,57300.0,-4.3586440086364755,-9.067440032958984,1.268328309059143
504,57400.0,-4.3586440086364755,-9.067440032958984,1.268328309059143
505,57500.0,-3.1495723724365234,-7.88470458984375,1.7896658182144165
506,57600.0,-3.1495723724365234,-7.88470458984375,1.7896658182144165
507,57700.0,-3.7415387630462646,-9.115922927856444,0.5841852426528931
508,57800.0,-3.7415387630462646,-9.115922927856444,0.5841852426528931
509,57900.0,-4.550180435180664,-8.13908863067627,0.7386112213134766
510,58000.0,-4.550180435180664,-8.13908863067627,0.7386112213134766
511,58100.0,-4.25629186630249,-9.20091724395752,0.3369838893413544
512,58200.0,-4.260481834411621,-12.333131790161133,-0.21428105235099792
513,58300.0,-4.260481834411621,-12.333131790161133,-0.21428105235099792
514,58400.0,-0.8667010068893433,-9.553462982177734,0.8948329091072083
515,58500.0,-0.8667010068893433,-9.553462982177734,0.8948329091072083
516,58600.0,-2.230797529220581,-8.127118110656737,1.6735470294952393
517,58700.0,-2.230797529220581,-8.127118110656737,1.6735470294952393
518,58800.0,-2.768295764923096,-7.5878238677978525,4.422688961029053
519,58900.0,-2.768295764923096,-7.5878238677978525,4.422688961029053
520,59000.0,-2.052429437637329,-6.295553207397461,5.93402910232544
521,59100.0,-2.609081268310547,-5.959766387939452,5.683236122131348
522,59200.0,-2.609081268310547,-5.959766387939452,5.683236122131348
523,59300.0,-2.367266893386841,-8.3521728515625,6.069900035858153
524,59400.0,-2.367266893386841,-8.3521728515625,6.069900035858153
525,59500.0,-3.6379895210266113,-9.548076629638672,3.211223125457764
526,59600.0,-3.6379895210266113,-9.548076629638672,3.211223125457764
527,59700.0,-1.5101426839828491,-8.751405715942383,2.5091233253479004
528,59800.0,-1.5101426839828491,-8.751405715942383,2.5091233253479004
529,59900.0,-2.873042106628418,-8.636484146118164,0.7050924301147461
530,60000.0,-4.1641154289245605,-8.199542045593263,0.5710170865058899
531,60100.0,-4.1641154289245605,-8.199542045593263,0.5710170865058899
532,60200.0,-4.4957122802734375,-8.667608261108397,0.9660604000091552
533,60300.0,-4.4957122802734375,-8.667608261108397,0.9660604000091552
534,60400.0,-4.636970043182373,-9.66539192199707,-0.18076223134994507
535,60500.0,-4.636970043182373,-9.66539192199707,-0.18076223134994507
536,60600.0,-2.977189779281616,-11.150395393371582,-1.4119805097579956
537,60700.0,-2.977189779281616,-11.150395393371582,-1.4119805097579956
538,60800.0,-2.5558102130889893,-8.294113159179688,-0.8038532137870789
539,60900.0,-3.3476924896240234,-8.705916404724121,1.8531121015548704
540,61000.0,-3.3476924896240234,-8.705916404724121,1.8531121015548704
541,61100.0,-3.0382418632507324,-8.271966934204103,2.691681146621704
542,61200.0,-3.0382418632507324,-8.271966934204103,2.691681146621704
543,61300.0,-2.9508535861968994,-8.473678588867188,3.290830135345459
544,61400.0,-2.9508535861968994,-8.473678588867188,3.290830135345459
545,61500.0,0.14844051003456116,-7.9212164878845215,2.631227731704712
546,61600.0,0.14844051003456116,-7.9212164878845215,2.631227731704712
547,61700.0,-0.3609259128570557,-6.203975200653076,0.07242459803819656
548,61800.0,-1.3072341680526731,-8.555679321289062,0.4656722247600555
549,61900.0,-1.3072341680526731,-8.555679321289062,0.4656722247600555
550,62000.0,-2.720411777496338,-8.553884506225586,0.02274491637945175
551,62100.0,-2.720411777496338,-8.553884506225586,0.02274491637945175
552,62200.0,-3.0921115875244136,-8.752004623413086,0.6009446382522583
553,62300.0,-3.0921115875244136,-8.752004623413086,0.6009446382522583
554,62400.0,-3.26150131225586,-8.863933563232422,0.08379705995321274
555,62500.0,-3.26150131225586,-8.863933563232422,0.08379705995321274
556,62600.0,-2.3600842952728267,-10.864887237548828,0.12689268589019775
557,62700.0,-2.3600842952728267,-10.864887237548828,0.12689268589019775
558,62800.0,-3.569754838943481,-10.712855339050293,1.9279309511184688
559,62900.0,-1.778891921043396,-8.03075122833252,1.6932991743087769
560,63000.0,-1.778891921043396,-8.03075122833252,1.6932991743087769
561,63100.0,-2.6138696670532227,-9.328408241271973,3.179499864578247
562,63200.0,-2.6138696670532227,-9.328408241271973,3.179499864578247
563,63300.0,-3.806182146072388,-8.708909034729004,3.4171242713928223
564,63400.0,-3.806182146072388,-8.708909034729004,3.4171242713928223
565,63500.0,-1.4443022012710571,-7.724293231964111,3.5523967742919917
566,63600.0,-1.4443022012710571,-7.724293231964111,3.5523967742919917
567,63700.0,-3.176506996154785,-7.770381450653076,0.3076549172401428
568,63800.0,-2.370858192443848,-8.969876289367676,-0.6051344871520996
569,63900.0,-2.370858192443848,-8.969876289367676,-0.6051344871520996
570,64000.0,-4.153939723968507,-7.7823524475097665,-0.4501099288463593
571,64100.0,-4.153939723968507,-7.7823524475097665,-0.4501099288463593
572,64200.0,-3.824138641357422,-8.936956405639648,0.2286462634801865
573,64300.0,-3.824138641357422,-8.936956405639648,0.2286462634801865
574,64400.0,-5.438429355621338,-9.191340446472168,-1.1803414821624756
575,64500.0,-5.438429355621338,-9.191340446472168,-1.1803414821624756
576,64600.0,-3.61225175857544,-11.820772171020508,-1.9572598934173584
577,64700.0,-1.390432596206665,-9.708487510681152,0.1256955862045288
578,64800.0,-1.390432596206665,-9.708487510681152,0.1256955862045288
579,64900.0,-4.443638324737549,-8.312667846679688,1.6328455209732056
580,65000.0,-4.443638324737549,-8.312667846679688,1.6328455209732056
581,65100.0,-3.046621561050415,-6.467936038970947,4.1168298721313485
582,65200.0,-3.046621561050415,-6.467936038970947,4.1168298721313485
583,65300.0,-2.673126220703125,-6.078877925872803,5.908291339874268
584,65400.0,-2.673126220703125,-6.078877925872803,5.908291339874268
585,65500.0,-3.4691982269287114,-9.473855972290039,6.235698223114014
586,65600.0,-3.3069911003112797,-9.88625717163086,6.4080810546875
587,65700.0,-3.3069911003112797,-9.88625717163086,6.4080810546875
588,65800.0,-2.551021814346313,-9.102754592895508,2.7210102081298833
589,65900.0,-2.551021814346313,-9.102754592895508,2.7210102081298833
590,66000.0,-1.92134690284729,-8.378508567810059,1.5065513849258425
591,66100.0,-1.92134690284729,-8.378508567810059,1.5065513849258425
592,66200.0,-3.1998505592346187,-8.947132110595703,1.0815806388854978
593,66300.0,-3.912125587463379,-7.9206175804138175,0.702099621295929
594,66400.0,-3.912125587463379,-7.9206175804138175,0.702099621295929
595,66500.0,-3.733159065246582,-8.027159690856934,0.9259575009346008
596,66600.0,-3.733159065246582,-8.027159690856934,0.9259575009346008
597,66700.0,-3.898358821868897,-11.13842487335205,0.7577648162841797
598,66800.0,-3.898358821868897,-11.13842487335205,0.7577648162841797
599,66900.0,-3.0101101398468018,-9.55825138092041,0.3046621680259705
600,67000.0,-3.0101101398468018,-9.55825138092041,0.3046621680259705
601,67100.0,-1.9758149385452268,-9.414599418640137,1.315613865852356
602,67200.0,-1.567603588104248,-7.99064826965332,3.230975151062012
603,67300.0,-1.567603588104248,-7.99064826965332,3.230975151062012
604,67400.0,-3.3261446952819824,-7.599195957183838,4.407126903533936
605,67500.0,-3.3261446952819824,-7.599195957183838,4.407126903533936
606,67600.0,-2.807201385498047,-6.221333026885986,6.664858818054199
607,67700.0,-2.807201385498047,-6.221333026885986,6.664858818054199
608,67800.0,-2.8532898426055913,-11.364676475524902,6.382941722869872
609,67900.0,-2.8532898426055913,-11.364676475524902,6.382941722869872
610,68000.0,-2.3145945072174072,-7.614758491516112,2.583942174911499
611,68100.0,-2.3145945072174072,-7.614758491516112,2.583942174911499
612,68200.0,-2.646191358566284,-6.761225700378418,1.0678139925003052
613,68300.0,-2.959831953048706,-8.451532363891603,0.7733271718025208
614,68400.0,-2.959831953048706,-8.451532363891603,0.7733271718025208
615,68500.0,-4.432265758514403,-8.222287178039549,0.628477931022644
616,68600.0,-4.432265758514403,-8.222287178039549,0.628477931022644
617,68700.0,-3.934272050857544,-8.740033149719237,0.6973112225532532
618,68800.0,-3.934272050857544,-8.740033149719237,0.6973112225532532
619,68900.0,-3.764283657073975,-10.286088943481444,-0.8265981078147888
620,69000.0,-3.764283657073975,-10.286088943481444,-0.8265981078147888
621,69100.0,-4.0527849197387695,-11.174936294555664,-0.5039794445037842
622,69200.0,-2.1984755992889404,-9.043498039245604,-0.7416039705276489
623,69300.0,-2.1984755992889404,-9.043498039245604,-0.7416039705276489
624,69400.0,-1.6172832250595093,-8.052298545837402,1.224035620689392
625,69500.0,-1.6172832250595093,-8.052298545837402,1.224035620689392
626,69600.0,-2.4612393379211426,-6.809109687805176,3.383605480194092
627,69700.0,-2.4612393379211426,-6.809109687805176,3.383605480194092
628,69800.0,-2.7742812633514404,-6.54455041885376,6.406883716583253
629,69900.0,-2.7742812633514404,-6.54455041885376,6.406883716583253
630,70000.0,-4.1192240715026855,-10.736199378967283,6.968324184417725
631,70100.0,-2.760514497756958,-7.692570209503174,1.8842366933822632
632,70200.0,-2.760514497756958,-7.692570209503174,1.8842366933822632
633,70300.0,-1.9201498031616209,-7.898471355438232,0.2825157940387726
634,70400.0,-1.9201498031616209,-7.898471355438232,0.2825157940387726
635,70500.0,-4.185064792633057,-9.410409927368164,1.348534107208252
636,70600.0,-4.185064792633057,-9.410409927368164,1.348534107208252
637,70700.0,-4.064755916595459,-8.541913032531737,0.3423708379268646
638,70800.0,-4.064755916595459,-8.541913032531737,0.3423708379268646
639,70900.0,-5.355829238891602,-11.783661842346193,-0.5015852451324463
640,71000.0,-2.029085874557495,-9.351153373718262,-1.1563993692398071
641,71100.0,-2.029085874557495,-9.351153373718262,-1.1563993692398071
642,71200.0,-2.0362684726715092,-7.8487915992736825,2.0213048458099365
643,71300.0,-2.0362684726715092,-7.8487915992736825,2.0213048458099365
644,71400.0,-2.720411777496338,-7.305307865142822,3.110666513442993
645,71500.0,-2.720411777496338,-7.305307865142822,3.110666513442993
646,71600.0,-2.319382905960083,-5.7748146057128915,5.720346450805664
647,71700.0,-2.319382905960083,-5.7748146057128915,5.720346450805664
648,71800.0,-2.9107506275177,-5.659893035888673,6.2614359855651855
649,71900.0,-4.134786128997804,-8.181585311889647,6.738480567932129
650,72000.0,-4.134786128997804,-8.181585311889647,6.738480567932129
651,72100.0,-1.8507179021835327,-7.272387504577638,2.7012581825256348
652,72200.0,-1.8507179021835327,-7.272387504577638,2.7012581825256348
653,72300.0,-3.0472202301025386,-8.923788070678711,1.0408791303634644
654,72400.0,-3.0472202301025386,-8.923788070678711,1.0408791303634644
655,72500.0,-3.908534288406372,-8.940547943115234,1.2186486721038818
656,72600.0,-3.908534288406372,-8.940547943115234,1.2186486721038818
657,72700.0,-4.000710964202882,-8.487444877624513,0.3926490843296051
658,72800.0,-4.658517837524414,-8.715493202209473,0.5566518902778625
659,72900.0,-4.658517837524414,-8.715493202209473,0.5566518902778625
660,73000.0,-5.078101634979248,-11.15997314453125,0.8086416125297546
661,73100.0,-5.078101634979248,-11.15997314453125,0.8086416125297546
662,73200.0,-2.2260091304779053,-9.68813705444336,-0.3603273630142212
663,73300.0,-2.2260091304779053,-9.68813705444336,-0.3603273630142212
664,73400.0,-2.741959571838379,-9.208698272705078,0.9397241473197936
665,73500.0,-2.741959571838379,-9.208698272705078,0.9397241473197936
666,73600.0,-2.531269788742065,-8.699930191040039,1.7950527667999268
667,73700.0,-1.895010590553284,-8.951321601867676,2.1104888916015625
668,73800.0,-1.895010590553284,-8.951321601867676,2.1104888916015625
669,73900.0,-3.1531636714935303,-8.868123054504395,3.075352191925049
670,74000.0,-3.1531636714935303,-8.868123054504395,3.075352191925049
