,timestamp,ax,ay,az
0,0.0,-1.668160080909729,-9.198522567749023,1.9315222501754759
1,50.0,-1.668160080909729,-9.198522567749023,1.9315222501754759
2,100.0,-1.668160080909729,-9.198522567749023,1.9315222501754759
3,150.0,-1.668160080909729,-9.198522567749023,1.9315222501754759
4,200.0,-1.367687702178955,-9.299078941345217,1.9919757843017576
5,250.0,-1.367687702178955,-9.299078941345217,1.9919757843017576
6,300.0,-1.367687702178955,-9.299078941345217,1.9919757843017576
7,350.0,-1.367687702178955,-9.299078941345217,1.9919757843017576
8,400.0,-1.8584990501403809,-8.974664688110352,2.0871453285217285
9,450.0,-1.8584990501403809,-8.974664688110352,2.0871453285217285
10,500.0,-1.8584990501403809,-8.974664688110352,2.0871453285217285
11,550.0,-1.5867571830749512,-8.798690795898438,1.3718775510787964
12,600.0,-1.5867571830749512,-8.798690795898438,1.3718775510787964
13,650.0,-1.5867571830749512,-8.798690795898438,1.3718775510787964
14,700.0,-1.5867571830749512,-8.798690795898438,1.3718775510787964
15,750.0,-3.6050691604614262,-10.995969772338867,3.4051532745361333
16,800.0,-3.6050691604614262,-10.995969772338867,3.4051532745361333
17,850.0,-3.6050691604614262,-10.995969772338867,3.4051532745361333
18,900.0,-3.116053581237793,-8.248024940490723,3.5458126068115234
19,950.0,-3.116053581237793,-8.248024940490723,3.5458126068115234
20,1000.0,-3.116053581237793,-8.248024940490723,3.5458126068115234
21,1050.0,-3.116053581237793,-8.248024940490723,3.5458126068115234
22,1100.0,-3.3458969593048096,-6.066906929016112,5.049371242523193
23,1150.0,-3.3458969593048096,-6.066906929016112,5.049371242523193
24,1200.0,-3.3458969593048096,-6.066906929016112,5.049371242523193
25,1250.0,-3.3458969593048096,-6.066906929016112,5.049371242523193
26,1300.0,-5.168482780456543,-5.598840713500977,5.376778602600098
27,1350.0,-5.168482780456543,-5.598840713500977,5.376778602600098
28,1400.0,-5.168482780456543,-5.598840713500977,5.376778602600098
29,1450.0,-5.331887245178223,-7.705738067626952,5.938817501068115
30,1500.0,-5.331887245178223,-7.705738067626952,5.938817501068115
31,1550.0,-5.331887245178223,-7.705738067626952,5.938817501068115
32,1600.0,-5.331887245178223,-7.705738067626952,5.938817501068115
33,1650.0,-4.507683277130127,-8.356362342834473,4.818929672241211
34,1700.0,-4.507683277130127,-8.356362342834473,4.818929672241211
35,1750.0,-4.507683277130127,-8.356362342834473,4.818929672241211
36,1800.0,-4.507683277130127,-8.356362342834473,4.818929672241211
37,1850.0,-3.652354717254639,-8.155848503112793,4.094683647155762
38,1900.0,-3.652354717254639,-8.155848503112793,4.094683647155762
39,1950.0,-3.652354717254639,-8.155848503112793,4.094683647155762
40,2000.0,-2.805405855178833,-9.345766067504883,1.849520802497864
41,2050.0,-2.805405855178833,-9.345766067504883,1.849520802497864
42,2100.0,-2.805405855178833,-9.345766067504883,1.849520802497864
43,2150.0,-2.805405855178833,-9.345766067504883,1.849520802497864
44,2200.0,-3.633799552917481,-7.8080902099609375,0.5566518902778625
45,2250.0,-3.633799552917481,-7.8080902099609375,0.5566518902778625
46,2300.0,-3.633799552917481,-7.8080902099609375,0.5566518902778625
47,2350.0,-2.0374655723571777,-10.034099578857422,0.5237316489219666
48,2400.0,-2.0374655723571777,-10.034099578857422,0.5237316489219666
49,2450.0,-2.0374655723571777,-10.034099578857422,0.5237316489219666
50,2500.0,-2.0374655723571777,-10.034099578857422,0.5237316489219666
51,2550.0,-1.9584569931030276,-8.383296966552733,-0.041299980133771896
52,2600.0,-1.9584569931030276,-8.383296966552733,-0.041299980133771896
53,2650.0,-1.9584569931030276,-8.383296966552733,-0.041299980133771896
54,2700.0,-3.1681272983551025,-10.545860290527344,-0.5823895931243896
55,2750.0,-3.1681272983551025,-10.545860290527344,-0.5823895931243896
56,2800.0,-3.1681272983551025,-10.545860290527344,-0.5823895931243896
57,2850.0,-3.1681272983551025,-10.545860290527344,-0.5823895931243896
58,2900.0,-2.479794502258301,-8.693944931030272,-0.9762357473373412
59,2950.0,-2.479794502258301,-8.693944931030272,-0.9762357473373412
60,3000.0,-2.479794502258301,-8.693944931030272,-0.9762357473373412
61,3050.0,-2.479794502258301,-8.693944931030272,-0.9762357473373412
62,3100.0,-3.3075895309448238,-9.404424667358398,-0.9876081943511964
63,3150.0,-3.3075895309448238,-9.404424667358398,-0.9876081943511964
64,3200.0,-3.3075895309448238,-9.404424667358398,-0.9876081943511964
65,3250.0,-1.9195512533187864,-12.905345916748047,-1.6825252771377563
66,3300.0,-1.9195512533187864,-12.905345916748047,-1.6825252771377563
67,3350.0,-1.9195512533187864,-12.905345916748047,-1.6825252771377563
68,3400.0,-1.9195512533187864,-12.905345916748047,-1.6825252771377563
69,3450.0,-2.1260511875152592,-9.765350341796877,-0.4459200799465179
70,3500.0,-2.1260511875152592,-9.765350341796877,-0.4459200799465179
71,3550.0,-2.1260511875152592,-9.765350341796877,-0.4459200799465179
72,3600.0,-2.1260511875152592,-9.765350341796877,-0.4459200799465179
73,3650.0,-1.4107834100723269,-8.174403190612793,1.0444705486297607
74,3700.0,-1.4107834100723269,-8.174403190612793,1.0444705486297607
75,3750.0,-1.4107834100723269,-8.174403190612793,1.0444705486297607
76,3800.0,-4.57112979888916,-8.8878755569458,3.1298201084136963
77,3850.0,-4.57112979888916,-8.8878755569458,3.1298201084136963
78,3900.0,-4.57112979888916,-8.8878755569458,3.1298201084136963
79,3950.0,-4.57112979888916,-8.8878755569458,3.1298201084136963
80,4000.0,-5.518036365509033,-5.917269706726074,3.8606503009796143
81,4050.0,-5.518036365509033,-5.917269706726074,3.8606503009796143
82,4100.0,-5.518036365509033,-5.917269706726074,3.8606503009796143
83,4150.0,-5.935824394226074,-5.568314552307129,4.4053311347961435
84,4200.0,-5.935824394226074,-5.568314552307129,4.4053311347961435
85,4250.0,-5.935824394226074,-5.568314552307129,4.4053311347961435
86,4300.0,-5.935824394226074,-5.568314552307129,4.4053311347961435
87,4350.0,-6.587646007537843,-7.155670166015625,5.147533416748047
88,4400.0,-6.587646007537843,-7.155670166015625,5.147533416748047
89,4450.0,-6.587646007537843,-7.155670166015625,5.147533416748047
90,4500.0,-6.587646007537843,-7.155670166015625,5.147533416748047
91,4550.0,-5.225943565368652,-7.621342658996582,4.332307815551759
92,4600.0,-5.225943565368652,-7.621342658996582,4.332307815551759
93,4650.0,-5.225943565368652,-7.621342658996582,4.332307815551759
94,4700.0,-5.067926406860352,-9.79288387298584,4.370615005493163
95,4750.0,-5.067926406860352,-9.79288387298584,4.370615005493163
96,4800.0,-5.067926406860352,-9.79288387298584,4.370615005493163
97,4850.0,-5.067926406860352,-9.79288387298584,4.370615005493163
98,4900.0,-3.87202262878418,-8.535927772521973,1.6675615310668943
99,4950.0,-3.87202262878418,-8.535927772521973,1.6675615310668943
100,5000.0,-3.87202262878418,-8.535927772521973,1.6675615310668943
101,5050.0,-2.649782657623291,-8.206725120544434,0.5925649404525757
102,5100.0,-2.649782657623291,-8.206725120544434,0.5925649404525757
103,5150.0,-2.649782657623291,-8.206725120544434,0.5925649404525757
104,5200.0,-2.649782657623291,-8.206725120544434,0.5925649404525757
105,5250.0,-3.28963303565979,-8.35456657409668,0.7846996188163757
106,5300.0,-3.28963303565979,-8.35456657409668,0.7846996188163757
107,5350.0,-3.28963303565979,-8.35456657409668,0.7846996188163757
108,5400.0,-3.28963303565979,-8.35456657409668,0.7846996188163757
109,5450.0,-4.1437644958496085,-9.71507167816162,0.3711012601852417
110,5500.0,-4.1437644958496085,-9.71507167816162,0.3711012601852417
111,5550.0,-4.1437644958496085,-9.71507167816162,0.3711012601852417
112,5600.0,-1.8944120407104488,-9.369708061218262,-0.228047713637352
113,5650.0,-1.8944120407104488,-9.369708061218262,-0.228047713637352
114,5700.0,-1.8944120407104488,-9.369708061218262,-0.228047713637352
115,5750.0,-1.8944120407104488,-9.369708061218262,-0.228047713637352
116,5800.0,-0.9546879529953004,-9.576208114624023,-0.3902548849582672
117,5850.0,-0.9546879529953004,-9.576208114624023,-0.3902548849582672
118,5900.0,-0.9546879529953004,-9.576208114624023,-0.3902548849582672
119,5950.0,-3.5464112758636475,-9.264363288879396,-0.788889467716217
120,6000.0,-3.5464112758636475,-9.264363288879396,-0.788889467716217
121,6050.0,-3.5464112758636475,-9.264363288879396,-0.788889467716217
122,6100.0,-3.5464112758636475,-9.264363288879396,-0.788889467716217
123,6150.0,-2.8125884532928467,-10.705673217773438,-2.2852654457092285
124,6200.0,-2.8125884532928467,-10.705673217773438,-2.2852654457092285
125,6250.0,-2.8125884532928467,-10.705673217773438,-2.2852654457092285
126,6300.0,-2.8125884532928467,-10.705673217773438,-2.2852654457092285
127,6350.0,-1.40180504322052,-8.653841972351074,-1.3976151943206787
128,6400.0,-1.40180504322052,-8.653841972351074,-1.3976151943206787
129,6450.0,-1.40180504322052,-8.653841972351074,-1.3976151943206787
130,6500.0,-2.2421698570251465,-8.196549415588379,0.4938040971755981
131,6550.0,-2.2421698570251465,-8.196549415588379,0.4938040971755981
132,6600.0,-2.2421698570251465,-8.196549415588379,0.4938040971755981
133,6650.0,-2.2421698570251465,-8.196549415588379,0.4938040971755981
134,6700.0,-4.10366153717041,-7.481281757354736,1.7998411655426023
135,6750.0,-4.10366153717041,-7.481281757354736,1.7998411655426023
136,6800.0,-4.10366153717041,-7.481281757354736,1.7998411655426023
137,6850.0,-4.286818027496338,-7.16584587097168,3.421314239501953
138,6900.0,-4.286818027496338,-7.16584587097168,3.421314239501953
139,6950.0,-4.286818027496338,-7.16584587097168,3.421314239501953
140,7000.0,-4.286818027496338,-7.16584587097168,3.421314239501953
141,7050.0,-4.607641220092773,-5.713762283325195,5.909488201141357
142,7100.0,-4.607641220092773,-5.713762283325195,5.909488201141357
143,7150.0,-4.607641220092773,-5.713762283325195,5.909488201141357
144,7200.0,-4.607641220092773,-5.713762283325195,5.909488201141357
145,7250.0,-6.502053260803223,-7.819462776184082,5.9310359954833975
146,7300.0,-6.502053260803223,-7.819462776184082,5.9310359954833975
147,7350.0,-6.502053260803223,-7.819462776184082,5.9310359954833975
148,7400.0,-4.4933180809021,-7.029376029968263,4.912303447723389
149,7450.0,-4.4933180809021,-7.029376029968263,4.912303447723389
150,7500.0,-4.4933180809021,-7.029376029968263,4.912303447723389
151,7550.0,-4.4933180809021,-7.029376029968263,4.912303447723389
152,7600.0,-4.69024133682251,-7.484274387359619,0.9139865040779114
153,7650.0,-4.69024133682251,-7.484274387359619,0.9139865040779114
154,7700.0,-4.69024133682251,-7.484274387359619,0.9139865040779114
155,7750.0,-4.472967147827148,-7.814674377441406,0.8900445103645325
156,7800.0,-4.472967147827148,-7.814674377441406,0.8900445103645325
157,7850.0,-4.472967147827148,-7.814674377441406,0.8900445103645325
158,7900.0,-4.472967147827148,-7.814674377441406,0.8900445103645325
159,7950.0,-4.472967147827148,-7.814674377441406,0.8900445103645325
160,8000.0,-3.5488054752349854,-9.074623107910156,-0.585382342338562
161,8050.0,-3.5488054752349854,-9.074623107910156,-0.585382342338562
162,8100.0,-3.5488054752349854,-9.074623107910156,-0.585382342338562
163,8150.0,-2.992153644561768,-9.402628898620604,0.70090252161026
164,8200.0,-2.992153644561768,-9.402628898620604,0.70090252161026
165,8250.0,-2.992153644561768,-9.402628898620604,0.70090252161026
166,8300.0,-1.2168530225753784,-11.117475509643556,-0.7870938181877136
167,8350.0,-1.2168530225753784,-11.117475509643556,-0.7870938181877136
168,8400.0,-1.2168530225753784,-11.117475509643556,-0.7870938181877136
169,8450.0,-1.2168530225753784,-11.117475509643556,-0.7870938181877136
170,8500.0,-2.4552538394927983,-7.898471355438232,1.2449848651885986
171,8550.0,-2.4552538394927983,-7.898471355438232,1.2449848651885986
172,8600.0,-2.4552538394927983,-7.898471355438232,1.2449848651885986
173,8650.0,-2.427720546722412,-8.225878715515138,0.5446808934211731
174,8700.0,-2.427720546722412,-8.225878715515138,0.5446808934211731
175,8750.0,-2.427720546722412,-8.225878715515138,0.5446808934211731
176,8800.0,-2.427720546722412,-8.225878715515138,0.5446808934211731
177,8850.0,-3.140594005584717,-5.8436479568481445,2.6414029598236084
178,8900.0,-3.140594005584717,-5.8436479568481445,2.6414029598236084
179,8950.0,-3.140594005584717,-5.8436479568481445,2.6414029598236084
180,9000.0,-3.140594005584717,-5.8436479568481445,2.6414029598236084
181,9050.0,-4.428076267242432,-6.165069580078125,3.843292236328125
182,9100.0,-4.428076267242432,-6.165069580078125,3.843292236328125
183,9150.0,-4.428076267242432,-6.165069580078125,3.843292236328125
184,9200.0,-4.993706226348877,-5.614402770996094,5.394136428833008
185,9250.0,-4.993706226348877,-5.614402770996094,5.394136428833008
186,9300.0,-4.993706226348877,-5.614402770996094,5.394136428833008
187,9350.0,-4.993706226348877,-5.614402770996094,5.394136428833008
188,9400.0,-6.376357555389403,-9.701305389404297,3.468001127243042
189,9450.0,-6.376357555389403,-9.701305389404297,3.468001127243042
190,9500.0,-6.376357555389403,-9.701305389404297,3.468001127243042
191,9550.0,-4.155735492706299,-7.520187377929687,0.5590460896492004
192,9600.0,-4.155735492706299,-7.520187377929687,0.5590460896492004
193,9650.0,-4.155735492706299,-7.520187377929687,0.5590460896492004
194,9700.0,-4.155735492706299,-7.520187377929687,0.5590460896492004
195,9750.0,-2.5103204250335693,-7.860762596130371,-0.3711012601852417
196,9800.0,-2.5103204250335693,-7.860762596130371,-0.3711012601852417
197,9850.0,-2.5103204250335693,-7.860762596130371,-0.3711012601852417
198,9900.0,-2.5103204250335693,-7.860762596130371,-0.3711012601852417
199,9950.0,-2.7772738933563232,-8.421604156494139,-0.1388636976480484
200,10000.0,-2.7772738933563232,-8.421604156494139,-0.1388636976480484
201,10050.0,-2.7772738933563232,-8.421604156494139,-0.1388636976480484
202,10100.0,-2.718616008758545,-8.742427825927733,-1.5957354307174685
203,10150.0,-2.718616008758545,-8.742427825927733,-1.5957354307174685
204,10200.0,-2.718616008758545,-8.742427825927733,-1.5957354307174685
205,10250.0,-2.718616008758545,-8.742427825927733,-1.5957354307174685
206,10300.0,-2.0051438808441158,-10.026318550109863,-1.513733983039856
207,10350.0,-2.0051438808441158,-10.026318550109863,-1.513733983039856
208,10400.0,-2.0051438808441158,-10.026318550109863,-1.513733983039856
209,10450.0,-1.6711528301239014,-14.12938117980957,-2.2421698570251465
210,10500.0,-1.6711528301239014,-14.12938117980957,-2.2421698570251465
211,10550.0,-1.6711528301239014,-14.12938117980957,-2.2421698570251465
212,10600.0,-1.6711528301239014,-14.12938117980957,-2.2421698570251465
213,10650.0,-3.2956185340881348,-9.783905029296877,-0.11552023142576218
214,10700.0,-3.2956185340881348,-9.783905029296877,-0.11552023142576218
215,10750.0,-3.2956185340881348,-9.783905029296877,-0.11552023142576218
216,10800.0,-3.2956185340881348,-9.783905029296877,-0.11552023142576218
217,10850.0,-3.2345664501190186,-7.537545680999756,0.8589198589324951
218,10900.0,-3.2345664501190186,-7.537545680999756,0.8589198589324951
219,10950.0,-3.2345664501190186,-7.537545680999756,0.8589198589324951
220,11000.0,-3.892373323440552,-6.718728542327881,3.612850427627564
221,11050.0,-3.892373323440552,-6.718728542327881,3.612850427627564
222,11100.0,-3.892373323440552,-6.718728542327881,3.612850427627564
223,11150.0,-3.892373323440552,-6.718728542327881,3.612850427627564
224,11200.0,-4.886565685272217,-5.316324710845947,4.644152641296387
225,11250.0,-4.886565685272217,-5.316324710845947,4.644152641296387
226,11300.0,-4.886565685272217,-5.316324710845947,4.644152641296387
227,11350.0,-4.471770286560059,-7.249642848968506,5.215768337249756
228,11400.0,-4.471770286560059,-7.249642848968506,5.215768337249756
229,11450.0,-4.471770286560059,-7.249642848968506,5.215768337249756
230,11500.0,-4.471770286560059,-7.249642848968506,5.215768337249756
231,11550.0,-3.661332845687866,-7.621941089630128,4.379593372344972
232,11600.0,-3.661332845687866,-7.621941089630128,4.379593372344972
233,11650.0,-3.661332845687866,-7.621941089630128,4.379593372344972
234,11700.0,-3.661332845687866,-7.621941089630128,4.379593372344972
235,11750.0,-2.211045265197754,-7.647080421447754,0.3519476354122162
236,11800.0,-2.211045265197754,-7.647080421447754,0.3519476354122162
237,11850.0,-2.211045265197754,-7.647080421447754,0.3519476354122162
238,11900.0,-3.1699230670928955,-8.774150848388674,0.010175357572734356
239,11950.0,-3.1699230670928955,-8.774150848388674,0.010175357572734356
240,12000.0,-3.1699230670928955,-8.774150848388674,0.010175357572734356
241,12050.0,-3.1699230670928955,-8.774150848388674,0.010175357572734356
242,12100.0,-0.22685061395168304,-10.599729537963867,-1.137245774269104
243,12150.0,-0.22685061395168304,-10.599729537963867,-1.137245774269104
244,12200.0,-0.22685061395168304,-10.599729537963867,-1.137245774269104
245,12250.0,-2.2804770469665527,-9.623494148254396,-0.4393360018730164
246,12300.0,-2.2804770469665527,-9.623494148254396,-0.4393360018730164
247,12350.0,-2.2804770469665527,-9.623494148254396,-0.4393360018730164
248,12400.0,-2.2804770469665527,-9.623494148254396,-0.4393360018730164
249,12450.0,-2.89997673034668,-10.18493366241455,-1.3365631103515625
250,12500.0,-2.89997673034668,-10.18493366241455,-1.3365631103515625
251,12550.0,-2.89997673034668,-10.18493366241455,-1.3365631103515625
252,12600.0,-2.89997673034668,-10.18493366241455,-1.3365631103515625
253,12650.0,-1.753154158592224,-13.934852600097654,-2.646790027618408
254,12700.0,-1.753154158592224,-13.934852600097654,-2.646790027618408
255,12750.0,-1.753154158592224,-13.934852600097654,-2.646790027618408
256,12800.0,-3.9414546489715576,-10.457274436950684,1.0199298858642578
257,12850.0,-3.9414546489715576,-10.457274436950684,1.0199298858642578
258,12900.0,-3.9414546489715576,-10.457274436950684,1.0199298858642578
259,12950.0,-3.9414546489715576,-10.457274436950684,1.0199298858642578
260,13000.0,-2.3696610927581787,-7.644087314605713,0.6171054840087891
261,13050.0,-2.3696610927581787,-7.644087314605713,0.6171054840087891
262,13100.0,-2.3696610927581787,-7.644087314605713,0.6171054840087891
263,13150.0,-4.015674591064453,-7.592612266540527,3.0819361209869385
264,13200.0,-4.015674591064453,-7.592612266540527,3.0819361209869385
265,13250.0,-4.015674591064453,-7.592612266540527,3.0819361209869385
266,13300.0,-4.015674591064453,-7.592612266540527,3.0819361209869385
267,13350.0,-3.6164417266845694,-6.139331817626952,4.462791919708252
268,13400.0,-3.6164417266845694,-6.139331817626952,4.462791919708252
269,13450.0,-3.6164417266845694,-6.139331817626952,4.462791919708252
270,13500.0,-3.6164417266845694,-6.139331817626952,4.462791919708252
271,13550.0,-5.659294128417969,-7.144896507263184,5.114014625549316
272,13600.0,-5.659294128417969,-7.144896507263184,5.114014625549316
273,13650.0,-5.659294128417969,-7.144896507263184,5.114014625549316
274,13700.0,-6.1752448081970215,-8.233659744262695,4.1371803283691415
275,13750.0,-6.1752448081970215,-8.233659744262695,4.1371803283691415
276,13800.0,-6.1752448081970215,-8.233659744262695,4.1371803283691415
277,13850.0,-6.1752448081970215,-8.233659744262695,4.1371803283691415
278,13900.0,-5.430049419403076,-8.265981674194336,1.807023763656616
279,13950.0,-5.430049419403076,-8.265981674194336,1.807023763656616
280,14000.0,-5.430049419403076,-8.265981674194336,1.807023763656616
281,14050.0,-5.430049419403076,-8.265981674194336,1.807023763656616
282,14100.0,-3.448249101638794,-8.619126319885254,0.08978256583213806
283,14150.0,-3.448249101638794,-8.619126319885254,0.08978256583213806
284,14200.0,-3.448249101638794,-8.619126319885254,0.08978256583213806
285,14250.0,-2.56000018119812,-9.1847562789917,-0.015562310814857485
286,14300.0,-2.56000018119812,-9.1847562789917,-0.015562310814857485
287,14350.0,-2.56000018119812,-9.1847562789917,-0.015562310814857485
288,14400.0,-2.56000018119812,-9.1847562789917,-0.015562310814857485
289,14450.0,-3.052008628845215,-8.85794734954834,-0.639850378036499
290,14500.0,-3.052008628845215,-8.85794734954834,-0.639850378036499
291,14550.0,-3.052008628845215,-8.85794734954834,-0.639850378036499
292,14600.0,-1.3401544094085691,-10.4357271194458,-1.8752584457397459
293,14650.0,-1.3401544094085691,-10.4357271194458,-1.8752584457397459
294,14700.0,-1.3401544094085691,-10.4357271194458,-1.8752584457397459
295,14750.0,-1.3401544094085691,-10.4357271194458,-1.8752584457397459
296,14800.0,-1.0205284357070925,-12.70483112335205,-2.3738510608673096
297,14850.0,-1.0205284357070925,-12.70483112335205,-2.3738510608673096
298,14900.0,-1.0205284357070925,-12.70483112335205,-2.3738510608673096
299,14950.0,-1.0205284357070925,-12.70483112335205,-2.3738510608673096
300,15000.0,-4.932055473327637,-8.590993881225586,-0.9522937536239624
301,15050.0,-4.932055473327637,-8.590993881225586,-0.9522937536239624
302,15100.0,-4.932055473327637,-8.590993881225586,-0.9522937536239624
303,15150.0,-2.4863784313201904,-8.478466987609862,0.7739257216453552
304,15200.0,-2.4863784313201904,-8.478466987609862,0.7739257216453552
305,15250.0,-2.4863784313201904,-8.478466987609862,0.7739257216453552
306,15300.0,-2.4863784313201904,-8.478466987609862,0.7739257216453552
307,15350.0,-4.5154643058776855,-7.184999465942383,3.7187938690185542
308,15400.0,-4.5154643058776855,-7.184999465942383,3.7187938690185542
309,15450.0,-4.5154643058776855,-7.184999465942383,3.7187938690185542
310,15500.0,-4.5394062995910645,-5.74249267578125,4.4741644859313965
311,15550.0,-4.5394062995910645,-5.74249267578125,4.4741644859313965
312,15600.0,-4.5394062995910645,-5.74249267578125,4.4741644859313965
313,15650.0,-4.5394062995910645,-5.74249267578125,4.4741644859313965
314,15700.0,-3.1280245780944824,-4.78122091293335,5.864596843719482
315,15750.0,-3.1280245780944824,-4.78122091293335,5.864596843719482
316,15800.0,-3.1280245780944824,-4.78122091293335,5.864596843719482
317,15850.0,-3.1280245780944824,-4.78122091293335,5.864596843719482
318,15900.0,-5.3995232582092285,-11.748946189880373,4.0743327140808105
319,15950.0,-5.3995232582092285,-11.748946189880373,4.0743327140808105
320,16000.0,-5.3995232582092285,-11.748946189880373,4.0743327140808105
321,16050.0,-2.208052635192871,-7.889492988586426,1.8674772977828982
322,16100.0,-2.208052635192871,-7.889492988586426,1.8674772977828982
323,16150.0,-2.208052635192871,-7.889492988586426,1.8674772977828982
324,16200.0,-2.208052635192871,-7.889492988586426,1.8674772977828982
325,16250.0,-3.164535999298096,-8.866327285766602,1.2503718137741089
326,16300.0,-3.164535999298096,-8.866327285766602,1.2503718137741089
327,16350.0,-3.164535999298096,-8.866327285766602,1.2503718137741089
328,16400.0,-2.9191303253173833,-9.207501411437988,0.7499836683273315
329,16450.0,-2.9191303253173833,-9.207501411437988,0.7499836683273315
330,16500.0,-2.9191303253173833,-9.207501411437988,0.7499836683273315
331,16550.0,-2.9191303253173833,-9.207501411437988,0.7499836683273315
332,16600.0,-2.409165382385254,-8.543109893798826,-0.8319851160049438
333,16650.0,-2.409165382385254,-8.543109893798826,-0.8319851160049438
334,16700.0,-2.409165382385254,-8.543109893798826,-0.8319851160049438
335,16750.0,-2.409165382385254,-8.543109893798826,-0.8319851160049438
336,16800.0,0.10235211998224257,-10.25855541229248,-2.187103271484375
337,16850.0,0.10235211998224257,-10.25855541229248,-2.187103271484375
338,16900.0,0.10235211998224257,-10.25855541229248,-2.187103271484375
339,16950.0,-2.295440912246704,-12.743138313293455,-2.2487540245056152
340,17000.0,-2.295440912246704,-12.743138313293455,-2.2487540245056152
341,17050.0,-2.295440912246704,-12.743138313293455,-2.2487540245056152
342,17100.0,-2.295440912246704,-12.743138313293455,-2.2487540245056152
343,17150.0,-4.156333923339844,-11.476007461547852,3.003525972366333
344,17200.0,-4.156333923339844,-11.476007461547852,3.003525972366333
345,17250.0,-4.156333923339844,-11.476007461547852,3.003525972366333
346,17300.0,-1.6986861228942869,-7.572261333465576,1.0384849309921265
347,17350.0,-1.6986861228942869,-7.572261333465576,1.0384849309921265
348,17400.0,-1.6986861228942869,-7.572261333465576,1.0384849309921265
349,17450.0,-1.6986861228942869,-7.572261333465576,1.0384849309921265
350,17500.0,-4.013280391693115,-6.975506782531737,4.149750232696533
351,17550.0,-4.013280391693115,-6.975506782531737,4.149750232696533
352,17600.0,-4.013280391693115,-6.975506782531737,4.149750232696533
353,17650.0,-4.013280391693115,-6.975506782531737,4.149750232696533
354,17700.0,-3.686472177505493,-5.065532207489014,4.611232280731201
355,17750.0,-3.686472177505493,-5.065532207489014,4.611232280731201
356,17800.0,-3.686472177505493,-5.065532207489014,4.611232280731201
357,17850.0,-3.156156301498413,-5.169680118560791,6.069301128387451
358,17900.0,-3.156156301498413,-5.169680118560791,6.069301128387451
359,17950.0,-3.156156301498413,-5.169680118560791,6.069301128387451
360,18000.0,-3.156156301498413,-5.169680118560791,6.069301128387451
361,18050.0,-4.1186256408691415,-7.724293231964111,4.97934103012085
362,18100.0,-4.1186256408691415,-7.724293231964111,4.97934103012085
363,18150.0,-4.1186256408691415,-7.724293231964111,4.97934103012085
364,18200.0,-3.818751811981201,-6.9473748207092285,0.1215057373046875
365,18250.0,-3.818751811981201,-6.9473748207092285,0.1215057373046875
366,18300.0,-3.818751811981201,-6.9473748207092285,0.1215057373046875
367,18350.0,-3.818751811981201,-6.9473748207092285,0.1215057373046875
368,18400.0,-2.1583728790283203,-8.424596786499022,-0.12449848651885985
369,18450.0,-2.1583728790283203,-8.424596786499022,-0.12449848651885985
370,18500.0,-2.1583728790283203,-8.424596786499022,-0.12449848651885985
371,18550.0,-2.1583728790283203,-8.424596786499022,-0.12449848651885985
372,18600.0,-2.471414804458618,-9.278728485107422,0.6841431260108948
373,18650.0,-2.471414804458618,-9.278728485107422,0.6841431260108948
374,18700.0,-2.471414804458618,-9.278728485107422,0.6841431260108948
375,18750.0,-2.0380642414093018,-9.192537307739258,-0.8134300112724304
376,18800.0,-2.0380642414093018,-9.192537307739258,-0.8134300112724304
377,18850.0,-2.0380642414093018,-9.192537307739258,-0.8134300112724304
378,18900.0,-2.0380642414093018,-9.192537307739258,-0.8134300112724304
379,18950.0,1.015141487121582,-11.14381217956543,-0.2902969419956207
380,19000.0,1.015141487121582,-11.14381217956543,-0.2902969419956207
381,19050.0,1.015141487121582,-11.14381217956543,-0.2902969419956207
382,19100.0,-3.147178173065185,-13.438653945922852,-2.0021512508392334
383,19150.0,-3.147178173065185,-13.438653945922852,-2.0021512508392334
384,19200.0,-3.147178173065185,-13.438653945922852,-2.0021512508392334
385,19250.0,-3.147178173065185,-13.438653945922852,-2.0021512508392334
386,19300.0,-4.6471452713012695,-11.050437927246094,2.121262788772583
387,19350.0,-4.6471452713012695,-11.050437927246094,2.121262788772583
388,19400.0,-4.6471452713012695,-11.050437927246094,2.121262788772583
389,19450.0,-4.6471452713012695,-11.050437927246094,2.121262788772583
390,19500.0,-2.8784289360046387,-8.73105525970459,1.644816517829895
391,19550.0,-2.8784289360046387,-8.73105525970459,1.644816517829895
392,19600.0,-2.8784289360046387,-8.73105525970459,1.644816517829895
393,19650.0,-3.1962592601776123,-5.565321922302246,3.3482911586761475
394,19700.0,-3.1962592601776123,-5.565321922302246,3.3482911586761475
395,19750.0,-3.1962592601776123,-5.565321922302246,3.3482911586761475
396,19800.0,-3.1962592601776123,-5.565321922302246,3.3482911586761475
397,19850.0,-4.6297874450683585,-5.5778913497924805,4.354454517364502
398,19900.0,-4.6297874450683585,-5.5778913497924805,4.354454517364502
399,19950.0,-4.6297874450683585,-5.5778913497924805,4.354454517364502
400,20000.0,-4.844666957855225,-8.381501197814941,5.536591529846191
401,20050.0,-4.844666957855225,-8.381501197814941,5.536591529846191
402,20100.0,-4.844666957855225,-8.381501197814941,5.536591529846191
403,20150.0,-4.844666957855225,-8.381501197814941,5.536591529846191
404,20200.0,-4.547187805175781,-7.412448406219482,4.928464412689209
405,20250.0,-4.547187805175781,-7.412448406219482,4.928464412689209
406,20300.0,-4.547187805175781,-7.412448406219482,4.928464412689209
407,20350.0,-4.547187805175781,-7.412448406219482,4.928464412689209
408,20400.0,-4.1216182708740225,-8.599972724914549,1.1127052307128906
409,20450.0,-4.1216182708740225,-8.599972724914549,1.1127052307128906
410,20500.0,-4.1216182708740225,-8.599972724914549,1.1127052307128906
411,20550.0,-4.17608642578125,-9.27034854888916,1.50355863571167
412,20600.0,-4.17608642578125,-9.27034854888916,1.50355863571167
413,20650.0,-4.17608642578125,-9.27034854888916,1.50355863571167
414,20700.0,-4.17608642578125,-9.27034854888916,1.50355863571167
415,20750.0,-3.1747114658355717,-8.316259384155272,-0.02693476900458336
416,20800.0,-3.1747114658355717,-8.316259384155272,-0.02693476900458336
417,20850.0,-3.1747114658355717,-8.316259384155272,-0.02693476900458336
418,20900.0,-1.768117904663086,-11.311406135559082,0.3106476664543152
419,20950.0,-1.768117904663086,-11.311406135559082,0.3106476664543152
420,21000.0,-1.768117904663086,-11.311406135559082,0.3106476664543152
421,21050.0,-1.768117904663086,-11.311406135559082,0.3106476664543152
422,21100.0,-0.36571431159973145,-9.743204116821287,-1.994369983673096
423,21150.0,-0.36571431159973145,-9.743204116821287,-1.994369983673096
424,21200.0,-0.36571431159973145,-9.743204116821287,-1.994369983673096
425,21250.0,-0.36571431159973145,-9.743204116821287,-1.994369983673096
426,21300.0,-1.2988544702529907,-8.862137794494629,-0.7338228225708008
427,21350.0,-1.2988544702529907,-8.862137794494629,-0.7338228225708008
428,21400.0,-1.2988544702529907,-8.862137794494629,-0.7338228225708008
429,21450.0,-3.4973301887512207,-8.213309288024902,0.08080431073904037
430,21500.0,-3.4973301887512207,-8.213309288024902,0.08080431073904037
431,21550.0,-3.4973301887512207,-8.213309288024902,0.08080431073904037
432,21600.0,-3.4973301887512207,-8.213309288024902,0.08080431073904037
433,21650.0,-2.980182647705078,-6.804919719696045,1.8471266031265257
434,21700.0,-2.980182647705078,-6.804919719696045,1.8471266031265257
435,21750.0,-2.980182647705078,-6.804919719696045,1.8471266031265257
436,21800.0,-4.328118324279785,-4.353855609893799,4.4759602546691895
437,21850.0,-4.328118324279785,-4.353855609893799,4.4759602546691895
438,21900.0,-4.328118324279785,-4.353855609893799,4.4759602546691895
439,21950.0,-4.328118324279785,-4.353855609893799,4.4759602546691895
440,22000.0,-1.4736311435699463,-6.139930248260497,6.259041786193848
441,22050.0,-1.4736311435699463,-6.139930248260497,6.259041786193848
442,22100.0,-1.4736311435699463,-6.139930248260497,6.259041786193848
443,22150.0,-1.4736311435699463,-6.139930248260497,6.259041786193848
444,22200.0,-3.927687883377075,-9.320028305053713,7.576451301574707
445,22250.0,-3.927687883377075,-9.320028305053713,7.576451301574707
446,22300.0,-3.927687883377075,-9.320028305053713,7.576451301574707
447,22350.0,-4.991312026977539,-7.99184513092041,2.38462495803833
448,22400.0,-4.991312026977539,-7.99184513092041,2.38462495803833
449,22450.0,-4.991312026977539,-7.99184513092041,2.38462495803833
450,22500.0,-4.991312026977539,-7.99184513092041,2.38462495803833
451,22550.0,-4.322731018066406,-10.675745010375977,1.5173252820968628
452,22600.0,-4.322731018066406,-10.675745010375977,1.5173252820968628
453,22650.0,-4.322731018066406,-10.675745010375977,1.5173252820968628
454,22700.0,-4.322731018066406,-10.675745010375977,1.5173252820968628
455,22750.0,-3.060388326644897,-8.639476776123049,0.6470330357551575
456,22800.0,-3.060388326644897,-8.639476776123049,0.6470330357551575
457,22850.0,-3.060388326644897,-8.639476776123049,0.6470330357551575
458,22900.0,-3.146579504013061,-10.766724586486816,-1.9506758451461792
459,22950.0,-3.146579504013061,-10.766724586486816,-1.9506758451461792
460,23000.0,-3.146579504013061,-10.766724586486816,-1.9506758451461792
461,23050.0,-3.146579504013061,-10.766724586486816,-1.9506758451461792
462,23100.0,-1.5735890865325928,-12.686874389648438,-1.072602391242981
463,23150.0,-1.5735890865325928,-12.686874389648438,-1.072602391242981
464,23200.0,-1.5735890865325928,-12.686874389648438,-1.072602391242981
465,23250.0,-2.4331073760986333,-9.404424667358398,0.011971008032560349
466,23300.0,-2.4331073760986333,-9.404424667358398,0.011971008032560349
467,23350.0,-2.4331073760986333,-9.404424667358398,0.011971008032560349
468,23400.0,-2.4331073760986333,-9.404424667358398,0.011971008032560349
469,23450.0,-2.4025814533233643,-8.322244644165039,0.7906851172447205
470,23500.0,-2.4025814533233643,-8.322244644165039,0.7906851172447205
471,23550.0,-2.4025814533233643,-8.322244644165039,0.7906851172447205
472,23600.0,-2.4025814533233643,-8.322244644165039,0.7906851172447205
473,23650.0,-3.885190725326538,-5.295974254608153,2.9951462745666504
474,23700.0,-3.885190725326538,-5.295974254608153,2.9951462745666504
475,23750.0,-3.885190725326538,-5.295974254608153,2.9951462745666504
476,23800.0,-6.66904878616333,-11.21444034576416,5.3785738945007315
477,23850.0,-6.66904878616333,-11.21444034576416,5.3785738945007315
478,23900.0,-6.66904878616333,-11.21444034576416,5.3785738945007315
479,23950.0,-6.66904878616333,-11.21444034576416,5.3785738945007315
480,24000.0,-5.921459197998048,-7.92899751663208,4.138377666473389
481,24050.0,-5.921459197998048,-7.92899751663208,4.138377666473389
482,24100.0,-5.921459197998048,-7.92899751663208,4.138377666473389
483,24150.0,-2.9251158237457275,-5.015852451324463,1.5059528350830078
484,24200.0,-2.9251158237457275,-5.015852451324463,1.5059528350830078
485,24250.0,-2.9251158237457275,-5.015852451324463,1.5059528350830078
486,24300.0,-2.9251158237457275,-5.015852451324463,1.5059528350830078
487,24350.0,-4.444236755371094,-8.752602577209473,1.1306617259979248
488,24400.0,-4.444236755371094,-8.752602577209473,1.1306617259979248
489,24450.0,-4.444236755371094,-8.752602577209473,1.1306617259979248
490,24500.0,-4.444236755371094,-8.752602577209473,1.1306617259979248
491,24550.0,-2.8179752826690674,-8.437765121459961,0.4740519225597382
492,24600.0,-2.8179752826690674,-8.437765121459961,0.4740519225597382
493,24650.0,-2.8179752826690674,-8.437765121459961,0.4740519225597382
494,24700.0,-2.994547843933105,-8.468890190124513,-0.7739257216453552
495,24750.0,-2.994547843933105,-8.468890190124513,-0.7739257216453552
496,24800.0,-2.994547843933105,-8.468890190124513,-0.7739257216453552
497,24850.0,-2.994547843933105,-8.468890190124513,-0.7739257216453552
498,24900.0,-0.9361328482627868,-10.533888816833496,-1.9512743949890137
499,24950.0,-0.9361328482627868,-10.533888816833496,-1.9512743949890137
500,25000.0,-0.9361328482627868,-10.533888816833496,-1.9512743949890137
501,25050.0,-2.0925323963165283,-9.92396640777588,-1.5693992376327517
502,25100.0,-2.0925323963165283,-9.92396640777588,-1.5693992376327517
503,25150.0,-2.0925323963165283,-9.92396640777588,-1.5693992376327517
504,25200.0,-2.0925323963165283,-9.92396640777588,-1.5693992376327517
505,25250.0,-2.339733600616455,-9.77133560180664,0.2645592987537384
506,25300.0,-2.339733600616455,-9.77133560180664,0.2645592987537384
507,25350.0,-2.339733600616455,-9.77133560180664,0.2645592987537384
508,25400.0,-3.13700270652771,-7.263409614562987,1.43532395362854
509,25450.0,-3.13700270652771,-7.263409614562987,1.43532395362854
510,25500.0,-3.13700270652771,-7.263409614562987,1.43532395362854
511,25550.0,-3.13700270652771,-7.263409614562987,1.43532395362854
512,25600.0,-3.2980127334594727,-6.1291561126708975,3.5661635398864746
513,25650.0,-3.2980127334594727,-6.1291561126708975,3.5661635398864746
514,25700.0,-3.2980127334594727,-6.1291561126708975,3.5661635398864746
515,25750.0,-3.2980127334594727,-6.1291561126708975,3.5661635398864746
516,25800.0,-4.265868663787842,-5.81491756439209,3.9474401473999023
517,25850.0,-4.265868663787842,-5.81491756439209,3.9474401473999023
518,25900.0,-4.265868663787842,-5.81491756439209,3.9474401473999023
519,25950.0,-3.489548921585083,-6.265027523040772,4.38617753982544
520,26000.0,-3.489548921585083,-6.265027523040772,4.38617753982544
521,26050.0,-3.489548921585083,-6.265027523040772,4.38617753982544
522,26100.0,-3.489548921585083,-6.265027523040772,4.38617753982544
523,26150.0,-2.276287317276001,-7.086836814880371,0.6015431880950928
524,26200.0,-2.276287317276001,-7.086836814880371,0.6015431880950928
525,26250.0,-2.276287317276001,-7.086836814880371,0.6015431880950928
526,26300.0,-2.3756465911865234,-8.969278335571289,1.1971008777618408
527,26350.0,-2.3756465911865234,-8.969278335571289,1.1971008777618408
528,26400.0,-2.3756465911865234,-8.969278335571289,1.1971008777618408
529,26450.0,-2.3756465911865234,-8.969278335571289,1.1971008777618408
530,26500.0,-2.955641984939575,-8.693944931030272,1.0313023328781128
531,26550.0,-2.955641984939575,-8.693944931030272,1.0313023328781128
532,26600.0,-2.955641984939575,-8.693944931030272,1.0313023328781128
533,26650.0,-2.955641984939575,-8.693944931030272,1.0313023328781128
534,26700.0,-4.1431660652160645,-7.644686222076416,0.9684545993804932
535,26750.0,-4.1431660652160645,-7.644686222076416,0.9684545993804932
536,26800.0,-4.1431660652160645,-7.644686222076416,0.9684545993804932
537,26850.0,-3.377619981765747,-9.30386734008789,-0.8421604633331299
538,26900.0,-3.377619981765747,-9.30386734008789,-0.8421604633331299
539,26950.0,-3.377619981765747,-9.30386734008789,-0.8421604633331299
540,27000.0,-3.377619981765747,-9.30386734008789,-0.8421604633331299
541,27050.0,-4.034229755401611,-8.134300231933594,-1.8363527059555051
542,27100.0,-4.034229755401611,-8.134300231933594,-1.8363527059555051
543,27150.0,-4.034229755401611,-8.134300231933594,-1.8363527059555051
544,27200.0,-4.034229755401611,-8.134300231933594,-1.8363527059555051
545,27250.0,-3.3668460845947266,-12.03445529937744,-1.4155718088150024
546,27300.0,-3.3668460845947266,-12.03445529937744,-1.4155718088150024
547,27350.0,-3.3668460845947266,-12.03445529937744,-1.4155718088150024
548,27400.0,1.3682862520217896,-10.62427043914795,-0.93254154920578
549,27450.0,1.3682862520217896,-10.62427043914795,-0.93254154920578
550,27500.0,1.3682862520217896,-10.62427043914795,-0.93254154920578
551,27550.0,1.3682862520217896,-10.62427043914795,-0.93254154920578
552,27600.0,-2.781463861465454,-10.51832675933838,-0.08439560979604721
553,27650.0,-2.781463861465454,-10.51832675933838,-0.08439560979604721
554,27700.0,-2.781463861465454,-10.51832675933838,-0.08439560979604721
555,27750.0,-3.002927541732788,-5.365406036376953,2.409165382385254
556,27800.0,-3.002927541732788,-5.365406036376953,2.409165382385254
557,27850.0,-3.002927541732788,-5.365406036376953,2.409165382385254
558,27900.0,-3.002927541732788,-5.365406036376953,2.409165382385254
559,27950.0,-4.012681961059569,-4.706401824951172,3.3662476539611816
560,28000.0,-4.012681961059569,-4.706401824951172,3.3662476539611816
561,28050.0,-4.012681961059569,-4.706401824951172,3.3662476539611816
562,28100.0,-4.012681961059569,-4.706401824951172,3.3662476539611816
563,28150.0,-5.105036735534668,-13.19504451751709,5.91128396987915
564,28200.0,-5.105036735534668,-13.19504451751709,5.91128396987915
565,28250.0,-5.105036735534668,-13.19504451751709,5.91128396987915
566,28300.0,-9.455301284790039,-9.125499725341797,5.744886875152588
567,28350.0,-9.455301284790039,-9.125499725341797,5.744886875152588
568,28400.0,-9.455301284790039,-9.125499725341797,5.744886875152588
569,28450.0,-9.455301284790039,-9.125499725341797,5.744886875152588
570,28500.0,-3.2842462062835693,-3.963600873947144,1.1378443241119385
571,28550.0,-3.2842462062835693,-3.963600873947144,1.1378443241119385
572,28600.0,-3.2842462062835693,-3.963600873947144,1.1378443241119385
573,28650.0,-4.685452938079834,-7.91822338104248,0.6260837316513062
574,28700.0,-4.685452938079834,-7.91822338104248,0.6260837316513062
575,28750.0,-4.685452938079834,-7.91822338104248,0.6260837316513062
576,28800.0,-4.685452938079834,-7.91822338104248,0.6260837316513062
577,28850.0,-3.1214404106140137,-9.233837127685547,0.03651157766580582
578,28900.0,-3.1214404106140137,-9.233837127685547,0.03651157766580582
579,28950.0,-3.1214404106140137,-9.233837127685547,0.03651157766580582
580,29000.0,-3.1214404106140137,-9.233837127685547,0.03651157766580582
581,29050.0,-3.2082302570343018,-9.18715000152588,-1.9853917360305784
582,29100.0,-3.2082302570343018,-9.18715000152588,-1.9853917360305784
583,29150.0,-3.2082302570343018,-9.18715000152588,-1.9853917360305784
584,29200.0,-1.7250223159790041,-13.16272258758545,-1.2413935661315918
585,29250.0,-1.7250223159790041,-13.16272258758545,-1.2413935661315918
586,29300.0,-1.7250223159790041,-13.16272258758545,-1.2413935661315918
587,29350.0,-1.7250223159790041,-13.16272258758545,-1.2413935661315918
588,29400.0,-0.9618705511093141,-10.196905136108398,0.13826514780521393
589,29450.0,-0.9618705511093141,-10.196905136108398,0.13826514780521393
590,29500.0,-0.9618705511093141,-10.196905136108398,0.13826514780521393
591,29550.0,-1.6077064275741575,-8.414422035217285,-0.27712884545326233
592,29600.0,-1.6077064275741575,-8.414422035217285,-0.27712884545326233
593,29650.0,-1.6077064275741575,-8.414422035217285,-0.27712884545326233
594,29700.0,-1.6077064275741575,-8.414422035217285,-0.27712884545326233
595,29750.0,-3.3518824577331543,-7.929595947265625,3.4159271717071533
596,29800.0,-3.3518824577331543,-7.929595947265625,3.4159271717071533
597,29850.0,-3.3518824577331543,-7.929595947265625,3.4159271717071533
598,29900.0,-3.3518824577331543,-7.929595947265625,3.4159271717071533
599,29950.0,-4.259883403778076,-5.412691593170166,3.8546648025512695
600,30000.0,-4.259883403778076,-5.412691593170166,3.8546648025512695
601,30050.0,-4.259883403778076,-5.412691593170166,3.8546648025512695
602,30100.0,-7.1915831565856925,-9.798270225524902,3.840898036956787
603,30150.0,-7.1915831565856925,-9.798270225524902,3.840898036956787
604,30200.0,-7.1915831565856925,-9.798270225524902,3.840898036956787
605,30250.0,-7.1915831565856925,-9.798270225524902,3.840898036956787
606,30300.0,-5.241506099700928,-6.794146060943604,4.478952884674072
607,30350.0,-5.241506099700928,-6.794146060943604,4.478952884674072
608,30400.0,-5.241506099700928,-6.794146060943604,4.478952884674072
609,30450.0,-3.5835213661193848,-7.406463146209718,0.4141969084739685
610,30500.0,-3.5835213661193848,-7.406463146209718,0.4141969084739685
611,30550.0,-3.5835213661193848,-7.406463146209718,0.4141969084739685
612,30600.0,-3.5835213661193848,-7.406463146209718,0.4141969084739685
613,30650.0,-2.8760347366333012,-8.860940933227539,0.6434416770935059
614,30700.0,-2.8760347366333012,-8.860940933227539,0.6434416770935059
615,30750.0,-2.8760347366333012,-8.860940933227539,0.6434416770935059
616,30800.0,-2.8760347366333012,-8.860940933227539,0.6434416770935059
617,30850.0,-2.4001872539520264,-9.062651634216307,0.9750386476516724
618,30900.0,-2.4001872539520264,-9.062651634216307,0.9750386476516724
619,30950.0,-2.4001872539520264,-9.062651634216307,0.9750386476516724
620,31000.0,-2.2242133617401123,-9.386467933654783,-0.7781155705451965
621,31050.0,-2.2242133617401123,-9.386467933654783,-0.7781155705451965
622,31100.0,-2.2242133617401123,-9.386467933654783,-0.7781155705451965
623,31150.0,-2.2242133617401123,-9.386467933654783,-0.7781155705451965
624,31200.0,-2.343923568725586,-7.83801794052124,0.6045359373092651
625,31250.0,-2.343923568725586,-7.83801794052124,0.6045359373092651
626,31300.0,-2.343923568725586,-7.83801794052124,0.6045359373092651
627,31350.0,-1.1510124206542969,-11.270106315612793,0.4507084786891937
628,31400.0,-1.1510124206542969,-11.270106315612793,0.4507084786891937
629,31450.0,-1.1510124206542969,-11.270106315612793,0.4507084786891937
630,31500.0,-1.1510124206542969,-11.270106315612793,0.4507084786891937
631,31550.0,-1.63344407081604,-9.115922927856444,-0.6703764796257019
632,31600.0,-1.63344407081604,-9.115922927856444,-0.6703764796257019
633,31650.0,-1.63344407081604,-9.115922927856444,-0.6703764796257019
634,31700.0,-1.63344407081604,-9.115922927856444,-0.6703764796257019
635,31750.0,-2.4839842319488525,-9.85034465789795,0.13587094843387604
636,31800.0,-2.4839842319488525,-9.85034465789795,0.13587094843387604
637,31850.0,-2.4839842319488525,-9.85034465789795,0.13587094843387604
638,31900.0,-2.4444799423217773,-7.427412033081055,0.8523358106613159
639,31950.0,-2.4444799423217773,-7.427412033081055,0.8523358106613159
640,32000.0,-2.4444799423217773,-7.427412033081055,0.8523358106613159
641,32050.0,-2.4444799423217773,-7.427412033081055,0.8523358106613159
642,32100.0,-4.1623196601867685,-7.2131309509277335,2.982576847076416
643,32150.0,-4.1623196601867685,-7.2131309509277335,2.982576847076416
644,32200.0,-4.1623196601867685,-7.2131309509277335,2.982576847076416
645,32250.0,-4.608239650726318,-6.558317184448242,4.308365821838379
646,32300.0,-4.608239650726318,-6.558317184448242,4.308365821838379
647,32350.0,-4.608239650726318,-6.558317184448242,4.308365821838379
648,32400.0,-4.608239650726318,-6.558317184448242,4.308365821838379
649,32450.0,-8.438961982727049,-12.486958503723145,5.600037574768066
650,32500.0,-8.438961982727049,-12.486958503723145,5.600037574768066
651,32550.0,-8.438961982727049,-12.486958503723145,5.600037574768066
652,32600.0,-8.438961982727049,-12.486958503723145,5.600037574768066
653,32650.0,-4.898536682128906,-6.419453144073486,3.4320881366729736
654,32700.0,-4.898536682128906,-6.419453144073486,3.4320881366729736
655,32750.0,-4.898536682128906,-6.419453144073486,3.4320881366729736
656,32800.0,-6.21235466003418,-9.82999324798584,4.662109375
657,32850.0,-6.21235466003418,-9.82999324798584,4.662109375
658,32900.0,-6.21235466003418,-9.82999324798584,4.662109375
659,32950.0,-6.21235466003418,-9.82999324798584,4.662109375
660,33000.0,-2.365471363067627,-5.776610374450684,0.9576807022094728
661,33050.0,-2.365471363067627,-5.776610374450684,0.9576807022094728
662,33100.0,-2.365471363067627,-5.776610374450684,0.9576807022094728
663,33150.0,-2.365471363067627,-5.776610374450684,0.9576807022094728
664,33200.0,-2.9233202934265137,-8.392873764038086,0.5476736426353455
665,33250.0,-2.9233202934265137,-8.392873764038086,0.5476736426353455
666,33300.0,-2.9233202934265137,-8.392873764038086,0.5476736426353455
667,33350.0,-3.4979286193847656,-9.142857551574707,0.5554547905921936
668,33400.0,-3.4979286193847656,-9.142857551574707,0.5554547905921936
669,33450.0,-3.4979286193847656,-9.142857551574707,0.5554547905921936
670,33500.0,-3.4979286193847656,-9.142857551574707,0.5554547905921936
671,33550.0,-2.6138696670532227,-9.344569206237793,0.5925649404525757
672,33600.0,-2.6138696670532227,-9.344569206237793,0.5925649404525757
673,33650.0,-2.6138696670532227,-9.344569206237793,0.5925649404525757
674,33700.0,-2.3241713047027592,-9.758766174316406,-0.2890998423099518
675,33750.0,-2.3241713047027592,-9.758766174316406,-0.2890998423099518
676,33800.0,-2.3241713047027592,-9.758766174316406,-0.2890998423099518
677,33850.0,-2.3241713047027592,-9.758766174316406,-0.2890998423099518
678,33900.0,-4.608838081359863,-9.872490882873537,-1.171961784362793
679,33950.0,-4.608838081359863,-9.872490882873537,-1.171961784362793
680,34000.0,-4.608838081359863,-9.872490882873537,-1.171961784362793
681,34050.0,-4.608838081359863,-9.872490882873537,-1.171961784362793
682,34100.0,-2.0231003761291504,-12.406753540039064,-1.8944120407104488
683,34150.0,-2.0231003761291504,-12.406753540039064,-1.8944120407104488
684,34200.0,-2.0231003761291504,-12.406753540039064,-1.8944120407104488
685,34250.0,-4.654327869415283,-9.062651634216307,0.7026981711387634
686,34300.0,-4.654327869415283,-9.062651634216307,0.7026981711387634
687,34350.0,-4.654327869415283,-9.062651634216307,0.7026981711387634
688,34400.0,-4.654327869415283,-9.062651634216307,0.7026981711387634
689,34450.0,-3.6954503059387207,-8.188169479370117,0.6829460263252258
690,34500.0,-3.6954503059387207,-8.188169479370117,0.6829460263252258
691,34550.0,-3.6954503059387207,-8.188169479370117,0.6829460263252258
692,34600.0,-4.4250831604003915,-5.938817501068115,4.251503467559815
693,34650.0,-4.4250831604003915,-5.938817501068115,4.251503467559815
694,34700.0,-4.4250831604003915,-5.938817501068115,4.251503467559815
695,34750.0,-4.4250831604003915,-5.938817501068115,4.251503467559815
696,34800.0,-4.6297874450683585,-6.24587345123291,4.793191909790039
697,34850.0,-4.6297874450683585,-6.24587345123291,4.793191909790039
698,34900.0,-4.6297874450683585,-6.24587345123291,4.793191909790039
699,34950.0,-5.835866451263428,-8.192957878112793,6.691195011138916
700,35000.0,-5.835866451263428,-8.192957878112793,6.691195011138916
701,35050.0,-5.835866451263428,-8.192957878112793,6.691195011138916
702,35100.0,-5.835866451263428,-8.192957878112793,6.691195011138916
703,35150.0,-6.104615688323975,-8.819042205810547,4.339490413665772
704,35200.0,-6.104615688323975,-8.819042205810547,4.339490413665772
705,35250.0,-6.104615688323975,-8.819042205810547,4.339490413665772
706,35300.0,-6.104615688323975,-8.819042205810547,4.339490413665772
707,35350.0,-2.2637176513671875,-8.340800285339355,1.125873327255249
708,35400.0,-2.2637176513671875,-8.340800285339355,1.125873327255249
709,35450.0,-2.2637176513671875,-8.340800285339355,1.125873327255249
710,35500.0,-2.958634853363037,-8.686163902282715,1.3736732006072998
711,35550.0,-2.958634853363037,-8.686163902282715,1.3736732006072998
712,35600.0,-2.958634853363037,-8.686163902282715,1.3736732006072998
713,35650.0,-2.958634853363037,-8.686163902282715,1.3736732006072998
714,35700.0,-2.258929252624512,-8.517372131347656,0.22625206410884854
715,35750.0,-2.258929252624512,-8.517372131347656,0.22625206410884854
716,35800.0,-2.258929252624512,-8.517372131347656,0.22625206410884854
717,35850.0,-2.258929252624512,-8.517372131347656,0.22625206410884854
718,35900.0,-2.0165164470672607,-9.726444244384766,-0.1412578970193863
719,35950.0,-2.0165164470672607,-9.726444244384766,-0.1412578970193863
720,36000.0,-2.0165164470672607,-9.726444244384766,-0.1412578970193863
721,36050.0,-3.278859138488769,-10.047865867614746,-0.06883329898118973
722,36100.0,-3.278859138488769,-10.047865867614746,-0.06883329898118973
723,36150.0,-3.278859138488769,-10.047865867614746,-0.06883329898118973
724,36200.0,-3.278859138488769,-10.047865867614746,-0.06883329898118973
725,36250.0,-1.1665748357772827,-9.268553733825684,0.10953472554683684
726,36300.0,-1.1665748357772827,-9.268553733825684,0.10953472554683684
727,36350.0,-1.1665748357772827,-9.268553733825684,0.10953472554683684
728,36400.0,-1.4957774877548218,-8.368931770324707,0.6033388376235962
729,36450.0,-1.4957774877548218,-8.368931770324707,0.6033388376235962
730,36500.0,-1.4957774877548218,-8.368931770324707,0.6033388376235962
731,36550.0,-1.4957774877548218,-8.368931770324707,0.6033388376235962
732,36600.0,-3.404554843902588,-7.45913553237915,2.283469915390014
733,36650.0,-3.404554843902588,-7.45913553237915,2.283469915390014
734,36700.0,-3.404554843902588,-7.45913553237915,2.283469915390014
735,36750.0,-3.404554843902588,-7.45913553237915,2.283469915390014
736,36800.0,-3.5500025749206543,-5.580285549163818,4.308365821838379
737,36850.0,-3.5500025749206543,-5.580285549163818,4.308365821838379
738,36900.0,-3.5500025749206543,-5.580285549163818,4.308365821838379
739,36950.0,-5.586271286010742,-5.817311763763428,5.58866548538208
740,37000.0,-5.586271286010742,-5.817311763763428,5.58866548538208
741,37050.0,-5.586271286010742,-5.817311763763428,5.58866548538208
742,37100.0,-5.586271286010742,-5.817311763763428,5.58866548538208
743,37150.0,-5.884947776794434,-8.095394134521483,4.228758811950684
744,37200.0,-5.884947776794434,-8.095394134521483,4.228758811950684
745,37250.0,-5.884947776794434,-8.095394134521483,4.228758811950684
746,37300.0,-6.0842652320861825,-10.847529411315918,5.017648220062256
747,37350.0,-6.0842652320861825,-10.847529411315918,5.017648220062256
748,37400.0,-6.0842652320861825,-10.847529411315918,5.017648220062256
749,37450.0,-6.0842652320861825,-10.847529411315918,5.017648220062256
750,37500.0,-3.80378794670105,-7.6141600608825675,0.8720879554748535
751,37550.0,-3.80378794670105,-7.6141600608825675,0.8720879554748535
752,37600.0,-3.80378794670105,-7.6141600608825675,0.8720879554748535
753,37650.0,-3.80378794670105,-7.6141600608825675,0.8720879554748535
754,37700.0,-1.427542805671692,-7.835623741149902,0.790086567401886
755,37750.0,-1.427542805671692,-7.835623741149902,0.790086567401886
756,37800.0,-1.427542805671692,-7.835623741149902,0.790086567401886
757,37850.0,-3.0113072395324707,-8.749011993408201,0.08439560979604721
758,37900.0,-3.0113072395324707,-8.749011993408201,0.08439560979604721
759,37950.0,-3.0113072395324707,-8.749011993408201,0.08439560979604721
760,38000.0,-3.0113072395324707,-8.749011993408201,0.08439560979604721
761,38050.0,-2.8592753410339355,-9.467870712280273,-1.0809820890426636
762,38100.0,-2.8592753410339355,-9.467870712280273,-1.0809820890426636
763,38150.0,-2.8592753410339355,-9.467870712280273,-1.0809820890426636
764,38200.0,-2.8658595085144043,-9.687539100646973,-1.681926727294922
765,38250.0,-2.8658595085144043,-9.687539100646973,-1.681926727294922
766,38300.0,-2.8658595085144043,-9.687539100646973,-1.681926727294922
767,38350.0,-2.8658595085144043,-9.687539100646973,-1.681926727294922
768,38400.0,-0.3896563351154328,-12.816162109375,-2.7234044075012207
769,38450.0,-0.3896563351154328,-12.816162109375,-2.7234044075012207
770,38500.0,-0.3896563351154328,-12.816162109375,-2.7234044075012207
771,38550.0,-0.3896563351154328,-12.816162109375,-2.7234044075012207
772,38600.0,-3.1064767837524414,-8.240243911743164,0.5147533416748047
773,38650.0,-3.1064767837524414,-8.240243911743164,0.5147533416748047
774,38700.0,-3.1064767837524414,-8.240243911743164,0.5147533416748047
775,38750.0,-4.0509891510009775,-9.117718696594238,1.4257471561431885
776,38800.0,-4.0509891510009775,-9.117718696594238,1.4257471561431885
777,38850.0,-4.0509891510009775,-9.117718696594238,1.4257471561431885
778,38900.0,-4.0509891510009775,-9.117718696594238,1.4257471561431885
779,38950.0,-3.4308910369873047,-6.2392897605896,3.3614592552185063
780,39000.0,-3.4308910369873047,-6.2392897605896,3.3614592552185063
781,39050.0,-3.4308910369873047,-6.2392897605896,3.3614592552185063
782,39100.0,-4.6758761405944815,-6.505644798278809,4.67827033996582
783,39150.0,-4.6758761405944815,-6.505644798278809,4.67827033996582
784,39200.0,-4.6758761405944815,-6.505644798278809,4.67827033996582
785,39250.0,-4.6758761405944815,-6.505644798278809,4.67827033996582
786,39300.0,-1.4844050407409668,-2.099714994430542,5.059546947479248
787,39350.0,-1.4844050407409668,-2.099714994430542,5.059546947479248
788,39400.0,-1.4844050407409668,-2.099714994430542,5.059546947479248
789,39450.0,-1.4844050407409668,-2.099714994430542,5.059546947479248
790,39500.0,-3.3482911586761475,-8.252813339233397,0.5351040959358215
791,39550.0,-3.3482911586761475,-8.252813339233397,0.5351040959358215
792,39600.0,-3.3482911586761475,-8.252813339233397,0.5351040959358215
793,39650.0,-2.894589900970459,-8.127716064453125,0.21847090125083926
794,39700.0,-2.894589900970459,-8.127716064453125,0.21847090125083926
795,39750.0,-2.894589900970459,-8.127716064453125,0.21847090125083926
796,39800.0,-2.894589900970459,-8.127716064453125,0.21847090125083926
797,39850.0,-3.5511996746063232,-9.05487060546875,0.8254010081291199
798,39900.0,-3.5511996746063232,-9.05487060546875,0.8254010081291199
799,39950.0,-3.5511996746063232,-9.05487060546875,0.8254010081291199
800,40000.0,-2.7922377586364746,-9.088988304138184,0.10773907601833344
801,40050.0,-2.7922377586364746,-9.088988304138184,0.10773907601833344
802,40100.0,-2.7922377586364746,-9.088988304138184,0.10773907601833344
803,40150.0,-2.7922377586364746,-9.088988304138184,0.10773907601833344
804,40200.0,-2.5468320846557617,-10.710461616516113,-0.7457938194274902
805,40250.0,-2.5468320846557617,-10.710461616516113,-0.7457938194274902
806,40300.0,-2.5468320846557617,-10.710461616516113,-0.7457938194274902
807,40350.0,-2.5468320846557617,-10.710461616516113,-0.7457938194274902
808,40400.0,-1.9650410413742063,-9.96825885772705,-1.7208324670791626
809,40450.0,-1.9650410413742063,-9.96825885772705,-1.7208324670791626
810,40500.0,-1.9650410413742063,-9.96825885772705,-1.7208324670791626
811,40550.0,-2.20386266708374,-12.640188217163086,-1.8531121015548704
812,40600.0,-2.20386266708374,-12.640188217163086,-1.8531121015548704
813,40650.0,-2.20386266708374,-12.640188217163086,-1.8531121015548704
814,40700.0,-2.20386266708374,-12.640188217163086,-1.8531121015548704
815,40750.0,-1.5053542852401731,-10.621875762939453,0.7631517648696899
816,40800.0,-1.5053542852401731,-10.621875762939453,0.7631517648696899
817,40850.0,-1.5053542852401731,-10.621875762939453,0.7631517648696899
818,40900.0,-1.9961656332015991,-7.756016254425049,0.9648633003234864
819,40950.0,-1.9961656332015991,-7.756016254425049,0.9648633003234864
820,41000.0,-1.9961656332015991,-7.756016254425049,0.9648633003234864
821,41050.0,-1.9961656332015991,-7.756016254425049,0.9648633003234864
822,41100.0,-4.243124008178712,-7.32505989074707,4.101267337799071
823,41150.0,-4.243124008178712,-7.32505989074707,4.101267337799071
824,41200.0,-4.243124008178712,-7.32505989074707,4.101267337799071
825,41250.0,-4.243124008178712,-7.32505989074707,4.101267337799071
826,41300.0,-4.20421838760376,-5.4665608406066895,4.718372821807861
827,41350.0,-4.20421838760376,-5.4665608406066895,4.718372821807861
828,41400.0,-4.20421838760376,-5.4665608406066895,4.718372821807861
829,41450.0,-7.068880558013916,-10.863091468811037,4.949413299560547
830,41500.0,-7.068880558013916,-10.863091468811037,4.949413299560547
831,41550.0,-7.068880558013916,-10.863091468811037,4.949413299560547
832,41600.0,-7.068880558013916,-10.863091468811037,4.949413299560547
833,41650.0,-4.285022258758545,-6.834847450256348,4.728548526763916
834,41700.0,-4.285022258758545,-6.834847450256348,4.728548526763916
835,41750.0,-4.285022258758545,-6.834847450256348,4.728548526763916
836,41800.0,-5.647323131561278,-10.056844711303713,5.084685802459717
837,41850.0,-5.647323131561278,-10.056844711303713,5.084685802459717
838,41900.0,-5.647323131561278,-10.056844711303713,5.084685802459717
839,41950.0,-5.647323131561278,-10.056844711303713,5.084685802459717
840,42000.0,-2.275090217590332,-7.6805992126464835,0.5614402890205383
841,42050.0,-2.275090217590332,-7.6805992126464835,0.5614402890205383
842,42100.0,-2.275090217590332,-7.6805992126464835,0.5614402890205383
843,42150.0,-2.275090217590332,-7.6805992126464835,0.5614402890205383
844,42200.0,-4.5214500427246085,-8.427590370178223,0.4572925269603729
845,42250.0,-4.5214500427246085,-8.427590370178223,0.4572925269603729
846,42300.0,-4.5214500427246085,-8.427590370178223,0.4572925269603729
847,42350.0,-2.5917234420776367,-9.425373077392578,1.5310919284820557
848,42400.0,-2.5917234420776367,-9.425373077392578,1.5310919284820557
849,42450.0,-2.5917234420776367,-9.425373077392578,1.5310919284820557
850,42500.0,-2.5917234420776367,-9.425373077392578,1.5310919284820557
851,42550.0,-2.0171148777008057,-8.971074104309082,-0.6823474764823914
852,42600.0,-2.0171148777008057,-8.971074104309082,-0.6823474764823914
853,42650.0,-2.0171148777008057,-8.971074104309082,-0.6823474764823914
854,42700.0,-2.4791958332061768,-14.453795433044435,-1.446696400642395
855,42750.0,-2.4791958332061768,-14.453795433044435,-1.446696400642395
856,42800.0,-2.4791958332061768,-14.453795433044435,-1.446696400642395
857,42850.0,-2.4791958332061768,-14.453795433044435,-1.446696400642395
858,42900.0,-3.117250680923462,-9.451709747314453,0.8206126093864441
859,42950.0,-3.117250680923462,-9.451709747314453,0.8206126093864441
860,43000.0,-3.117250680923462,-9.451709747314453,0.8206126093864441
861,43050.0,-3.117250680923462,-9.451709747314453,0.8206126093864441
862,43100.0,-1.1827356815338137,-7.142502307891847,2.74076247215271
863,43150.0,-1.1827356815338137,-7.142502307891847,2.74076247215271
864,43200.0,-1.1827356815338137,-7.142502307891847,2.74076247215271
865,43250.0,-4.4077253341674805,-7.4998369216918945,3.8804023265838623
866,43300.0,-4.4077253341674805,-7.4998369216918945,3.8804023265838623
867,43350.0,-4.4077253341674805,-7.4998369216918945,3.8804023265838623
868,43400.0,-4.4077253341674805,-7.4998369216918945,3.8804023265838623
869,43450.0,-3.24414324760437,-5.412093162536621,4.357447147369385
870,43500.0,-3.24414324760437,-5.412093162536621,4.357447147369385
871,43550.0,-3.24414324760437,-5.412093162536621,4.357447147369385
872,43600.0,-4.671087741851807,-9.70549488067627,4.703409194946289
873,43650.0,-4.671087741851807,-9.70549488067627,4.703409194946289
874,43700.0,-4.671087741851807,-9.70549488067627,4.703409194946289
875,43750.0,-4.671087741851807,-9.70549488067627,4.703409194946289
876,43800.0,-3.931279182434082,-7.621941089630128,5.39174222946167
877,43850.0,-3.931279182434082,-7.621941089630128,5.39174222946167
878,43900.0,-3.931279182434082,-7.621941089630128,5.39174222946167
879,43950.0,-3.931279182434082,-7.621941089630128,5.39174222946167
880,44000.0,-3.2938230037689213,-6.800729751586914,2.0027496814727783
881,44050.0,-3.2938230037689213,-6.800729751586914,2.0027496814727783
882,44100.0,-3.2938230037689213,-6.800729751586914,2.0027496814727783
883,44150.0,-2.236783027648926,-8.070255279541017,0.6973112225532532
884,44200.0,-2.236783027648926,-8.070255279541017,0.6973112225532532
885,44250.0,-2.236783027648926,-8.070255279541017,0.6973112225532532
886,44300.0,-2.236783027648926,-8.070255279541017,0.6973112225532532
887,44350.0,-2.482787132263184,-9.015366554260254,0.690727174282074
888,44400.0,-2.482787132263184,-9.015366554260254,0.690727174282074
889,44450.0,-2.482787132263184,-9.015366554260254,0.690727174282074
890,44500.0,-2.4133553504943848,-9.321226119995117,-0.7996633648872375
891,44550.0,-2.4133553504943848,-9.321226119995117,-0.7996633648872375
892,44600.0,-2.4133553504943848,-9.321226119995117,-0.7996633648872375
893,44650.0,-2.4133553504943848,-9.321226119995117,-0.7996633648872375
894,44700.0,-2.1673510074615483,-10.061034202575684,-0.4955997467041016
895,44750.0,-2.1673510074615483,-10.061034202575684,-0.4955997467041016
896,44800.0,-2.1673510074615483,-10.061034202575684,-0.4955997467041016
897,44850.0,-2.1673510074615483,-10.061034202575684,-0.4955997467041016
898,44900.0,-2.538452386856079,-8.548497200012207,-1.0043675899505615
899,44950.0,-2.538452386856079,-8.548497200012207,-1.0043675899505615
900,45000.0,-2.538452386856079,-8.548497200012207,-1.0043675899505615
901,45050.0,-2.343923568725586,-14.83507251739502,-2.2703018188476562
902,45100.0,-2.343923568725586,-14.83507251739502,-2.2703018188476562
903,45150.0,-2.343923568725586,-14.83507251739502,-2.2703018188476562
904,45200.0,-2.343923568725586,-14.83507251739502,-2.2703018188476562
905,45250.0,-1.9416975975036619,-10.512341499328613,2.672527551651001
906,45300.0,-1.9416975975036619,-10.512341499328613,2.672527551651001
907,45350.0,-1.9416975975036619,-10.512341499328613,2.672527551651001
908,45400.0,-2.071583032608032,-8.395268440246582,1.699883222579956
909,45450.0,-2.071583032608032,-8.395268440246582,1.699883222579956
910,45500.0,-2.071583032608032,-8.395268440246582,1.699883222579956
911,45550.0,-2.071583032608032,-8.395268440246582,1.699883222579956
912,45600.0,-4.094084739685059,-7.593809127807617,3.719990968704224
913,45650.0,-4.094084739685059,-7.593809127807617,3.719990968704224
914,45700.0,-4.094084739685059,-7.593809127807617,3.719990968704224
915,45750.0,-4.094084739685059,-7.593809127807617,3.719990968704224
916,45800.0,-4.383184909820557,-5.019443988800049,4.351461410522462
917,45850.0,-4.383184909820557,-5.019443988800049,4.351461410522462
918,45900.0,-4.383184909820557,-5.019443988800049,4.351461410522462
919,45950.0,-6.709151744842528,-10.763134002685547,6.573280811309815
920,46000.0,-6.709151744842528,-10.763134002685547,6.573280811309815
921,46050.0,-6.709151744842528,-10.763134002685547,6.573280811309815
922,46100.0,-6.709151744842528,-10.763134002685547,6.573280811309815
923,46150.0,-4.866813659667969,-7.247847080230713,5.092466831207275
924,46200.0,-4.866813659667969,-7.247847080230713,5.092466831207275
925,46250.0,-4.866813659667969,-7.247847080230713,5.092466831207275
926,46300.0,-4.866813659667969,-7.247847080230713,5.092466831207275
927,46350.0,-3.641580820083618,-7.450157165527344,2.1440076828002934
928,46400.0,-3.641580820083618,-7.450157165527344,2.1440076828002934
929,46450.0,-3.641580820083618,-7.450157165527344,2.1440076828002934
930,46500.0,-3.846285104751587,-9.751583099365234,0.9822212457656859
931,46550.0,-3.846285104751587,-9.751583099365234,0.9822212457656859
932,46600.0,-3.846285104751587,-9.751583099365234,0.9822212457656859
933,46650.0,-3.846285104751587,-9.751583099365234,0.9822212457656859
934,46700.0,-3.62302565574646,-9.160215377807617,-0.09636662155389786
935,46750.0,-3.62302565574646,-9.160215377807617,-0.09636662155389786
936,46800.0,-3.62302565574646,-9.160215377807617,-0.09636662155389786
937,46850.0,-2.5665841102600098,-8.632892608642576,-0.7068880796432495
938,46900.0,-2.5665841102600098,-8.632892608642576,-0.7068880796432495
939,46950.0,-2.5665841102600098,-8.632892608642576,-0.7068880796432495
940,47000.0,-2.5665841102600098,-8.632892608642576,-0.7068880796432495
941,47050.0,-3.522469282150269,-9.64564037322998,-1.168370485305786
942,47100.0,-3.522469282150269,-9.64564037322998,-1.168370485305786
943,47150.0,-3.522469282150269,-9.64564037322998,-1.168370485305786
944,47200.0,-3.522469282150269,-9.64564037322998,-1.168370485305786
945,47250.0,-0.11851298063993455,-11.48618221282959,0.2364274114370346
946,47300.0,-0.11851298063993455,-11.48618221282959,0.2364274114370346
947,47350.0,-0.11851298063993455,-11.48618221282959,0.2364274114370346
948,47400.0,-1.986588835716248,-11.620258331298828,0.7134721279144287
949,47450.0,-1.986588835716248,-11.620258331298828,0.7134721279144287
950,47500.0,-1.986588835716248,-11.620258331298828,0.7134721279144287
951,47550.0,-1.986588835716248,-11.620258331298828,0.7134721279144287
952,47600.0,-2.628833532333374,-7.091625213623048,2.7263972759246826
953,47650.0,-2.628833532333374,-7.091625213623048,2.7263972759246826
954,47700.0,-2.628833532333374,-7.091625213623048,2.7263972759246826
955,47750.0,-3.943250179290772,-4.890755653381348,5.067327976226807
956,47800.0,-3.943250179290772,-4.890755653381348,5.067327976226807
957,47850.0,-3.943250179290772,-4.890755653381348,5.067327976226807
958,47900.0,-3.943250179290772,-4.890755653381348,5.067327976226807
959,47950.0,-7.778761386871338,-9.53849983215332,6.566696643829347
960,48000.0,-7.778761386871338,-9.53849983215332,6.566696643829347
961,48050.0,-7.778761386871338,-9.53849983215332,6.566696643829347
962,48100.0,-7.778761386871338,-9.53849983215332,6.566696643829347
963,48150.0,-7.061697959899902,-7.994239330291747,4.446630954742432
964,48200.0,-7.061697959899902,-7.994239330291747,4.446630954742432
965,48250.0,-7.061697959899902,-7.994239330291747,4.446630954742432
966,48300.0,-4.064157485961913,-6.254851818084718,2.0817582607269287
967,48350.0,-4.064157485961913,-6.254851818084718,2.0817582607269287
968,48400.0,-4.064157485961913,-6.254851818084718,2.0817582607269287
969,48450.0,-4.064157485961913,-6.254851818084718,2.0817582607269287
970,48500.0,-4.490325450897217,-9.255983352661133,0.518943190574646
971,48550.0,-4.490325450897217,-9.255983352661133,0.518943190574646
972,48600.0,-4.490325450897217,-9.255983352661133,0.518943190574646
973,48650.0,-2.1481974124908447,-8.085817337036133,-1.690904974937439
974,48700.0,-2.1481974124908447,-8.085817337036133,-1.690904974937439
975,48750.0,-2.1481974124908447,-8.085817337036133,-1.690904974937439
976,48800.0,-2.1481974124908447,-8.085817337036133,-1.690904974937439
977,48850.0,-2.0374655723571777,-10.047865867614746,-0.3315969407558441
978,48900.0,-2.0374655723571777,-10.047865867614746,-0.3315969407558441
979,48950.0,-2.0374655723571777,-10.047865867614746,-0.3315969407558441
980,49000.0,-2.0374655723571777,-10.047865867614746,-0.3315969407558441
981,49050.0,-2.738966703414917,-13.649343490600586,-1.5652093887329102
982,49100.0,-2.738966703414917,-13.649343490600586,-1.5652093887329102
983,49150.0,-2.738966703414917,-13.649343490600586,-1.5652093887329102
984,49200.0,-1.9524714946746824,-9.294290542602539,0.9151836037635804
985,49250.0,-1.9524714946746824,-9.294290542602539,0.9151836037635804
986,49300.0,-1.9524714946746824,-9.294290542602539,0.9151836037635804
987,49350.0,-1.9524714946746824,-9.294290542602539,0.9151836037635804
988,49400.0,-1.984793186187744,-6.135141849517822,2.3942017555236816
989,49450.0,-1.984793186187744,-6.135141849517822,2.3942017555236816
990,49500.0,-1.984793186187744,-6.135141849517822,2.3942017555236816
991,49550.0,-4.774636745452881,-7.321468830108643,4.14915132522583
992,49600.0,-4.774636745452881,-7.321468830108643,4.14915132522583
993,49650.0,-4.774636745452881,-7.321468830108643,4.14915132522583
994,49700.0,-4.774636745452881,-7.321468830108643,4.14915132522583
995,49750.0,-5.310339450836182,-4.689642429351807,5.3546319007873535
996,49800.0,-5.310339450836182,-4.689642429351807,5.3546319007873535
997,49850.0,-5.310339450836182,-4.689642429351807,5.3546319007873535
998,49900.0,-5.310339450836182,-4.689642429351807,5.3546319007873535
999,49950.0,-2.5707740783691406,-4.3233299255371085,5.762843608856201
1000,50000.0,-2.5707740783691406,-4.3233299255371085,5.762843608856201
1001,50050.0,-2.5707740783691406,-4.3233299255371085,5.762843608856201
1002,50100.0,-4.685452938079834,-7.946953773498535,5.745485305786133
1003,50150.0,-4.685452938079834,-7.946953773498535,5.745485305786133
1004,50200.0,-4.685452938079834,-7.946953773498535,5.745485305786133
1005,50250.0,-4.685452938079834,-7.946953773498535,5.745485305786133
1006,50300.0,-4.448426723480225,-7.213729858398437,1.222239971160889
1007,50350.0,-4.448426723480225,-7.213729858398437,1.222239971160889
1008,50400.0,-4.448426723480225,-7.213729858398437,1.222239971160889
1009,50450.0,-2.0841526985168457,-8.338405609130861,0.3926490843296051
1010,50500.0,-2.0841526985168457,-8.338405609130861,0.3926490843296051
1011,50550.0,-2.0841526985168457,-8.338405609130861,0.3926490843296051
1012,50600.0,-2.0841526985168457,-8.338405609130861,0.3926490843296051
1013,50650.0,-2.4684219360351562,-8.688557624816895,-0.475847601890564
1014,50700.0,-2.4684219360351562,-8.688557624816895,-0.475847601890564
1015,50750.0,-2.4684219360351562,-8.688557624816895,-0.475847601890564
1016,50800.0,-2.4684219360351562,-8.688557624816895,-0.475847601890564
1017,50850.0,-1.5059528350830078,-7.796717643737793,-2.360682964324951
1018,50900.0,-1.5059528350830078,-7.796717643737793,-2.360682964324951
1019,50950.0,-1.5059528350830078,-7.796717643737793,-2.360682964324951
1020,51000.0,-0.9038111567497252,-10.366893768310547,-1.183334231376648
1021,51050.0,-0.9038111567497252,-10.366893768310547,-1.183334231376648
1022,51100.0,-0.9038111567497252,-10.366893768310547,-1.183334231376648
1023,51150.0,-0.9038111567497252,-10.366893768310547,-1.183334231376648
1024,51200.0,-1.8465280532836916,-13.209409713745115,-2.205059766769409
1025,51250.0,-1.8465280532836916,-13.209409713745115,-2.205059766769409
1026,51300.0,-1.8465280532836916,-13.209409713745115,-2.205059766769409
1027,51350.0,-2.0685901641845703,-9.27453899383545,0.9630676507949828
1028,51400.0,-2.0685901641845703,-9.27453899383545,0.9630676507949828
1029,51450.0,-2.0685901641845703,-9.27453899383545,0.9630676507949828
1030,51500.0,-2.0685901641845703,-9.27453899383545,0.9630676507949828
1031,51550.0,-3.4817678928375244,-8.598775863647461,1.807622313499451
1032,51600.0,-3.4817678928375244,-8.598775863647461,1.807622313499451
1033,51650.0,-3.4817678928375244,-8.598775863647461,1.807622313499451
1034,51700.0,-3.4817678928375244,-8.598775863647461,1.807622313499451
1035,51750.0,-3.955819845199585,-5.099050998687744,4.26706600189209
1036,51800.0,-3.955819845199585,-5.099050998687744,4.26706600189209
1037,51850.0,-3.955819845199585,-5.099050998687744,4.26706600189209
1038,51900.0,-7.64109468460083,-9.47146224975586,4.138976097106934
1039,51950.0,-7.64109468460083,-9.47146224975586,4.138976097106934
1040,52000.0,-7.64109468460083,-9.47146224975586,4.138976097106934
1041,52050.0,-7.64109468460083,-9.47146224975586,4.138976097106934
1042,52100.0,-5.9088897705078125,-7.391499042510986,5.5778913497924805
1043,52150.0,-5.9088897705078125,-7.391499042510986,5.5778913497924805
1044,52200.0,-5.9088897705078125,-7.391499042510986,5.5778913497924805
1045,52250.0,-2.542043685913086,-8.122927665710451,1.7190368175506592
1046,52300.0,-2.542043685913086,-8.122927665710451,1.7190368175506592
1047,52350.0,-2.542043685913086,-8.122927665710451,1.7190368175506592
1048,52400.0,-2.542043685913086,-8.122927665710451,1.7190368175506592
1049,52450.0,-5.01405668258667,-9.1662015914917,1.0624270439147951
1050,52500.0,-5.01405668258667,-9.1662015914917,1.0624270439147951
1051,52550.0,-5.01405668258667,-9.1662015914917,1.0624270439147951
1052,52600.0,-5.01405668258667,-9.1662015914917,1.0624270439147951
1053,52650.0,-1.8626888990402224,-8.341997146606445,-0.1454477459192276
1054,52700.0,-1.8626888990402224,-8.341997146606445,-0.1454477459192276
1055,52750.0,-1.8626888990402224,-8.341997146606445,-0.1454477459192276
1056,52800.0,-3.5553896427154537,-8.215703010559082,-2.454655408859253
1057,52850.0,-3.5553896427154537,-8.215703010559082,-2.454655408859253
1058,52900.0,-3.5553896427154537,-8.215703010559082,-2.454655408859253
1059,52950.0,-3.5553896427154537,-8.215703010559082,-2.454655408859253
1060,53000.0,-2.781463861465454,-13.608043670654295,-2.3983914852142334
1061,53050.0,-2.781463861465454,-13.608043670654295,-2.3983914852142334
1062,53100.0,-2.781463861465454,-13.608043670654295,-2.3983914852142334
1063,53150.0,-4.1886558532714835,-10.21306610107422,1.764526605606079
1064,53200.0,-4.1886558532714835,-10.21306610107422,1.764526605606079
1065,53250.0,-4.1886558532714835,-10.21306610107422,1.764526605606079
1066,53300.0,-4.1886558532714835,-10.21306610107422,1.764526605606079
1067,53350.0,-3.0184898376464844,-6.783371925354004,1.8375498056411743
1068,53400.0,-3.0184898376464844,-6.783371925354004,1.8375498056411743
1069,53450.0,-3.0184898376464844,-6.783371925354004,1.8375498056411743
1070,53500.0,-3.0184898376464844,-6.783371925354004,1.8375498056411743
1071,53550.0,-4.036025524139403,-5.829881191253662,3.400364875793457
1072,53600.0,-4.036025524139403,-5.829881191253662,3.400364875793457
1073,53650.0,-4.036025524139403,-5.829881191253662,3.400364875793457
1074,53700.0,-4.273051261901856,-5.130774021148682,4.258087635040283
1075,53750.0,-4.273051261901856,-5.130774021148682,4.258087635040283
1076,53800.0,-4.273051261901856,-5.130774021148682,4.258087635040283
1077,53850.0,-4.273051261901856,-5.130774021148682,4.258087635040283
1078,53900.0,-4.880579948425293,-7.569867134094237,5.273828029632568
1079,53950.0,-4.880579948425293,-7.569867134094237,5.273828029632568
1080,54000.0,-4.880579948425293,-7.569867134094237,5.273828029632568
1081,54050.0,-4.463390350341797,-6.630741596221924,5.40790319442749
1082,54100.0,-4.463390350341797,-6.630741596221924,5.40790319442749
1083,54150.0,-4.463390350341797,-6.630741596221924,5.40790319442749
1084,54200.0,-4.463390350341797,-6.630741596221924,5.40790319442749
1085,54250.0,-5.36241340637207,-8.774150848388674,1.8177976608276367
1086,54300.0,-5.36241340637207,-8.774150848388674,1.8177976608276367
1087,54350.0,-5.36241340637207,-8.774150848388674,1.8177976608276367
1088,54400.0,-5.36241340637207,-8.774150848388674,1.8177976608276367
1089,54450.0,-4.277839660644531,-8.267178535461426,1.004966139793396
1090,54500.0,-4.277839660644531,-8.267178535461426,1.004966139793396
1091,54550.0,-4.277839660644531,-8.267178535461426,1.004966139793396
1092,54600.0,-2.1074960231781006,-8.659229278564451,-1.7794904708862305
1093,54650.0,-2.1074960231781006,-8.659229278564451,-1.7794904708862305
1094,54700.0,-2.1074960231781006,-8.659229278564451,-1.7794904708862305
1095,54750.0,-2.1074960231781006,-8.659229278564451,-1.7794904708862305
1096,54800.0,-1.7794904708862305,-9.88506031036377,-0.6799532771110535
1097,54850.0,-1.7794904708862305,-9.88506031036377,-0.6799532771110535
1098,54900.0,-1.7794904708862305,-9.88506031036377,-0.6799532771110535
1099,54950.0,-1.7794904708862305,-9.88506031036377,-0.6799532771110535
1100,55000.0,-3.846285104751587,-10.548852920532227,-0.6368576288223267
1101,55050.0,-3.846285104751587,-10.548852920532227,-0.6368576288223267
1102,55100.0,-3.846285104751587,-10.548852920532227,-0.6368576288223267
1103,55150.0,-3.846285104751587,-10.548852920532227,-0.6368576288223267
1104,55200.0,-0.5123591423034668,-9.83538055419922,-1.3263877630233765
1105,55250.0,-0.5123591423034668,-9.83538055419922,-1.3263877630233765
1106,55300.0,-0.5123591423034668,-9.83538055419922,-1.3263877630233765
1107,55350.0,-3.3512837886810303,-8.578424453735353,-0.8541314601898193
1108,55400.0,-3.3512837886810303,-8.578424453735353,-0.8541314601898193
1109,55450.0,-3.3512837886810303,-8.578424453735353,-0.8541314601898193
1110,55500.0,-3.205836057662964,-6.522404193878174,2.430713176727295
1111,55550.0,-3.205836057662964,-6.522404193878174,2.430713176727295
1112,55600.0,-3.205836057662964,-6.522404193878174,2.430713176727295
1113,55650.0,-3.205836057662964,-6.522404193878174,2.430713176727295
1114,55700.0,-4.714183330535889,-4.438849925994873,4.086902141571045
1115,55750.0,-4.714183330535889,-4.438849925994873,4.086902141571045
1116,55800.0,-4.714183330535889,-4.438849925994873,4.086902141571045
1117,55850.0,-4.714183330535889,-4.438849925994873,4.086902141571045
1118,55900.0,-2.829347848892212,-4.044404983520509,6.1315507888793945
1119,55950.0,-2.829347848892212,-4.044404983520509,6.1315507888793945
1120,56000.0,-2.829347848892212,-4.044404983520509,6.1315507888793945
1121,56050.0,-2.850895643234253,-8.873510360717773,0.959476351737976
1122,56100.0,-2.850895643234253,-8.873510360717773,0.959476351737976
1123,56150.0,-2.850895643234253,-8.873510360717773,0.959476351737976
1124,56200.0,-2.850895643234253,-8.873510360717773,0.959476351737976
1125,56250.0,-0.13946224749088287,-8.298901557922362,1.213860273361206
1126,56300.0,-0.13946224749088287,-8.298901557922362,1.213860273361206
1127,56350.0,-0.13946224749088287,-8.298901557922362,1.213860273361206
1128,56400.0,-2.341529369354248,-8.555081367492676,-0.028730420395731926
1129,56450.0,-2.341529369354248,-8.555081367492676,-0.028730420395731926
1130,56500.0,-2.341529369354248,-8.555081367492676,-0.028730420395731926
1131,56550.0,-2.341529369354248,-8.555081367492676,-0.028730420395731926
1132,56600.0,-2.9718029499053955,-9.01117706298828,-0.8265981078147888
1133,56650.0,-2.9718029499053955,-9.01117706298828,-0.8265981078147888
1134,56700.0,-2.9718029499053955,-9.01117706298828,-0.8265981078147888
1135,56750.0,-2.9718029499053955,-9.01117706298828,-0.8265981078147888
1136,56800.0,-2.9496564865112305,-9.041702270507812,-1.1121066808700562
1137,56850.0,-2.9496564865112305,-9.041702270507812,-1.1121066808700562
1138,56900.0,-2.9496564865112305,-9.041702270507812,-1.1121066808700562
1139,56950.0,-1.9524714946746824,-13.685855865478516,-2.416946649551392
1140,57000.0,-1.9524714946746824,-13.685855865478516,-2.416946649551392
1141,57050.0,-1.9524714946746824,-13.685855865478516,-2.416946649551392
1142,57100.0,-1.9524714946746824,-13.685855865478516,-2.416946649551392
1143,57150.0,-4.246116638183594,-9.996390342712402,1.866280198097229
1144,57200.0,-4.246116638183594,-9.996390342712402,1.866280198097229
1145,57250.0,-4.246116638183594,-9.996390342712402,1.866280198097229
1146,57300.0,-3.7834372520446777,-8.883685111999512,0.8595184087753296
1147,57350.0,-3.7834372520446777,-8.883685111999512,0.8595184087753296
1148,57400.0,-3.7834372520446777,-8.883685111999512,0.8595184087753296
1149,57450.0,-3.7834372520446777,-8.883685111999512,0.8595184087753296
1150,57500.0,-3.8247373104095463,-6.370970726013184,3.3028011322021484
1151,57550.0,-3.8247373104095463,-6.370970726013184,3.3028011322021484
1152,57600.0,-3.8247373104095463,-6.370970726013184,3.3028011322021484
1153,57650.0,-3.8247373104095463,-6.370970726013184,3.3028011322021484
1154,57700.0,-5.076306343078613,-5.143343925476074,4.032433986663818
1155,57750.0,-5.076306343078613,-5.143343925476074,4.032433986663818
1156,57800.0,-5.076306343078613,-5.143343925476074,4.032433986663818
1157,57850.0,-6.123170852661133,-8.827422142028809,5.274426460266113
1158,57900.0,-6.123170852661133,-8.827422142028809,5.274426460266113
1159,57950.0,-6.123170852661133,-8.827422142028809,5.274426460266113
1160,58000.0,-6.123170852661133,-8.827422142028809,5.274426460266113
1161,58050.0,-4.3885717391967765,-8.410830497741701,0.5422866940498352
1162,58100.0,-4.3885717391967765,-8.410830497741701,0.5422866940498352
1163,58150.0,-4.3885717391967765,-8.410830497741701,0.5422866940498352
1164,58200.0,-4.3885717391967765,-8.410830497741701,0.5422866940498352
1165,58250.0,-3.9935283660888667,-8.304886817932129,0.1149216815829277
1166,58300.0,-3.9935283660888667,-8.304886817932129,0.1149216815829277
1167,58350.0,-3.9935283660888667,-8.304886817932129,0.1149216815829277
1168,58400.0,-2.5552117824554443,-8.578424453735353,-0.18375498056411746
1169,58450.0,-2.5552117824554443,-8.578424453735353,-0.18375498056411746
1170,58500.0,-2.5552117824554443,-8.578424453735353,-0.18375498056411746
1171,58550.0,-2.5552117824554443,-8.578424453735353,-0.18375498056411746
1172,58600.0,-2.3349452018737797,-9.397241592407227,0.4596867263317108
1173,58650.0,-2.3349452018737797,-9.397241592407227,0.4596867263317108
1174,58700.0,-2.3349452018737797,-9.397241592407227,0.4596867263317108
1175,58750.0,-1.9602526426315308,-10.873865127563477,-1.63344407081604
1176,58800.0,-1.9602526426315308,-10.873865127563477,-1.63344407081604
1177,58850.0,-1.9602526426315308,-10.873865127563477,-1.63344407081604
1178,58900.0,-1.9602526426315308,-10.873865127563477,-1.63344407081604
1179,58950.0,-1.969230890274048,-10.750564575195312,-0.6643909811973572
1180,59000.0,-1.969230890274048,-10.750564575195312,-0.6643909811973572
1181,59050.0,-1.969230890274048,-10.750564575195312,-0.6643909811973572
1182,59100.0,-0.7852981686592102,-8.741828918457031,-1.2270283699035645
1183,59150.0,-0.7852981686592102,-8.741828918457031,-1.2270283699035645
1184,59200.0,-0.7852981686592102,-8.741828918457031,-1.2270283699035645
1185,59250.0,-0.7852981686592102,-8.741828918457031,-1.2270283699035645
1186,59300.0,-4.325724124908446,-7.45913553237915,1.3748703002929688
1187,59350.0,-4.325724124908446,-7.45913553237915,1.3748703002929688
1188,59400.0,-4.325724124908446,-7.45913553237915,1.3748703002929688
1189,59450.0,-4.325724124908446,-7.45913553237915,1.3748703002929688
1190,59500.0,-3.964199542999268,-5.470152378082275,4.40233850479126
1191,59550.0,-3.964199542999268,-5.470152378082275,4.40233850479126
1192,59600.0,-3.964199542999268,-5.470152378082275,4.40233850479126
1193,59650.0,-5.083488941192627,-8.87171459197998,5.200804710388184
1194,59700.0,-5.083488941192627,-8.87171459197998,5.200804710388184
1195,59750.0,-5.083488941192627,-8.87171459197998,5.200804710388184
1196,59800.0,-5.083488941192627,-8.87171459197998,5.200804710388184
1197,59850.0,-6.215347766876222,-11.010334968566896,5.459378242492676
1198,59900.0,-6.215347766876222,-11.010334968566896,5.459378242492676
1199,59950.0,-6.215347766876222,-11.010334968566896,5.459378242492676
1200,60000.0,-4.8931498527526855,-8.786121368408201,0.7493851184844971
1201,60050.0,-4.8931498527526855,-8.786121368408201,0.7493851184844971
1202,60100.0,-4.8931498527526855,-8.786121368408201,0.7493851184844971
1203,60150.0,-4.8931498527526855,-8.786121368408201,0.7493851184844971
1204,60200.0,-2.9065608978271484,-9.057265281677246,0.9091981053352356
1205,60250.0,-2.9065608978271484,-9.057265281677246,0.9091981053352356
1206,60300.0,-2.9065608978271484,-9.057265281677246,0.9091981053352356
1207,60350.0,-2.9065608978271484,-9.057265281677246,0.9091981053352356
1208,60400.0,-2.84790301322937,-9.189544677734377,-0.10714052617549896
1209,60450.0,-2.84790301322937,-9.189544677734377,-0.10714052617549896
1210,60500.0,-2.84790301322937,-9.189544677734377,-0.10714052617549896
1211,60550.0,-5.322310447692871,-11.604097366333008,-1.128267526626587
1212,60600.0,-5.322310447692871,-11.604097366333008,-1.128267526626587
1213,60650.0,-5.322310447692871,-11.604097366333008,-1.128267526626587
1214,60700.0,-5.322310447692871,-11.604097366333008,-1.128267526626587
1215,60750.0,-1.3856441974639893,-10.917559623718262,-0.8577227592468262
1216,60800.0,-1.3856441974639893,-10.917559623718262,-0.8577227592468262
1217,60850.0,-1.3856441974639893,-10.917559623718262,-0.8577227592468262
1218,60900.0,-0.2489969730377197,-7.556699275970459,-1.295263171195984
1219,60950.0,-0.2489969730377197,-7.556699275970459,-1.295263171195984
1220,61000.0,-0.2489969730377197,-7.556699275970459,-1.295263171195984
1221,61050.0,-0.2489969730377197,-7.556699275970459,-1.295263171195984
1222,61100.0,-2.741360902786255,-6.801328659057617,4.001908302307129
1223,61150.0,-2.741360902786255,-6.801328659057617,4.001908302307129
1224,61200.0,-2.741360902786255,-6.801328659057617,4.001908302307129
1225,61250.0,-2.741360902786255,-6.801328659057617,4.001908302307129
1226,61300.0,-4.896142482757568,-4.535815238952637,4.137779235839844
1227,61350.0,-4.896142482757568,-4.535815238952637,4.137779235839844
1228,61400.0,-4.896142482757568,-4.535815238952637,4.137779235839844
1229,61450.0,-2.4199392795562744,-6.395511150360107,5.93941593170166
1230,61500.0,-2.4199392795562744,-6.395511150360107,5.93941593170166
1231,61550.0,-2.4199392795562744,-6.395511150360107,5.93941593170166
1232,61600.0,-2.4199392795562744,-6.395511150360107,5.93941593170166
1233,61650.0,-4.064157485961913,-8.390480041503906,5.509656429290772
1234,61700.0,-4.064157485961913,-8.390480041503906,5.509656429290772
1235,61750.0,-4.064157485961913,-8.390480041503906,5.509656429290772
1236,61800.0,-2.896984100341797,-6.599617004394531,0.9229647517204284
1237,61850.0,-2.896984100341797,-6.599617004394531,0.9229647517204284
1238,61900.0,-2.896984100341797,-6.599617004394531,0.9229647517204284
1239,61950.0,-2.896984100341797,-6.599617004394531,0.9229647517204284
1240,62000.0,-4.396352767944337,-8.506598472595215,0.2424129247665405
1241,62050.0,-4.396352767944337,-8.506598472595215,0.2424129247665405
1242,62100.0,-4.396352767944337,-8.506598472595215,0.2424129247665405
1243,62150.0,-4.396352767944337,-8.506598472595215,0.2424129247665405
1244,62200.0,-1.843535304069519,-8.868123054504395,0.4183867573738098
1245,62250.0,-1.843535304069519,-8.868123054504395,0.4183867573738098
1246,62300.0,-1.843535304069519,-8.868123054504395,0.4183867573738098
1247,62350.0,-2.873640537261963,-8.387487411499022,-1.5328876972198486
1248,62400.0,-2.873640537261963,-8.387487411499022,-1.5328876972198486
1249,62450.0,-2.873640537261963,-8.387487411499022,-1.5328876972198486
1250,62500.0,-2.873640537261963,-8.387487411499022,-1.5328876972198486
1251,62550.0,-3.869029998779297,-8.56884765625,-1.1971008777618408
1252,62600.0,-3.869029998779297,-8.56884765625,-1.1971008777618408
1253,62650.0,-3.869029998779297,-8.56884765625,-1.1971008777618408
1254,62700.0,0.004788403399288654,-9.512163162231444,-0.3806780576705933
1255,62750.0,0.004788403399288654,-9.512163162231444,-0.3806780576705933
1256,62800.0,0.004788403399288654,-9.512163162231444,-0.3806780576705933
1257,62850.0,0.004788403399288654,-9.512163162231444,-0.3806780576705933
1258,62900.0,-2.0584149360656743,-7.343016624450684,2.9562406539916988
1259,62950.0,-2.0584149360656743,-7.343016624450684,2.9562406539916988
1260,63000.0,-2.0584149360656743,-7.343016624450684,2.9562406539916988
1261,63050.0,-2.0584149360656743,-7.343016624450684,2.9562406539916988
1262,63100.0,-4.366425514221191,-7.449558734893799,4.0312371253967285
1263,63150.0,-4.366425514221191,-7.449558734893799,4.0312371253967285
1264,63200.0,-4.366425514221191,-7.449558734893799,4.0312371253967285
1265,63250.0,-4.696226596832275,-3.523067712783813,5.0691237449646
1266,63300.0,-4.696226596832275,-3.523067712783813,5.0691237449646
1267,63350.0,-4.696226596832275,-3.523067712783813,5.0691237449646
1268,63400.0,-4.696226596832275,-3.523067712783813,5.0691237449646
1269,63450.0,-7.508815288543701,-12.15715789794922,7.207744121551514
1270,63500.0,-7.508815288543701,-12.15715789794922,7.207744121551514
1271,63550.0,-7.508815288543701,-12.15715789794922,7.207744121551514
1272,63600.0,-0.5141547918319702,-2.0691888332366943,3.270479440689087
1273,63650.0,-0.5141547918319702,-2.0691888332366943,3.270479440689087
1274,63700.0,-0.5141547918319702,-2.0691888332366943,3.270479440689087
1275,63750.0,-0.5141547918319702,-2.0691888332366943,3.270479440689087
1276,63800.0,-0.7386112213134766,-7.154473304748535,0.9229647517204284
1277,63850.0,-0.7386112213134766,-7.154473304748535,0.9229647517204284
1278,63900.0,-0.7386112213134766,-7.154473304748535,0.9229647517204284
1279,63950.0,-0.7386112213134766,-7.154473304748535,0.9229647517204284
1280,64000.0,-3.912724018096924,-7.682993412017822,0.41778820753097534
1281,64050.0,-3.912724018096924,-7.682993412017822,0.41778820753097534
1282,64100.0,-3.912724018096924,-7.682993412017822,0.41778820753097534
1283,64150.0,-4.620809078216553,-7.501632690429687,-1.173158884048462
1284,64200.0,-4.620809078216553,-7.501632690429687,-1.173158884048462
1285,64250.0,-4.620809078216553,-7.501632690429687,-1.173158884048462
1286,64300.0,-4.620809078216553,-7.501632690429687,-1.173158884048462
1287,64350.0,-4.986523628234863,-10.102932929992676,-1.5909470319747925
1288,64400.0,-4.986523628234863,-10.102932929992676,-1.5909470319747925
1289,64450.0,-4.986523628234863,-10.102932929992676,-1.5909470319747925
1290,64500.0,0.23343466222286224,-13.572131156921387,-0.9876081943511964
1291,64550.0,0.23343466222286224,-13.572131156921387,-0.9876081943511964
1292,64600.0,0.23343466222286224,-13.572131156921387,-0.9876081943511964
1293,64650.0,0.23343466222286224,-13.572131156921387,-0.9876081943511964
1294,64700.0,0.9050082564353944,-9.585784912109377,-0.7224503755569458
1295,64750.0,0.9050082564353944,-9.585784912109377,-0.7224503755569458
1296,64800.0,0.9050082564353944,-9.585784912109377,-0.7224503755569458
1297,64850.0,0.9050082564353944,-9.585784912109377,-0.7224503755569458
1298,64900.0,-3.553593873977661,-7.141903877258301,2.4175450801849365
1299,64950.0,-3.553593873977661,-7.141903877258301,2.4175450801849365
1300,65000.0,-3.553593873977661,-7.141903877258301,2.4175450801849365
1301,65050.0,-3.690661907196045,-5.78678560256958,4.061164855957031
1302,65100.0,-3.690661907196045,-5.78678560256958,4.061164855957031
1303,65150.0,-3.690661907196045,-5.78678560256958,4.061164855957031
1304,65200.0,-3.690661907196045,-5.78678560256958,4.061164855957031
1305,65250.0,-6.580463409423827,-10.13525390625,4.946420669555664
1306,65300.0,-6.580463409423827,-10.13525390625,4.946420669555664
1307,65350.0,-6.580463409423827,-10.13525390625,4.946420669555664
1308,65400.0,-8.231265068054201,-9.519944190979004,3.9462430477142334
1309,65450.0,-8.231265068054201,-9.519944190979004,3.9462430477142334
1310,65500.0,-8.231265068054201,-9.519944190979004,3.9462430477142334
1311,65550.0,-8.231265068054201,-9.519944190979004,3.9462430477142334
1312,65600.0,-5.100846767425537,-6.1285576820373535,0.6320692300796509
1313,65650.0,-5.100846767425537,-6.1285576820373535,0.6320692300796509
1314,65700.0,-5.100846767425537,-6.1285576820373535,0.6320692300796509
1315,65750.0,-5.100846767425537,-6.1285576820373535,0.6320692300796509
1316,65800.0,-4.527435302734375,-8.498817443847656,0.5728127360343933
1317,65850.0,-4.527435302734375,-8.498817443847656,0.5728127360343933
1318,65900.0,-4.527435302734375,-8.498817443847656,0.5728127360343933
1319,65950.0,-3.4075474739074707,-9.074024200439453,-0.17896658182144165
1320,66000.0,-3.4075474739074707,-9.074024200439453,-0.17896658182144165
1321,66050.0,-3.4075474739074707,-9.074024200439453,-0.17896658182144165
1322,66100.0,-3.4075474739074707,-9.074024200439453,-0.17896658182144165
1323,66150.0,-2.895188331604004,-9.187748908996582,-0.37529110908508295
1324,66200.0,-2.895188331604004,-9.187748908996582,-0.37529110908508295
1325,66250.0,-2.895188331604004,-9.187748908996582,-0.37529110908508295
1326,66300.0,-2.895188331604004,-9.187748908996582,-0.37529110908508295
1327,66350.0,-2.3259668350219727,-11.2467622756958,-1.754351258277893
1328,66400.0,-2.3259668350219727,-11.2467622756958,-1.754351258277893
1329,66450.0,-2.3259668350219727,-11.2467622756958,-1.754351258277893
1330,66500.0,-1.7974469661712646,-9.363123893737793,-0.2358288615942001
1331,66550.0,-1.7974469661712646,-9.363123893737793,-0.2358288615942001
1332,66600.0,-1.7974469661712646,-9.363123893737793,-0.2358288615942001
1333,66650.0,-1.7974469661712646,-9.363123893737793,-0.2358288615942001
1334,66700.0,-0.9409212470054626,-6.843226909637451,1.6047136783599854
1335,66750.0,-0.9409212470054626,-6.843226909637451,1.6047136783599854
1336,66800.0,-0.9409212470054626,-6.843226909637451,1.6047136783599854
1337,66850.0,-3.260902643203736,-6.275202751159668,2.983773946762085
1338,66900.0,-3.260902643203736,-6.275202751159668,2.983773946762085
1339,66950.0,-3.260902643203736,-6.275202751159668,2.983773946762085
1340,67000.0,-3.260902643203736,-6.275202751159668,2.983773946762085
1341,67050.0,-5.200804710388184,-5.173271179199219,4.624999046325684
1342,67100.0,-5.200804710388184,-5.173271179199219,4.624999046325684
1343,67150.0,-5.200804710388184,-5.173271179199219,4.624999046325684
1344,67200.0,-2.6420016288757324,-4.084507942199707,4.626196384429932
1345,67250.0,-2.6420016288757324,-4.084507942199707,4.626196384429932
1346,67300.0,-2.6420016288757324,-4.084507942199707,4.626196384429932
1347,67350.0,-2.6420016288757324,-4.084507942199707,4.626196384429932
1348,67400.0,-4.0114850997924805,-10.333972930908203,-0.5452794432640076
1349,67450.0,-4.0114850997924805,-10.333972930908203,-0.5452794432640076
1350,67500.0,-4.0114850997924805,-10.333972930908203,-0.5452794432640076
1351,67550.0,-4.0114850997924805,-10.333972930908203,-0.5452794432640076
1352,67600.0,-3.5649664402008057,-8.605359077453612,0.2861070930957794
1353,67650.0,-3.5649664402008057,-8.605359077453612,0.2861070930957794
1354,67700.0,-3.5649664402008057,-8.605359077453612,0.2861070930957794
1355,67750.0,-2.7904419898986816,-9.036913871765137,-0.1215057373046875
1356,67800.0,-2.7904419898986816,-9.036913871765137,-0.1215057373046875
1357,67850.0,-2.7904419898986816,-9.036913871765137,-0.1215057373046875
1358,67900.0,-2.7904419898986816,-9.036913871765137,-0.1215057373046875
1359,67950.0,-2.0769698619842534,-9.759963035583496,-0.74040687084198
1360,68000.0,-2.0769698619842534,-9.759963035583496,-0.74040687084198
1361,68050.0,-2.0769698619842534,-9.759963035583496,-0.74040687084198
1362,68100.0,-2.0769698619842534,-9.759963035583496,-0.74040687084198
1363,68150.0,-2.218227863311768,-10.295066833496094,-1.1994950771331787
1364,68200.0,-2.218227863311768,-10.295066833496094,-1.1994950771331787
1365,68250.0,-2.218227863311768,-10.295066833496094,-1.1994950771331787
1366,68300.0,-1.5280991792678833,-10.612298965454102,-1.134851574897766
1367,68350.0,-1.5280991792678833,-10.612298965454102,-1.134851574897766
1368,68400.0,-1.5280991792678833,-10.612298965454102,-1.134851574897766
1369,68450.0,-1.5280991792678833,-10.612298965454102,-1.134851574897766
1370,68500.0,-1.5143325328826904,-9.25059700012207,-0.9792284965515136
1371,68550.0,-1.5143325328826904,-9.25059700012207,-0.9792284965515136
1372,68600.0,-1.5143325328826904,-9.25059700012207,-0.9792284965515136
1373,68650.0,-3.314173698425293,-6.180033206939697,2.208651065826416
1374,68700.0,-3.314173698425293,-6.180033206939697,2.208651065826416
1375,68750.0,-3.314173698425293,-6.180033206939697,2.208651065826416
1376,68800.0,-3.314173698425293,-6.180033206939697,2.208651065826416
1377,68850.0,-3.800795316696167,-3.557185173034668,4.599860191345215
1378,68900.0,-3.800795316696167,-3.557185173034668,4.599860191345215
1379,68950.0,-3.800795316696167,-3.557185173034668,4.599860191345215
1380,69000.0,-3.800795316696167,-3.557185173034668,4.599860191345215
1381,69050.0,-5.020042419433594,-9.296086311340332,5.701791286468506
1382,69100.0,-5.020042419433594,-9.296086311340332,5.701791286468506
1383,69150.0,-5.020042419433594,-9.296086311340332,5.701791286468506
1384,69200.0,-1.5083470344543457,-5.919663906097412,2.36188006401062
1385,69250.0,-1.5083470344543457,-5.919663906097412,2.36188006401062
1386,69300.0,-1.5083470344543457,-5.919663906097412,2.36188006401062
1387,69350.0,-1.5083470344543457,-5.919663906097412,2.36188006401062
1388,69400.0,-0.18375498056411746,-8.255805969238281,-0.043095629662275314
1389,69450.0,-0.18375498056411746,-8.255805969238281,-0.043095629662275314
1390,69500.0,-0.18375498056411746,-8.255805969238281,-0.043095629662275314
1391,69550.0,-1.436521053314209,-8.47547435760498,0.7326257228851318
1392,69600.0,-1.436521053314209,-8.47547435760498,0.7326257228851318
1393,69650.0,-1.436521053314209,-8.47547435760498,0.7326257228851318
1394,69700.0,-1.436521053314209,-8.47547435760498,0.7326257228851318
1395,69750.0,-1.7824832201004028,-8.792107582092285,-0.5536591410636902
1396,69800.0,-1.7824832201004028,-8.792107582092285,-0.5536591410636902
1397,69850.0,-1.7824832201004028,-8.792107582092285,-0.5536591410636902
1398,69900.0,-1.7824832201004028,-8.792107582092285,-0.5536591410636902
1399,69950.0,-0.7942764163017273,-11.76091766357422,-1.2773065567016602
1400,70000.0,-0.7942764163017273,-11.76091766357422,-1.2773065567016602
1401,70050.0,-0.7942764163017273,-11.76091766357422,-1.2773065567016602
1402,70100.0,0.4082113802433014,-15.38693618774414,-0.22385786473751068
1403,70150.0,0.4082113802433014,-15.38693618774414,-0.22385786473751068
1404,70200.0,0.4082113802433014,-15.38693618774414,-0.22385786473751068
1405,70250.0,0.4082113802433014,-15.38693618774414,-0.22385786473751068
1406,70300.0,-1.7447744607925415,-7.829039573669434,-0.272938996553421
1407,70350.0,-1.7447744607925415,-7.829039573669434,-0.272938996553421
1408,70400.0,-1.7447744607925415,-7.829039573669434,-0.272938996553421
1409,70450.0,-3.3033998012542725,-8.580220222473145,2.5145103931427
1410,70500.0,-3.3033998012542725,-8.580220222473145,2.5145103931427
1411,70550.0,-3.3033998012542725,-8.580220222473145,2.5145103931427
1412,70600.0,-3.3033998012542725,-8.580220222473145,2.5145103931427
1413,70650.0,-4.135983467102052,-6.011840343475343,3.520673513412476
1414,70700.0,-4.135983467102052,-6.011840343475343,3.520673513412476
1415,70750.0,-4.135983467102052,-6.011840343475343,3.520673513412476
1416,70800.0,-4.135983467102052,-6.011840343475343,3.520673513412476
1417,70850.0,-8.217498779296875,-11.933897972106935,5.155913352966309
1418,70900.0,-8.217498779296875,-11.933897972106935,5.155913352966309
1419,70950.0,-8.217498779296875,-11.933897972106935,5.155913352966309
1420,71000.0,-5.008071422576903,-7.6997528076171875,4.322132587432861
1421,71050.0,-5.008071422576903,-7.6997528076171875,4.322132587432861
1422,71100.0,-5.008071422576903,-7.6997528076171875,4.322132587432861
1423,71150.0,-5.008071422576903,-7.6997528076171875,4.322132587432861
1424,71200.0,-5.813121795654298,-8.674192428588867,1.003769040107727
1425,71250.0,-5.813121795654298,-8.674192428588867,1.003769040107727
1426,71300.0,-5.813121795654298,-8.674192428588867,1.003769040107727
1427,71350.0,-3.429095268249512,-7.617152690887451,1.2168530225753784
1428,71400.0,-3.429095268249512,-7.617152690887451,1.2168530225753784
1429,71450.0,-3.429095268249512,-7.617152690887451,1.2168530225753784
1430,71500.0,-3.429095268249512,-7.617152690887451,1.2168530225753784
1431,71550.0,-2.990956544876098,-9.106945037841797,-0.20530278980731964
1432,71600.0,-2.990956544876098,-9.106945037841797,-0.20530278980731964
1433,71650.0,-2.990956544876098,-9.106945037841797,-0.20530278980731964
1434,71700.0,-2.990956544876098,-9.106945037841797,-0.20530278980731964
1435,71750.0,-1.0959458351135254,-11.985373497009276,1.3407529592514038
1436,71800.0,-1.0959458351135254,-11.985373497009276,1.3407529592514038
1437,71850.0,-1.0959458351135254,-11.985373497009276,1.3407529592514038
1438,71900.0,-2.0284874439239498,-10.128670692443848,-1.764526605606079
1439,71950.0,-2.0284874439239498,-10.128670692443848,-1.764526605606079
1440,72000.0,-2.0284874439239498,-10.128670692443848,-1.764526605606079
1441,72050.0,-2.0284874439239498,-10.128670692443848,-1.764526605606079
1442,72100.0,-0.436343252658844,-9.464279174804688,-0.4273650050163269
1443,72150.0,-0.436343252658844,-9.464279174804688,-0.4273650050163269
1444,72200.0,-0.436343252658844,-9.464279174804688,-0.4273650050163269
1445,72250.0,-3.0023288726806636,-8.747814178466799,1.1150994300842283
1446,72300.0,-3.0023288726806636,-8.747814178466799,1.1150994300842283
1447,72350.0,-3.0023288726806636,-8.747814178466799,1.1150994300842283
1448,72400.0,-3.0023288726806636,-8.747814178466799,1.1150994300842283
1449,72450.0,-2.9161376953125,-5.064933776855469,2.8862102031707764
1450,72500.0,-2.9161376953125,-5.064933776855469,2.8862102031707764
1451,72550.0,-2.9161376953125,-5.064933776855469,2.8862102031707764
1452,72600.0,-2.9161376953125,-5.064933776855469,2.8862102031707764
1453,72650.0,-4.020462989807129,-5.278017520904541,4.132391929626465
1454,72700.0,-4.020462989807129,-5.278017520904541,4.132391929626465
1455,72750.0,-4.020462989807129,-5.278017520904541,4.132391929626465
1456,72800.0,-5.325303077697754,-8.26358699798584,6.117784023284912
1457,72850.0,-5.325303077697754,-8.26358699798584,6.117784023284912
1458,72900.0,-5.325303077697754,-8.26358699798584,6.117784023284912
1459,72950.0,-5.325303077697754,-8.26358699798584,6.117784023284912
1460,73000.0,-3.7247793674468994,-8.726266860961914,1.5670050382614136
1461,73050.0,-3.7247793674468994,-8.726266860961914,1.5670050382614136
1462,73100.0,-3.7247793674468994,-8.726266860961914,1.5670050382614136
1463,73150.0,-0.37888240814208973,-7.3867106437683105,0.8200140595436096
1464,73200.0,-0.37888240814208973,-7.3867106437683105,0.8200140595436096
1465,73250.0,-0.37888240814208973,-7.3867106437683105,0.8200140595436096
1466,73300.0,-0.37888240814208973,-7.3867106437683105,0.8200140595436096
1467,73350.0,-2.154781579971313,-8.756194114685059,0.4806360006332398
1468,73400.0,-2.154781579971313,-8.756194114685059,0.4806360006332398
1469,73450.0,-2.154781579971313,-8.756194114685059,0.4806360006332398
1470,73500.0,-2.154781579971313,-8.756194114685059,0.4806360006332398
1471,73550.0,-2.87064790725708,-9.294290542602539,-0.7338228225708008
1472,73600.0,-2.87064790725708,-9.294290542602539,-0.7338228225708008
1473,73650.0,-2.87064790725708,-9.294290542602539,-0.7338228225708008
1474,73700.0,-1.4550760984420776,-9.192537307739258,-1.4179660081863403
1475,73750.0,-1.4550760984420776,-9.192537307739258,-1.4179660081863403
1476,73800.0,-1.4550760984420776,-9.192537307739258,-1.4179660081863403
1477,73850.0,-1.4550760984420776,-9.192537307739258,-1.4179660081863403
1478,73900.0,-2.145803213119507,-13.8253173828125,-1.493383288383484
1479,73950.0,-2.145803213119507,-13.8253173828125,-1.493383288383484
1480,74000.0,-2.145803213119507,-13.8253173828125,-1.493383288383484
1481,74050.0,-2.2816741466522217,-11.267711639404295,1.2946646213531494
1482,74100.0,-2.2816741466522217,-11.267711639404295,1.2946646213531494
1483,74150.0,-2.2816741466522217,-11.267711639404295,1.2946646213531494
1484,74200.0,-2.2816741466522217,-11.267711639404295,1.2946646213531494
1485,74250.0,-3.785831451416016,-8.103774070739746,1.6101006269454956
1486,74300.0,-3.785831451416016,-8.103774070739746,1.6101006269454956
1487,74350.0,-3.785831451416016,-8.103774070739746,1.6101006269454956
1488,74400.0,-3.785831451416016,-8.103774070739746,1.6101006269454956
1489,74450.0,-4.291007995605469,-5.9124813079833975,3.139995574951172
1490,74500.0,-4.291007995605469,-5.9124813079833975,3.139995574951172
1491,74550.0,-4.291007995605469,-5.9124813079833975,3.139995574951172
1492,74600.0,-6.8581905364990225,-6.385335922241211,5.686229228973389
1493,74650.0,-6.8581905364990225,-6.385335922241211,5.686229228973389
1494,74700.0,-6.8581905364990225,-6.385335922241211,5.686229228973389
1495,74750.0,-6.8581905364990225,-6.385335922241211,5.686229228973389
1496,74800.0,-6.982689380645753,-8.53293514251709,3.7349545955657963
1497,74850.0,-6.982689380645753,-8.53293514251709,3.7349545955657963
1498,74900.0,-6.982689380645753,-8.53293514251709,3.7349545955657963
1499,74950.0,-3.2597055435180664,-6.512827396392822,1.0809820890426636
1500,75000.0,-3.2597055435180664,-6.512827396392822,1.0809820890426636
1501,75050.0,-3.2597055435180664,-6.512827396392822,1.0809820890426636
1502,75100.0,-3.2597055435180664,-6.512827396392822,1.0809820890426636
1503,75150.0,-2.208651065826416,-7.845798969268799,1.1965023279190063
1504,75200.0,-2.208651065826416,-7.845798969268799,1.1965023279190063
1505,75250.0,-2.208651065826416,-7.845798969268799,1.1965023279190063
1506,75300.0,-2.208651065826416,-7.845798969268799,1.1965023279190063
1507,75350.0,-4.159327030181885,-8.24622917175293,0.6572083830833435
1508,75400.0,-4.159327030181885,-8.24622917175293,0.6572083830833435
1509,75450.0,-4.159327030181885,-8.24622917175293,0.6572083830833435
1510,75500.0,-2.718017578125,-10.897209167480467,-0.7637503147125244
1511,75550.0,-2.718017578125,-10.897209167480467,-0.7637503147125244
1512,75600.0,-2.718017578125,-10.897209167480467,-0.7637503147125244
1513,75650.0,-2.718017578125,-10.897209167480467,-0.7637503147125244
1514,75700.0,-3.7014358043670654,-11.1072998046875,-0.6811503767967224
1515,75750.0,-3.7014358043670654,-11.1072998046875,-0.6811503767967224
1516,75800.0,-3.7014358043670654,-11.1072998046875,-0.6811503767967224
1517,75850.0,-0.7230489253997803,-11.309610366821287,-1.3455413579940796
1518,75900.0,-0.7230489253997803,-11.309610366821287,-1.3455413579940796
1519,75950.0,-0.7230489253997803,-11.309610366821287,-1.3455413579940796
1520,76000.0,-0.7230489253997803,-11.309610366821287,-1.3455413579940796
1521,76050.0,0.3693056106567383,-9.247005462646484,-2.494159698486328
1522,76100.0,0.3693056106567383,-9.247005462646484,-2.494159698486328
1523,76150.0,0.3693056106567383,-9.247005462646484,-2.494159698486328
1524,76200.0,0.3693056106567383,-9.247005462646484,-2.494159698486328
1525,76250.0,-2.3798365592956543,-5.3133320808410645,3.227383852005005
1526,76300.0,-2.3798365592956543,-5.3133320808410645,3.227383852005005
1527,76350.0,-2.3798365592956543,-5.3133320808410645,3.227383852005005
1528,76400.0,-3.907935619354248,-5.017049789428711,5.006275653839111
1529,76450.0,-3.907935619354248,-5.017049789428711,5.006275653839111
1530,76500.0,-3.907935619354248,-5.017049789428711,5.006275653839111
1531,76550.0,-3.907935619354248,-5.017049789428711,5.006275653839111
1532,76600.0,-8.091204643249513,-12.838308334350586,8.091803550720215
1533,76650.0,-8.091204643249513,-12.838308334350586,8.091803550720215
1534,76700.0,-8.091204643249513,-12.838308334350586,8.091803550720215
1535,76750.0,-1.7363947629928589,-3.403956174850464,1.7244237661361694
1536,76800.0,-1.7363947629928589,-3.403956174850464,1.7244237661361694
1537,76850.0,-1.7363947629928589,-3.403956174850464,1.7244237661361694
1538,76900.0,-1.7363947629928589,-3.403956174850464,1.7244237661361694
1539,76950.0,-0.6799532771110535,-9.258976936340332,0.11671733111143112
1540,77000.0,-0.6799532771110535,-9.258976936340332,0.11671733111143112
1541,77050.0,-0.6799532771110535,-9.258976936340332,0.11671733111143112
1542,77100.0,-0.6799532771110535,-9.258976936340332,0.11671733111143112
1543,77150.0,-2.4426841735839844,-8.212710380554201,0.2346317619085312
1544,77200.0,-2.4426841735839844,-8.212710380554201,0.2346317619085312
1545,77250.0,-2.4426841735839844,-8.212710380554201,0.2346317619085312
1546,77300.0,-2.0584149360656743,-8.146271705627441,-2.3307554721832275
1547,77350.0,-2.0584149360656743,-8.146271705627441,-2.3307554721832275
1548,77400.0,-2.0584149360656743,-8.146271705627441,-2.3307554721832275
1549,77450.0,-2.0584149360656743,-8.146271705627441,-2.3307554721832275
1550,77500.0,-5.647323131561278,-12.732364654541016,-1.1929110288619995
1551,77550.0,-5.647323131561278,-12.732364654541016,-1.1929110288619995
1552,77600.0,-5.647323131561278,-12.732364654541016,-1.1929110288619995
1553,77650.0,-5.647323131561278,-12.732364654541016,-1.1929110288619995
1554,77700.0,-0.017956512048840526,-10.262146949768066,-2.4217350482940674
1555,77750.0,-0.017956512048840526,-10.262146949768066,-2.4217350482940674
1556,77800.0,-0.017956512048840526,-10.262146949768066,-2.4217350482940674
1557,77850.0,-3.746327161788941,-8.557475090026855,1.3114240169525146
1558,77900.0,-3.746327161788941,-8.557475090026855,1.3114240169525146
1559,77950.0,-3.746327161788941,-8.557475090026855,1.3114240169525146
1560,78000.0,-3.746327161788941,-8.557475090026855,1.3114240169525146
1561,78050.0,-4.541800498962402,-4.9170918464660645,3.4518404006958012
1562,78100.0,-4.541800498962402,-4.9170918464660645,3.4518404006958012
1563,78150.0,-4.541800498962402,-4.9170918464660645,3.4518404006958012
1564,78200.0,-4.516661643981934,-7.3891048431396475,5.329493045806885
1565,78250.0,-4.516661643981934,-7.3891048431396475,5.329493045806885
1566,78300.0,-4.516661643981934,-7.3891048431396475,5.329493045806885
1567,78350.0,-4.516661643981934,-7.3891048431396475,5.329493045806885
1568,78400.0,-9.52353572845459,-16.463129043579098,0.6841431260108948
1569,78450.0,-9.52353572845459,-16.463129043579098,0.6841431260108948
1570,78500.0,-9.52353572845459,-16.463129043579098,0.6841431260108948
1571,78550.0,-9.52353572845459,-16.463129043579098,0.6841431260108948
1572,78600.0,-4.039616584777832,-6.91146183013916,0.6392518281936646
1573,78650.0,-4.039616584777832,-6.91146183013916,0.6392518281936646
1574,78700.0,-4.039616584777832,-6.91146183013916,0.6392518281936646
1575,78750.0,-1.035492181777954,-8.453926086425781,0.6147112846374512
1576,78800.0,-1.035492181777954,-8.453926086425781,0.6147112846374512
1577,78850.0,-1.035492181777954,-8.453926086425781,0.6147112846374512
1578,78900.0,-1.035492181777954,-8.453926086425781,0.6147112846374512
1579,78950.0,-0.07122749835252762,-10.710461616516113,0.20709845423698425
1580,79000.0,-0.07122749835252762,-10.710461616516113,0.20709845423698425
1581,79050.0,-0.07122749835252762,-10.710461616516113,0.20709845423698425
1582,79100.0,-1.6364368200302124,-10.102334022521973,-0.376488208770752
1583,79150.0,-1.6364368200302124,-10.102334022521973,-0.376488208770752
1584,79200.0,-1.6364368200302124,-10.102334022521973,-0.376488208770752
1585,79250.0,-1.6364368200302124,-10.102334022521973,-0.376488208770752
1586,79300.0,-2.3546974658966064,-12.21641445159912,-3.013102769851685
1587,79350.0,-2.3546974658966064,-12.21641445159912,-3.013102769851685
1588,79400.0,-2.3546974658966064,-12.21641445159912,-3.013102769851685
1589,79450.0,-2.3546974658966064,-12.21641445159912,-3.013102769851685
1590,79500.0,-3.5589809417724614,-8.488043785095215,0.021547814831137657
1591,79550.0,-3.5589809417724614,-8.488043785095215,0.021547814831137657
1592,79600.0,-3.5589809417724614,-8.488043785095215,0.021547814831137657
1593,79650.0,-3.0615854263305664,-7.67042350769043,1.1318588256835938
1594,79700.0,-3.0615854263305664,-7.67042350769043,1.1318588256835938
1595,79750.0,-3.0615854263305664,-7.67042350769043,1.1318588256835938
1596,79800.0,-3.0615854263305664,-7.67042350769043,1.1318588256835938
1597,79850.0,-3.5715503692626958,-5.95258378982544,3.980360269546509
1598,79900.0,-3.5715503692626958,-5.95258378982544,3.980360269546509
1599,79950.0,-3.5715503692626958,-5.95258378982544,3.980360269546509
1600,80000.0,-5.024232387542725,-6.056731700897218,6.359598159790039
1601,80050.0,-5.024232387542725,-6.056731700897218,6.359598159790039
1602,80100.0,-5.024232387542725,-6.056731700897218,6.359598159790039
1603,80150.0,-5.024232387542725,-6.056731700897218,6.359598159790039
1604,80200.0,-8.146869659423826,-10.888829231262207,2.42472767829895
1605,80250.0,-8.146869659423826,-10.888829231262207,2.42472767829895
1606,80300.0,-8.146869659423826,-10.888829231262207,2.42472767829895
1607,80350.0,-8.146869659423826,-10.888829231262207,2.42472767829895
1608,80400.0,-4.107253074645996,-6.953360080718994,0.7314286231994629
1609,80450.0,-4.107253074645996,-6.953360080718994,0.7314286231994629
1610,80500.0,-4.107253074645996,-6.953360080718994,0.7314286231994629
1611,80550.0,-2.6874914169311523,-8.404845237731934,0.046088382601737976
1612,80600.0,-2.6874914169311523,-8.404845237731934,0.046088382601737976
1613,80650.0,-2.6874914169311523,-8.404845237731934,0.046088382601737976
1614,80700.0,-2.6874914169311523,-8.404845237731934,0.046088382601737976
1615,80750.0,-2.847304344177246,-7.730278968811035,-1.2306196689605713
1616,80800.0,-2.847304344177246,-7.730278968811035,-1.2306196689605713
1617,80850.0,-2.847304344177246,-7.730278968811035,-1.2306196689605713
1618,80900.0,-1.103128433227539,-9.456498146057127,-1.0989385843276978
1619,80950.0,-1.103128433227539,-9.456498146057127,-1.0989385843276978
1620,81000.0,-1.103128433227539,-9.456498146057127,-1.0989385843276978
1621,81050.0,-1.103128433227539,-9.456498146057127,-1.0989385843276978
1622,81100.0,-4.070741653442384,-9.5624418258667,-1.6190788745880127
1623,81150.0,-4.070741653442384,-9.5624418258667,-1.6190788745880127
1624,81200.0,-4.070741653442384,-9.5624418258667,-1.6190788745880127
1625,81250.0,-2.9975404739379883,-11.8411226272583,-1.9788076877593996
1626,81300.0,-2.9975404739379883,-11.8411226272583,-1.9788076877593996
1627,81350.0,-2.9975404739379883,-11.8411226272583,-1.9788076877593996
1628,81400.0,-2.9975404739379883,-11.8411226272583,-1.9788076877593996
1629,81450.0,-3.93906044960022,-8.829216957092285,0.6045359373092651
1630,81500.0,-3.93906044960022,-8.829216957092285,0.6045359373092651
1631,81550.0,-3.93906044960022,-8.829216957092285,0.6045359373092651
1632,81600.0,-3.93906044960022,-8.829216957092285,0.6045359373092651
1633,81650.0,-4.0072951316833505,-6.9671268463134775,1.3012486696243286
1634,81700.0,-4.0072951316833505,-6.9671268463134775,1.3012486696243286
1635,81750.0,-4.0072951316833505,-6.9671268463134775,1.3012486696243286
1636,81800.0,-4.013280391693115,-4.711190223693848,3.7014358043670654
1637,81850.0,-4.013280391693115,-4.711190223693848,3.7014358043670654
1638,81900.0,-4.013280391693115,-4.711190223693848,3.7014358043670654
1639,81950.0,-4.013280391693115,-4.711190223693848,3.7014358043670654
1640,82000.0,-6.910264492034912,-9.937732696533203,6.0411696434021
1641,82050.0,-6.910264492034912,-9.937732696533203,6.0411696434021
1642,82100.0,-6.910264492034912,-9.937732696533203,6.0411696434021
1643,82150.0,-6.910264492034912,-9.937732696533203,6.0411696434021
1644,82200.0,-5.371391296386719,-6.780977725982666,5.720346450805664
1645,82250.0,-5.371391296386719,-6.780977725982666,5.720346450805664
1646,82300.0,-5.371391296386719,-6.780977725982666,5.720346450805664
1647,82350.0,-2.250549554824829,-7.062296390533447,-1.908178806304932
1648,82400.0,-2.250549554824829,-7.062296390533447,-1.908178806304932
1649,82450.0,-2.250549554824829,-7.062296390533447,-1.908178806304932
1650,82500.0,-2.250549554824829,-7.062296390533447,-1.908178806304932
1651,82550.0,-5.87896203994751,-8.917802810668945,1.158793568611145
1652,82600.0,-5.87896203994751,-8.917802810668945,1.158793568611145
1653,82650.0,-5.87896203994751,-8.917802810668945,1.158793568611145
1654,82700.0,-2.7772738933563232,-9.180566787719727,0.7715315222740173
1655,82750.0,-2.7772738933563232,-9.180566787719727,0.7715315222740173
1656,82800.0,-2.7772738933563232,-9.180566787719727,0.7715315222740173
1657,82850.0,-2.7772738933563232,-9.180566787719727,0.7715315222740173
1658,82900.0,-1.4514847993850708,-10.44350814819336,-0.8481459617614746
1659,82950.0,-1.4514847993850708,-10.44350814819336,-0.8481459617614746
1660,83000.0,-1.4514847993850708,-10.44350814819336,-0.8481459617614746
1661,83050.0,-1.4514847993850708,-10.44350814819336,-0.8481459617614746
1662,83100.0,-0.9774328470230104,-11.705850601196287,-1.9788076877593996
1663,83150.0,-0.9774328470230104,-11.705850601196287,-1.9788076877593996
1664,83200.0,-0.9774328470230104,-11.705850601196287,-1.9788076877593996
1665,83250.0,-2.631227731704712,-6.831255912780763,-0.5614402890205383
1666,83300.0,-2.631227731704712,-6.831255912780763,-0.5614402890205383
1667,83350.0,-2.631227731704712,-6.831255912780763,-0.5614402890205383
1668,83400.0,-2.631227731704712,-6.831255912780763,-0.5614402890205383
1669,83450.0,-3.4123358726501465,-5.95677375793457,2.4893712997436523
1670,83500.0,-3.4123358726501465,-5.95677375793457,2.4893712997436523
1671,83550.0,-3.4123358726501465,-5.95677375793457,2.4893712997436523
1672,83600.0,-3.4985272884368896,-2.646191358566284,3.840898036956787
1673,83650.0,-3.4985272884368896,-2.646191358566284,3.840898036956787
1674,83700.0,-3.4985272884368896,-2.646191358566284,3.840898036956787
1675,83750.0,-3.4985272884368896,-2.646191358566284,3.840898036956787
1676,83800.0,-2.7120320796966557,-5.195417881011963,7.029974937438965
1677,83850.0,-2.7120320796966557,-5.195417881011963,7.029974937438965
1678,83900.0,-2.7120320796966557,-5.195417881011963,7.029974937438965
1679,83950.0,-2.7120320796966557,-5.195417881011963,7.029974937438965
1680,84000.0,-4.14915132522583,-7.5243773460388175,6.000467777252197
1681,84050.0,-4.14915132522583,-7.5243773460388175,6.000467777252197
1682,84100.0,-4.14915132522583,-7.5243773460388175,6.000467777252197
1683,84150.0,-2.231395959854126,-6.133944988250732,0.4590881764888763
1684,84200.0,-2.231395959854126,-6.133944988250732,0.4590881764888763
1685,84250.0,-2.231395959854126,-6.133944988250732,0.4590881764888763
1686,84300.0,-2.231395959854126,-6.133944988250732,0.4590881764888763
1687,84350.0,-5.554547786712647,-10.466252326965332,1.742978811264038
1688,84400.0,-5.554547786712647,-10.466252326965332,1.742978811264038
1689,84450.0,-5.554547786712647,-10.466252326965332,1.742978811264038
1690,84500.0,-2.6138696670532227,-9.028534889221193,0.3118447661399841
1691,84550.0,-2.6138696670532227,-9.028534889221193,0.3118447661399841
1692,84600.0,-2.6138696670532227,-9.028534889221193,0.3118447661399841
1693,84650.0,-2.6138696670532227,-9.028534889221193,0.3118447661399841
1694,84700.0,-4.67946720123291,-11.783661842346193,-1.4083890914916992
1695,84750.0,-4.67946720123291,-11.783661842346193,-1.4083890914916992
1696,84800.0,-4.67946720123291,-11.783661842346193,-1.4083890914916992
1697,84850.0,-4.67946720123291,-11.783661842346193,-1.4083890914916992
1698,84900.0,-1.5280991792678833,-13.171102523803713,-2.692279815673828
1699,84950.0,-1.5280991792678833,-13.171102523803713,-2.692279815673828
1700,85000.0,-1.5280991792678833,-13.171102523803713,-2.692279815673828
1701,85050.0,-2.365471363067627,-9.750386238098145,1.2755109071731567
1702,85100.0,-2.365471363067627,-9.750386238098145,1.2755109071731567
1703,85150.0,-2.365471363067627,-9.750386238098145,1.2755109071731567
1704,85200.0,-2.365471363067627,-9.750386238098145,1.2755109071731567
1705,85250.0,-3.1429882049560547,-6.340444564819336,2.0817582607269287
1706,85300.0,-3.1429882049560547,-6.340444564819336,2.0817582607269287
1707,85350.0,-3.1429882049560547,-6.340444564819336,2.0817582607269287
1708,85400.0,-3.618835926055908,-2.9430725574493413,3.050212860107422
1709,85450.0,-3.618835926055908,-2.9430725574493413,3.050212860107422
1710,85500.0,-3.618835926055908,-2.9430725574493413,3.050212860107422
1711,85550.0,-3.618835926055908,-2.9430725574493413,3.050212860107422
1712,85600.0,1.7651251554489136,-2.099714994430542,6.530185222625732
1713,85650.0,1.7651251554489136,-2.099714994430542,6.530185222625732
1714,85700.0,1.7651251554489136,-2.099714994430542,6.530185222625732
1715,85750.0,1.7651251554489136,-2.099714994430542,6.530185222625732
1716,85800.0,-1.6543933153152466,-6.991068840026856,1.2336124181747437
1717,85850.0,-1.6543933153152466,-6.991068840026856,1.2336124181747437
1718,85900.0,-1.6543933153152466,-6.991068840026856,1.2336124181747437
1719,85950.0,-1.5322890281677246,-7.27298641204834,0.8649053573608398
1720,86000.0,-1.5322890281677246,-7.27298641204834,0.8649053573608398
1721,86050.0,-1.5322890281677246,-7.27298641204834,0.8649053573608398
1722,86100.0,-1.5322890281677246,-7.27298641204834,0.8649053573608398
