,timestamp,ax,ay,az
0,0.0,-1.2346963882446291,5.9700927734375,2.232503652572632
1,200.0,-1.2346963882446291,5.9700927734375,2.232503652572632
2,400.0,0.9044869542121888,7.88913631439209,-6.345765590667725
3,600.0,-5.8480587005615225,6.15673303604126,-0.7345964908599854
4,800.0,-8.312665939331055,3.7639100551605225,-2.1056838035583496
5,1000.0,-8.130810737609862,-1.6199408769607544,-1.5936198234558103
6,1200.0,-6.20219612121582,-4.869394302368164,-1.581655740737915
7,1400.0,-6.666403770446777,9.521041870117188,2.2995026111602783
8,1600.0,-6.666403770446777,9.521041870117188,2.2995026111602783
9,1800.0,-4.230510234832764,8.82233715057373,-1.0719845294952393
10,2000.0,-3.268595933914185,7.618747234344482,-5.498706817626953
11,2200.0,0.5503491759300232,5.034498691558838,-8.571090698242188
12,2400.0,-3.359522819519043,8.807979583740234,-6.183053970336914
13,2600.0,0.2440679222345352,4.247260093688965,-8.441878318786621
14,2800.0,0.2440679222345352,4.247260093688965,-8.441878318786621
15,3000.0,-0.2440679222345352,4.596612453460693,-8.463413238525389
16,3200.0,0.6508477926254272,6.166304588317871,-7.776673316955566
17,3400.0,-0.2440679222345352,4.23529577255249,-8.358129501342772
18,3600.0,-0.4211367666721344,6.5491557121276855,-7.948956489562987
19,3800.0,0.4689932465553284,5.467599868774414,-8.788837432861326
20,4000.0,-0.02392822504043579,4.5104708671569815,-9.401400566101074
21,4200.0,-0.04307081177830696,10.40877914428711,-5.752345561981201
22,4400.0,1.0097711086273191,6.64486837387085,-6.972684860229492
23,4600.0,1.0097711086273191,6.64486837387085,-6.972684860229492
24,4800.0,0.5312066078186035,5.747560024261475,-8.673982620239258
25,5000.0,0.5886343717575073,6.726224899291992,-5.8480587005615225
26,5200.0,-0.3206382095813751,5.111069202423097,-8.848658561706543
27,5400.0,-1.3304094076156616,5.685347080230713,-7.862814903259277
28,5600.0,-0.5934200286865234,4.914857387542725,-6.946363925933838
29,5800.0,-0.5934200286865234,4.914857387542725,-6.946363925933838
30,6000.0,0.15314064919948578,5.61116886138916,-8.00399112701416
31,6200.0,0.6460621356964111,7.027719974517822,-8.896513938903809
32,6400.0,-0.00957129057496786,5.450850009918213,-9.107083320617676
33,6600.0,-0.14835500717163086,4.862215518951416,-9.418149948120117
34,6800.0,-0.13878372311592102,4.438685894012451,-9.150154113769533
35,7000.0,0.5599204897880554,4.208974838256837,-9.42054271697998
36,7200.0,0.5599204897880554,4.208974838256837,-9.42054271697998
37,7400.0,-0.30149564146995544,5.525027275085449,-7.496713638305664
38,7600.0,-0.2488535493612289,5.599205493927002,-8.499305725097656
39,7800.0,-0.9475577473640442,4.500899314880371,-7.637890338897705
40,8000.0,-1.057627558708191,4.610969543457031,-8.673982620239258
41,8200.0,-0.5838487148284912,5.572883605957031,-8.446663856506348
42,8400.0,-1.043270707130432,4.563112735748291,-8.035098075866701
43,8600.0,-1.043270707130432,4.563112735748291,-8.035098075866701
44,8800.0,0.033499516546726234,4.9387855529785165,-8.382057189941406
45,9000.0,-1.2873386144638062,5.991628170013428,-7.934599876403809
46,9200.0,0.11006984114646913,5.182853698730469,-8.111669540405272
47,9400.0,-1.057627558708191,6.5324058532714835,-7.2502522468566895
48,9600.0,0.28235307335853577,5.9342002868652335,-7.219145774841309
49,9800.0,-0.22013968229293826,6.742973804473878,-6.546762466430664
50,10000.0,-0.22013968229293826,6.742973804473878,-6.546762466430664
51,10200.0,-0.02392822504043579,7.427321434020996,-7.788637638092041
52,10400.0,-4.273581027984618,5.113461971282959,-6.740581512451173
53,10600.0,1.3351951837539673,5.950949668884277,-6.431907176971436
54,10800.0,-0.9954141974449158,6.838686943054199,-6.642475128173827
55,11000.0,-0.861416220664978,5.491527557373047,-6.999006271362305
56,11200.0,-0.12442677468061447,5.864808082580566,-7.180860996246338
57,11400.0,-0.4163511395454407,7.070791244506836,-6.920042991638184
58,11600.0,-0.4163511395454407,7.070791244506836,-6.920042991638184
59,11800.0,-2.6608188152313232,4.41475772857666,-7.068397998809815
60,12000.0,0.3158525824546814,6.7142601013183585,-6.556333541870117
61,12200.0,0.12921242415905002,6.613761901855469,-8.054241180419924
62,12400.0,0.19621144235134125,6.424728870391847,-6.795616626739503
63,12600.0,0.30149564146995544,6.171089172363281,-8.413164138793945
64,12800.0,0.1339980661869049,6.104090690612793,-8.980262756347656
65,13000.0,-2.665604591369629,5.362315654754639,-6.824329853057861
66,13200.0,0.4259224236011505,4.453042984008789,-9.008977890014648
67,13400.0,0.4259224236011505,4.453042984008789,-9.008977890014648
68,13600.0,0.17228324711322784,8.520841598510742,-6.673582077026367
69,13800.0,0.17228324711322784,6.943971633911133,-5.711667537689209
70,14000.0,0.4259224236011505,6.874579429626465,-5.764309883117676
71,14200.0,-0.4737788736820221,6.86261510848999,-5.508277893066406
72,14400.0,-0.0047856452874839315,7.98963451385498,-5.678168296813965
73,14600.0,0.7657032012939453,6.953542709350586,-6.826723098754883
74,14800.0,0.6412764191627502,8.193024635314941,-6.070591449737549
75,15000.0,-0.5838487148284912,7.097111701965332,-5.979663372039795
76,15200.0,-0.5838487148284912,7.097111701965332,-5.979663372039795
77,15400.0,0.25842484831810003,7.965706348419189,-5.883951187133789
78,15600.0,0.27756744623184204,7.5876407623291025,-6.005984783172607
79,15800.0,0.7704889178276062,6.73818826675415,-6.704688549041747
80,16000.0,-0.2632104754447937,7.5661048889160165,-5.61116886138916
81,16200.0,1.832902193069458,6.900900363922119,-6.309873104095459
82,16400.0,1.0528419017791748,9.324830055236816,-6.38165807723999
83,16600.0,0.06699903309345245,6.460620880126952,-7.479963302612305
84,16800.0,0.06699903309345245,6.460620880126952,-7.479963302612305
85,17000.0,0.1052841916680336,7.58524751663208,-6.013163089752197
86,17200.0,-0.033499516546726234,7.484748840332031,-6.357729434967041
87,17400.0,0.5790630578994751,8.9371919631958,-4.536791324615479
88,17600.0,0.5599204897880554,7.668996810913086,-6.427121639251709
89,17800.0,-0.00957129057496786,7.946564197540282,-5.340780735015869
90,18000.0,0.0047856452874839315,7.494320392608643,-6.183053970336914
91,18200.0,-0.00957129057496786,7.39142894744873,-6.161518096923827
92,18400.0,-0.00957129057496786,7.39142894744873,-6.161518096923827
93,18600.0,-0.1052841916680336,7.7694945335388175,-6.31944465637207
94,18800.0,-0.2440679222345352,7.010970115661621,-6.4151573181152335
95,19000.0,-0.06699903309345245,7.731209754943848,-6.1256256103515625
96,19200.0,0.4163511395454407,6.585048198699951,-6.881758213043213
97,19400.0,0.5359922647476196,6.98704195022583,-6.618547439575195
98,19600.0,0.16749757528305054,7.41535758972168,-5.967699527740479
99,19800.0,0.16749757528305054,7.41535758972168,-5.967699527740479
100,20000.0,0.6795615553855896,6.7621169090271,-7.116254806518555
101,20200.0,-0.13878372311592102,6.920042991638184,-7.81974458694458
102,20400.0,0.3158525824546814,7.348358631134032,-5.9988059997558585
103,20600.0,-0.2440679222345352,8.702695846557617,-5.149354457855225
104,20800.0,0.28235307335853577,8.145168304443361,-5.553741931915283
105,21000.0,0.23449662327766416,7.331608772277832,-6.860222339630128
106,21200.0,0.23449662327766416,7.331608772277832,-6.860222339630128
107,21400.0,0.062213387340307236,6.008377552032472,-7.496713638305664
108,21600.0,0.10049854964017868,8.214560508728027,-5.469992637634277
109,21800.0,0.36370906233787537,6.350551128387451,-7.3052873611450195
110,22000.0,0.07657032459974289,7.511070251464844,-6.805188179016112
111,22200.0,0.2297109663486481,8.126025199890138,-6.374479293823242
112,22400.0,0.028713870793581012,7.200003147125244,-6.283552646636963
113,22600.0,0.028713870793581012,7.200003147125244,-6.283552646636963
114,22800.0,0.2632104754447937,7.082754611968994,-6.10887622833252
115,23000.0,-0.1052841916680336,7.4608211517333975,-6.525227069854736
116,23200.0,-0.2297109663486481,7.88913631439209,-6.314659118652344
117,23400.0,3.115455150604248,8.092526435852049,-8.221738815307617
118,23600.0,0.6125625967979431,5.821736812591553,-7.4608211517333975
119,23800.0,-0.3302095234394073,6.5084776878356925,-6.970292568206787
120,24000.0,-0.3302095234394073,6.5084776878356925,-6.970292568206787
121,24200.0,0.6125625967979431,7.412964344024657,-6.400800704956055
122,24400.0,-1.239482045173645,7.039684295654298,-6.422336101531982
123,24600.0,-0.5455635190010071,4.713860511779785,-7.317252159118652
124,24800.0,-1.9860427379608157,4.5032920837402335,-7.372286796569824
125,25000.0,-0.028713870793581012,7.15932559967041,-6.563512325286865
126,25200.0,0.014356935396790503,6.740581512451173,-6.836294651031494
127,25400.0,0.014356935396790503,6.740581512451173,-6.836294651031494
128,25600.0,-1.062413215637207,7.104290962219237,-5.398207664489746
129,25800.0,-0.5264209508895874,6.530013084411621,-6.3290162086486825
130,26000.0,-0.8805587291717529,7.2885379791259775,-5.831308364868164
131,26200.0,-0.25363919138908386,6.802794933319093,-6.860222339630128
132,26400.0,-0.014356935396790503,6.1471614837646475,-6.530013084411621
133,26600.0,0.4259224236011505,7.432106971740723,-6.314659118652344
134,26800.0,0.3924228847026825,7.412964344024657,-5.515456199645996
135,27000.0,-0.19142580032348636,7.2263240814208975,-6.52044153213501
136,27200.0,-0.19142580032348636,7.2263240814208975,-6.52044153213501
137,27400.0,0.27756744623184204,7.791030406951903,-5.642275810241699
138,27600.0,0.1052841916680336,7.812565803527832,-6.10887622833252
139,27800.0,-0.2392822504043579,7.613961696624756,-5.424529075622559
140,28000.0,0.28235307335853577,6.912864685058594,-7.302894115447997
141,28200.0,0.033499516546726234,6.8075804710388175,-6.240481376647949
142,28400.0,-0.6460621356964111,5.874379634857178,-7.534998416900635
143,28600.0,-0.4450649619102478,6.269195556640625,-7.401000499725343
144,28800.0,-0.2440679222345352,6.8721866607666025,-6.716653347015381
145,29000.0,-0.12442677468061447,7.515855312347412,-6.422336101531982
146,29200.0,-0.12442677468061447,7.515855312347412,-6.422336101531982
147,29400.0,0.11485548317432405,7.271787643432617,-6.611368656158447
148,29600.0,-0.014356935396790503,7.123432636260986,-6.604190349578857
149,29800.0,0.0047856452874839315,6.965506553649902,-6.539584159851074
150,30000.0,0.14835500717163086,6.946363925933838,-6.541977405548097
151,30200.0,-0.06699903309345245,7.345965385437013,-6.51326322555542
152,30400.0,-0.11485548317432405,7.307680606842041,-6.580262184143066
153,30600.0,-0.11485548317432405,7.307680606842041,-6.580262184143066
154,30800.0,0.01914258114993572,7.7072815895080575,-6.57547664642334
155,31000.0,-0.02392822504043579,7.860422611236572,-4.8813581466674805
156,31200.0,0.4354937374591827,8.724230766296388,-5.958127975463867
157,31400.0,0.22492533922195435,6.096912384033202,-8.819944381713867
158,31600.0,0.25363919138908386,7.066005229949951,-6.695117950439452
159,31800.0,0.04785645008087158,6.850651264190674,-6.398407459259032
160,32000.0,-0.16749757528305054,8.015955924987793,-6.999006271362305
161,32200.0,-0.16749757528305054,8.015955924987793,-6.999006271362305
162,32400.0,0.09092726558446884,5.565705299377441,-7.479963302612305
163,32600.0,0.41156551241874695,7.037291049957275,-6.774080753326416
164,32800.0,0.11964112520217896,6.73818826675415,-7.2335028648376465
165,33000.0,0.27278175950050354,7.22871732711792,-6.384050369262695
166,33200.0,0.17706887423992154,7.355536937713622,-6.515655517578125
167,33400.0,0.23449662327766416,6.431907176971436,-6.463014125823975
168,33600.0,0.033499516546726234,6.903293132781982,-6.917649745941162
169,33800.0,0.033499516546726234,6.903293132781982,-6.917649745941162
170,34000.0,-0.41156551241874695,5.508277893066406,-8.262415885925293
171,34200.0,0.18185453116893768,6.86979341506958,-6.632904052734375
172,34400.0,0.6173481941223145,7.77188777923584,-6.561119556427003
173,34600.0,0.3349951505661011,7.161717891693115,-6.427121639251709
174,34800.0,0.6173481941223145,6.400800704956055,-8.580661773681639
175,35000.0,-0.01914258114993572,7.465606689453125,-6.096912384033202
176,35200.0,-0.2967100143432617,5.804987907409668,-7.331608772277832
177,35400.0,-0.2967100143432617,5.804987907409668,-7.331608772277832
178,35600.0,-0.1052841916680336,7.893921852111816,-5.816952228546143
179,35800.0,0.1627119481563568,7.439285278320312,-5.532205581665039
180,36000.0,0.25363919138908386,8.099704742431639,-6.216552734375
181,36200.0,-0.0813559740781784,7.563712120056152,-5.484349250793457
182,36400.0,-0.02392822504043579,5.876771926879883,-7.448856830596924
183,36600.0,-0.02392822504043579,5.876771926879883,-7.448856830596924
184,36800.0,-0.14356936514377594,7.630711555480957,-6.570690631866455
185,37000.0,-0.5838487148284912,7.867600917816162,-6.312265872955322
186,37200.0,-0.4163511395454407,6.697510242462157,-6.427121639251709
187,37400.0,-0.27278175950050354,7.357929229736327,-6.02512788772583
188,37600.0,0.6221339106559753,6.80040168762207,-6.357729434967041
189,37800.0,-0.19621144235134125,6.999006271362305,-6.908078193664551
190,38000.0,-0.06699903309345245,7.429713726043701,-6.833901405334473
191,38200.0,-0.06699903309345245,7.429713726043701,-6.833901405334473
192,38400.0,-0.2297109663486481,6.7621169090271,-7.211967468261719
193,38600.0,0.16749757528305054,6.32662296295166,-7.39142894744873
194,38800.0,0.27756744623184204,8.195417404174805,-6.795616626739503
195,39000.0,1.938186287879944,7.2813591957092285,-5.063212871551514
196,39200.0,1.5218352079391482,7.2502522468566895,-5.149354457855225
197,39400.0,-1.7563319206237793,8.84626579284668,-5.5274200439453125
198,39600.0,-1.7563319206237793,8.84626579284668,-5.5274200439453125
199,39800.0,-0.3254238963127136,7.98963451385498,-5.603990077972412
200,40000.0,-0.430708110332489,8.054241180419924,-5.938986301422119
201,40200.0,-0.12921242415905002,8.00638484954834,-5.960521221160889
202,40400.0,-0.4929214715957642,7.925028324127197,-5.508277893066406
203,40600.0,-0.3828516006469727,8.516055107116701,-5.2115678787231445
204,40800.0,-0.30149564146995544,7.3675007820129395,-6.300302028656006
205,41000.0,-0.6747759580612183,7.606783390045166,-6.20219612121582
206,41200.0,-0.14356936514377594,5.204389572143555,-8.48734188079834
207,41400.0,-0.14356936514377594,5.204389572143555,-8.48734188079834
208,41600.0,-0.5264209508895874,7.496713638305664,-6.020341873168945
209,41800.0,1.2299107313156128,7.436892509460449,-5.264209270477295
210,42000.0,1.1102697849273682,8.757731437683105,-5.096712112426758
211,42200.0,-0.14356936514377594,6.482156753540039,-6.953542709350586
212,42400.0,-0.19142580032348636,7.386643409729004,-6.173482418060303
213,42600.0,-0.25363919138908386,7.484748840332031,-6.106483459472656
214,42800.0,0.01914258114993572,6.963113307952881,-5.338387489318848
215,43000.0,0.01914258114993572,6.963113307952881,-5.338387489318848
216,43200.0,-0.3397807776927948,9.001798629760742,-4.902893543243408
217,43400.0,-0.4019941985607147,7.061219692230225,-6.525227069854736
218,43600.0,0.0526420958340168,8.274380683898926,-5.209175109863281
219,43800.0,-0.4498506784439087,6.850651264190674,-6.4462642669677725
220,44000.0,-0.430708110332489,7.893921852111816,-6.022734642028809
221,44200.0,-0.430708110332489,7.893921852111816,-6.022734642028809
222,44400.0,-0.20578275620937347,7.63310432434082,-5.986842632293701
223,44600.0,-0.2153540551662445,7.869993209838867,-5.879165172576903
224,44800.0,0.08614162355661392,6.857830047607423,-7.3363938331604
225,45000.0,-0.4211367666721344,7.726424217224121,-6.262016773223878
226,45200.0,-0.5551348924636841,7.063612461090088,-6.2979087829589835
227,45400.0,-0.014356935396790503,6.7142601013183585,-7.295715808868407
228,45600.0,-0.20578275620937347,7.666603565216064,-5.910271644592285
229,45800.0,-0.41156551241874695,7.9106712341308585,-6.087340831756593
230,46000.0,-0.41156551241874695,7.9106712341308585,-6.087340831756593
231,46200.0,-1.8233308792114256,7.487142086029053,-5.450850009918213
232,46400.0,-0.12921242415905002,7.597211837768555,-6.309873104095459
233,46600.0,-0.1579262912273407,9.128618240356444,-5.187639236450195
234,46800.0,-1.0001999139785769,8.090132713317871,-5.615954875946045
235,47000.0,0.6795615553855896,7.17368221282959,-6.477370738983153
236,47200.0,-1.4739787578582764,7.030113220214844,-6.31944465637207
237,47400.0,-1.4739787578582764,7.030113220214844,-6.31944465637207
238,47600.0,-0.15314064919948578,7.601996898651122,-6.017949104309082
239,47800.0,0.028713870793581012,8.219346046447754,-5.608776092529297
240,48000.0,0.3732803165912628,7.121039390563965,-6.771688461303711
241,48200.0,-0.12921242415905002,7.83410120010376,-6.439085483551025
242,48400.0,0.784845769405365,8.970691680908203,-5.395814895629883
243,48600.0,0.784845769405365,8.970691680908203,-5.395814895629883
244,48800.0,0.2440679222345352,7.786244869232178,-6.132804393768311
245,49000.0,-0.06699903309345245,7.848458290100098,-5.891129493713379
246,49200.0,-0.06699903309345245,6.819544315338135,-6.941578388214111
247,49400.0,1.4931212663650513,7.207180976867676,-7.422535419464111
248,49600.0,0.3493521213531494,7.006184577941895,-6.845865249633789
249,49800.0,0.3254238963127136,7.599604606628418,-5.857630252838135
250,50000.0,0.14835500717163086,7.39860725402832,-6.922436237335205
251,50200.0,0.04785645008087158,7.728816509246826,-5.941378593444824
252,50400.0,0.04785645008087158,7.728816509246826,-5.941378593444824
253,50600.0,-2.0961124897003174,6.790830135345459,-6.154339790344237
254,50800.0,-1.2011969089508057,9.183652877807617,-4.783252716064453
255,51000.0,0.07657032459974289,8.109275817871094,-5.565705299377441
256,51200.0,0.3062812983989716,7.0133628845214835,-6.20219612121582
257,51400.0,0.17228324711322784,7.836494445800781,-6.087340831756593
258,51600.0,0.3780659735202789,7.113861560821532,-7.152146816253662
259,51800.0,0.4737788736820221,7.2813591957092285,-6.08494758605957
260,52000.0,0.4737788736820221,7.934599876403809,-5.4795637130737305
261,52200.0,0.4737788736820221,7.934599876403809,-5.4795637130737305
262,52400.0,0.3062812983989716,7.750352382659912,-6.506085395812987
263,52600.0,0.16749757528305054,7.331608772277832,-6.27158784866333
264,52800.0,-0.2488535493612289,6.16391134262085,-7.0133628845214835
265,53000.0,-0.4211367666721344,7.257431030273437,-6.223731517791747
266,53200.0,0.028713870793581012,7.4608211517333975,-6.388835906982423
267,53400.0,0.17228324711322784,7.877171993255615,-7.099504470825195
268,53600.0,-1.244267821311951,9.473184585571287,-5.120640754699707
269,53800.0,0.25842484831810003,8.293522834777832,-7.245467185974121
270,54000.0,0.25842484831810003,8.293522834777832,-7.245467185974121
271,54200.0,-0.22492533922195435,7.659425258636475,-6.058626651763916
272,54400.0,-0.033499516546726234,7.2263240814208975,-6.223731517791747
273,54600.0,-0.057427741587162025,7.058826446533202,-6.963113307952881
274,54800.0,0.062213387340307236,6.759723663330077,-7.7599239349365225
275,55000.0,-0.22492533922195435,8.042276382446289,-6.719045639038086
276,55200.0,-0.22492533922195435,8.042276382446289,-6.719045639038086
277,55400.0,0.033499516546726234,7.259823799133301,-6.697510242462157
278,55600.0,0.3062812983989716,7.300501823425293,-6.357729434967041
279,55800.0,-0.6652047038078308,6.764510154724121,-6.041877269744872
280,56000.0,0.6604190468788147,7.992027282714844,-6.5659050941467285
281,56200.0,-0.033499516546726234,7.8077802658081055,-5.642275810241699
282,56400.0,-0.033499516546726234,7.8077802658081055,-5.642275810241699
283,56600.0,0.20099709928035736,7.223931312561035,-6.049055576324463
284,56800.0,-0.5647061467170715,7.601996898651122,-4.7497525215148935
285,57000.0,0.6556334495544434,8.338986396789549,-6.089733123779298
286,57200.0,0.4450649619102478,8.212166786193848,-5.647061824798584
287,57400.0,0.5647061467170715,7.982456684112549,-6.396015167236327
288,57600.0,0.028713870793581012,6.441478729248048,-7.003791332244872
289,57800.0,0.27278175950050354,7.7048888206481925,-5.776273727416992
290,58000.0,0.27278175950050354,7.7048888206481925,-5.776273727416992
291,58200.0,-0.0526420958340168,7.3363938331604,-6.642475128173827
292,58400.0,-0.08614162355661392,7.200003147125244,-6.405585765838622
293,58600.0,2.569891452789306,7.489534854888916,-7.965706348419189
294,58800.0,0.00957129057496786,7.678568363189697,-5.821736812591553
295,59000.0,0.4881358444690704,8.963513374328613,-5.517848491668701
296,59200.0,-0.07178468257188797,6.73818826675415,-6.317051887512207
297,59400.0,-0.07178468257188797,6.73818826675415,-6.317051887512207
298,59600.0,0.4067798554897308,7.905886173248291,-5.54177713394165
299,59800.0,0.1627119481563568,7.168896198272705,-6.338587284088135
300,60000.0,-0.6556334495544434,9.336793899536133,-5.166104316711426
301,60200.0,0.3302095234394073,8.00638484954834,-5.6542396545410165
302,60400.0,0.3206382095813751,7.6737823486328125,-5.556134223937988
303,60600.0,0.2871387302875519,7.494320392608643,-6.463014125823975
304,60800.0,0.3780659735202789,7.216752529144287,-6.31944465637207
305,61000.0,0.3780659735202789,7.216752529144287,-6.31944465637207
306,61200.0,0.1866401582956314,7.381857395172119,-5.989234924316406
307,61400.0,0.5790630578994751,7.472784996032715,-6.6281185150146475
308,61600.0,-0.014356935396790503,7.379465103149414,-6.245267391204834
309,61800.0,-1.1820544004440308,8.951549530029297,-5.321637630462647
310,62000.0,0.2488535493612289,7.472784996032715,-5.651846885681152
311,62200.0,0.2297109663486481,7.812565803527832,-5.9533424377441415
312,62400.0,0.2297109663486481,7.812565803527832,-5.9533424377441415
313,62600.0,-0.7082754969596863,7.539783954620361,-5.625525951385498
314,62800.0,0.5647061467170715,7.3842506408691415,-6.27876615524292
315,63000.0,1.3399806022644043,9.1716890335083,-4.747360229492188
316,63200.0,-0.9140582084655762,6.577868938446045,-6.661618232727051
317,63400.0,0.014356935396790503,7.57806921005249,-6.0394840240478525
318,63600.0,-0.16749757528305054,7.484748840332031,-6.527620315551758
319,63800.0,-0.16749757528305054,7.484748840332031,-6.527620315551758
320,64000.0,-0.6987042427062988,7.39860725402832,-6.31944465637207
321,64200.0,-0.35413774847984314,6.656832218170166,-6.843472957611084
322,64400.0,-0.2488535493612289,6.908078193664551,-6.8721866607666025
323,64600.0,-0.25363919138908386,6.853044033050537,-6.824329853057861
324,64800.0,-0.3445664942264557,6.742973804473878,-6.905685901641847
325,65000.0,0.30149564146995544,7.372286796569824,-5.6542396545410165
326,65200.0,0.1052841916680336,6.398407459259032,-7.963313579559326
327,65400.0,-0.20578275620937347,6.530013084411621,-6.4869422912597665
328,65600.0,-0.20578275620937347,6.530013084411621,-6.4869422912597665
329,65800.0,0.5599204897880554,7.970492362976074,-5.941378593444824
330,66000.0,-0.3206382095813751,6.814758777618407,-7.142575740814209
331,66200.0,0.19142580032348636,7.3124656677246085,-6.740581512451173
332,66400.0,-0.08614162355661392,7.022934436798097,-6.778866291046143
333,66600.0,-0.3158525824546814,7.111469268798827,-5.979663372039795
334,66800.0,-0.3158525824546814,7.111469268798827,-5.979663372039795
335,67000.0,-0.3924228847026825,7.877171993255615,-5.132604122161865
336,67200.0,0.11485548317432405,7.554140567779541,-6.384050369262695
337,67400.0,0.06699903309345245,6.5324058532714835,-6.675975322723389
338,67600.0,-0.2871387302875519,7.008577823638916,-6.656832218170166
339,67800.0,-0.3158525824546814,6.2093749046325675,-7.0133628845214835
340,68000.0,0.014356935396790503,7.379465103149414,-6.647261142730713
341,68200.0,0.057427741587162025,6.0921263694763175,-6.618547439575195
342,68400.0,-0.00957129057496786,7.147361278533936,-5.687739372253418
343,68600.0,-0.00957129057496786,7.147361278533936,-5.687739372253418
344,68800.0,-0.3158525824546814,7.728816509246826,-5.941378593444824
345,69000.0,-0.3254238963127136,6.666403770446777,-6.747759819030763
346,69200.0,0.6604190468788147,8.700303077697754,-5.850451469421388
347,69400.0,-0.5407779216766357,6.266802310943604,-7.099504470825195
348,69600.0,0.23449662327766416,7.735995292663574,-5.917449951171875
349,69800.0,-0.7800601720809937,7.080362319946289,-7.1712894439697275
350,70000.0,-0.7800601720809937,7.080362319946289,-7.1712894439697275
351,70200.0,0.033499516546726234,8.133204460144043,-6.044269561767577
352,70400.0,-0.17228324711322784,6.975078105926514,-7.46799898147583
353,70600.0,-0.6029912829399109,6.343372344970702,-6.824329853057861
354,70800.0,-0.5742774605751038,5.86720085144043,-7.939385414123535
355,71000.0,-0.4689932465553284,6.750153064727782,-7.255037784576416
356,71200.0,-0.3302095234394073,6.56829833984375,-7.001399040222168
357,71400.0,-0.4929214715957642,6.687938690185548,-7.032505512237549
358,71600.0,-0.5024927258491516,6.860222339630128,-6.867401123046875
359,71800.0,-0.5024927258491516,6.860222339630128,-6.867401123046875
360,72000.0,-0.5647061467170715,6.984649658203125,-6.484549045562744
361,72200.0,-0.25842484831810003,6.922436237335205,-6.479763507843018
362,72400.0,-0.5982056856155396,6.666403770446777,-6.608975887298584
363,72600.0,-0.5982056856155396,6.6352972984313965,-7.211967468261719
364,72800.0,-0.6029912829399109,7.57806921005249,-6.285945415496826
365,73000.0,-0.6939185857772827,6.632904052734375,-7.0923261642456055
366,73200.0,-0.6939185857772827,6.632904052734375,-7.0923261642456055
367,73400.0,-0.7274181246757507,6.999006271362305,-6.594619274139403
368,73600.0,-0.8949156999588013,7.479963302612305,-6.2117671966552725
369,73800.0,-0.9284151792526244,6.8721866607666025,-6.63769006729126
370,74000.0,-0.6508477926254272,7.3124656677246085,-6.845865249633789
371,74200.0,-0.6460621356964111,6.431907176971436,-7.111469268798827
372,74400.0,-0.4498506784439087,7.671389579772949,-6.340980052947997
373,74600.0,-0.6556334495544434,6.664010524749756,-6.850651264190674
374,74800.0,-0.6556334495544434,6.664010524749756,-6.850651264190674
375,75000.0,-0.8853443264961243,6.530013084411621,-6.86979341506958
376,75200.0,-0.7178468108177185,6.20219612121582,-7.439285278320312
377,75400.0,-0.5216353535652161,6.570690631866455,-6.206982612609862
378,75600.0,-0.5455635190010071,7.197610855102539,-7.57806921005249
379,75800.0,-0.17706887423992154,7.154539585113525,-6.671189785003662
380,76000.0,-0.07657032459974289,8.343771934509277,-6.041877269744872
381,76200.0,-0.11485548317432405,7.594818592071532,-6.400800704956055
382,76400.0,-0.11485548317432405,7.594818592071532,-6.400800704956055
383,76600.0,0.4019941985607147,8.341379165649414,-5.816952228546143
384,76800.0,-6.321837425231934,5.441278457641602,-4.926821708679199
385,77000.0,0.06699903309345245,8.827122688293457,-5.960521221160889
386,77200.0,-0.2919243574142456,8.042276382446289,-5.376672744750977
387,77400.0,0.7992027401924133,8.365307807922362,-5.472385883331299
388,77600.0,0.28235307335853577,6.893722057342528,-6.453442573547362
389,77800.0,0.28235307335853577,6.893722057342528,-6.453442573547362
390,78000.0,0.5024927258491516,7.372286796569824,-6.474977493286133
391,78200.0,1.0911270380020142,6.764510154724121,-7.542177200317383
392,78400.0,0.5359922647476196,7.439285278320312,-7.176074504852295
393,78600.0,0.3206382095813751,7.802994728088379,-6.912864685058594
394,78800.0,3.627518892288208,6.128018856048584,-8.061419486999513
395,79000.0,-0.25842484831810003,4.654040336608887,-8.037490844726562
396,79200.0,0.06699903309345245,6.340980052947997,-6.798008918762207
397,79400.0,0.06699903309345245,6.340980052947997,-6.798008918762207
398,79600.0,0.8470591902732849,7.2813591957092285,-6.398407459259032
399,79800.0,0.4881358444690704,7.156932830810548,-6.2117671966552725
400,80000.0,0.5982056856155396,6.431907176971436,-6.491727352142334
401,80200.0,0.5599204897880554,7.144968032836914,-5.72841739654541
402,80400.0,0.1052841916680336,7.590033531188965,-5.453242778778076
403,80600.0,0.607776939868927,8.93240737915039,-5.453242778778076
404,80800.0,0.607776939868927,8.93240737915039,-5.453242778778076
405,81000.0,0.5982056856155396,7.970492362976074,-5.7308106422424325
406,81200.0,0.4546363055706024,7.733603000640869,-5.606383323669434
407,81400.0,0.3062812983989716,8.11406135559082,-4.417150497436523
408,81600.0,0.7609176039695741,8.228917121887207,-5.857630252838135
409,81800.0,-0.04307081177830696,7.144968032836914,-6.27158784866333
410,82000.0,0.8135597109794617,7.075576305389403,-6.908078193664551
411,82200.0,0.8135597109794617,7.075576305389403,-6.908078193664551
412,82400.0,0.2967100143432617,8.054241180419924,-5.134997367858887
413,82600.0,0.6412764191627502,7.898707389831543,-5.5824551582336435
414,82800.0,0.5024927258491516,7.642674922943115,-5.86720085144043
415,83000.0,-0.3158525824546814,8.008777618408201,-4.053441524505615
416,83200.0,0.6317051649093628,8.293522834777832,-5.309673309326172
417,83400.0,0.6317051649093628,8.293522834777832,-5.309673309326172
418,83600.0,0.7369893789291382,7.721638679504394,-6.305087566375732
419,83800.0,0.4785645008087158,6.448657035827638,-6.436692714691162
420,84000.0,0.6460621356964111,6.63769006729126,-6.8482584953308105
421,84200.0,0.5168496966362001,8.25284481048584,-5.44845724105835
422,84400.0,0.607776939868927,7.774280071258545,-6.142375946044923
423,84600.0,0.4354937374591827,6.10169792175293,-7.7072815895080575
424,84800.0,-0.27756744623184204,7.259823799133301,-5.7547383308410645
425,85000.0,-0.27756744623184204,7.259823799133301,-5.7547383308410645
426,85200.0,0.6987042427062988,8.760124206542969,-5.388636112213135
427,85400.0,0.6747759580612183,7.685746192932129,-6.774080753326416
428,85600.0,0.2440679222345352,6.503692150115968,-6.836294651031494
429,85800.0,0.5790630578994751,7.862814903259277,-5.92223596572876
430,86000.0,0.19142580032348636,7.262216091156006,-5.759523868560791
431,86200.0,1.0815558433532717,8.001599311828612,-7.915457248687744
432,86400.0,0.7226324081420898,7.341179370880128,-5.649453639984131
433,86600.0,0.7226324081420898,7.341179370880128,-5.649453639984131
434,86800.0,0.7800601720809937,8.276773452758789,-5.8480587005615225
435,87000.0,0.7226324081420898,7.482356548309326,-6.221338748931885
436,87200.0,0.7513462901115417,7.5661048889160165,-6.340980052947997
437,87400.0,0.7369893789291382,6.5730838775634775,-7.8245296478271475
438,87600.0,0.5216353535652161,6.070591449737549,-8.104490280151367
439,87800.0,0.2297109663486481,6.003591537475586,-8.654839515686035
440,88000.0,0.17706887423992154,5.345565319061278,-8.733802795410156
441,88200.0,0.17706887423992154,5.345565319061278,-8.733802795410156
442,88400.0,-0.04307081177830696,5.816952228546143,-7.8795647621154785
443,88600.0,-0.2297109663486481,5.577669143676758,-7.968099594116211
444,88800.0,-0.00957129057496786,5.785844802856445,-7.93699312210083
445,89000.0,0.11485548317432405,6.132804393768311,-7.642674922943115
446,89200.0,-0.2919243574142456,6.293124198913574,-7.362715244293213
447,89400.0,-0.2632104754447937,5.565705299377441,-7.197610855102539
448,89600.0,-0.2632104754447937,5.565705299377441,-7.197610855102539
449,89800.0,-0.4546363055706024,5.893522262573242,-7.668996810913086
450,90000.0,-0.062213387340307236,5.42692232131958,-8.475377082824707
451,90200.0,-0.3493521213531494,5.520241737365723,-7.8819580078125
452,90400.0,0.028713870793581012,6.491727352142334,-7.1066832542419425
453,90600.0,0.07178468257188797,7.735995292663574,-6.245267391204834
454,90800.0,-0.4881358444690704,7.207180976867676,-6.0394840240478525
455,91000.0,-0.4881358444690704,7.207180976867676,-6.0394840240478525
456,91200.0,0.20099709928035736,7.042076587677003,-6.67836856842041
457,91400.0,-0.17706887423992154,5.678168296813965,-7.271787643432617
458,91600.0,0.3684946894645691,4.287938117980957,-8.841480255126953
459,91800.0,0.4546363055706024,5.9030938148498535,-8.329416275024414
460,92000.0,0.11006984114646913,6.20219612121582,-7.23589563369751
461,92200.0,0.11006984114646913,6.20219612121582,-7.23589563369751
462,92400.0,0.1579262912273407,6.1878395080566415,-7.0851478576660165
463,92600.0,0.1579262912273407,7.369894027709961,-8.492127418518066
464,92800.0,0.25363919138908386,6.829115867614746,-7.5876407623291025
465,93000.0,0.5742774605751038,6.625725746154785,-6.886543273925781
466,93200.0,0.3828516006469727,6.379265785217285,-7.099504470825195
467,93400.0,0.3780659735202789,7.080362319946289,-6.503692150115968
468,93600.0,0.8757730722427368,6.128018856048584,-5.8959150314331055
469,93800.0,0.430708110332489,6.482156753540039,-7.623533248901367
470,94000.0,0.430708110332489,6.482156753540039,-7.623533248901367
471,94200.0,-0.04307081177830696,7.056434154510497,-6.2093749046325675
472,94400.0,0.5264209508895874,7.271787643432617,-6.285945415496826
473,94600.0,0.6460621356964111,7.898707389831543,-6.283552646636963
474,94800.0,0.36370906233787537,6.733402729034424,-6.534798622131348
475,95000.0,0.4642075896263122,7.977671146392822,-5.5968122482299805
476,95200.0,0.4546363055706024,7.53021240234375,-6.5084776878356925
477,95400.0,0.3158525824546814,6.364907741546631,-6.841079711914063
478,95600.0,0.9427721500396729,7.123432636260986,-7.489534854888916
479,95800.0,0.9427721500396729,7.123432636260986,-7.489534854888916
480,96000.0,-0.3397807776927948,6.403193473815918,-6.884150981903076
481,96200.0,1.6127625703811646,10.389636039733887,-5.134997367858887
482,96400.0,0.11006984114646913,7.4057860374450675,-6.331408977508545
483,96600.0,1.0097711086273191,5.594419479370117,-8.204988479614258
484,96800.0,0.5551348924636841,6.900900363922119,-6.525227069854736
485,97000.0,1.0336993932724001,7.8867435455322275,-6.412764549255371
486,97200.0,1.0336993932724001,7.8867435455322275,-6.412764549255371
487,97400.0,0.6125625967979431,7.53021240234375,-5.9533424377441415
488,97600.0,0.7369893789291382,7.649853706359862,-6.10169792175293
489,97800.0,0.3302095234394073,6.735795497894287,-7.190432548522949
490,98000.0,1.0959126949310305,7.925028324127197,-6.2189459800720215
491,98200.0,0.6364907622337341,7.039684295654298,-5.9030938148498535
492,98400.0,0.8470591902732849,7.563712120056152,-6.089733123779298
493,98600.0,0.8470591902732849,7.563712120056152,-6.089733123779298
494,98800.0,0.5455635190010071,8.209774017333983,-5.491527557373047
495,99000.0,0.6364907622337341,7.982456684112549,-5.824130058288574
496,99200.0,0.19621144235134125,7.051648139953612,-7.125825881958008
497,99400.0,0.7561319470405579,5.450850009918213,-7.168896198272705
498,99600.0,0.057427741587162025,6.898508071899414,-7.042076587677003
499,99800.0,0.6604190468788147,7.429713726043701,-5.936593055725098
500,100000.0,0.5072783827781677,7.724031925201416,-5.8959150314331055
501,100200.0,0.11964112520217896,7.046862602233888,-6.661618232727051
502,100400.0,0.82791668176651,7.341179370880128,-6.288337707519531
503,100600.0,0.82791668176651,7.341179370880128,-6.288337707519531
504,100800.0,0.5455635190010071,6.372087001800537,-6.551548480987549
505,101000.0,0.3206382095813751,7.465606689453125,-6.357729434967041
506,101200.0,0.861416220664978,7.061219692230225,-6.166304588317871
507,101400.0,0.41156551241874695,7.417750358581543,-6.10169792175293
508,101600.0,-1.2346963882446291,5.907878875732423,-6.240481376647949
509,101800.0,-0.02392822504043579,7.5876407623291025,-6.33380126953125
510,102000.0,0.35413774847984314,7.94177770614624,-6.041877269744872
511,102200.0,0.35413774847984314,7.94177770614624,-6.041877269744872
512,102400.0,0.6652047038078308,7.7694945335388175,-6.300302028656006
513,102600.0,0.4354937374591827,7.609175682067871,-6.116055011749268
514,102800.0,0.20099709928035736,8.126025199890138,-4.800002098083496
515,103000.0,0.3254238963127136,7.056434154510497,-6.104090690612793
516,103200.0,0.5886343717575073,7.487142086029053,-6.563512325286865
517,103400.0,0.4450649619102478,7.128218650817871,-5.893522262573242
518,103600.0,0.5551348924636841,6.580262184143066,-7.515855312347412
519,103800.0,0.5551348924636841,6.580262184143066,-7.515855312347412
520,104000.0,0.22013968229293826,7.063612461090088,-6.7453670501708975
521,104200.0,0.4163511395454407,7.671389579772949,-7.362715244293213
522,104400.0,0.3924228847026825,6.697510242462157,-6.939186096191406
523,104600.0,0.9475577473640442,6.137589931488037,-7.520641803741455
524,104800.0,0.5551348924636841,6.611368656158447,-5.927021503448486
525,105000.0,0.5551348924636841,6.611368656158447,-5.927021503448486
526,105200.0,0.8805587291717529,8.58305549621582,-5.661418437957764
527,105400.0,0.4259224236011505,7.2478599548339835,-6.288337707519531
528,105600.0,0.7704889178276062,7.058826446533202,-6.857830047607423
529,105800.0,-0.014356935396790503,6.070591449737549,-6.419942855834961
530,106000.0,0.7034898400306702,7.386643409729004,-6.57547664642334
531,106200.0,1.1341978311538696,6.463014125823975,-8.037490844726562
532,106400.0,0.397208571434021,7.446464061737059,-5.881557941436768
533,106600.0,0.5742774605751038,7.592426776885986,-6.4869422912597665
534,106800.0,0.5742774605751038,7.592426776885986,-6.4869422912597665
535,107000.0,0.2679961323738098,7.944170951843263,-4.814359188079834
536,107200.0,0.7561319470405579,7.750352382659912,-5.5968122482299805
537,107400.0,0.6317051649093628,8.147561073303223,-4.969892501831055
538,107600.0,0.3110669553279877,7.520641803741455,-6.230910301208496
539,107800.0,0.6269195079803467,7.365108013153076,-6.077769756317139
540,108000.0,0.3684946894645691,8.176274299621582,-5.522634029388428
541,108200.0,0.4737788736820221,7.877171993255615,-5.735595226287843
542,108400.0,0.7657032012939453,7.042076587677003,-6.67836856842041
543,108600.0,0.7657032012939453,7.042076587677003,-6.67836856842041
544,108800.0,0.5216353535652161,7.606783390045166,-5.924628734588622
545,109000.0,0.7274181246757507,7.688138484954834,-6.063412666320801
546,109200.0,0.8662018179893494,3.749552965164185,-9.559326171875
547,109400.0,0.9858429431915284,6.963113307952881,-7.025327682495117
548,109600.0,1.0145567655563354,6.214160442352295,-6.563512325286865
549,109800.0,-0.6364907622337341,7.77906608581543,-6.577868938446045
550,110000.0,0.028713870793581012,6.38165807723999,-6.5491557121276855
551,110200.0,0.028713870793581012,6.38165807723999,-6.5491557121276855
552,110400.0,0.8135597109794617,9.22433090209961,-5.812166690826416
553,110600.0,1.129412293434143,8.461020469665527,-5.8887367248535165
554,110800.0,0.430708110332489,7.104290962219237,-6.479763507843018
555,111000.0,0.3254238963127136,7.025327682495117,-6.647261142730713
556,111200.0,0.7226324081420898,7.393822193145753,-6.199803352355957
557,111400.0,1.1581261157989502,9.025726318359377,-4.764110088348389
558,111600.0,0.4929214715957642,7.401000499725343,-6.022734642028809
559,111800.0,0.4929214715957642,7.401000499725343,-6.022734642028809
560,112000.0,0.4259224236011505,7.6833534240722665,-5.883951187133789
561,112200.0,0.36370906233787537,7.479963302612305,-6.027520179748535
562,112400.0,-0.07657032459974289,6.10887622833252,-6.321837425231934
563,112600.0,-0.12442677468061447,6.068198204040527,-6.97986364364624
564,112800.0,-0.3062812983989716,6.9894347190856925,-6.5491557121276855
565,113000.0,0.7609176039695741,6.960721015930176,-7.590033531188965
566,113200.0,0.7609176039695741,6.960721015930176,-7.590033531188965
567,113400.0,-1.2586246728897097,8.839086532592773,-4.9914283752441415
568,113600.0,0.4259224236011505,7.386643409729004,-6.611368656158447
569,113800.0,-0.01914258114993572,7.396214485168457,-5.757131576538086
570,114000.0,0.5886343717575073,7.642674922943115,-6.496513843536378
571,114200.0,0.22492533922195435,7.386643409729004,-6.142375946044923
572,114400.0,0.5934200286865234,6.551548480987549,-7.032505512237549
573,114600.0,0.2871387302875519,7.616354942321777,-6.137589931488037
574,114800.0,0.2871387302875519,7.616354942321777,-6.137589931488037
575,115000.0,0.057427741587162025,7.374679565429687,-5.843273162841798
576,115200.0,0.25363919138908386,7.307680606842041,-5.639883518218994
577,115400.0,-0.23449662327766416,7.728816509246826,-6.020341873168945
578,115600.0,-0.1052841916680336,7.5014991760253915,-6.020341873168945
579,115800.0,0.6747759580612183,7.180860996246338,-6.072984218597412
580,116000.0,0.14835500717163086,7.154539585113525,-6.037091255187987
581,116200.0,0.2632104754447937,7.329216003417969,-6.539584159851074
582,116400.0,0.5168496966362001,7.252645492553711,-6.427121639251709
583,116600.0,0.5168496966362001,7.252645492553711,-6.427121639251709
584,116800.0,0.4546363055706024,7.649853706359862,-6.106483459472656
585,117000.0,0.6891329884529114,7.3363938331604,-6.501298904418945
586,117200.0,0.3110669553279877,6.841079711914063,-6.616154670715332
587,117400.0,0.4737788736820221,6.388835906982423,-7.5326056480407715
588,117600.0,0.4211367666721344,7.2885379791259775,-6.728617191314697
589,117800.0,0.08614162355661392,7.204789161682129,-6.32662296295166
590,118000.0,0.08614162355661392,7.204789161682129,-6.32662296295166
591,118200.0,0.2297109663486481,7.401000499725343,-5.771488666534424
592,118400.0,0.8135597109794617,7.365108013153076,-7.16650390625
593,118600.0,-0.4450649619102478,6.556333541870117,-6.436692714691162
594,118800.0,-0.6747759580612183,6.850651264190674,-6.599405288696289
595,119000.0,-0.3493521213531494,5.9030938148498535,-7.2023963928222665
596,119200.0,0.6029912829399109,5.615954875946045,-7.29093074798584
597,119400.0,0.6317051649093628,5.898308277130128,-8.039883613586426
598,119600.0,0.6317051649093628,5.898308277130128,-8.039883613586426
599,119800.0,0.3780659735202789,8.575876235961914,-6.132804393768311
600,120000.0,0.08614162355661392,4.421936511993408,-8.82233715057373
601,120200.0,-0.3158525824546814,7.271787643432617,-5.807380676269531
602,120400.0,0.4594219326972962,5.187639236450195,-8.145168304443361
603,120600.0,0.5024927258491516,7.621140003204347,-6.001199245452881
604,120800.0,0.4019941985607147,8.11406135559082,-5.627918720245361
605,121000.0,0.3828516006469727,9.511469841003418,-6.64486837387085
606,121200.0,0.3828516006469727,9.511469841003418,-6.64486837387085
607,121400.0,0.7609176039695741,6.826723098754883,-7.223931312561035
608,121600.0,-0.0813559740781784,7.5326056480407715,-5.592026710510254
609,121800.0,0.5024927258491516,7.403393745422362,-5.637490272521973
610,122000.0,0.3254238963127136,7.513463020324707,-6.489335060119629
611,122200.0,0.19621144235134125,7.1066832542419425,-5.6542396545410165
612,122400.0,0.19621144235134125,7.1066832542419425,-5.6542396545410165
613,122600.0,0.3206382095813751,8.401200294494629,-5.785844802856445
614,122800.0,0.2919243574142456,8.126025199890138,-5.836094379425049
615,123000.0,0.4402793645858765,7.712067127227782,-6.2333030700683585
616,123200.0,0.6747759580612183,7.496713638305664,-6.051448345184326
617,123400.0,0.5982056856155396,7.795816421508789,-5.656632423400879
618,123600.0,0.014356935396790503,7.623533248901367,-6.594619274139403
619,123800.0,-0.1052841916680336,6.096912384033202,-7.286144733428955
620,124000.0,0.5312066078186035,7.781459331512451,-5.907878875732423
621,124200.0,0.5312066078186035,7.781459331512451,-5.907878875732423
622,124400.0,0.7704889178276062,7.925028324127197,-5.816952228546143
623,124600.0,-0.2488535493612289,6.096912384033202,-7.099504470825195
624,124800.0,0.5312066078186035,7.16650390625,-7.030113220214844
625,125000.0,0.7657032012939453,7.558926582336426,-6.010770320892334
626,125200.0,0.28235307335853577,7.728816509246826,-5.900700569152832
627,125400.0,0.5503491759300232,6.269195556640625,-7.214360237121582
628,125600.0,0.5503491759300232,6.269195556640625,-7.214360237121582
629,125800.0,0.5694918036460876,7.812565803527832,-6.08016300201416
630,126000.0,0.4881358444690704,7.7072815895080575,-6.03230619430542
631,126200.0,0.5216353535652161,7.77188777923584,-6.03230619430542
632,126400.0,0.3158525824546814,7.893921852111816,-5.891129493713379
633,126600.0,0.7704889178276062,8.011170387268066,-6.3912291526794425
634,126800.0,0.11006984114646913,7.3124656677246085,-5.266602516174316
635,127000.0,0.11006984114646913,7.3124656677246085,-5.266602516174316
636,127200.0,0.4929214715957642,7.927421569824219,-5.831308364868164
637,127400.0,0.3876372575759888,7.037291049957275,-7.271787643432617
638,127600.0,0.3828516006469727,8.477770805358888,-5.587240695953369
639,127800.0,0.6699903011322021,7.776673316955566,-5.778666496276856
640,128000.0,0.5647061467170715,6.86261510848999,-6.317051887512207
641,128200.0,0.5407779216766357,7.867600917816162,-5.891129493713379
642,128400.0,0.5407779216766357,7.867600917816162,-5.891129493713379
643,128600.0,0.11964112520217896,7.625925540924072,-5.670989990234375
644,128800.0,0.3206382095813751,6.7310099601745605,-6.5108704566955575
645,129000.0,0.5551348924636841,7.57806921005249,-6.254837989807129
646,129200.0,0.4689932465553284,7.456035614013673,-6.295516490936278
647,129400.0,0.4642075896263122,6.585048198699951,-6.005984783172607
648,129600.0,0.3397807776927948,7.441678524017334,-6.410372257232666
649,129800.0,0.5359922647476196,8.169095993041992,-5.917449951171875
650,130000.0,0.35413774847984314,8.02074146270752,-6.10169792175293
651,130200.0,0.35413774847984314,8.02074146270752,-6.10169792175293
652,130400.0,0.36370906233787537,6.616154670715332,-7.087540626525879
653,130600.0,0.5072783827781677,8.453842163085938,-5.434100151062012
654,130800.0,-0.19621144235134125,5.347958564758301,-7.334001541137695
655,131000.0,0.18185453116893768,6.355337142944336,-6.996613025665282
656,131200.0,0.1579262912273407,7.264609336853027,-7.1641106605529785
657,131400.0,0.4977070987224579,7.116254806518555,-6.455835819244385
658,131600.0,0.028713870793581012,6.965506553649902,-6.757331371307372
659,131800.0,0.028713870793581012,6.965506553649902,-6.757331371307372
660,132000.0,0.08614162355661392,7.642674922943115,-6.405585765838622
661,132200.0,0.3828516006469727,8.066205024719237,-5.352744102478027
662,132400.0,0.35892340540885925,8.281558990478517,-5.649453639984131
663,132600.0,0.3493521213531494,7.956134796142577,-5.649453639984131
664,132800.0,0.5742774605751038,7.836494445800781,-6.041877269744872
665,133000.0,1.3016955852508545,7.362715244293213,-6.226124286651611
666,133200.0,0.9810572862625122,8.152346611022951,-6.159125804901122
667,133400.0,0.9810572862625122,8.152346611022951,-6.159125804901122
668,133600.0,0.7369893789291382,7.401000499725343,-5.584848403930664
669,133800.0,0.6939185857772827,7.3363938331604,-6.3290162086486825
670,134000.0,0.5264209508895874,7.637890338897705,-5.910271644592285
671,134200.0,0.14356936514377594,7.042076587677003,-7.592426776885986
672,134400.0,1.1820544004440308,5.249853134155273,-9.24825954437256
673,134600.0,-0.00957129057496786,6.9344000816345215,-7.0133628845214835
674,134800.0,0.7130610942840576,7.295715808868407,-6.331408977508545
675,135000.0,0.7130610942840576,7.295715808868407,-6.331408977508545
676,135200.0,-0.4211367666721344,6.5730838775634775,-5.158926010131836
677,135400.0,0.15314064919948578,6.051448345184326,-6.515655517578125
678,135600.0,0.3110669553279877,7.389035701751709,-6.041877269744872
679,135800.0,0.5359922647476196,7.893921852111816,-6.077769756317139
680,136000.0,0.8662018179893494,6.9344000816345215,-6.424728870391847
681,136200.0,0.6939185857772827,7.439285278320312,-6.166304588317871
682,136400.0,0.13878372311592102,7.534998416900635,-6.259624004364014
683,136600.0,0.2440679222345352,7.891529560089111,-5.7308106422424325
684,136800.0,0.2440679222345352,7.891529560089111,-5.7308106422424325
685,137000.0,0.4689932465553284,7.5254268646240225,-5.905486583709718
686,137200.0,0.8997013568878174,7.319644451141357,-6.570690631866455
687,137400.0,0.04785645008087158,7.4081788063049325,-5.702096462249756
688,137600.0,-0.3110669553279877,6.632904052734375,-6.175874710083008
689,137800.0,0.9427721500396729,6.73818826675415,-6.659225463867188
690,138000.0,0.9427721500396729,6.73818826675415,-6.659225463867188
691,138200.0,0.6652047038078308,8.214560508728027,-6.759723663330077
692,138400.0,0.4929214715957642,7.197610855102539,-6.355337142944336
693,138600.0,0.7896314859390259,6.228517532348633,-7.8460655212402335
694,138800.0,0.7896314859390259,8.327022552490233,-5.9126644134521475
695,139000.0,0.2967100143432617,7.939385414123535,-5.831308364868164
696,139200.0,0.2967100143432617,7.939385414123535,-5.831308364868164
697,139400.0,0.27756744623184204,8.018348693847656,-5.257031440734863
698,139600.0,0.4019941985607147,7.716853141784668,-5.893522262573242
699,139800.0,0.2488535493612289,7.604390144348144,-5.979663372039795
700,140000.0,-0.15314064919948578,4.883750915527344,-7.503891944885254
701,140200.0,-0.12442677468061447,7.154539585113525,-7.118647575378418
702,140400.0,0.3924228847026825,8.135597229003906,-5.364708423614502
703,140600.0,0.3924228847026825,8.135597229003906,-5.364708423614502
704,140800.0,-0.0526420958340168,6.977471351623535,-6.405585765838622
705,141000.0,0.2488535493612289,6.467799663543701,-6.364907741546631
706,141200.0,-1.5074783563613892,9.05683422088623,-4.6372904777526855
707,141400.0,0.4354937374591827,6.6281185150146475,-7.929814338684082
708,141600.0,0.1627119481563568,7.5804619789123535,-6.1399827003479
709,141800.0,0.4450649619102478,7.073184013366699,-6.324230670928955
710,142000.0,0.1866401582956314,7.17368221282959,-6.498906135559082
711,142200.0,0.1866401582956314,7.17368221282959,-6.498906135559082
712,142400.0,0.27756744623184204,7.932207107543945,-5.783452033996582
713,142600.0,0.41156551241874695,7.178467750549316,-6.26440954208374
714,142800.0,0.18185453116893768,5.613561630249023,-8.027919769287111
715,143000.0,-0.9236294627189636,3.187239646911621,-8.941977500915527
716,143200.0,-0.7657032012939453,5.154139995574951,-8.161917686462402
717,143400.0,-0.22013968229293826,6.135197162628174,-8.350951194763184
718,143600.0,-0.4737788736820221,5.778666496276856,-8.149953842163086
719,143800.0,-0.4737788736820221,5.778666496276856,-8.149953842163086
720,144000.0,-1.0049854516983032,4.247260093688965,-8.853443145751953
721,144200.0,-0.2440679222345352,3.902693748474121,-9.221939086914062
722,144400.0,0.07657032459974289,4.0462632179260245,-9.432506561279297
723,144600.0,0.14356936514377594,4.0462632179260245,-9.477970123291016
724,144800.0,-0.36370906233787537,6.498906135559082,-7.5326056480407715
725,145000.0,-0.17228324711322784,6.472585201263428,-7.556533336639403
726,145200.0,-0.17228324711322784,6.472585201263428,-7.556533336639403
727,145400.0,0.014356935396790503,5.623133182525635,-7.903492927551269
728,145600.0,-0.5838487148284912,6.26440954208374,-7.152146816253662
729,145800.0,-0.3780659735202789,6.87697172164917,-7.056434154510497
730,146000.0,-0.28235307335853577,5.0560340881347665,-8.898907661437988
731,146200.0,0.033499516546726234,5.8265228271484375,-8.109275817871094
732,146400.0,0.033499516546726234,5.8265228271484375,-8.109275817871094
733,146600.0,-0.20099709928035736,4.981856822967528,-8.193024635314941
734,146800.0,-0.35892340540885925,5.816952228546143,-7.743173599243164
735,147000.0,-0.0526420958340168,7.020541667938232,-7.152146816253662
736,147200.0,-0.3445664942264557,6.405585765838622,-7.276573657989503
737,147400.0,-0.10049854964017868,6.259624004364014,-7.420143127441406
738,147600.0,-0.12921242415905002,7.113861560821532,-6.975078105926514
739,147800.0,-0.12921242415905002,7.113861560821532,-6.975078105926514
740,148000.0,0.4019941985607147,5.92223596572876,-6.9344000816345215
741,148200.0,0.02392822504043579,7.709674835205077,-6.269195556640625
742,148400.0,0.6269195079803467,6.477370738983153,-7.511070251464844
743,148600.0,-0.5359922647476196,4.931607723236084,-7.372286796569824
744,148800.0,-1.0480562448501587,8.185846328735353,-6.049055576324463
745,149000.0,0.8087739944458008,4.1587257385253915,-10.15992546081543
746,149200.0,-0.3445664942264557,7.915457248687744,-6.33380126953125
747,149400.0,-0.4594219326972962,4.634897232055664,-7.544569969177246
748,149600.0,0.8087739944458008,6.484549045562744,-7.925028324127197
749,149800.0,0.8087739944458008,6.484549045562744,-7.925028324127197
750,150000.0,0.2679961323738098,6.943971633911133,-6.62333345413208
751,150200.0,-0.00957129057496786,6.56829833984375,-6.458228588104247
752,150400.0,0.1579262912273407,7.075576305389403,-6.656832218170166
753,150600.0,0.41156551241874695,6.903293132781982,-6.656832218170166
754,150800.0,-0.3110669553279877,6.860222339630128,-6.041877269744872
755,151000.0,-0.3110669553279877,6.860222339630128,-6.041877269744872
756,151200.0,0.5168496966362001,7.118647575378418,-7.345965385437013
757,151400.0,0.14356936514377594,6.305087566375732,-7.601996898651122
758,151600.0,0.1627119481563568,6.049055576324463,-7.432106971740723
759,151800.0,0.9475577473640442,7.527820110321045,-5.55852746963501
760,152000.0,0.7178468108177185,7.534998416900635,-6.465407371520996
761,152200.0,0.7178468108177185,7.534998416900635,-6.465407371520996
762,152400.0,0.7178468108177185,7.097111701965332,-7.037291049957275
763,152600.0,1.368694543838501,7.324430465698242,-6.836294651031494
764,152800.0,0.5072783827781677,6.302694320678711,-6.771688461303711
765,153000.0,0.7992027401924133,6.589833736419678,-7.348358631134032
766,153200.0,-0.5120640397071838,5.960521221160889,-6.790830135345459
767,153400.0,1.4691929817199707,10.782057762145996,-5.874379634857178
768,153600.0,1.4691929817199707,10.782057762145996,-5.874379634857178
769,153800.0,0.6221339106559753,5.522634029388428,-8.956335067749023
770,154000.0,0.11964112520217896,6.386443614959718,-7.539783954620361
771,154200.0,-0.6460621356964111,6.374479293823242,-6.501298904418945
772,154400.0,0.8662018179893494,7.322037220001222,-6.072984218597412
773,154600.0,0.6939185857772827,6.9272212982177725,-6.881758213043213
774,154800.0,0.818345308303833,7.5326056480407715,-7.185646057128906
775,155000.0,0.818345308303833,7.5326056480407715,-7.185646057128906
776,155200.0,0.5359922647476196,7.1641106605529785,-6.546762466430664
777,155400.0,0.7704889178276062,7.381857395172119,-6.099304676055907
778,155600.0,0.8805587291717529,8.178668022155763,-6.458228588104247
779,155800.0,0.4881358444690704,5.9198431968688965,-7.606783390045166
780,156000.0,0.6364907622337341,6.75493860244751,-5.9700927734375
781,156200.0,0.6364907622337341,6.75493860244751,-5.9700927734375
782,156400.0,1.1389836072921753,6.436692714691162,-8.303093910217285
783,156600.0,0.8662018179893494,8.310273170471191,-6.666403770446777
784,156800.0,-0.16749757528305054,8.047062873840332,-5.702096462249756
785,157000.0,1.832902193069458,7.29810905456543,-7.128218650817871
786,157200.0,1.1533405780792236,7.554140567779541,-5.438885688781738
787,157400.0,-1.2681961059570312,9.214759826660156,-4.465007305145264
788,157600.0,-0.4402793645858765,7.259823799133301,-4.563112735748291
789,157800.0,-0.4402793645858765,7.259823799133301,-4.563112735748291
790,158000.0,0.07657032459974289,7.850851535797119,-5.869593620300293
791,158200.0,1.368694543838501,7.113861560821532,-6.778866291046143
792,158400.0,0.25363919138908386,6.654439926147461,-6.8482584953308105
793,158600.0,0.7226324081420898,7.465606689453125,-7.128218650817871
794,158800.0,0.6939185857772827,6.680760860443115,-7.020541667938232
795,159000.0,0.7800601720809937,7.558926582336426,-5.9748783111572275
796,159200.0,0.5551348924636841,7.726424217224121,-6.15673303604126
797,159400.0,0.5551348924636841,7.726424217224121,-6.15673303604126
798,159600.0,0.6221339106559753,8.00399112701416,-5.92223596572876
799,159800.0,0.8709874749183655,8.707481384277344,-5.158926010131836
800,160000.0,-1.325623631477356,5.72841739654541,-6.912864685058594
801,160200.0,0.18185453116893768,7.5876407623291025,-6.192624568939209
802,160400.0,-0.3924228847026825,7.70249605178833,-5.587240695953369
803,160600.0,0.4594219326972962,8.008777618408201,-6.216552734375
804,160800.0,0.4594219326972962,8.008777618408201,-6.216552734375
805,161000.0,0.7465606331825256,8.477770805358888,-5.661418437957764
806,161200.0,-0.6269195079803467,5.424529075622559,-6.781259536743164
807,161400.0,0.3397807776927948,6.7932233810424805,-7.094719409942628
808,161600.0,-0.08614162355661392,7.168896198272705,-6.498906135559082
809,161800.0,0.2440679222345352,6.817151546478272,-7.338787078857423
810,162000.0,-0.41156551241874695,4.989035129547119,-8.291130065917969
811,162200.0,-0.41156551241874695,4.989035129547119,-8.291130065917969
812,162400.0,0.3493521213531494,8.10688304901123,-6.254837989807129
813,162600.0,0.057427741587162025,7.240681171417236,-6.190232276916504
814,162800.0,1.1437692642211914,7.980063438415527,-6.687938690185548
815,163000.0,0.7417750358581543,7.365108013153076,-6.5730838775634775
816,163200.0,0.5407779216766357,6.515655517578125,-7.396214485168457
817,163400.0,0.9762716889381408,6.015556335449219,-8.152346611022951
818,163600.0,0.9667003750801086,6.86261510848999,-7.087540626525879
819,163800.0,0.607776939868927,7.022934436798097,-6.759723663330077
820,164000.0,0.4354937374591827,7.243074417114258,-6.474977493286133
821,164200.0,0.4354937374591827,7.243074417114258,-6.474977493286133
822,164400.0,0.3924228847026825,7.190432548522949,-6.704688549041747
823,164600.0,0.8757730722427368,7.0851478576660165,-5.66620397567749
824,164800.0,0.6699903011322021,7.444070816040039,-6.178267955780028
825,165000.0,0.5838487148284912,6.814758777618407,-6.197411060333253
826,165200.0,0.4163511395454407,7.915457248687744,-5.450850009918213
827,165400.0,0.7800601720809937,7.520641803741455,-6.10887622833252
828,165600.0,0.4546363055706024,7.1066832542419425,-6.675975322723389
829,165800.0,0.4546363055706024,7.1066832542419425,-6.675975322723389
830,166000.0,0.5168496966362001,7.841279983520508,-6.0299134254455575
831,166200.0,0.0526420958340168,6.9344000816345215,-7.089932918548584
832,166400.0,0.5982056856155396,7.23589563369751,-7.0923261642456055
833,166600.0,0.5551348924636841,7.635497093200684,-6.434299945831299
834,166800.0,0.7226324081420898,7.427321434020996,-6.52044153213501
835,167000.0,0.06699903309345245,7.456035614013673,-6.235695838928223
836,167200.0,0.3110669553279877,7.41535758972168,-5.800201892852782
837,167400.0,0.3110669553279877,7.41535758972168,-5.800201892852782
838,167600.0,0.36370906233787537,7.23589563369751,-5.759523868560791
839,167800.0,-0.1052841916680336,7.094719409942628,-5.991628170013428
840,168000.0,0.07657032459974289,6.65204668045044,-7.121039390563965
841,168200.0,0.4450649619102478,8.00638484954834,-5.840879917144775
842,168400.0,0.35892340540885925,8.200202941894531,-5.647061824798584
843,168600.0,0.4833501875400543,7.329216003417969,-5.984449863433838
844,168800.0,0.4402793645858765,8.941977500915527,-5.1086764335632315
845,169000.0,0.4402793645858765,8.941977500915527,-5.1086764335632315
846,169200.0,0.8135597109794617,7.393822193145753,-5.917449951171875
847,169400.0,-0.0813559740781784,6.908078193664551,-6.116055011749268
848,169600.0,0.10049854964017868,7.348358631134032,-6.230910301208496
849,169800.0,0.6460621356964111,6.704688549041747,-6.262016773223878
850,170000.0,0.5168496966362001,7.850851535797119,-6.041877269744872
851,170200.0,0.6364907622337341,7.630711555480957,-5.831308364868164
852,170400.0,0.6364907622337341,7.630711555480957,-5.831308364868164
853,170600.0,0.6747759580612183,9.028119087219238,-4.989035129547119
854,170800.0,0.27756744623184204,8.190631866455076,-5.704488754272461
855,171000.0,0.6125625967979431,7.752745151519775,-5.551348686218262
856,171200.0,0.5168496966362001,8.104490280151367,-5.797809600830077
857,171400.0,0.6173481941223145,7.884350299835205,-5.682953834533691
858,171600.0,0.13878372311592102,8.358129501342772,-5.233102798461914
859,171800.0,0.13878372311592102,8.358129501342772,-5.233102798461914
860,172000.0,0.5503491759300232,7.83410120010376,-6.2189459800720215
861,172200.0,0.5790630578994751,7.252645492553711,-6.120840072631836
862,172400.0,0.5216353535652161,8.49452018737793,-4.694717884063722
863,172600.0,0.13878372311592102,5.8480587005615225,-7.8652076721191415
864,172800.0,0.7034898400306702,7.448856830596924,-5.91505765914917
865,173000.0,0.14835500717163086,6.915257453918457,-6.195017814636231
866,173200.0,0.6556334495544434,6.999006271362305,-7.410572052001952
867,173400.0,0.6891329884529114,7.338787078857423,-6.666403770446777
868,173600.0,0.3206382095813751,7.269395351409912,-6.960721015930176
869,173800.0,0.3206382095813751,7.269395351409912,-6.960721015930176
870,174000.0,0.057427741587162025,6.183053970336914,-6.69990348815918
871,174200.0,-0.03828516229987145,7.640282154083253,-6.058626651763916
872,174400.0,0.4689932465553284,7.245467185974121,-6.561119556427003
873,174600.0,0.4833501875400543,7.001399040222168,-6.9918274879455575
874,174800.0,0.5216353535652161,7.446464061737059,-6.410372257232666
875,175000.0,0.6652047038078308,7.219145774841309,-6.5730838775634775
876,175200.0,0.6652047038078308,7.219145774841309,-6.5730838775634775
877,175400.0,-0.0813559740781784,6.477370738983153,-7.037291049957275
878,175600.0,0.397208571434021,7.075576305389403,-7.094719409942628
879,175800.0,0.8518448472023009,8.72662353515625,-5.575276851654053
880,176000.0,0.7178468108177185,7.616354942321777,-6.15673303604126
881,176200.0,0.7465606331825256,7.2670021057128915,-6.317051887512207
882,176400.0,0.6699903011322021,7.788637638092041,-5.769095420837402
883,176600.0,0.6699903011322021,7.788637638092041,-5.769095420837402
884,176800.0,0.7752745151519775,8.133204460144043,-5.45563554763794
885,177000.0,0.7417750358581543,7.764709949493407,-5.465207099914551
886,177200.0,0.5790630578994751,7.735995292663574,-5.747560024261475
887,177400.0,0.4929214715957642,7.121039390563965,-6.2093749046325675
888,177600.0,0.7992027401924133,7.4057860374450675,-6.668797016143799
889,177800.0,0.7274181246757507,7.956134796142577,-5.871986389160156
890,178000.0,0.9954141974449158,7.5254268646240225,-6.27876615524292
891,178200.0,0.9954141974449158,7.5254268646240225,-6.27876615524292
892,178400.0,0.8949156999588013,7.401000499725343,-6.9320068359375
893,178600.0,0.1627119481563568,7.410572052001952,-5.938986301422119
894,178800.0,0.0047856452874839315,7.310072898864746,-6.020341873168945
895,179000.0,0.6556334495544434,8.417949676513674,-5.989234924316406
896,179200.0,0.30149564146995544,7.231109619140625,-6.812366485595702
897,179400.0,1.0480562448501587,7.46799898147583,-6.331408977508545
898,179600.0,1.0480562448501587,7.46799898147583,-6.331408977508545
899,179800.0,0.06699903309345245,7.168896198272705,-6.077769756317139
900,180000.0,0.5790630578994751,7.953742504119872,-6.017949104309082
901,180200.0,0.7513462901115417,7.4057860374450675,-6.1256256103515625
902,180400.0,0.5216353535652161,7.5804619789123535,-5.9988059997558585
903,180600.0,0.2919243574142456,8.054241180419924,-5.07517671585083
904,180800.0,0.18185453116893768,6.144768238067628,-6.687938690185548
905,181000.0,0.35413774847984314,7.456035614013673,-6.702296257019043
906,181200.0,0.35413774847984314,7.456035614013673,-6.702296257019043
907,181400.0,0.3110669553279877,7.731209754943848,-5.984449863433838
908,181600.0,0.397208571434021,7.2670021057128915,-6.116055011749268
909,181800.0,0.5168496966362001,7.458428382873535,-6.132804393768311
910,182000.0,0.6795615553855896,7.654639720916747,-6.135197162628174
911,182200.0,0.4737788736820221,7.7599239349365225,-5.996413230895996
912,182400.0,0.3828516006469727,7.2502522468566895,-6.175874710083008
913,182600.0,0.6556334495544434,7.061219692230225,-6.740581512451173
914,182800.0,0.7992027401924133,7.664210796356201,-7.647461414337157
915,183000.0,0.7992027401924133,7.664210796356201,-7.647461414337157
916,183200.0,0.4737788736820221,6.668797016143799,-6.757331371307372
917,183400.0,0.430708110332489,7.2885379791259775,-6.728617191314697
918,183600.0,0.3780659735202789,7.262216091156006,-6.398407459259032
919,183800.0,-0.607776939868927,5.862415313720702,-6.336194515228272
920,184000.0,1.0049854516983032,7.125825881958008,-6.63051176071167
921,184200.0,1.0049854516983032,7.125825881958008,-6.63051176071167
922,184400.0,0.2488535493612289,7.549355506896973,-6.587440490722656
923,184600.0,0.4019941985607147,7.3531436920166025,-6.398407459259032
924,184800.0,0.6747759580612183,7.7072815895080575,-6.360122680664063
925,185000.0,0.3732803165912628,7.29093074798584,-6.515655517578125
926,185200.0,0.2488535493612289,6.7621169090271,-6.687938690185548
927,185400.0,-0.14356936514377594,7.389035701751709,-6.9918274879455575
928,185600.0,0.2871387302875519,7.8245296478271475,-4.922036170959473
929,185800.0,0.5886343717575073,7.549355506896973,-6.601797103881836
930,186000.0,0.5886343717575073,7.549355506896973,-6.601797103881836
931,186200.0,-0.014356935396790503,7.6833534240722665,-6.221338748931885
932,186400.0,0.9044869542121888,9.169296264648438,-5.280959606170653
933,186600.0,0.9140582084655762,7.601996898651122,-6.434299945831299
934,186800.0,0.17706887423992154,8.001599311828612,-5.6350975036621085
935,187000.0,0.5359922647476196,7.767102241516112,-5.752345561981201
936,187200.0,0.19621144235134125,7.331608772277832,-6.56829833984375
937,187400.0,0.19621144235134125,7.331608772277832,-6.56829833984375
938,187600.0,-0.14835500717163086,8.178668022155763,-5.718846321105957
939,187800.0,0.5790630578994751,7.786244869232178,-5.931807041168213
940,188000.0,0.2105683833360672,7.188039302825928,-6.960721015930176
941,188200.0,-0.4402793645858765,7.556533336639403,-6.247659683227539
942,188400.0,-0.30149564146995544,9.09511947631836,-4.543970108032227
943,188600.0,0.6364907622337341,8.216952323913574,-5.807380676269531
944,188800.0,0.3110669553279877,7.680960178375244,-5.225924491882324
945,189000.0,0.4450649619102478,7.817351341247559,-6.293124198913574
946,189200.0,0.4450649619102478,7.817351341247559,-6.293124198913574
947,189400.0,-0.7034898400306702,6.467799663543701,-6.180660724639893
948,189600.0,-0.27756744623184204,6.360122680664063,-7.372286796569824
949,189800.0,-0.02392822504043579,7.2023963928222665,-6.151947498321532
950,190000.0,0.01914258114993572,7.2502522468566895,-6.503692150115968
