,timestamp,ax,ay,az
0,7000.0,-3.460021495819092,-0.6149553656578064,-8.628519058227539
1,7100.0,-3.460021495819092,-0.6149553656578064,-8.628519058227539
2,7200.0,-3.460021495819092,-0.6149553656578064,-8.628519058227539
3,7300.0,-3.460021495819092,-0.6149553656578064,-8.628519058227539
4,7400.0,-2.565105676651001,-0.0526420958340168,-8.707481384277344
5,7500.0,-2.565105676651001,-0.0526420958340168,-8.707481384277344
6,7600.0,-2.565105676651001,-0.0526420958340168,-8.707481384277344
7,7700.0,-3.6370904445648193,1.6534404754638672,-8.228917121887207
8,7800.0,-3.6370904445648193,1.6534404754638672,-8.228917121887207
9,7900.0,-6.058626651763916,1.4261221885681152,-8.044669151306152
10,8000.0,-6.058626651763916,1.4261221885681152,-8.044669151306152
11,8100.0,-4.60857629776001,2.2851457595825195,-7.841279983520508
12,8200.0,-4.60857629776001,2.2851457595825195,-7.841279983520508
13,8300.0,-4.60857629776001,2.2851457595825195,-7.841279983520508
14,8400.0,-4.599005222320557,7.5326056480407715,-6.563512325286865
15,8500.0,-4.599005222320557,7.5326056480407715,-6.563512325286865
16,8600.0,-4.847858428955078,8.501699447631836,-2.9216365814208984
17,8700.0,-4.847858428955078,8.501699447631836,-2.9216365814208984
18,8800.0,-6.058626651763916,7.5469627380371085,-3.603590488433838
19,8900.0,-6.058626651763916,7.5469627380371085,-3.603590488433838
20,9000.0,-6.058626651763916,7.5469627380371085,-3.603590488433838
21,9100.0,-5.024927616119385,9.274580955505373,0.2105683833360672
22,9200.0,-5.024927616119385,9.274580955505373,0.2105683833360672
23,9300.0,-4.441079139709473,8.097311973571777,-0.6987042427062988
24,9400.0,-4.441079139709473,8.097311973571777,-0.6987042427062988
25,9500.0,-5.096712112426758,8.465806007385254,-1.227518081665039
26,9600.0,-5.096712112426758,8.465806007385254,-1.227518081665039
27,9700.0,-5.096712112426758,8.465806007385254,-1.227518081665039
28,9800.0,-5.359922409057617,7.4081788063049325,-1.6917256116867063
29,9900.0,-5.359922409057617,7.4081788063049325,-1.6917256116867063
30,10000.0,-5.776273727416992,5.828916072845459,-3.041277408599853
31,10100.0,-5.776273727416992,5.828916072845459,-3.041277408599853
32,10200.0,-5.670989990234375,4.383650779724121,-7.948956489562987
33,10300.0,-5.670989990234375,4.383650779724121,-7.948956489562987
34,10400.0,-5.670989990234375,4.383650779724121,-7.948956489562987
35,10500.0,-5.111069202423097,1.026520848274231,-8.360522270202638
36,10600.0,-5.111069202423097,1.026520848274231,-8.360522270202638
37,10700.0,-4.326223373413087,0.9978070855140686,-9.109475135803224
38,10800.0,-4.326223373413087,0.9978070855140686,-9.109475135803224
39,10900.0,-5.584848403930664,1.3136597871780396,-7.5876407623291025
40,11000.0,-5.584848403930664,1.3136597871780396,-7.5876407623291025
41,11100.0,-5.584848403930664,1.3136597871780396,-7.5876407623291025
42,11200.0,-5.015356063842773,0.7465606331825256,-8.271987915039062
43,11300.0,-5.015356063842773,0.7465606331825256,-8.271987915039062
44,11400.0,-5.345565319061278,1.7371891736984253,-7.903492927551269
45,11500.0,-5.345565319061278,1.7371891736984253,-7.903492927551269
46,11600.0,-5.158926010131836,0.4713860750198364,-7.534998416900635
47,11700.0,-5.158926010131836,0.4713860750198364,-7.534998416900635
48,11800.0,-5.158926010131836,0.4713860750198364,-7.534998416900635
49,11900.0,-6.106483459472656,-0.057427741587162025,-7.716853141784668
50,12000.0,-6.106483459472656,-0.057427741587162025,-7.716853141784668
51,12100.0,-6.2739810943603525,1.5026925802230835,-7.118647575378418
52,12200.0,-6.2739810943603525,1.5026925802230835,-7.118647575378418
53,12300.0,-5.580062389373778,0.41156551241874695,-7.056434154510497
54,12400.0,-5.580062389373778,0.41156551241874695,-7.056434154510497
55,12500.0,-5.580062389373778,0.41156551241874695,-7.056434154510497
56,12600.0,-7.049255847930907,1.931007981300354,-7.5326056480407715
57,12700.0,-7.049255847930907,1.931007981300354,-7.5326056480407715
58,12800.0,-5.120640754699707,1.3591231107711792,-7.9106712341308585
59,12900.0,-5.120640754699707,1.3591231107711792,-7.9106712341308585
60,13000.0,-4.541577339172363,3.929014682769776,-6.9344000816345215
61,13100.0,-4.541577339172363,3.929014682769776,-6.9344000816345215
62,13200.0,-4.541577339172363,3.929014682769776,-6.9344000816345215
63,13300.0,-2.675175428390503,8.865407943725586,-2.878565788269043
64,13400.0,-2.675175428390503,8.865407943725586,-2.878565788269043
65,13500.0,-3.785445213317871,8.193024635314941,-3.6753754615783687
66,13600.0,-3.785445213317871,8.193024635314941,-3.6753754615783687
67,13700.0,-5.929414749145508,6.412764549255371,-5.221138954162598
68,13800.0,-5.929414749145508,6.412764549255371,-5.221138954162598
69,13900.0,-5.929414749145508,6.412764549255371,-5.221138954162598
70,14000.0,-1.3112668991088867,9.53779125213623,-4.390829563140868
71,14100.0,-1.3112668991088867,9.53779125213623,-4.390829563140868
72,14200.0,-1.813759446144104,8.592625617980957,-3.862015962600708
73,14300.0,-1.813759446144104,8.592625617980957,-3.862015962600708
74,14400.0,-2.3497519493103027,8.338986396789549,-3.869194030761719
75,14500.0,-2.3497519493103027,8.338986396789549,-3.869194030761719
76,14600.0,-2.3497519493103027,8.338986396789549,-3.869194030761719
77,14700.0,-2.5746772289276123,2.1343977451324463,-8.563912391662598
78,14800.0,-2.5746772289276123,2.1343977451324463,-8.563912391662598
79,14900.0,-5.077569961547852,3.905086755752564,-7.219145774841309
80,15000.0,-5.077569961547852,3.905086755752564,-7.219145774841309
81,15100.0,-4.680361270904541,3.160918712615967,-8.159524917602539
82,15200.0,-4.680361270904541,3.160918712615967,-8.159524917602539
83,15300.0,-4.680361270904541,3.160918712615967,-8.159524917602539
84,15400.0,-2.3976082801818848,4.0175490379333505,-9.734003067016602
85,15500.0,-2.3976082801818848,4.0175490379333505,-9.734003067016602
86,15600.0,-3.957728624343872,7.396214485168457,-5.292923927307129
87,15700.0,-3.957728624343872,7.396214485168457,-5.292923927307129
88,15800.0,-3.445664882659912,8.666803359985353,-4.2759737968444815
89,15900.0,-3.445664882659912,8.666803359985353,-4.2759737968444815
90,16000.0,-3.445664882659912,8.666803359985353,-4.2759737968444815
91,16100.0,-3.876372575759888,8.35573673248291,-1.931007981300354
92,16200.0,-3.876372575759888,8.35573673248291,-1.931007981300354
93,16300.0,-3.1058835983276367,8.94676399230957,-2.258824586868286
94,16400.0,-3.1058835983276367,8.94676399230957,-2.258824586868286
95,16500.0,-3.522234916687012,8.750552177429201,-0.5599204897880554
96,16600.0,-3.522234916687012,8.750552177429201,-0.5599204897880554
97,16700.0,-3.522234916687012,8.750552177429201,-0.5599204897880554
98,16800.0,-3.5844480991363525,8.429913520812987,-2.5124638080596924
99,16900.0,-3.5844480991363525,8.429913520812987,-2.5124638080596924
100,17000.0,-3.5270204544067383,9.42054271697998,-1.550549030303955
101,17100.0,-3.5270204544067383,9.42054271697998,-1.550549030303955
102,17200.0,-3.881158351898194,8.255237579345701,-2.1272192001342773
103,17300.0,-3.881158351898194,8.255237579345701,-2.1272192001342773
104,17400.0,-3.881158351898194,8.255237579345701,-2.1272192001342773
105,17500.0,-4.378865718841554,8.434700012207031,-1.998006820678711
106,17600.0,-4.378865718841554,8.434700012207031,-1.998006820678711
107,17700.0,-4.804787635803223,8.61176872253418,-1.9453648328781128
108,17800.0,-4.804787635803223,8.61176872253418,-1.9453648328781128
109,17900.0,-4.800002098083496,9.4061861038208,-0.5934200286865234
110,18000.0,-4.800002098083496,9.4061861038208,-0.5934200286865234
111,18100.0,-3.938585996627808,8.673982620239258,0.5383850932121277
112,18200.0,-3.938585996627808,8.673982620239258,0.5383850932121277
113,18300.0,-3.938585996627808,8.673982620239258,0.5383850932121277
114,18400.0,-3.871586799621582,8.85105037689209,-0.2464607357978821
115,18500.0,-3.871586799621582,8.85105037689209,-0.2464607357978821
116,18600.0,-3.665804386138916,9.360722541809082,0.8470591902732849
117,18700.0,-3.665804386138916,9.360722541809082,0.8470591902732849
118,18800.0,-3.713660717010498,9.133403778076172,-0.5886343717575073
119,18900.0,-3.713660717010498,9.133403778076172,-0.5886343717575073
120,19000.0,-3.713660717010498,9.133403778076172,-0.5886343717575073
121,19100.0,-3.785445213317871,9.166903495788574,-1.6989041566848757
122,19200.0,-3.785445213317871,9.166903495788574,-1.6989041566848757
123,19300.0,-3.34995174407959,9.279366493225098,-1.9046868085861208
124,19400.0,-3.34995174407959,9.279366493225098,-1.9046868085861208
125,19500.0,-4.498506546020508,8.264809608459473,-3.400200843811035
126,19600.0,-4.498506546020508,8.264809608459473,-3.400200843811035
127,19700.0,-4.1347975730896005,5.905486583709718,-5.8887367248535165
128,19800.0,-4.1347975730896005,5.905486583709718,-5.8887367248535165
129,19900.0,-4.1347975730896005,5.905486583709718,-5.8887367248535165
130,20000.0,-4.000799655914307,6.128018856048584,-6.888936519622803
131,20100.0,-4.000799655914307,6.128018856048584,-6.888936519622803
132,20200.0,-3.924229145050049,3.720839262008667,-7.625925540924072
133,20300.0,-3.924229145050049,3.720839262008667,-7.625925540924072
134,20400.0,-3.4743783473968506,4.5678982734680185,-7.597211837768555
135,20500.0,-3.4743783473968506,4.5678982734680185,-7.597211837768555
136,20600.0,-3.4743783473968506,4.5678982734680185,-7.597211837768555
137,20700.0,-3.2542388439178467,6.580262184143066,-7.515855312347412
138,20800.0,-3.2542388439178467,6.580262184143066,-7.515855312347412
139,20900.0,-3.1585259437561035,9.360722541809082,-3.4528429508209233
140,21000.0,-3.1585259437561035,9.360722541809082,-3.4528429508209233
141,21100.0,-3.603590488433838,8.367700576782228,-3.804587841033936
142,21200.0,-3.603590488433838,8.367700576782228,-3.804587841033936
143,21300.0,-3.603590488433838,8.367700576782228,-3.804587841033936
144,21400.0,-4.029513359069823,5.8337016105651855,-6.0921263694763175
145,21500.0,-4.029513359069823,5.8337016105651855,-6.0921263694763175
146,21600.0,-2.9479575157165527,5.266602516174316,-7.444070816040039
147,21700.0,-2.9479575157165527,5.266602516174316,-7.444070816040039
148,21800.0,-2.9671001434326167,8.800802230834961,-4.67078971862793
149,21900.0,-2.9671001434326167,8.800802230834961,-4.67078971862793
150,22000.0,-2.9671001434326167,8.800802230834961,-4.67078971862793
151,22100.0,-1.9046868085861208,9.06879711151123,-2.3234307765960693
152,22200.0,-1.9046868085861208,9.06879711151123,-2.3234307765960693
153,22300.0,-2.5124638080596924,10.02592658996582,-0.6891329884529114
154,22400.0,-2.5124638080596924,10.02592658996582,-0.6891329884529114
155,22500.0,-2.8043880462646484,9.542576789855957,-0.5288137793540955
156,22600.0,-2.8043880462646484,9.542576789855957,-0.5288137793540955
157,22700.0,-4.058227062225342,9.592825889587402,-0.6388836503028871
158,22800.0,-4.058227062225342,9.592825889587402,-0.6388836503028871
159,22900.0,-4.063012599945068,7.520641803741455,-0.9044869542121888
160,23000.0,-4.063012599945068,7.520641803741455,-0.9044869542121888
161,23100.0,-4.063012599945068,7.520641803741455,-0.9044869542121888
162,23200.0,-4.814359188079834,9.437292098999023,-0.6436693072319031
163,23300.0,-4.814359188079834,9.437292098999023,-0.6436693072319031
164,23400.0,-3.876372575759888,8.666803359985353,0.4402793645858765
165,23500.0,-3.876372575759888,8.666803359985353,0.4402793645858765
166,23600.0,-3.876372575759888,8.666803359985353,0.4402793645858765
167,23700.0,-3.5461630821228027,9.592825889587402,1.6941183805465698
168,23800.0,-3.5461630821228027,9.592825889587402,1.6941183805465698
169,23900.0,-3.9912283420562735,8.973085403442383,1.2346963882446291
170,24000.0,-3.9912283420562735,8.973085403442383,1.2346963882446291
171,24100.0,-4.3453660011291495,8.872586250305176,1.529013752937317
172,24200.0,-4.3453660011291495,8.872586250305176,1.529013752937317
173,24300.0,-4.302295207977295,8.863015174865723,1.4668002128601074
174,24400.0,-4.302295207977295,8.863015174865723,1.4668002128601074
175,24500.0,-4.302295207977295,8.863015174865723,1.4668002128601074
176,24600.0,-4.187439441680908,9.099905014038086,1.4620146751403809
177,24700.0,-4.187439441680908,9.099905014038086,1.4620146751403809
178,24800.0,-4.603790760040283,8.181060791015625,-0.2464607357978821
179,24900.0,-4.603790760040283,8.181060791015625,-0.2464607357978821
180,25000.0,-4.603790760040283,8.181060791015625,-0.2464607357978821
181,25100.0,-4.2687954902648935,9.07119083404541,1.65583336353302
182,25200.0,-4.2687954902648935,9.07119083404541,1.65583336353302
183,25300.0,-4.182653903961182,8.965906143188477,2.148754596710205
184,25400.0,-4.182653903961182,8.965906143188477,2.148754596710205
185,25500.0,-4.240081787109375,8.757731437683105,1.7084753513336182
186,25600.0,-4.240081787109375,8.757731437683105,1.7084753513336182
187,25700.0,-4.374079704284668,8.633303642272951,2.1104695796966557
188,25800.0,-4.374079704284668,8.633303642272951,2.1104695796966557
189,25900.0,-4.374079704284668,8.633303642272951,2.1104695796966557
190,26000.0,-4.465007305145264,8.690732002258299,2.4717857837677
191,26100.0,-4.465007305145264,8.690732002258299,2.4717857837677
192,26200.0,-4.675575256347656,8.695517539978027,1.2514461278915403
193,26300.0,-4.675575256347656,8.695517539978027,1.2514461278915403
194,26400.0,-4.675575256347656,8.695517539978027,1.2514461278915403
195,26500.0,-5.584848403930664,8.023134231567383,-0.7513462901115417
196,26600.0,-5.584848403930664,8.023134231567383,-0.7513462901115417
197,26700.0,-6.63769006729126,5.450850009918213,-3.531806230545044
198,26800.0,-6.63769006729126,5.450850009918213,-3.531806230545044
199,26900.0,-5.345565319061278,5.2115678787231445,-6.26440954208374
200,27000.0,-5.345565319061278,5.2115678787231445,-6.26440954208374
201,27100.0,-6.474977493286133,4.362115383148193,-6.049055576324463
202,27200.0,-6.474977493286133,4.362115383148193,-6.049055576324463
203,27300.0,-6.474977493286133,4.362115383148193,-6.049055576324463
204,27400.0,-7.101897716522218,3.2853453159332275,-5.745166778564452
205,27500.0,-7.101897716522218,3.2853453159332275,-5.745166778564452
206,27600.0,-7.121039390563965,2.739781856536865,-6.1878395080566415
207,27700.0,-7.121039390563965,2.739781856536865,-6.1878395080566415
208,27800.0,-5.536991596221924,4.522434711456299,-7.4608211517333975
209,27900.0,-5.536991596221924,4.522434711456299,-7.4608211517333975
210,28000.0,-5.536991596221924,4.522434711456299,-7.4608211517333975
211,28100.0,-4.828716278076172,1.3184452056884766,-9.710074424743652
212,28200.0,-4.828716278076172,1.3184452056884766,-9.710074424743652
213,28300.0,-5.804987907409668,2.569891452789306,-7.135397434234619
214,28400.0,-5.804987907409668,2.569891452789306,-7.135397434234619
215,28500.0,-5.891129493713379,0.9260223507881165,-8.102097511291504
216,28600.0,-5.891129493713379,0.9260223507881165,-8.102097511291504
217,28700.0,-5.891129493713379,0.9260223507881165,-8.102097511291504
218,28800.0,-6.474977493286133,0.2991028428077698,-5.395814895629883
219,28900.0,-6.474977493286133,0.2991028428077698,-5.395814895629883
220,29000.0,-3.8668015003204346,1.5361920595169067,-10.05703353881836
221,29100.0,-3.8668015003204346,1.5361920595169067,-10.05703353881836
222,29200.0,-5.345565319061278,0.5862415432929993,-7.733603000640869
223,29300.0,-5.345565319061278,0.5862415432929993,-7.733603000640869
224,29400.0,-5.345565319061278,0.5862415432929993,-7.733603000640869
225,29500.0,-5.139782905578613,0.1938186287879944,-6.7453670501708975
226,29600.0,-5.139782905578613,0.1938186287879944,-6.7453670501708975
227,29700.0,-3.627518892288208,0.10049854964017868,-8.188239097595215
228,29800.0,-3.627518892288208,0.10049854964017868,-8.188239097595215
229,29900.0,-4.043870449066162,-0.14835500717163086,-8.566305160522461
230,30000.0,-4.043870449066162,-0.14835500717163086,-8.566305160522461
231,30100.0,-4.455435752868652,0.01914258114993572,-7.848458290100098
232,30200.0,-4.455435752868652,0.01914258114993572,-7.848458290100098
233,30300.0,-4.455435752868652,0.01914258114993572,-7.848458290100098
234,30400.0,-3.3547375202178955,-1.1629117727279663,-8.353343963623049
235,30500.0,-3.3547375202178955,-1.1629117727279663,-8.353343963623049
236,30600.0,-4.264009952545166,-0.2440679222345352,-8.271987915039062
237,30700.0,-4.264009952545166,-0.2440679222345352,-8.271987915039062
238,30800.0,-4.383650779724121,-0.07417750358581543,-8.185846328735353
239,30900.0,-4.383650779724121,-0.07417750358581543,-8.185846328735353
240,31000.0,-4.383650779724121,-0.07417750358581543,-8.185846328735353
241,31100.0,-2.9623143672943115,0.8997013568878174,-12.287144660949707
242,31200.0,-2.9623143672943115,0.8997013568878174,-12.287144660949707
243,31300.0,-3.708875179290772,-0.4666004180908203,-9.099905014038086
244,31400.0,-3.708875179290772,-0.4666004180908203,-9.099905014038086
245,31500.0,-3.708875179290772,-0.4666004180908203,-9.099905014038086
246,31600.0,-5.958127975463867,1.7156537771224976,-4.922036170959473
247,31700.0,-5.958127975463867,1.7156537771224976,-4.922036170959473
248,31800.0,-4.522434711456299,3.0388848781585693,-8.327022552490233
249,31900.0,-4.522434711456299,3.0388848781585693,-8.327022552490233
250,32000.0,-2.560320377349853,0.2847459018230438,-13.483555793762207
251,32100.0,-2.560320377349853,0.2847459018230438,-13.483555793762207
252,32200.0,-2.560320377349853,0.2847459018230438,-13.483555793762207
253,32300.0,-5.910271644592285,0.9619146585464478,-6.64486837387085
254,32400.0,-5.910271644592285,0.9619146585464478,-6.64486837387085
255,32500.0,-3.828516006469727,1.8903299570083616,-8.341379165649414
256,32600.0,-3.828516006469727,1.8903299570083616,-8.341379165649414
257,32700.0,-2.5507488250732417,7.240681171417236,-8.420342445373535
258,32800.0,-2.5507488250732417,7.240681171417236,-8.420342445373535
259,32900.0,-3.3547375202178955,7.365108013153076,-4.589433670043945
260,33000.0,-3.3547375202178955,7.365108013153076,-4.589433670043945
261,33100.0,-3.3547375202178955,7.365108013153076,-4.589433670043945
262,33200.0,-3.211168050765991,6.288337707519531,-5.819344997406006
263,33300.0,-3.211168050765991,6.288337707519531,-5.819344997406006
264,33400.0,-3.3020951747894287,8.453842163085938,-4.335794448852538
265,33500.0,-3.3020951747894287,8.453842163085938,-4.335794448852538
266,33600.0,-2.263610363006592,8.96112060546875,-5.6350975036621085
267,33700.0,-2.263610363006592,8.96112060546875,-5.6350975036621085
268,33800.0,-2.263610363006592,8.96112060546875,-5.6350975036621085
269,33900.0,-3.7328033447265625,9.040083885192873,-3.0269205570220947
270,34000.0,-3.7328033447265625,9.040083885192873,-3.0269205570220947
271,34100.0,-3.809373617172241,8.994620323181152,-1.4021940231323242
272,34200.0,-3.809373617172241,8.994620323181152,-1.4021940231323242
273,34300.0,-3.981656789779663,8.882158279418945,-0.4378865361213684
274,34400.0,-3.981656789779663,8.882158279418945,-0.4378865361213684
275,34500.0,-3.981656789779663,8.882158279418945,-0.4378865361213684
276,34600.0,-3.785445213317871,9.633503913879396,-2.1104695796966557
277,34700.0,-3.785445213317871,9.633503913879396,-2.1104695796966557
278,34800.0,-4.388436794281007,7.465606689453125,-2.825923442840576
279,34900.0,-4.388436794281007,7.465606689453125,-2.825923442840576
280,35000.0,-4.445864677429199,8.104490280151367,-2.96949315071106
281,35100.0,-4.445864677429199,8.104490280151367,-2.96949315071106
282,35200.0,-4.445864677429199,8.104490280151367,-2.96949315071106
283,35300.0,-4.6851468086242685,7.2263240814208975,-4.740181922912598
284,35400.0,-4.6851468086242685,7.2263240814208975,-4.740181922912598
285,35500.0,-4.35972261428833,4.615755081176758,-7.5254268646240225
286,35600.0,-4.35972261428833,4.615755081176758,-7.5254268646240225
287,35700.0,-2.847458839416504,3.87876558303833,-7.905886173248291
288,35800.0,-2.847458839416504,3.87876558303833,-7.905886173248291
289,35900.0,-3.0963122844696045,7.123432636260986,-5.7403812408447275
290,36000.0,-3.0963122844696045,7.123432636260986,-5.7403812408447275
291,36100.0,-3.0963122844696045,7.123432636260986,-5.7403812408447275
292,36200.0,-2.589033842086792,6.620940208435059,-6.994220733642577
293,36300.0,-2.589033842086792,6.620940208435059,-6.994220733642577
294,36400.0,-2.833101987838745,5.7308106422424325,-6.654439926147461
295,36500.0,-2.833101987838745,5.7308106422424325,-6.654439926147461
296,36600.0,-2.7661027908325195,9.798608779907227,-2.711068153381348
297,36700.0,-2.7661027908325195,9.798608779907227,-2.711068153381348
298,36800.0,-3.4121649265289307,9.454042434692383,-1.423729419708252
299,36900.0,-3.4121649265289307,9.454042434692383,-1.423729419708252
300,37000.0,-3.4121649265289307,9.454042434692383,-1.423729419708252
301,37100.0,-4.019941806793213,7.432106971740723,-2.665604591369629
302,37200.0,-4.019941806793213,7.432106971740723,-2.665604591369629
303,37300.0,-3.981656789779663,8.202595710754395,-2.691925525665283
304,37400.0,-3.981656789779663,8.202595710754395,-2.691925525665283
305,37500.0,-4.522434711456299,7.190432548522949,-2.1846470832824707
306,37600.0,-4.522434711456299,7.190432548522949,-2.1846470832824707
307,37700.0,-4.7234320640563965,7.188039302825928,-6.946363925933838
308,37800.0,-4.7234320640563965,7.188039302825928,-6.946363925933838
309,37900.0,-5.647061824798584,1.0695916414260864,-7.747959613800049
310,38000.0,-5.647061824798584,1.0695916414260864,-7.747959613800049
311,38100.0,-5.312066078186035,2.289931058883667,-9.24825954437256
312,38200.0,-5.312066078186035,2.289931058883667,-9.24825954437256
313,38300.0,-5.312066078186035,2.289931058883667,-9.24825954437256
314,38400.0,-6.254837989807129,1.6390833854675293,-6.821937084197997
315,38500.0,-6.254837989807129,1.6390833854675293,-6.821937084197997
316,38600.0,-5.178067684173584,2.227717876434326,-8.85105037689209
317,38700.0,-5.178067684173584,2.227717876434326,-8.85105037689209
318,38800.0,-5.752345561981201,0.9667003750801086,-7.75753116607666
319,38900.0,-5.752345561981201,0.9667003750801086,-7.75753116607666
320,39000.0,-5.752345561981201,0.9667003750801086,-7.75753116607666
321,39100.0,-4.5750770568847665,1.210768222808838,-9.437292098999023
322,39200.0,-4.5750770568847665,1.210768222808838,-9.437292098999023
323,39300.0,-6.465407371520996,1.4644075632095337,-6.879364967346191
324,39400.0,-6.465407371520996,1.4644075632095337,-6.879364967346191
325,39500.0,-6.570690631866455,2.1535403728485107,-6.068198204040527
326,39600.0,-6.570690631866455,2.1535403728485107,-6.068198204040527
327,39700.0,-6.570690631866455,2.1535403728485107,-6.068198204040527
328,39800.0,-4.8095736503601065,1.2777673006057741,-6.6281185150146475
329,39900.0,-4.8095736503601065,1.2777673006057741,-6.6281185150146475
330,40000.0,-5.1637115478515625,1.2586246728897097,-6.922436237335205
331,40100.0,-5.1637115478515625,1.2586246728897097,-6.922436237335205
332,40200.0,-5.8337016105651855,3.493520975112915,-6.774080753326416
333,40300.0,-5.8337016105651855,3.493520975112915,-6.774080753326416
334,40400.0,-5.8337016105651855,3.493520975112915,-6.774080753326416
335,40500.0,-5.757131576538086,2.383251428604126,-8.700303077697754
336,40600.0,-5.757131576538086,2.383251428604126,-8.700303077697754
337,40700.0,-6.5324058532714835,1.423729419708252,-6.716653347015381
338,40800.0,-6.5324058532714835,1.423729419708252,-6.716653347015381
339,40900.0,-6.5324058532714835,1.423729419708252,-6.716653347015381
340,41000.0,-7.010970115661621,0.7968099117279053,-6.044269561767577
341,41100.0,-7.010970115661621,0.7968099117279053,-6.044269561767577
342,41200.0,-5.522634029388428,1.3399806022644043,-8.334200859069824
343,41300.0,-5.522634029388428,1.3399806022644043,-8.334200859069824
344,41400.0,-5.015356063842773,5.644669055938722,-7.537391662597656
345,41500.0,-5.015356063842773,5.644669055938722,-7.537391662597656
346,41600.0,-5.331209182739258,2.256431579589844,-8.042276382446289
347,41700.0,-5.331209182739258,2.256431579589844,-8.042276382446289
348,41800.0,-3.0197420120239262,7.484748840332031,-5.364708423614502
349,41900.0,-3.0197420120239262,7.484748840332031,-5.364708423614502
350,42000.0,-3.0197420120239262,7.484748840332031,-5.364708423614502
351,42100.0,-6.317051887512207,5.44845724105835,-5.972485065460205
352,42200.0,-6.317051887512207,5.44845724105835,-5.972485065460205
353,42300.0,-4.474578380584717,0.4043869972229004,-9.006584167480469
354,42400.0,-4.474578380584717,0.4043869972229004,-9.006584167480469
355,42500.0,-4.474578380584717,0.4043869972229004,-9.006584167480469
356,42600.0,-3.9003009796142583,8.901299476623535,-3.716053485870361
357,42700.0,-3.9003009796142583,8.901299476623535,-3.716053485870361
358,42800.0,-4.7234320640563965,8.018348693847656,-3.7567315101623535
359,42900.0,-4.7234320640563965,8.018348693847656,-3.7567315101623535
360,43000.0,-5.216352939605713,8.193024635314941,-4.677968502044678
361,43100.0,-5.216352939605713,8.193024635314941,-4.677968502044678
362,43200.0,-6.709475040435791,4.474578380584717,-5.855237007141112
363,43300.0,-6.709475040435791,4.474578380584717,-5.855237007141112
364,43400.0,-6.709475040435791,4.474578380584717,-5.855237007141112
365,43500.0,-3.7280178070068364,3.2207393646240234,-7.570890426635742
366,43600.0,-3.7280178070068364,3.2207393646240234,-7.570890426635742
367,43700.0,-1.871187210083008,6.106483459472656,-6.819544315338135
368,43800.0,-1.871187210083008,6.106483459472656,-6.819544315338135
369,43900.0,-2.3258235454559326,8.068597793579103,-5.42692232131958
370,44000.0,-2.3258235454559326,8.068597793579103,-5.42692232131958
371,44100.0,-2.3976082801818848,6.570690631866455,-7.16650390625
372,44200.0,-2.3976082801818848,6.570690631866455,-7.16650390625
373,44300.0,-2.3976082801818848,6.570690631866455,-7.16650390625
374,44400.0,-3.0963122844696045,4.917250633239746,-5.979663372039795
375,44500.0,-3.0963122844696045,4.917250633239746,-5.979663372039795
376,44600.0,-2.799602746963501,8.59501838684082,-5.295316696166992
377,44700.0,-2.799602746963501,8.59501838684082,-5.295316696166992
378,44800.0,-2.75174617767334,4.548755645751953,-7.089932918548584
379,44900.0,-2.75174617767334,4.548755645751953,-7.089932918548584
380,45000.0,-2.75174617767334,4.548755645751953,-7.089932918548584
381,45100.0,-1.727617859840393,9.255437850952148,-3.73758864402771
382,45200.0,-1.727617859840393,9.255437850952148,-3.73758864402771
383,45300.0,-1.7180466651916504,9.846465110778807,-4.00319242477417
384,45400.0,-1.7180466651916504,9.846465110778807,-4.00319242477417
385,45500.0,-3.4025940895080566,6.537191867828369,-5.546562671661377
386,45600.0,-3.4025940895080566,6.537191867828369,-5.546562671661377
387,45700.0,-3.4025940895080566,6.537191867828369,-5.546562671661377
388,45800.0,-1.8951154947280884,5.134997367858887,-7.7455668449401855
389,45900.0,-1.8951154947280884,5.134997367858887,-7.7455668449401855
390,46000.0,-2.4358932971954346,9.198010444641113,-3.888336658477783
391,46100.0,-2.4358932971954346,9.198010444641113,-3.888336658477783
392,46200.0,-2.4502503871917725,7.802994728088379,-5.1014976501464835
393,46300.0,-2.4502503871917725,7.802994728088379,-5.1014976501464835
394,46400.0,-2.8522443771362305,5.7308106422424325,-6.905685901641847
395,46500.0,-2.8522443771362305,5.7308106422424325,-6.905685901641847
396,46600.0,-2.8522443771362305,5.7308106422424325,-6.905685901641847
397,46700.0,-1.9812570810317995,10.322636604309082,-2.577069997787476
398,46800.0,-1.9812570810317995,10.322636604309082,-2.577069997787476
399,46900.0,-1.9525433778762815,9.013763427734377,-1.6175479888916016
400,47000.0,-1.9525433778762815,9.013763427734377,-1.6175479888916016
401,47100.0,-2.1966111660003658,10.01874828338623,-0.5766702890396118
402,47200.0,-2.1966111660003658,10.01874828338623,-0.5766702890396118
403,47300.0,-2.8283162117004395,10.061819076538086,-1.0456634759902954
404,47400.0,-2.8283162117004395,10.061819076538086,-1.0456634759902954
405,47500.0,-2.8283162117004395,10.061819076538086,-1.0456634759902954
406,47600.0,-3.541377305984497,8.506484031677246,-1.710868239402771
407,47700.0,-3.541377305984497,8.506484031677246,-1.710868239402771
408,47800.0,-4.1347975730896005,8.738588333129883,-1.184447169303894
409,47900.0,-4.1347975730896005,8.738588333129883,-1.184447169303894
410,48000.0,-4.752145767211914,7.9513492584228525,-1.3782659769058228
411,48100.0,-4.752145767211914,7.9513492584228525,-1.3782659769058228
412,48200.0,-5.230710506439209,8.188239097595215,-0.9643075466156006
413,48300.0,-5.230710506439209,8.188239097595215,-0.9643075466156006
414,48400.0,-5.6997032165527335,7.946564197540282,-0.48574298620224
415,48500.0,-5.6997032165527335,7.946564197540282,-0.48574298620224
416,48600.0,-5.6997032165527335,7.946564197540282,-0.48574298620224
417,48700.0,-5.948556900024414,8.293522834777832,0.0526420958340168
418,48800.0,-5.948556900024414,8.293522834777832,0.0526420958340168
419,48900.0,-5.819344997406006,7.9106712341308585,0.2464607357978821
420,49000.0,-5.819344997406006,7.9106712341308585,0.2464607357978821
421,49100.0,-5.819344997406006,7.9106712341308585,0.2464607357978821
422,49200.0,-5.781059265136719,7.944170951843263,-0.1339980661869049
423,49300.0,-5.781059265136719,7.944170951843263,-0.1339980661869049
424,49400.0,-5.637490272521973,8.063812255859375,0.07896314561367035
425,49500.0,-5.637490272521973,8.063812255859375,0.07896314561367035
426,49600.0,-5.560920238494873,8.23848819732666,-0.0526420958340168
427,49700.0,-5.560920238494873,8.23848819732666,-0.0526420958340168
428,49800.0,-5.560920238494873,8.23848819732666,-0.0526420958340168
429,49900.0,-5.331209182739258,8.389235496520996,0.28953152894973755
430,50000.0,-5.331209182739258,8.389235496520996,0.28953152894973755
431,50100.0,-5.187639236450195,8.408378601074219,0.2321037948131561
432,50200.0,-5.187639236450195,8.408378601074219,0.2321037948131561
433,50300.0,-5.508277893066406,8.190631866455076,0.5288137793540955
434,50400.0,-5.508277893066406,8.190631866455076,0.5288137793540955
435,50500.0,-5.508277893066406,8.190631866455076,0.5288137793540955
436,50600.0,-5.804987907409668,8.018348693847656,0.8853443264961243
437,50700.0,-5.804987907409668,8.018348693847656,0.8853443264961243
438,50800.0,-5.661418437957764,8.073383331298826,0.5192425251007079
439,50900.0,-5.661418437957764,8.073383331298826,0.5192425251007079
440,51000.0,-5.804987907409668,8.173882484436035,0.2416750937700272
441,51100.0,-5.804987907409668,8.173882484436035,0.2416750937700272
442,51200.0,-6.16391134262085,7.630711555480957,1.3016955852508545
443,51300.0,-6.16391134262085,7.630711555480957,1.3016955852508545
444,51400.0,-6.020341873168945,6.38165807723999,-3.7663028240203857
445,51500.0,-6.020341873168945,6.38165807723999,-3.7663028240203857
446,51600.0,-5.967699527740479,5.029713153839111,-6.592226982116699
447,51700.0,-5.967699527740479,5.029713153839111,-6.592226982116699
448,51800.0,-5.967699527740479,5.029713153839111,-6.592226982116699
449,51900.0,-5.924628734588622,3.806980848312378,-6.7932233810424805
450,52000.0,-5.924628734588622,3.806980848312378,-6.7932233810424805
451,52100.0,-6.0538411140441895,3.5126638412475586,-6.829115867614746
452,52200.0,-6.0538411140441895,3.5126638412475586,-6.829115867614746
453,52300.0,-6.0538411140441895,3.5126638412475586,-6.829115867614746
454,52400.0,-6.005984783172607,3.615554809570313,-6.8099732398986825
455,52500.0,-6.005984783172607,3.615554809570313,-6.8099732398986825
456,52600.0,-6.077769756317139,3.507878065109253,-6.92482852935791
457,52700.0,-6.077769756317139,3.507878065109253,-6.92482852935791
458,52800.0,-6.154339790344237,3.5748770236968994,-6.771688461303711
459,52900.0,-6.154339790344237,3.5748770236968994,-6.771688461303711
460,53000.0,-6.144768238067628,3.586841106414795,-6.7932233810424805
461,53100.0,-6.144768238067628,3.586841106414795,-6.7932233810424805
462,53200.0,-6.144768238067628,3.586841106414795,-6.7932233810424805
463,53300.0,-6.087340831756593,3.594019651412964,-6.752545356750487
464,53400.0,-6.087340831756593,3.594019651412964,-6.752545356750487
465,53500.0,-5.9198431968688965,3.3643085956573486,-7.073184013366699
466,53600.0,-5.9198431968688965,3.3643085956573486,-7.073184013366699
467,53700.0,-5.9198431968688965,3.3643085956573486,-7.073184013366699
468,53800.0,-5.948556900024414,3.383451223373413,-6.774080753326416
469,53900.0,-5.948556900024414,3.383451223373413,-6.774080753326416
470,54000.0,-5.905486583709718,1.9453648328781128,-7.317252159118652
471,54100.0,-5.905486583709718,1.9453648328781128,-7.317252159118652
472,54200.0,-5.5896339416503915,3.072384119033813,-7.700103282928468
473,54300.0,-5.5896339416503915,3.072384119033813,-7.700103282928468
474,54400.0,-5.39342212677002,3.292524099349976,-7.518248558044434
475,54500.0,-5.39342212677002,3.292524099349976,-7.518248558044434
476,54600.0,-5.225924491882324,4.271188735961913,-6.97986364364624
477,54700.0,-5.225924491882324,4.271188735961913,-6.97986364364624
478,54800.0,-5.225924491882324,4.271188735961913,-6.97986364364624
479,54900.0,-5.134997367858887,4.577469348907472,-6.915257453918457
480,55000.0,-5.134997367858887,4.577469348907472,-6.915257453918457
481,55100.0,-4.876572608947754,5.266602516174316,-6.654439926147461
482,55200.0,-4.876572608947754,5.266602516174316,-6.654439926147461
483,55300.0,-4.876572608947754,5.266602516174316,-6.654439926147461
484,55400.0,-5.536991596221924,5.436492443084717,-5.950949668884277
485,55500.0,-5.536991596221924,5.436492443084717,-5.950949668884277
486,55600.0,-4.967499732971191,5.639883518218994,-7.147361278533936
487,55700.0,-4.967499732971191,5.639883518218994,-7.147361278533936
488,55800.0,-4.910072326660156,5.5106706619262695,-6.2739810943603525
489,55900.0,-4.910072326660156,5.5106706619262695,-6.2739810943603525
490,56000.0,-5.819344997406006,2.806780815124512,-7.7072815895080575
491,56100.0,-5.819344997406006,2.806780815124512,-7.7072815895080575
492,56200.0,-3.5605196952819824,6.594619274139403,-6.790830135345459
493,56300.0,-3.5605196952819824,6.594619274139403,-6.790830135345459
494,56400.0,-3.5605196952819824,6.594619274139403,-6.790830135345459
495,56500.0,-2.5363922119140625,5.37188720703125,-7.597211837768555
496,56600.0,-2.5363922119140625,5.37188720703125,-7.597211837768555
497,56700.0,-3.115455150604248,7.980063438415527,-5.6925249099731445
498,56800.0,-3.115455150604248,7.980063438415527,-5.6925249099731445
499,56900.0,-3.115455150604248,7.980063438415527,-5.6925249099731445
500,57000.0,-4.776073932647705,7.661818027496338,-3.2757742404937744
501,57100.0,-4.776073932647705,7.661818027496338,-3.2757742404937744
502,57200.0,-5.292923927307129,6.936792850494385,-4.113262176513672
503,57300.0,-5.292923927307129,6.936792850494385,-4.113262176513672
504,57400.0,-4.144368648529054,8.126025199890138,-4.7497525215148935
505,57500.0,-4.144368648529054,8.126025199890138,-4.7497525215148935
506,57600.0,-4.2687954902648935,7.719245910644531,-3.9003009796142583
507,57700.0,-4.2687954902648935,7.719245910644531,-3.9003009796142583
508,57800.0,-4.2687954902648935,7.719245910644531,-3.9003009796142583
509,57900.0,-5.225924491882324,8.049454689025879,-3.0436704158782963
510,58000.0,-5.225924491882324,8.049454689025879,-3.0436704158782963
511,58100.0,-4.953143119812012,8.585447311401367,-1.380658507347107
512,58200.0,-4.953143119812012,8.585447311401367,-1.380658507347107
513,58300.0,-4.469792366027832,8.123632431030272,-0.5934200286865234
514,58400.0,-4.469792366027832,8.123632431030272,-0.5934200286865234
515,58500.0,-4.469792366027832,8.123632431030272,-0.5934200286865234
516,58600.0,-5.206782341003418,7.6522464752197275,-1.4500504732131958
517,58700.0,-5.206782341003418,7.6522464752197275,-1.4500504732131958
518,58800.0,-5.0201416015625,8.336593627929688,-0.6149553656578064
519,58900.0,-5.0201416015625,8.336593627929688,-0.6149553656578064
520,59000.0,-5.288137912750244,8.283952713012695,-0.002392822643741965
521,59100.0,-5.288137912750244,8.283952713012695,-0.002392822643741965
522,59200.0,-6.10169792175293,6.9583282470703125,-2.0147566795349117
523,59300.0,-6.10169792175293,6.9583282470703125,-2.0147566795349117
524,59400.0,-6.10169792175293,6.9583282470703125,-2.0147566795349117
525,59500.0,-5.8097734451293945,7.17368221282959,-1.727617859840393
526,59600.0,-5.8097734451293945,7.17368221282959,-1.727617859840393
527,59700.0,-4.8574299812316895,8.190631866455076,-2.0099709033966064
528,59800.0,-4.8574299812316895,8.190631866455076,-2.0099709033966064
529,59900.0,-4.4506497383117685,8.865407943725586,-3.931407451629639
530,60000.0,-4.4506497383117685,8.865407943725586,-3.931407451629639
531,60100.0,-3.929014682769776,4.969892501831055,-7.039684295654298
532,60200.0,-3.929014682769776,4.969892501831055,-7.039684295654298
533,60300.0,-3.929014682769776,4.969892501831055,-7.039684295654298
534,60400.0,-5.134997367858887,1.124626636505127,-8.078168869018555
535,60500.0,-5.134997367858887,1.124626636505127,-8.078168869018555
536,60600.0,-4.034298896789552,2.0769701004028316,-9.62393283843994
537,60700.0,-4.034298896789552,2.0769701004028316,-9.62393283843994
538,60800.0,-4.034298896789552,2.0769701004028316,-9.62393283843994
539,60900.0,-3.6562328338623047,1.8424735069274905,-9.243474006652832
540,61000.0,-3.6562328338623047,1.8424735069274905,-9.243474006652832
541,61100.0,-5.187639236450195,1.1772687435150146,-7.506284713745117
542,61200.0,-5.187639236450195,1.1772687435150146,-7.506284713745117
543,61300.0,-3.924229145050049,-0.18903298676013947,-8.812766075134277
544,61400.0,-3.924229145050049,-0.18903298676013947,-8.812766075134277
545,61500.0,-3.924229145050049,-0.18903298676013947,-8.812766075134277
546,61600.0,-2.943171739578247,5.252245903015137,-7.334001541137695
547,61700.0,-2.943171739578247,5.252245903015137,-7.334001541137695
548,61800.0,-4.326223373413087,4.479363918304443,-8.269595146179201
549,61900.0,-4.326223373413087,4.479363918304443,-8.269595146179201
550,62000.0,-4.7234320640563965,1.584048628807068,-8.35573673248291
551,62100.0,-4.7234320640563965,1.584048628807068,-8.35573673248291
552,62200.0,-4.220939159393311,0.705882728099823,-8.398807525634767
553,62300.0,-4.220939159393311,0.705882728099823,-8.398807525634767
554,62400.0,-4.220939159393311,0.705882728099823,-8.398807525634767
555,62500.0,-3.6610186100006095,-1.4715858697891235,-9.66221809387207
556,62600.0,-3.6610186100006095,-1.4715858697891235,-9.66221809387207
557,62700.0,-3.383451223373413,5.539384365081787,-7.477570533752441
558,62800.0,-3.383451223373413,5.539384365081787,-7.477570533752441
559,62900.0,-4.828716278076172,5.142175674438477,-7.817351341247559
560,63000.0,-4.828716278076172,5.142175674438477,-7.817351341247559
561,63100.0,-4.828716278076172,5.142175674438477,-7.817351341247559
562,63200.0,-4.584648132324219,5.745166778564452,-6.005984783172607
563,63300.0,-4.584648132324219,5.745166778564452,-6.005984783172607
564,63400.0,-3.6753754615783687,2.9671001434326167,-9.004191398620605
565,63500.0,-3.6753754615783687,2.9671001434326167,-9.004191398620605
566,63600.0,-4.264009952545166,2.8713872432708736,-7.4081788063049325
567,63700.0,-4.264009952545166,2.8713872432708736,-7.4081788063049325
568,63800.0,-4.264009952545166,2.8713872432708736,-7.4081788063049325
569,63900.0,-4.455435752868652,1.4261221885681152,-8.628519058227539
570,64000.0,-4.455435752868652,1.4261221885681152,-8.628519058227539
571,64100.0,-3.996013641357422,1.1772687435150146,-8.47298526763916
572,64200.0,-3.996013641357422,1.1772687435150146,-8.47298526763916
573,64300.0,-4.709074974060059,0.8015955686569214,-8.535198211669924
574,64400.0,-4.709074974060059,0.8015955686569214,-8.535198211669924
575,64500.0,-4.709074974060059,0.8015955686569214,-8.535198211669924
576,64600.0,-3.9720854759216313,1.9669002294540403,-9.473184585571287
577,64700.0,-3.9720854759216313,1.9669002294540403,-9.473184585571287
578,64800.0,-4.7712883949279785,0.9236294627189636,-7.623533248901367
579,64900.0,-4.7712883949279785,0.9236294627189636,-7.623533248901367
580,65000.0,-3.6562328338623047,1.2323036193847656,-10.01874828338623
581,65100.0,-3.6562328338623047,1.2323036193847656,-10.01874828338623
582,65200.0,-3.6562328338623047,1.2323036193847656,-10.01874828338623
583,65300.0,-4.3166518211364755,1.66301167011261,-7.812565803527832
584,65400.0,-4.3166518211364755,1.66301167011261,-7.812565803527832
585,65500.0,-4.053441524505615,-0.6460621356964111,-8.382057189941406
586,65600.0,-4.053441524505615,-0.6460621356964111,-8.382057189941406
587,65700.0,-4.02472734451294,0.5551348924636841,-8.769694328308105
588,65800.0,-4.02472734451294,0.5551348924636841,-8.769694328308105
589,65900.0,-4.766502857208252,1.4165509939193726,-8.324630737304688
590,66000.0,-4.766502857208252,1.4165509939193726,-8.324630737304688
591,66100.0,-4.766502857208252,1.4165509939193726,-8.324630737304688
592,66200.0,-4.986642360687256,1.3974084854125977,-8.027919769287111
593,66300.0,-4.986642360687256,1.3974084854125977,-8.027919769287111
594,66400.0,-4.551148891448975,1.4333008527755735,-8.681159973144531
595,66500.0,-4.551148891448975,1.4333008527755735,-8.681159973144531
596,66600.0,-4.8095736503601065,2.400001049041748,-7.908278465270996
597,66700.0,-4.8095736503601065,2.400001049041748,-7.908278465270996
598,66800.0,-4.479363918304443,1.3830513954162598,-8.018348693847656
599,66900.0,-4.479363918304443,1.3830513954162598,-8.018348693847656
600,67000.0,-3.2781667709350586,7.948956489562987,-4.192224979400635
601,67100.0,-3.2781667709350586,7.948956489562987,-4.192224979400635
602,67200.0,-4.015156269073486,6.525227069854736,-7.197610855102539
603,67300.0,-4.015156269073486,6.525227069854736,-7.197610855102539
604,67400.0,-4.015156269073486,6.525227069854736,-7.197610855102539
605,67500.0,-5.058426856994629,1.8903299570083616,-7.491927623748778
606,67600.0,-5.058426856994629,1.8903299570083616,-7.491927623748778
607,67700.0,-4.421936511993408,0.20338992774486545,-9.71485996246338
608,67800.0,-4.421936511993408,0.20338992774486545,-9.71485996246338
609,67900.0,-4.689932346343994,0.5335994362831116,-7.932207107543945
610,68000.0,-4.689932346343994,0.5335994362831116,-7.932207107543945
611,68100.0,-4.689932346343994,0.5335994362831116,-7.932207107543945
612,68200.0,-3.9720854759216313,-0.05024927482008934,-9.68375301361084
613,68300.0,-3.9720854759216313,-0.05024927482008934,-9.68375301361084
614,68400.0,-2.526820659637451,2.0554347038269043,-9.03290557861328
615,68500.0,-2.526820659637451,2.0554347038269043,-9.03290557861328
616,68600.0,-3.211168050765991,7.915457248687744,-5.55852746963501
617,68700.0,-3.211168050765991,7.915457248687744,-5.55852746963501
618,68800.0,-3.211168050765991,7.915457248687744,-5.55852746963501
619,68900.0,-2.885744333267212,7.767102241516112,-4.730610370635986
620,69000.0,-2.885744333267212,7.767102241516112,-4.730610370635986
621,69100.0,-3.369094133377075,8.724230766296388,-3.4983065128326416
622,69200.0,-3.369094133377075,8.724230766296388,-3.4983065128326416
623,69300.0,-3.8668015003204346,8.628519058227539,-2.3066811561584477
624,69400.0,-3.8668015003204346,8.628519058227539,-2.3066811561584477
625,69500.0,-3.976871252059937,8.994620323181152,-0.8135597109794617
626,69600.0,-3.976871252059937,8.994620323181152,-0.8135597109794617
627,69700.0,-3.976871252059937,8.994620323181152,-0.8135597109794617
628,69800.0,-4.661218643188477,8.96112060546875,0.22013968229293826
629,69900.0,-4.661218643188477,8.96112060546875,0.22013968229293826
630,70000.0,-5.096712112426758,8.24566650390625,0.0526420958340168
631,70100.0,-5.096712112426758,8.24566650390625,0.0526420958340168
632,70200.0,-5.910271644592285,8.10688304901123,-0.4067798554897308
633,70300.0,-5.910271644592285,8.10688304901123,-0.4067798554897308
634,70400.0,-5.910271644592285,8.10688304901123,-0.4067798554897308
635,70500.0,-5.757131576538086,5.941378593444824,-1.9932212829589844
636,70600.0,-5.757131576538086,5.941378593444824,-1.9932212829589844
637,70700.0,-5.910271644592285,6.8554368019104,-2.2372891902923584
638,70800.0,-5.910271644592285,6.8554368019104,-2.2372891902923584
639,70900.0,-5.4795637130737305,8.539983749389647,-0.7800601720809937
640,71000.0,-5.4795637130737305,8.539983749389647,-0.7800601720809937
641,71100.0,-5.4795637130737305,8.539983749389647,-0.7800601720809937
642,71200.0,-5.044069766998291,8.429913520812987,-2.266003131866455
643,71300.0,-5.044069766998291,8.429913520812987,-2.266003131866455
644,71400.0,-5.560920238494873,7.1090760231018075,-3.0963122844696045
645,71500.0,-5.560920238494873,7.1090760231018075,-3.0963122844696045
646,71600.0,-5.331209182739258,8.082954406738281,-3.646661758422852
647,71700.0,-5.331209182739258,8.082954406738281,-3.646661758422852
648,71800.0,-5.331209182739258,8.082954406738281,-3.646661758422852
649,71900.0,-5.670989990234375,4.419543266296387,-6.664010524749756
650,72000.0,-5.670989990234375,4.419543266296387,-6.664010524749756
651,72100.0,-6.259624004364014,3.869194030761719,-6.283552646636963
652,72200.0,-6.259624004364014,3.869194030761719,-6.283552646636963
653,72300.0,-6.632904052734375,2.902493953704834,-6.654439926147461
654,72400.0,-6.632904052734375,2.902493953704834,-6.654439926147461
655,72500.0,-6.585048198699951,3.3092737197875977,-6.546762466430664
656,72600.0,-6.585048198699951,3.3092737197875977,-6.546762466430664
657,72700.0,-6.4462642669677725,3.426522016525269,-6.439085483551025
658,72800.0,-6.4462642669677725,3.426522016525269,-6.439085483551025
659,72900.0,-6.4462642669677725,3.426522016525269,-6.439085483551025
660,73000.0,-6.436692714691162,3.38823676109314,-6.570690631866455
661,73100.0,-6.436692714691162,3.38823676109314,-6.570690631866455
662,73200.0,-6.546762466430664,3.5509488582611084,-6.362515449523926
663,73300.0,-6.546762466430664,3.5509488582611084,-6.362515449523926
664,73400.0,-6.307480335235597,3.3068809509277344,-6.4462642669677725
665,73500.0,-6.307480335235597,3.3068809509277344,-6.4462642669677725
666,73600.0,-5.857630252838135,4.9387855529785165,-6.142375946044923
667,73700.0,-5.857630252838135,4.9387855529785165,-6.142375946044923
668,73800.0,-5.50349235534668,7.965706348419189,-2.553141593933105
669,73900.0,-5.50349235534668,7.965706348419189,-2.553141593933105
670,74000.0,-5.50349235534668,7.965706348419189,-2.553141593933105
671,74100.0,-5.575276851654053,7.8867435455322275,-2.452643394470215
672,74200.0,-5.575276851654053,7.8867435455322275,-2.452643394470215
673,74300.0,-5.709274768829347,9.05683422088623,-2.352144718170166
674,74400.0,-5.709274768829347,9.05683422088623,-2.352144718170166
675,74500.0,-5.709274768829347,9.05683422088623,-2.352144718170166
676,74600.0,-4.321437358856201,2.263610363006592,-8.592625617980957
677,74700.0,-4.321437358856201,2.263610363006592,-8.592625617980957
678,74800.0,-4.139583110809326,0.7130610942840576,-7.178467750549316
679,74900.0,-4.139583110809326,0.7130610942840576,-7.178467750549316
680,75000.0,-3.091526985168457,4.366901397705078,-8.030312538146973
681,75100.0,-3.091526985168457,4.366901397705078,-8.030312538146973
682,75200.0,-3.445664882659912,2.857030153274536,-8.092526435852049
683,75300.0,-3.445664882659912,2.857030153274536,-8.092526435852049
684,75400.0,-3.445664882659912,2.857030153274536,-8.092526435852049
685,75500.0,-3.804587841033936,2.833101987838745,-7.678568363189697
686,75600.0,-3.804587841033936,2.833101987838745,-7.678568363189697
687,75700.0,-2.900100946426392,1.0241280794143677,-8.446663856506348
688,75800.0,-2.900100946426392,1.0241280794143677,-8.446663856506348
689,75900.0,-2.900100946426392,1.0241280794143677,-8.446663856506348
690,76000.0,-2.273181438446045,-1.3304094076156616,-10.078569412231444
691,76100.0,-2.273181438446045,-1.3304094076156616,-10.078569412231444
692,76200.0,-2.210968255996704,-0.3732803165912628,-10.336994171142578
693,76300.0,-2.210968255996704,-0.3732803165912628,-10.336994171142578
694,76400.0,-3.8237307071685787,0.7106683850288391,-8.673982620239258
695,76500.0,-3.8237307071685787,0.7106683850288391,-8.673982620239258
696,76600.0,-1.9764715433120728,1.9669002294540403,-12.643674850463867
697,76700.0,-1.9764715433120728,1.9669002294540403,-12.643674850463867
698,76800.0,-1.9764715433120728,1.9669002294540403,-12.643674850463867
699,76900.0,-4.603790760040283,0.6867401003837585,-6.343372344970702
700,77000.0,-4.603790760040283,0.6867401003837585,-6.343372344970702
701,77100.0,-2.75174617767334,1.2011969089508057,-10.186245918273926
702,77200.0,-2.75174617767334,1.2011969089508057,-10.186245918273926
703,77300.0,-2.75174617767334,1.2011969089508057,-10.186245918273926
704,77400.0,-1.3304094076156616,1.5433706045150757,-15.806985855102539
705,77500.0,-1.3304094076156616,1.5433706045150757,-15.806985855102539
706,77600.0,-5.565705299377441,1.246660590171814,-7.276573657989503
707,77700.0,-5.565705299377441,1.246660590171814,-7.276573657989503
708,77800.0,-3.608376264572144,0.8422735333442688,-7.905886173248291
709,77900.0,-3.608376264572144,0.8422735333442688,-7.905886173248291
710,78000.0,-1.0193424224853516,-2.1918253898620605,-9.602396965026855
711,78100.0,-1.0193424224853516,-2.1918253898620605,-9.602396965026855
712,78200.0,-1.0193424224853516,-2.1918253898620605,-9.602396965026855
713,78300.0,-3.5030922889709477,-0.5766702890396118,-7.262216091156006
714,78400.0,-3.5030922889709477,-0.5766702890396118,-7.262216091156006
715,78500.0,-4.01037073135376,0.729810893535614,-7.219145774841309
716,78600.0,-4.01037073135376,0.729810893535614,-7.219145774841309
717,78700.0,-2.861815929412842,1.4524433612823486,-10.33938694000244
718,78800.0,-2.861815929412842,1.4524433612823486,-10.33938694000244
719,78900.0,-2.861815929412842,1.4524433612823486,-10.33938694000244
720,79000.0,-2.2061824798583984,4.7234320640563965,-9.951749801635742
721,79100.0,-2.2061824798583984,4.7234320640563965,-9.951749801635742
722,79200.0,-4.125226020812988,3.25663161277771,-6.64486837387085
723,79300.0,-4.125226020812988,3.25663161277771,-6.64486837387085
724,79400.0,-2.12961220741272,6.1471614837646475,-6.771688461303711
725,79500.0,-2.12961220741272,6.1471614837646475,-6.771688461303711
726,79600.0,-2.12961220741272,6.1471614837646475,-6.771688461303711
727,79700.0,-2.847458839416504,7.111469268798827,-5.627918720245361
728,79800.0,-2.847458839416504,7.111469268798827,-5.627918720245361
729,79900.0,-3.3164520263671875,8.374878883361816,-3.907479047775269
730,80000.0,-3.3164520263671875,8.374878883361816,-3.907479047775269
731,80100.0,-3.3020951747894287,9.332008361816406,-2.7661027908325195
732,80200.0,-3.3020951747894287,9.332008361816406,-2.7661027908325195
733,80300.0,-3.3020951747894287,9.332008361816406,-2.7661027908325195
734,80400.0,-3.976871252059937,9.300901412963867,-0.8542376756668091
735,80500.0,-3.976871252059937,9.300901412963867,-0.8542376756668091
736,80600.0,-3.7040894031524663,8.262415885925293,-2.723031997680664
737,80700.0,-3.7040894031524663,8.262415885925293,-2.723031997680664
738,80800.0,-4.876572608947754,8.195417404174805,-1.7180466651916504
739,80900.0,-4.876572608947754,8.195417404174805,-1.7180466651916504
740,81000.0,-4.876572608947754,8.195417404174805,-1.7180466651916504
741,81100.0,-4.469792366027832,8.70508861541748,-1.6271194219589231
742,81200.0,-4.469792366027832,8.70508861541748,-1.6271194219589231
743,81300.0,-4.2065820693969735,7.963313579559326,-1.1724830865859983
744,81400.0,-4.2065820693969735,7.963313579559326,-1.1724830865859983
745,81500.0,-5.273780822753906,8.059026718139647,-3.2709887027740483
746,81600.0,-5.273780822753906,8.059026718139647,-3.2709887027740483
747,81700.0,-5.273780822753906,8.059026718139647,-3.2709887027740483
748,81800.0,-5.024927616119385,8.133204460144043,-3.13220477104187
749,81900.0,-5.024927616119385,8.133204460144043,-3.13220477104187
750,82000.0,-5.307280540466309,7.412964344024657,-3.562912940979004
751,82100.0,-5.307280540466309,7.412964344024657,-3.562912940979004
752,82200.0,-5.345565319061278,3.768695831298828,-7.046862602233888
753,82300.0,-5.345565319061278,3.768695831298828,-7.046862602233888
754,82400.0,-5.723631858825684,3.2207393646240234,-7.073184013366699
755,82500.0,-5.723631858825684,3.2207393646240234,-7.073184013366699
756,82600.0,-5.7954163551330575,3.32602334022522,-7.180860996246338
757,82700.0,-5.7954163551330575,3.32602334022522,-7.180860996246338
758,82800.0,-5.7954163551330575,3.32602334022522,-7.180860996246338
759,82900.0,-5.742774486541747,2.9216365814208984,-7.070791244506836
760,83000.0,-5.742774486541747,2.9216365814208984,-7.070791244506836
761,83100.0,-5.723631858825684,3.919443368911743,-7.369894027709961
762,83200.0,-5.723631858825684,3.919443368911743,-7.369894027709961
763,83300.0,-4.7569313049316415,0.7896314859390259,-8.638089179992676
764,83400.0,-4.7569313049316415,0.7896314859390259,-8.638089179992676
765,83500.0,-4.7569313049316415,0.7896314859390259,-8.638089179992676
766,83600.0,-1.5314064025878906,0.3445664942264557,-10.368099212646484
767,83700.0,-1.5314064025878906,0.3445664942264557,-10.368099212646484
768,83800.0,-3.235095977783203,-1.4380863904953003,-8.886943817138672
769,83900.0,-3.235095977783203,-1.4380863904953003,-8.886943817138672
770,84000.0,-2.368894338607788,0.4546363055706024,-9.030512809753418
771,84100.0,-2.368894338607788,0.4546363055706024,-9.030512809753418
772,84200.0,-2.368894338607788,0.4546363055706024,-9.030512809753418
773,84300.0,-3.081955671310425,-1.1102697849273682,-9.600004196166992
774,84400.0,-3.081955671310425,-1.1102697849273682,-9.600004196166992
775,84500.0,-2.416750907897949,-1.361515998840332,-9.042476654052734
776,84600.0,-2.416750907897949,-1.361515998840332,-9.042476654052734
777,84700.0,-2.6847469806671143,-1.6965112686157229,-8.970691680908203
778,84800.0,-2.6847469806671143,-1.6965112686157229,-8.970691680908203
779,84900.0,-2.6847469806671143,-1.6965112686157229,-8.970691680908203
780,85000.0,-3.1968109607696533,-1.8233308792114256,-8.48734188079834
781,85100.0,-3.1968109607696533,-1.8233308792114256,-8.48734188079834
782,85200.0,-2.5363922119140625,-1.0959126949310305,-9.382257461547852
783,85300.0,-2.5363922119140625,-1.0959126949310305,-9.382257461547852
784,85400.0,-3.6323046684265137,-1.1102697849273682,-9.10229778289795
785,85500.0,-3.6323046684265137,-1.1102697849273682,-9.10229778289795
786,85600.0,-3.6323046684265137,-1.1102697849273682,-9.10229778289795
787,85700.0,-2.1726830005645748,0.2632104754447937,-9.18843936920166
788,85800.0,-2.1726830005645748,0.2632104754447937,-9.18843936920166
789,85900.0,-2.579463005065918,0.033499516546726234,-9.30329418182373
790,86000.0,-2.579463005065918,0.033499516546726234,-9.30329418182373
791,86100.0,-2.933600425720215,-1.184447169303894,-8.346165657043457
792,86200.0,-2.933600425720215,-1.184447169303894,-8.346165657043457
793,86300.0,-2.933600425720215,-1.184447169303894,-8.346165657043457
794,86400.0,-2.809173583984375,-1.526620864868164,-9.198010444641113
795,86500.0,-2.809173583984375,-1.526620864868164,-9.198010444641113
796,86600.0,-3.2159535884857178,-1.3040882349014282,-8.752944946289062
797,86700.0,-3.2159535884857178,-1.3040882349014282,-8.752944946289062
798,86800.0,-2.9527432918548584,-1.34476637840271,-9.463613510131836
799,86900.0,-2.9527432918548584,-1.34476637840271,-9.463613510131836
800,87000.0,-2.9527432918548584,-1.34476637840271,-9.463613510131836
801,87100.0,-3.838087558746338,0.13639087975025174,-8.951549530029297
802,87200.0,-3.838087558746338,0.13639087975025174,-8.951549530029297
803,87300.0,-2.9671001434326167,1.3304094076156616,-9.24825954437256
804,87400.0,-2.9671001434326167,1.3304094076156616,-9.24825954437256
805,87500.0,-3.641876220703125,-1.2921242713928225,-7.133004188537598
806,87600.0,-3.641876220703125,-1.2921242713928225,-7.133004188537598
807,87700.0,-3.641876220703125,-1.2921242713928225,-7.133004188537598
808,87800.0,-3.421736478805542,-0.8207381367683411,-8.84626579284668
809,87900.0,-3.421736478805542,-0.8207381367683411,-8.84626579284668
810,88000.0,-3.9146575927734375,-0.5982056856155396,-9.052047729492188
811,88100.0,-3.9146575927734375,-0.5982056856155396,-9.052047729492188
812,88200.0,-3.751945972442627,3.1728827953338623,-8.444271087646483
813,88300.0,-3.751945972442627,3.1728827953338623,-8.444271087646483
814,88400.0,-2.560320377349853,3.464807271957397,-9.279366493225098
815,88500.0,-2.560320377349853,3.464807271957397,-9.279366493225098
816,88600.0,-2.560320377349853,3.464807271957397,-9.279366493225098
817,88700.0,-2.7038896083831787,2.3186452388763428,-8.61894702911377
818,88800.0,-2.7038896083831787,2.3186452388763428,-8.61894702911377
819,88900.0,-2.7661027908325195,2.6799612045288086,-9.281759262084961
820,89000.0,-2.7661027908325195,2.6799612045288086,-9.281759262084961
821,89100.0,-2.7661027908325195,2.6799612045288086,-9.281759262084961
822,89200.0,-2.2683956623077397,2.562713146209717,-8.597411155700684
823,89300.0,-2.2683956623077397,2.562713146209717,-8.597411155700684
824,89400.0,-1.5218352079391482,4.632504463195801,-8.200202941894531
825,89500.0,-1.5218352079391482,4.632504463195801,-8.200202941894531
826,89600.0,-1.1772687435150146,6.180660724639893,-6.276373863220215
827,89700.0,-1.1772687435150146,6.180660724639893,-6.276373863220215
828,89800.0,-1.1150553226470947,7.676175117492676,-6.199803352355957
829,89900.0,-1.1150553226470947,7.676175117492676,-6.199803352355957
830,90000.0,-1.1150553226470947,7.676175117492676,-6.199803352355957
831,90100.0,-0.8901299238204956,8.963513374328613,-3.842873096466065
832,90200.0,-0.8901299238204956,8.963513374328613,-3.842873096466065
833,90300.0,-0.6987042427062988,9.422935485839844,-4.187439441680908
834,90400.0,-0.6987042427062988,9.422935485839844,-4.187439441680908
835,90500.0,-0.6987042427062988,9.422935485839844,-4.187439441680908
836,90600.0,-1.8089739084243772,9.343972206115724,-3.869194030761719
837,90700.0,-1.8089739084243772,9.343972206115724,-3.869194030761719
838,90800.0,-2.7421746253967285,8.563912391662598,-3.943371772766113
839,90900.0,-2.7421746253967285,8.563912391662598,-3.943371772766113
840,91000.0,-1.9812570810317995,10.152746200561523,-2.2683956623077397
841,91100.0,-1.9812570810317995,10.152746200561523,-2.2683956623077397
842,91200.0,-1.9812570810317995,10.152746200561523,-2.2683956623077397
843,91300.0,-1.7036896944046018,-2.9479575157165527,-12.320643424987793
844,91400.0,-1.7036896944046018,-2.9479575157165527,-12.320643424987793
845,91500.0,-2.445464611053467,0.4187439680099487,-9.126225471496582
846,91600.0,-2.445464611053467,0.4187439680099487,-9.126225471496582
847,91700.0,-3.3020951747894287,3.3451659679412837,-7.970492362976074
848,91800.0,-3.3020951747894287,3.3451659679412837,-7.970492362976074
849,91900.0,-3.3020951747894287,3.3451659679412837,-7.970492362976074
850,92000.0,-2.1535403728485107,3.3379876613616943,-8.370094299316406
851,92100.0,-2.1535403728485107,3.3379876613616943,-8.370094299316406
852,92200.0,-2.2875385284423833,4.218546390533446,-8.757731437683105
853,92300.0,-2.2875385284423833,4.218546390533446,-8.757731437683105
854,92400.0,-2.3066811561584477,3.620340585708618,-8.690732002258299
855,92500.0,-2.3066811561584477,3.620340585708618,-8.690732002258299
856,92600.0,-2.3066811561584477,3.620340585708618,-8.690732002258299
857,92700.0,-1.459621787071228,8.528019905090332,-4.780859470367432
858,92800.0,-1.459621787071228,8.528019905090332,-4.780859470367432
859,92900.0,-2.0434706211090092,9.221939086914062,-3.6634113788604736
860,93000.0,-2.0434706211090092,9.221939086914062,-3.6634113788604736
861,93100.0,-2.1726830005645748,9.229117393493652,-3.3786656856536865
862,93200.0,-2.1726830005645748,9.229117393493652,-3.3786656856536865
863,93300.0,-3.5509488582611084,2.6967110633850098,-8.154739379882812
864,93400.0,-3.5509488582611084,2.6967110633850098,-8.154739379882812
865,93500.0,-3.5509488582611084,2.6967110633850098,-8.154739379882812
866,93600.0,-1.4500504732131958,-0.662811815738678,-11.437692642211914
867,93700.0,-1.4500504732131958,-0.662811815738678,-11.437692642211914
868,93800.0,-2.12961220741272,-2.117647886276245,-8.760124206542969
869,93900.0,-2.12961220741272,-2.117647886276245,-8.760124206542969
870,94000.0,-3.4408791065216064,-0.4019941985607147,-7.104290962219237
871,94100.0,-3.4408791065216064,-0.4019941985607147,-7.104290962219237
872,94200.0,-2.4598214626312256,-0.7704889178276062,-8.633303642272951
873,94300.0,-2.4598214626312256,-0.7704889178276062,-8.633303642272951
874,94400.0,-2.4598214626312256,-0.7704889178276062,-8.633303642272951
875,94500.0,-3.0484561920166016,-0.763310432434082,-8.051848411560059
876,94600.0,-3.0484561920166016,-0.763310432434082,-8.051848411560059
877,94700.0,-2.885744333267212,-0.5120640397071838,-10.320244789123537
878,94800.0,-2.885744333267212,-0.5120640397071838,-10.320244789123537
879,94900.0,-2.627319574356079,-3.5676987171173096,-8.475377082824707
880,95000.0,-2.627319574356079,-3.5676987171173096,-8.475377082824707
881,95100.0,-2.775674343109131,5.898308277130128,-7.154539585113525
882,95200.0,-2.775674343109131,5.898308277130128,-7.154539585113525
883,95300.0,-2.775674343109131,5.898308277130128,-7.154539585113525
884,95400.0,-2.062613010406494,7.724031925201416,-5.374279499053955
885,95500.0,-2.062613010406494,7.724031925201416,-5.374279499053955
886,95600.0,-1.9956141710281368,7.123432636260986,-6.484549045562744
887,95700.0,-1.9956141710281368,7.123432636260986,-6.484549045562744
888,95800.0,-3.034099102020264,9.875179290771484,-2.8522443771362305
889,95900.0,-3.034099102020264,9.875179290771484,-2.8522443771362305
890,96000.0,-3.034099102020264,9.875179290771484,-2.8522443771362305
891,96100.0,-3.5461630821228027,9.030512809753418,-1.66301167011261
892,96200.0,-3.5461630821228027,9.030512809753418,-1.66301167011261
893,96300.0,-3.88594388961792,7.601996898651122,-2.6608188152313232
894,96400.0,-3.88594388961792,7.601996898651122,-2.6608188152313232
895,96500.0,-4.934000015258789,8.580661773681639,-1.7539390325546265
896,96600.0,-4.934000015258789,8.580661773681639,-1.7539390325546265
897,96700.0,-5.259423732757568,7.152146816253662,-2.931207656860352
898,96800.0,-5.259423732757568,7.152146816253662,-2.931207656860352
899,96900.0,-4.8191447257995605,8.080562591552733,-4.02472734451294
900,97000.0,-4.8191447257995605,8.080562591552733,-4.02472734451294
901,97100.0,-4.8191447257995605,8.080562591552733,-4.02472734451294
902,97200.0,-4.627718925476074,8.336593627929688,-2.3617160320281982
903,97300.0,-4.627718925476074,8.336593627929688,-2.3617160320281982
904,97400.0,-7.326822757720947,5.615954875946045,-4.740181922912598
905,97500.0,-7.326822757720947,5.615954875946045,-4.740181922912598
906,97600.0,-5.450850009918213,9.339186668395996,-1.0384850502014158
907,97700.0,-5.450850009918213,9.339186668395996,-1.0384850502014158
908,97800.0,-6.0921263694763175,7.243074417114258,-2.6249265670776367
909,97900.0,-6.0921263694763175,7.243074417114258,-2.6249265670776367
910,98000.0,-6.0921263694763175,7.243074417114258,-2.6249265670776367
911,98100.0,-5.197210788726807,8.360522270202638,-1.1102697849273682
912,98200.0,-5.197210788726807,8.360522270202638,-1.1102697849273682
913,98300.0,-4.967499732971191,8.319844245910645,-1.7730815410614014
914,98400.0,-4.967499732971191,8.319844245910645,-1.7730815410614014
915,98500.0,-5.058426856994629,8.324630737304688,-1.2873386144638062
916,98600.0,-5.058426856994629,8.324630737304688,-1.2873386144638062
917,98700.0,-5.058426856994629,8.324630737304688,-1.2873386144638062
918,98800.0,-4.986642360687256,8.410772323608397,-1.5122638940811155
919,98900.0,-4.986642360687256,8.410772323608397,-1.5122638940811155
920,99000.0,-5.072784423828125,8.207381248474121,-1.7347965240478516
921,99100.0,-5.072784423828125,8.207381248474121,-1.7347965240478516
922,99200.0,-5.072784423828125,8.178668022155763,-2.029113531112671
923,99300.0,-5.072784423828125,8.178668022155763,-2.029113531112671
924,99400.0,-5.072784423828125,8.178668022155763,-2.029113531112671
925,99500.0,-5.077569961547852,8.422735214233397,-1.7802598476409912
926,99600.0,-5.077569961547852,8.422735214233397,-1.7802598476409912
927,99700.0,-5.570490837097168,8.039883613586426,-1.887937068939209
928,99800.0,-5.570490837097168,8.039883613586426,-1.887937068939209
929,99900.0,-5.3694939613342285,8.111669540405272,-2.057827472686768
930,100000.0,-5.3694939613342285,8.111669540405272,-2.057827472686768
931,100100.0,-5.3694939613342285,8.111669540405272,-2.057827472686768
932,100200.0,-5.034498691558838,7.752745151519775,-2.7326035499572754
933,100300.0,-5.034498691558838,7.752745151519775,-2.7326035499572754
934,100400.0,-5.216352939605713,7.893921852111816,-2.5842485427856445
935,100500.0,-5.216352939605713,7.893921852111816,-2.5842485427856445
936,100600.0,-5.197210788726807,7.9728851318359375,-2.6392831802368164
937,100700.0,-5.197210788726807,7.9728851318359375,-2.6392831802368164
938,100800.0,-5.197210788726807,7.9728851318359375,-2.6392831802368164
939,100900.0,-5.029713153839111,8.102097511291504,-2.538784980773926
940,101000.0,-5.029713153839111,8.102097511291504,-2.538784980773926
941,101100.0,-4.962714195251465,8.173882484436035,-2.579463005065918
942,101200.0,-4.962714195251465,8.173882484436035,-2.579463005065918
943,101300.0,-5.034498691558838,12.256037712097168,-1.6151552200317385
944,101400.0,-5.034498691558838,12.256037712097168,-1.6151552200317385
945,101500.0,-5.570490837097168,4.632504463195801,-4.823930263519287
946,101600.0,-5.570490837097168,4.632504463195801,-4.823930263519287
947,101700.0,-5.570490837097168,4.632504463195801,-4.823930263519287
948,101800.0,-4.421936511993408,3.239881753921509,-6.967899799346924
949,101900.0,-4.421936511993408,3.239881753921509,-6.967899799346924
950,102000.0,-5.857630252838135,2.562713146209717,-6.417550563812256
951,102100.0,-5.857630252838135,2.562713146209717,-6.417550563812256
952,102200.0,-5.857630252838135,2.562713146209717,-6.417550563812256
953,102300.0,-4.6995038986206055,6.161518096923827,-5.005784511566162
954,102400.0,-4.6995038986206055,6.161518096923827,-5.005784511566162
955,102500.0,-4.962714195251465,7.645068168640138,-7.1712894439697275
956,102600.0,-4.962714195251465,7.645068168640138,-7.1712894439697275
957,102700.0,-5.058426856994629,4.603790760040283,-4.843072891235352
958,102800.0,-5.058426856994629,4.603790760040283,-4.843072891235352
959,102900.0,-4.168296813964844,6.276373863220215,-6.7860450744628915
960,103000.0,-4.168296813964844,6.276373863220215,-6.7860450744628915
961,103100.0,-4.168296813964844,6.276373863220215,-6.7860450744628915
962,103200.0,-4.120440483093262,7.5254268646240225,-5.522634029388428
963,103300.0,-4.120440483093262,7.5254268646240225,-5.522634029388428
964,103400.0,-4.201796531677246,5.7547383308410645,-6.159125804901122
965,103500.0,-4.201796531677246,5.7547383308410645,-6.159125804901122
966,103600.0,-4.201796531677246,5.7547383308410645,-6.159125804901122
967,103700.0,-4.273581027984618,6.759723663330077,-6.386443614959718
968,103800.0,-4.273581027984618,6.759723663330077,-6.386443614959718
969,103900.0,-3.3978083133697514,6.618547439575195,-6.427121639251709
970,104000.0,-3.3978083133697514,6.618547439575195,-6.427121639251709
971,104100.0,-3.2255251407623287,5.644669055938722,-7.3363938331604
972,104200.0,-3.2255251407623287,5.644669055938722,-7.3363938331604
973,104300.0,-2.995814085006714,9.272188186645508,-1.5242280960083008
974,104400.0,-2.995814085006714,9.272188186645508,-1.5242280960083008
975,104500.0,-2.995814085006714,9.272188186645508,-1.5242280960083008
976,104600.0,-4.5032920837402335,7.822136878967285,-4.515256404876709
977,104700.0,-4.5032920837402335,7.822136878967285,-4.515256404876709
978,104800.0,-5.3694939613342285,4.082155227661134,-6.5730838775634775
979,104900.0,-5.3694939613342285,4.082155227661134,-6.5730838775634775
980,105000.0,-5.3694939613342285,4.082155227661134,-6.5730838775634775
981,105100.0,-1.8424735069274905,3.869194030761719,-9.568897247314453
982,105200.0,-1.8424735069274905,3.869194030761719,-9.568897247314453
983,105300.0,-5.484349250793457,2.483749866485596,-6.819544315338135
984,105400.0,-5.484349250793457,2.483749866485596,-6.819544315338135
985,105500.0,-5.201996326446533,2.3880369663238525,-8.528019905090332
986,105600.0,-5.201996326446533,2.3880369663238525,-8.528019905090332
987,105700.0,-3.4121649265289307,2.4358932971954346,-8.903693199157715
988,105800.0,-3.4121649265289307,2.4358932971954346,-8.903693199157715
989,105900.0,-3.4121649265289307,2.4358932971954346,-8.903693199157715
990,106000.0,-2.75174617767334,-0.11485548317432405,-8.839086532592773
991,106100.0,-2.75174617767334,-0.11485548317432405,-8.839086532592773
992,106200.0,-2.493321180343628,-1.227518081665039,-9.365508079528807
993,106300.0,-2.493321180343628,-1.227518081665039,-9.365508079528807
994,106400.0,-2.493321180343628,-1.227518081665039,-9.365508079528807
995,106500.0,-3.5605196952819824,1.5672988891601562,-8.154739379882812
996,106600.0,-3.5605196952819824,1.5672988891601562,-8.154739379882812
997,106700.0,-2.0195422172546387,-0.4809573292732239,-8.791230201721191
998,106800.0,-2.0195422172546387,-0.4809573292732239,-8.791230201721191
999,106900.0,-2.560320377349853,-0.6245267391204834,-9.205188751220703
1000,107000.0,-2.560320377349853,-0.6245267391204834,-9.205188751220703
1001,107100.0,-2.445464611053467,1.210768222808838,-9.162117958068848
1002,107200.0,-2.445464611053467,1.210768222808838,-9.162117958068848
1003,107300.0,-2.1535403728485107,0.9547362923622132,-9.037691116333008
1004,107400.0,-2.1535403728485107,0.9547362923622132,-9.037691116333008
1005,107500.0,-2.1535403728485107,0.9547362923622132,-9.037691116333008
1006,107600.0,-2.0434706211090092,0.5168496966362001,-9.753145217895508
1007,107700.0,-2.0434706211090092,0.5168496966362001,-9.753145217895508
1008,107800.0,-1.105484127998352,5.623133182525635,-7.70249605178833
1009,107900.0,-1.105484127998352,5.623133182525635,-7.70249605178833
1010,108000.0,-1.105484127998352,5.623133182525635,-7.70249605178833
1011,108100.0,-1.7371891736984253,9.970890998840332,-3.2446675300598145
1012,108200.0,-1.7371891736984253,9.970890998840332,-3.2446675300598145
1013,108300.0,-2.8953151702880864,2.6249265670776367,-7.810173511505128
1014,108400.0,-2.8953151702880864,2.6249265670776367,-7.810173511505128
1015,108500.0,-2.2253248691558842,-0.8925228118896484,-10.516454696655273
1016,108600.0,-2.2253248691558842,-0.8925228118896484,-10.516454696655273
1017,108700.0,-2.1439690589904785,0.3661018908023834,-8.078168869018555
1018,108800.0,-2.1439690589904785,0.3661018908023834,-8.078168869018555
1019,108900.0,-2.1439690589904785,0.3661018908023834,-8.078168869018555
1020,109000.0,-1.8616160154342647,0.06939186155796051,-8.807979583740234
1021,109100.0,-1.8616160154342647,0.06939186155796051,-8.807979583740234
1022,109200.0,-2.1631116867065434,3.103491306304932,-8.516055107116701
1023,109300.0,-2.1631116867065434,3.103491306304932,-8.516055107116701
1024,109400.0,-1.794616937637329,8.73619556427002,-5.048855781555176
1025,109500.0,-1.794616937637329,8.73619556427002,-5.048855781555176
1026,109600.0,-1.794616937637329,8.73619556427002,-5.048855781555176
1027,109700.0,-2.2205395698547363,8.274380683898926,-3.754338502883911
1028,109800.0,-2.2205395698547363,8.274380683898926,-3.754338502883911
1029,109900.0,-2.9766712188720703,8.566305160522461,-3.565305471420288
1030,110000.0,-2.9766712188720703,8.566305160522461,-3.565305471420288
1031,110100.0,-4.713860511779785,9.93978500366211,-1.2705888748168943
1032,110200.0,-4.713860511779785,9.93978500366211,-1.2705888748168943
1033,110300.0,-4.460221290588379,7.200003147125244,-0.430708110332489
1034,110400.0,-4.460221290588379,7.200003147125244,-0.430708110332489
1035,110500.0,-4.460221290588379,7.200003147125244,-0.430708110332489
1036,110600.0,-5.26899528503418,8.743373870849611,-1.1868400573730469
1037,110700.0,-5.26899528503418,8.743373870849611,-1.1868400573730469
1038,110800.0,-6.106483459472656,7.458428382873535,-1.56969153881073
1039,110900.0,-6.106483459472656,7.458428382873535,-1.56969153881073
1040,111000.0,-5.254639148712158,8.542377471923826,-0.33738797903060913
1041,111100.0,-5.254639148712158,8.542377471923826,-0.33738797903060913
1042,111200.0,-5.254639148712158,8.542377471923826,-0.33738797903060913
1043,111300.0,-5.240281581878662,8.12123966217041,-0.6987042427062988
1044,111400.0,-5.240281581878662,8.12123966217041,-0.6987042427062988
1045,111500.0,-5.216352939605713,8.475377082824707,0.4689932465553284
1046,111600.0,-5.216352939605713,8.475377082824707,0.4689932465553284
1047,111700.0,-5.154139995574951,8.571090698242188,0.5814558863639832
1048,111800.0,-5.154139995574951,8.571090698242188,0.5814558863639832
1049,111900.0,-5.560920238494873,8.226524353027344,0.8015955686569214
1050,112000.0,-5.560920238494873,8.226524353027344,0.8015955686569214
1051,112100.0,-5.560920238494873,8.226524353027344,0.8015955686569214
1052,112200.0,-5.982056617736816,7.908278465270996,0.4713860750198364
1053,112300.0,-5.982056617736816,7.908278465270996,0.4713860750198364
1054,112400.0,-6.072984218597412,8.130810737609862,0.4331009089946747
1055,112500.0,-6.072984218597412,8.130810737609862,0.4331009089946747
1056,112600.0,-6.183053970336914,7.015756130218506,-0.08374878764152527
1057,112700.0,-6.183053970336914,7.015756130218506,-0.08374878764152527
1058,112800.0,-6.183053970336914,7.015756130218506,-0.08374878764152527
1059,112900.0,-6.206982612609862,7.341179370880128,-1.239482045173645
1060,113000.0,-6.206982612609862,7.341179370880128,-1.239482045173645
1061,113100.0,-6.0299134254455575,8.477770805358888,-0.014356935396790503
1062,113200.0,-6.0299134254455575,8.477770805358888,-0.014356935396790503
1063,113300.0,-6.0299134254455575,8.477770805358888,-0.014356935396790503
1064,113400.0,-5.0871405601501465,3.838087558746338,-7.41535758972168
1065,113500.0,-5.0871405601501465,3.838087558746338,-7.41535758972168
1066,113600.0,-4.60857629776001,2.376072883605957,-9.09511947631836
1067,113700.0,-4.60857629776001,2.376072883605957,-9.09511947631836
1068,113800.0,-3.608376264572144,6.0610198974609375,-7.963313579559326
1069,113900.0,-3.608376264572144,6.0610198974609375,-7.963313579559326
1070,114000.0,-3.608376264572144,6.0610198974609375,-7.963313579559326
1071,114100.0,-4.603790760040283,4.735395908355713,-7.168896198272705
1072,114200.0,-4.603790760040283,4.735395908355713,-7.168896198272705
1073,114300.0,-3.249453067779541,6.86261510848999,-8.24566650390625
1074,114400.0,-3.249453067779541,6.86261510848999,-8.24566650390625
1075,114500.0,-3.747160196304321,7.709674835205077,-5.216352939605713
1076,114600.0,-3.747160196304321,7.709674835205077,-5.216352939605713
1077,114700.0,-4.388436794281007,7.786244869232178,-4.493720531463623
1078,114800.0,-4.388436794281007,7.786244869232178,-4.493720531463623
1079,114900.0,-4.388436794281007,7.786244869232178,-4.493720531463623
1080,115000.0,-5.297709465026856,5.010570526123047,-6.331408977508545
1081,115100.0,-5.297709465026856,5.010570526123047,-6.331408977508545
1082,115200.0,-5.034498691558838,3.464807271957397,-8.015955924987793
1083,115300.0,-5.034498691558838,3.464807271957397,-8.015955924987793
1084,115400.0,-4.823930263519287,5.0871405601501465,-7.0444698333740225
1085,115500.0,-4.823930263519287,5.0871405601501465,-7.0444698333740225
1086,115600.0,-4.823930263519287,5.0871405601501465,-7.0444698333740225
1087,115700.0,-5.637490272521973,4.855037212371826,-5.5106706619262695
1088,115800.0,-5.637490272521973,4.855037212371826,-5.5106706619262695
1089,115900.0,-4.752145767211914,5.26181697845459,-6.975078105926514
1090,116000.0,-4.752145767211914,5.26181697845459,-6.975078105926514
1091,116100.0,-4.934000015258789,4.821537494659424,-7.080362319946289
1092,116200.0,-4.934000015258789,4.821537494659424,-7.080362319946289
1093,116300.0,-4.934000015258789,4.821537494659424,-7.080362319946289
1094,116400.0,-4.8574299812316895,3.69930362701416,-7.200003147125244
1095,116500.0,-4.8574299812316895,3.69930362701416,-7.200003147125244
1096,116600.0,-3.847658634185791,8.444271087646483,-4.4004011154174805
1097,116700.0,-3.847658634185791,8.444271087646483,-4.4004011154174805
1098,116800.0,-4.584648132324219,8.262415885925293,-3.9792640209198
1099,116900.0,-4.584648132324219,8.262415885925293,-3.9792640209198
1100,117000.0,-4.53200626373291,6.608975887298584,-5.453242778778076
1101,117100.0,-4.53200626373291,6.608975887298584,-5.453242778778076
1102,117200.0,-4.53200626373291,6.608975887298584,-5.453242778778076
1103,117300.0,-4.125226020812988,5.704488754272461,-6.97986364364624
1104,117400.0,-4.125226020812988,5.704488754272461,-6.97986364364624
1105,117500.0,-4.508078098297119,5.029713153839111,-7.204789161682129
1106,117600.0,-4.508078098297119,5.029713153839111,-7.204789161682129
1107,117700.0,-4.527220726013184,3.4528429508209233,-7.063612461090088
1108,117800.0,-4.527220726013184,3.4528429508209233,-7.063612461090088
1109,117900.0,-4.527220726013184,3.4528429508209233,-7.063612461090088
1110,118000.0,-4.2065820693969735,7.6115684509277335,-4.620540142059326
1111,118100.0,-4.2065820693969735,7.6115684509277335,-4.620540142059326
1112,118200.0,-3.957728624343872,8.169095993041992,-3.90987229347229
1113,118300.0,-3.957728624343872,8.169095993041992,-3.90987229347229
1114,118400.0,-4.6372904777526855,7.992027282714844,-2.7900311946868896
1115,118500.0,-4.6372904777526855,7.992027282714844,-2.7900311946868896
1116,118600.0,-4.6372904777526855,7.992027282714844,-2.7900311946868896
1117,118700.0,-5.072784423828125,8.250452041625978,-0.8638089299201965
1118,118800.0,-5.072784423828125,8.250452041625978,-0.8638089299201965
1119,118900.0,-5.704488754272461,8.054241180419924,-0.2440679222345352
1120,119000.0,-5.704488754272461,8.054241180419924,-0.2440679222345352
1121,119100.0,-6.3936219215393075,7.338787078857423,-0.5814558863639832
1122,119200.0,-6.3936219215393075,7.338787078857423,-0.5814558863639832
1123,119300.0,-6.3936219215393075,7.338787078857423,-0.5814558863639832
1124,119400.0,-6.604190349578857,7.192824840545653,0.22013968229293826
1125,119500.0,-6.604190349578857,7.192824840545653,0.22013968229293826
1126,119600.0,-7.231109619140625,5.850451469421388,-1.2370892763137815
1127,119700.0,-7.231109619140625,5.850451469421388,-1.2370892763137815
1128,119800.0,-7.125825881958008,6.52044153213501,-0.6652047038078308
1129,119900.0,-7.125825881958008,6.52044153213501,-0.6652047038078308
1130,120000.0,-7.125825881958008,6.52044153213501,-0.6652047038078308
1131,120100.0,-6.27876615524292,7.645068168640138,-0.935593605041504
1132,120200.0,-6.27876615524292,7.645068168640138,-0.935593605041504
1133,120300.0,-6.077769756317139,7.752745151519775,-0.8590233325958252
1134,120400.0,-6.077769756317139,7.752745151519775,-0.8590233325958252
1135,120500.0,-5.843273162841798,8.027919769287111,-1.2729815244674685
1136,120600.0,-5.843273162841798,8.027919769287111,-1.2729815244674685
1137,120700.0,-5.843273162841798,8.027919769287111,-1.2729815244674685
1138,120800.0,-5.924628734588622,7.719245910644531,-1.5457634925842283
1139,120900.0,-5.924628734588622,7.719245910644531,-1.5457634925842283
1140,121000.0,-5.69013261795044,7.893921852111816,-1.4476575851440432
1141,121100.0,-5.69013261795044,7.893921852111816,-1.4476575851440432
1142,121200.0,-5.575276851654053,7.934599876403809,-1.8520447015762331
1143,121300.0,-5.575276851654053,7.934599876403809,-1.8520447015762331
1144,121400.0,-5.575276851654053,7.934599876403809,-1.8520447015762331
1145,121500.0,-5.2115678787231445,8.477770805358888,-2.919243574142456
1146,121600.0,-5.2115678787231445,8.477770805358888,-2.919243574142456
1147,121700.0,-5.288137912750244,4.8023948669433585,-5.517848491668701
1148,121800.0,-5.288137912750244,4.8023948669433585,-5.517848491668701
1149,121900.0,-5.3551368713378915,1.9477576017379759,-8.427520751953125
1150,122000.0,-5.3551368713378915,1.9477576017379759,-8.427520751953125
1151,122100.0,-4.747360229492188,2.297109842300415,-7.520641803741455
1152,122200.0,-4.747360229492188,2.297109842300415,-7.520641803741455
1153,122300.0,-5.1732821464538565,1.9812570810317995,-8.83669376373291
1154,122400.0,-5.1732821464538565,1.9812570810317995,-8.83669376373291
1155,122500.0,-5.1732821464538565,1.9812570810317995,-8.83669376373291
1156,122600.0,-4.986642360687256,2.3425734043121342,-7.858029365539551
1157,122700.0,-4.986642360687256,2.3425734043121342,-7.858029365539551
1158,122800.0,-5.091926097869873,2.8354949951171875,-8.008777618408201
1159,122900.0,-5.091926097869873,2.8354949951171875,-8.008777618408201
1160,123000.0,-5.857630252838135,1.7730815410614014,-6.262016773223878
1161,123100.0,-5.857630252838135,1.7730815410614014,-6.262016773223878
1162,123200.0,-4.847858428955078,5.381458282470703,-7.57806921005249
1163,123300.0,-4.847858428955078,5.381458282470703,-7.57806921005249
1164,123400.0,-4.847858428955078,5.381458282470703,-7.57806921005249
1165,123500.0,-5.651846885681152,5.300102710723877,-5.979663372039795
1166,123600.0,-5.651846885681152,5.300102710723877,-5.979663372039795
1167,123700.0,-4.240081787109375,5.568098068237305,-7.22153902053833
1168,123800.0,-4.240081787109375,5.568098068237305,-7.22153902053833
1169,123900.0,-3.7328033447265625,4.137190341949463,-7.499105930328369
1170,124000.0,-3.7328033447265625,4.137190341949463,-7.499105930328369
1171,124100.0,-5.565705299377441,3.5844480991363525,-6.120840072631836
1172,124200.0,-5.565705299377441,3.5844480991363525,-6.120840072631836
1173,124300.0,-5.723631858825684,2.155933380126953,-7.520641803741455
1174,124400.0,-5.723631858825684,2.155933380126953,-7.520641803741455
1175,124500.0,-5.723631858825684,2.155933380126953,-7.520641803741455
1176,124600.0,-4.900500774383545,7.57806921005249,-5.632704257965088
1177,124700.0,-4.900500774383545,7.57806921005249,-5.632704257965088
1178,124800.0,-5.388636112213135,7.3124656677246085,-3.6753754615783687
1179,124900.0,-5.388636112213135,7.3124656677246085,-3.6753754615783687
1180,125000.0,-5.388636112213135,7.3124656677246085,-3.6753754615783687
1181,125100.0,-4.90528678894043,6.704688549041747,-5.950949668884277
1182,125200.0,-4.90528678894043,6.704688549041747,-5.950949668884277
1183,125300.0,-5.187639236450195,7.7599239349365225,-2.543570280075073
1184,125400.0,-5.187639236450195,7.7599239349365225,-2.543570280075073
1185,125500.0,-5.120640754699707,8.12123966217041,-2.380858421325684
1186,125600.0,-5.120640754699707,8.12123966217041,-2.380858421325684
1187,125700.0,-5.168497085571289,7.992027282714844,-1.6031911373138428
1188,125800.0,-5.168497085571289,7.992027282714844,-1.6031911373138428
1189,125900.0,-5.1732821464538565,8.202595710754395,-1.2873386144638062
1190,126000.0,-5.1732821464538565,8.202595710754395,-1.2873386144638062
1191,126100.0,-5.273780822753906,8.609375953674316,-0.3852444589138031
1192,126200.0,-5.273780822753906,8.609375953674316,-0.3852444589138031
1193,126300.0,-5.948556900024414,8.157133102416992,-0.662811815738678
1194,126400.0,-5.948556900024414,8.157133102416992,-0.662811815738678
1195,126500.0,-5.948556900024414,8.157133102416992,-0.662811815738678
1196,126600.0,-6.293124198913574,7.802994728088379,-0.3349951505661011
1197,126700.0,-6.293124198913574,7.802994728088379,-0.3349951505661011
1198,126800.0,-7.393822193145753,7.3363938331604,-0.6221339106559753
1199,126900.0,-7.393822193145753,7.3363938331604,-0.6221339106559753
1200,127000.0,-7.393822193145753,7.3363938331604,-0.6221339106559753
1201,127100.0,-6.0538411140441895,5.955735206604004,-1.0911270380020142
1202,127200.0,-6.0538411140441895,5.955735206604004,-1.0911270380020142
1203,127300.0,-5.647061824798584,6.7310099601745605,-0.9092726111412048
1204,127400.0,-5.647061824798584,6.7310099601745605,-0.9092726111412048
1205,127500.0,-5.8337016105651855,9.241080284118652,-0.8255237936973572
1206,127600.0,-5.8337016105651855,9.241080284118652,-0.8255237936973572
1207,127700.0,-4.675575256347656,8.685946464538574,-1.9956141710281368
1208,127800.0,-4.675575256347656,8.685946464538574,-1.9956141710281368
1209,127900.0,-5.106283187866211,8.240880966186522,-1.3304094076156616
1210,128000.0,-5.106283187866211,8.240880966186522,-1.3304094076156616
1211,128100.0,-5.106283187866211,8.240880966186522,-1.3304094076156616
1212,128200.0,-4.852644443511963,8.496913909912111,-1.3423734903335571
1213,128300.0,-4.852644443511963,8.496913909912111,-1.3423734903335571
1214,128400.0,-4.7952165603637695,8.504091262817383,-1.4715858697891235
1215,128500.0,-4.7952165603637695,8.504091262817383,-1.4715858697891235
1216,128600.0,-4.7952165603637695,8.504091262817383,-1.4715858697891235
1217,128700.0,-4.823930263519287,8.453842163085938,-1.442872166633606
1218,128800.0,-4.823930263519287,8.453842163085938,-1.442872166633606
1219,128900.0,-4.8574299812316895,8.451449394226074,-1.4021940231323242
1220,129000.0,-4.8574299812316895,8.451449394226074,-1.4021940231323242
1221,129100.0,-4.871786594390869,8.47059154510498,-1.4165509939193726
1222,129200.0,-4.871786594390869,8.47059154510498,-1.4165509939193726
1223,129300.0,-4.785645484924316,8.401200294494629,-1.6342979669570925
1224,129400.0,-4.785645484924316,8.401200294494629,-1.6342979669570925
1225,129500.0,-4.785645484924316,8.401200294494629,-1.6342979669570925
1226,129600.0,-4.847858428955078,8.350951194763184,-1.6821542978286743
1227,129700.0,-4.847858428955078,8.350951194763184,-1.6821542978286743
1228,129800.0,-4.728217601776123,8.628519058227539,-1.5314064025878906
1229,129900.0,-4.728217601776123,8.628519058227539,-1.5314064025878906
1230,130000.0,-5.493920803070068,8.250452041625978,-1.06480610370636
1231,130100.0,-5.493920803070068,8.250452041625978,-1.06480610370636
1232,130200.0,-5.493920803070068,8.250452041625978,-1.06480610370636
1233,130300.0,-6.173482418060303,7.482356548309326,-1.1150553226470947
1234,130400.0,-6.173482418060303,7.482356548309326,-1.1150553226470947
1235,130500.0,-6.20219612121582,7.616354942321777,-0.7226324081420898
1236,130600.0,-6.20219612121582,7.616354942321777,-0.7226324081420898
1237,130700.0,-6.0538411140441895,7.9106712341308585,0.4618147313594818
1238,130800.0,-6.0538411140441895,7.9106712341308585,0.4618147313594818
1239,130900.0,-5.838487148284912,7.668996810913086,0.5192425251007079
1240,131000.0,-5.838487148284912,7.668996810913086,0.5192425251007079
1241,131100.0,-5.838487148284912,7.668996810913086,0.5192425251007079
1242,131200.0,-5.685347080230713,8.142775535583496,0.4426721632480621
1243,131300.0,-5.685347080230713,8.142775535583496,0.4426721632480621
1244,131400.0,-5.5896339416503915,8.159524917602539,-0.5312066078186035
1245,131500.0,-5.5896339416503915,8.159524917602539,-0.5312066078186035
1246,131600.0,-5.312066078186035,8.044669151306152,-1.308874011039734
1247,131700.0,-5.312066078186035,8.044669151306152,-1.308874011039734
1248,131800.0,-5.651846885681152,7.94177770614624,-0.8231310248374939
1249,131900.0,-5.651846885681152,7.94177770614624,-0.8231310248374939
1250,132000.0,-5.651846885681152,7.94177770614624,-0.8231310248374939
1251,132100.0,-5.522634029388428,8.080562591552733,-0.8350951075553894
1252,132200.0,-5.522634029388428,8.080562591552733,-0.8350951075553894
1253,132300.0,-5.670989990234375,7.752745151519775,-0.02392822504043579
1254,132400.0,-5.670989990234375,7.752745151519775,-0.02392822504043579
1255,132500.0,-5.656632423400879,8.264809608459473,1.8951154947280884
1256,132600.0,-5.656632423400879,8.264809608459473,1.8951154947280884
1257,132700.0,-5.97727108001709,8.293522834777832,1.2921242713928225
1258,132800.0,-5.97727108001709,8.293522834777832,1.2921242713928225
1259,132900.0,-6.111269474029541,8.269595146179201,-0.969093143939972
1260,133000.0,-6.111269474029541,8.269595146179201,-0.969093143939972
1261,133100.0,-6.111269474029541,8.269595146179201,-0.969093143939972
1262,133200.0,-5.97727108001709,4.811966419219972,-5.917449951171875
1263,133300.0,-5.97727108001709,4.811966419219972,-5.917449951171875
1264,133400.0,-4.953143119812012,3.6059837341308594,-8.755338668823242
1265,133500.0,-4.953143119812012,3.6059837341308594,-8.755338668823242
1266,133600.0,-7.36032247543335,3.0987055301666264,-5.599205493927002
1267,133700.0,-7.36032247543335,3.0987055301666264,-5.599205493927002
1268,133800.0,-6.915257453918457,2.8737800121307373,-6.16391134262085
1269,133900.0,-6.915257453918457,2.8737800121307373,-6.16391134262085
1270,134000.0,-6.915257453918457,2.8737800121307373,-6.16391134262085
1271,134100.0,-5.4077792167663565,1.4572290182113647,-7.7072815895080575
1272,134200.0,-5.4077792167663565,1.4572290182113647,-7.7072815895080575
1273,134300.0,-4.441079139709473,1.5960125923156738,-8.934800148010254
1274,134400.0,-4.441079139709473,1.5960125923156738,-8.934800148010254
1275,134500.0,-4.441079139709473,1.5960125923156738,-8.934800148010254
1276,134600.0,-3.919443368911743,7.70249605178833,-5.350350856781006
1277,134700.0,-3.919443368911743,7.70249605178833,-5.350350856781006
1278,134800.0,-4.015156269073486,7.432106971740723,-4.551148891448975
1279,134900.0,-4.015156269073486,7.432106971740723,-4.551148891448975
1280,135000.0,-4.278366565704347,8.762516975402832,-2.806780815124512
1281,135100.0,-4.278366565704347,8.762516975402832,-2.806780815124512
1282,135200.0,-4.278366565704347,8.762516975402832,-2.806780815124512
1283,135300.0,-5.54177713394165,7.642674922943115,-3.653840303421021
1284,135400.0,-5.54177713394165,7.642674922943115,-3.653840303421021
1285,135500.0,-4.512863159179688,0.662811815738678,-8.202595710754395
1286,135600.0,-4.512863159179688,0.662811815738678,-8.202595710754395
1287,135700.0,-2.057827472686768,0.26081767678260803,-9.073582649230957
1288,135800.0,-2.057827472686768,0.26081767678260803,-9.073582649230957
1289,135900.0,-2.057827472686768,0.26081767678260803,-9.073582649230957
1290,136000.0,-1.641476273536682,3.873979806900024,-9.473184585571287
1291,136100.0,-1.641476273536682,3.873979806900024,-9.473184585571287
1292,136200.0,-1.8520447015762331,7.286144733428955,-5.802595138549805
1293,136300.0,-1.8520447015762331,7.286144733428955,-5.802595138549805
1294,136400.0,-3.6131620407104488,8.999405860900879,-3.8907296657562256
1295,136500.0,-3.6131620407104488,8.999405860900879,-3.8907296657562256
1296,136600.0,-3.6131620407104488,8.999405860900879,-3.8907296657562256
1297,136700.0,-4.876572608947754,9.463613510131836,-2.3162522315979004
1298,136800.0,-4.876572608947754,9.463613510131836,-2.3162522315979004
1299,136900.0,-5.446063995361328,6.403193473815918,-0.935593605041504
1300,137000.0,-5.446063995361328,6.403193473815918,-0.935593605041504
1301,137100.0,-7.767102241516112,5.855237007141112,-1.0193424224853516
1302,137200.0,-7.767102241516112,5.855237007141112,-1.0193424224853516
1303,137300.0,-7.767102241516112,5.855237007141112,-1.0193424224853516
1304,137400.0,-7.518248558044434,6.563512325286865,-0.6125625967979431
1305,137500.0,-7.518248558044434,6.563512325286865,-0.6125625967979431
1306,137600.0,-7.39860725402832,6.757331371307372,-0.35892340540885925
1307,137700.0,-7.39860725402832,6.757331371307372,-0.35892340540885925
1308,137800.0,-7.4608211517333975,6.355337142944336,-0.8063812851905823
1309,137900.0,-7.4608211517333975,6.355337142944336,-0.8063812851905823
1310,138000.0,-7.4081788063049325,6.436692714691162,-0.6388836503028871
1311,138100.0,-7.4081788063049325,6.436692714691162,-0.6388836503028871
1312,138200.0,-7.451249599456787,6.419942855834961,-0.5288137793540955
1313,138300.0,-7.451249599456787,6.419942855834961,-0.5288137793540955
1314,138400.0,-7.451249599456787,6.419942855834961,-0.5288137793540955
1315,138500.0,-7.465606689453125,6.348158359527588,-0.5670989155769348
1316,138600.0,-7.465606689453125,6.348158359527588,-0.5670989155769348
1317,138700.0,-7.3842506408691415,6.558726787567139,-0.6293123364448547
1318,138800.0,-7.3842506408691415,6.558726787567139,-0.6293123364448547
1319,138900.0,-7.4608211517333975,6.484549045562744,-0.6484549045562744
1320,139000.0,-7.4608211517333975,6.484549045562744,-0.6484549045562744
1321,139100.0,-7.393822193145753,6.506085395812987,-0.5407779216766357
1322,139200.0,-7.393822193145753,6.506085395812987,-0.5407779216766357
1323,139300.0,-7.403393745422362,6.561119556427003,-0.5886343717575073
1324,139400.0,-7.403393745422362,6.561119556427003,-0.5886343717575073
1325,139500.0,-7.403393745422362,6.561119556427003,-0.5886343717575073
1326,139600.0,-7.417750358581543,6.601797103881836,-0.7154539823532104
1327,139700.0,-7.417750358581543,6.601797103881836,-0.7154539823532104
1328,139800.0,-7.422535419464111,6.362515449523926,-0.7776673436164856
1329,139900.0,-7.422535419464111,6.362515449523926,-0.7776673436164856
1330,140000.0,-7.422535419464111,6.362515449523926,-0.7776673436164856
1331,140100.0,-7.293323516845702,6.905685901641847,-0.7369893789291382
1332,140200.0,-7.293323516845702,6.905685901641847,-0.7369893789291382
1333,140300.0,-7.417750358581543,6.687938690185548,-0.5718846321105957
1334,140400.0,-7.417750358581543,6.687938690185548,-0.5718846321105957
1335,140500.0,-7.39860725402832,6.570690631866455,-0.7872385978698729
1336,140600.0,-7.39860725402832,6.570690631866455,-0.7872385978698729
1337,140700.0,-7.36032247543335,6.5730838775634775,-0.7800601720809937
1338,140800.0,-7.36032247543335,6.5730838775634775,-0.7800601720809937
1339,140900.0,-7.39860725402832,6.582655429840088,-0.7178468108177185
1340,141000.0,-7.39860725402832,6.582655429840088,-0.7178468108177185
1341,141100.0,-7.39860725402832,6.582655429840088,-0.7178468108177185
1342,141200.0,-7.293323516845702,6.151947498321532,-1.2346963882446291
1343,141300.0,-7.293323516845702,6.151947498321532,-1.2346963882446291
1344,141400.0,-6.723831653594972,7.539783954620361,0.3780659735202789
1345,141500.0,-6.723831653594972,7.539783954620361,0.3780659735202789
1346,141600.0,-6.384050369262695,7.721638679504394,-0.552742063999176
1347,141700.0,-6.384050369262695,7.721638679504394,-0.552742063999176
1348,141800.0,-6.489335060119629,7.365108013153076,-0.6436693072319031
1349,141900.0,-6.489335060119629,7.365108013153076,-0.6436693072319031
1350,142000.0,-6.489335060119629,7.365108013153076,-0.6436693072319031
1351,142100.0,-6.412764549255371,7.326822757720947,-0.7872385978698729
1352,142200.0,-6.412764549255371,7.326822757720947,-0.7872385978698729
1353,142300.0,-6.5324058532714835,7.264609336853027,-1.0145567655563354
1354,142400.0,-6.5324058532714835,7.264609336853027,-1.0145567655563354
1355,142500.0,-6.503692150115968,7.118647575378418,-0.8805587291717529
1356,142600.0,-6.503692150115968,7.118647575378418,-0.8805587291717529
1357,142700.0,-6.484549045562744,7.599604606628418,-0.03828516229987145
1358,142800.0,-6.484549045562744,7.599604606628418,-0.03828516229987145
1359,142900.0,-6.484549045562744,7.599604606628418,-0.03828516229987145
1360,143000.0,-6.742973804473878,7.214360237121582,-0.397208571434021
1361,143100.0,-6.742973804473878,7.214360237121582,-0.397208571434021
1362,143200.0,-7.111469268798827,7.133004188537598,-0.2105683833360672
1363,143300.0,-7.111469268798827,7.133004188537598,-0.2105683833360672
1364,143400.0,-7.111469268798827,7.133004188537598,-0.2105683833360672
1365,143500.0,-7.647461414337157,5.613561630249023,-2.627319574356079
1366,143600.0,-7.647461414337157,5.613561630249023,-2.627319574356079
1367,143700.0,-8.60459041595459,4.783252716064453,-2.2085752487182617
1368,143800.0,-8.60459041595459,4.783252716064453,-2.2085752487182617
1369,143900.0,-8.59501838684082,4.125226020812988,-2.1056838035583496
1370,144000.0,-8.59501838684082,4.125226020812988,-2.1056838035583496
1371,144100.0,-8.260024070739746,5.3359947204589835,-1.1365907192230225
1372,144200.0,-8.260024070739746,5.3359947204589835,-1.1365907192230225
1373,144300.0,-8.082954406738281,5.548955917358398,-1.4045867919921875
1374,144400.0,-8.082954406738281,5.548955917358398,-1.4045867919921875
1375,144500.0,-8.082954406738281,5.548955917358398,-1.4045867919921875
1376,144600.0,-7.747959613800049,5.864808082580566,-1.801795244216919
1377,144700.0,-7.747959613800049,5.864808082580566,-1.801795244216919
1378,144800.0,-7.537391662597656,3.7734813690185542,-3.3403804302215576
1379,144900.0,-7.537391662597656,3.7734813690185542,-3.3403804302215576
1380,145000.0,-5.733203411102295,2.603391170501709,-5.39342212677002
1381,145100.0,-5.733203411102295,2.603391170501709,-5.39342212677002
1382,145200.0,-5.733203411102295,2.603391170501709,-5.39342212677002
1383,145300.0,-6.891329765319824,2.6321046352386475,-10.40638542175293
1384,145400.0,-6.891329765319824,2.6321046352386475,-10.40638542175293
1385,145500.0,-5.814558982849121,1.1437692642211914,-7.733603000640869
1386,145600.0,-5.814558982849121,1.1437692642211914,-7.733603000640869
1387,145700.0,-4.292723655700684,-0.14835500717163086,-11.088340759277344
1388,145800.0,-4.292723655700684,-0.14835500717163086,-11.088340759277344
1389,145900.0,-4.292723655700684,-0.14835500717163086,-11.088340759277344
1390,146000.0,-6.503692150115968,0.12442677468061447,-5.230710506439209
1391,146100.0,-6.503692150115968,0.12442677468061447,-5.230710506439209
1392,146200.0,-5.680561065673827,1.9118653535842896,-8.379664421081543
1393,146300.0,-5.680561065673827,1.9118653535842896,-8.379664421081543
1394,146400.0,-4.311866760253906,0.5790630578994751,-10.418350219726562
1395,146500.0,-4.311866760253906,0.5790630578994751,-10.418350219726562
1396,146600.0,-4.311866760253906,0.5790630578994751,-10.418350219726562
1397,146700.0,-6.197411060333253,1.6151552200317385,-5.235496044158936
1398,146800.0,-6.197411060333253,1.6151552200317385,-5.235496044158936
1399,146900.0,-3.5126638412475586,0.08853443711996077,-10.614561080932617
1400,147000.0,-3.5126638412475586,0.08853443711996077,-10.614561080932617
1401,147100.0,-3.34995174407959,5.257031440734863,-8.630911827087402
1402,147200.0,-3.34995174407959,5.257031440734863,-8.630911827087402
1403,147300.0,-3.34995174407959,5.257031440734863,-8.630911827087402
1404,147400.0,-4.488935470581055,2.761317014694214,-5.879165172576903
1405,147500.0,-4.488935470581055,2.761317014694214,-5.879165172576903
1406,147600.0,-4.383650779724121,2.2779672145843506,-8.652446746826174
1407,147700.0,-4.383650779724121,2.2779672145843506,-8.652446746826174
1408,147800.0,-5.345565319061278,2.4693927764892583,-6.5180487632751465
1409,147900.0,-5.345565319061278,2.4693927764892583,-6.5180487632751465
1410,148000.0,-5.345565319061278,2.4693927764892583,-6.5180487632751465
1411,148100.0,-4.8813581466674805,1.4213367700576782,-9.611968994140623
1412,148200.0,-4.8813581466674805,1.4213367700576782,-9.611968994140623
1413,148300.0,-5.7954163551330575,2.974278450012207,-4.709074974060059
1414,148400.0,-5.7954163551330575,2.974278450012207,-4.709074974060059
1415,148500.0,-3.842873096466065,2.218146562576294,-8.915657043457031
1416,148600.0,-3.842873096466065,2.218146562576294,-8.915657043457031
1417,148700.0,-4.091726779937743,1.0719845294952393,-9.834501266479492
1418,148800.0,-4.091726779937743,1.0719845294952393,-9.834501266479492
1419,148900.0,-4.091726779937743,1.0719845294952393,-9.834501266479492
1420,149000.0,-3.6562328338623047,-0.4067798554897308,-9.346364974975586
1421,149100.0,-3.6562328338623047,-0.4067798554897308,-9.346364974975586
1422,149200.0,-5.599205493927002,0.7704889178276062,-6.860222339630128
1423,149300.0,-5.599205493927002,0.7704889178276062,-6.860222339630128
1424,149400.0,-3.0388848781585693,0.4642075896263122,-9.635896682739258
1425,149500.0,-3.0388848781585693,0.4642075896263122,-9.635896682739258
1426,149600.0,-5.388636112213135,1.0289137363433838,-6.5084776878356925
1427,149700.0,-5.388636112213135,1.0289137363433838,-6.5084776878356925
1428,149800.0,-5.388636112213135,1.0289137363433838,-6.5084776878356925
1429,149900.0,-5.2115678787231445,1.7156537771224976,-5.233102798461914
1430,150000.0,-5.2115678787231445,1.7156537771224976,-5.233102798461914
1431,150100.0,-3.833301782608032,0.6364907622337341,-7.922636032104492
1432,150200.0,-3.833301782608032,0.6364907622337341,-7.922636032104492
1433,150300.0,-3.833301782608032,0.6364907622337341,-7.922636032104492
1434,150400.0,-3.713660717010498,2.75174617767334,-8.623733520507812
1435,150500.0,-3.713660717010498,2.75174617767334,-8.623733520507812
1436,150600.0,-5.398207664489746,3.34995174407959,-7.5804619789123535
1437,150700.0,-5.398207664489746,3.34995174407959,-7.5804619789123535
1438,150800.0,-3.201596736907959,5.065605640411377,-11.899507522583008
1439,150900.0,-3.201596736907959,5.065605640411377,-11.899507522583008
1440,151000.0,-6.32662296295166,1.739582061767578,-8.374878883361816
1441,151100.0,-6.32662296295166,1.739582061767578,-8.374878883361816
1442,151200.0,-2.756531953811645,0.8494520783424377,-8.097311973571777
1443,151300.0,-2.756531953811645,0.8494520783424377,-8.097311973571777
1444,151400.0,-2.756531953811645,0.8494520783424377,-8.097311973571777
1445,151500.0,-6.082554817199707,4.486542701721191,-5.443671703338623
1446,151600.0,-6.082554817199707,4.486542701721191,-5.443671703338623
1447,151700.0,-5.489135265350342,5.72123908996582,-6.235695838928223
1448,151800.0,-5.489135265350342,5.72123908996582,-6.235695838928223
1449,151900.0,-5.489135265350342,5.72123908996582,-6.235695838928223
1450,152000.0,-4.838287353515625,7.331608772277832,-4.72582483291626
1451,152100.0,-4.838287353515625,7.331608772277832,-4.72582483291626
1452,152200.0,-4.761716842651367,7.2478599548339835,-5.14456844329834
1453,152300.0,-4.761716842651367,7.2478599548339835,-5.14456844329834
1454,152400.0,-4.967499732971191,6.798008918762207,-4.955535888671875
1455,152500.0,-4.967499732971191,6.798008918762207,-4.955535888671875
1456,152600.0,-5.044069766998291,6.795616626739503,-4.900500774383545
1457,152700.0,-5.044069766998291,6.795616626739503,-4.900500774383545
1458,152800.0,-5.044069766998291,6.795616626739503,-4.900500774383545
1459,152900.0,-4.9387855529785165,6.7932233810424805,-4.488935470581055
1460,153000.0,-4.9387855529785165,6.7932233810424805,-4.488935470581055
1461,153100.0,-7.537391662597656,5.584848403930664,-3.838087558746338
1462,153200.0,-7.537391662597656,5.584848403930664,-3.838087558746338
1463,153300.0,-7.537391662597656,5.584848403930664,-3.838087558746338
1464,153400.0,-6.824329853057861,5.235496044158936,-5.381458282470703
1465,153500.0,-6.824329853057861,5.235496044158936,-5.381458282470703
1466,153600.0,-5.714060306549072,1.6295121908187866,-7.551748275756836
1467,153700.0,-5.714060306549072,1.6295121908187866,-7.551748275756836
1468,153800.0,-5.546562671661377,0.5742774605751038,-7.575676441192628
1469,153900.0,-5.546562671661377,0.5742774605751038,-7.575676441192628
1470,154000.0,-5.450850009918213,1.6486548185348509,-7.599604606628418
1471,154100.0,-5.450850009918213,1.6486548185348509,-7.599604606628418
1472,154200.0,-3.847658634185791,4.926821708679199,-7.601996898651122
1473,154300.0,-3.847658634185791,4.926821708679199,-7.601996898651122
1474,154400.0,-3.847658634185791,4.926821708679199,-7.601996898651122
1475,154500.0,-6.226124286651611,3.802195072174072,-7.444070816040039
1476,154600.0,-6.226124286651611,3.802195072174072,-7.444070816040039
1477,154700.0,-5.077569961547852,4.534398555755615,-7.451249599456787
1478,154800.0,-5.077569961547852,4.534398555755615,-7.451249599456787
1479,154900.0,-4.072584152221681,-0.34695929288864136,-9.09511947631836
1480,155000.0,-4.072584152221681,-0.34695929288864136,-9.09511947631836
1481,155100.0,-3.464807271957397,12.155539512634276,-1.7132610082626345
1482,155200.0,-3.464807271957397,12.155539512634276,-1.7132610082626345
1483,155300.0,-3.464807271957397,12.155539512634276,-1.7132610082626345
1484,155400.0,-3.579662799835205,7.645068168640138,-2.5004994869232178
1485,155500.0,-3.579662799835205,7.645068168640138,-2.5004994869232178
1486,155600.0,-3.5509488582611084,9.05683422088623,-2.337787628173828
1487,155700.0,-3.5509488582611084,9.05683422088623,-2.337787628173828
1488,155800.0,-2.933600425720215,9.145368576049805,-2.09850549697876
1489,155900.0,-2.933600425720215,9.145368576049805,-2.09850549697876
1490,156000.0,-3.359522819519043,9.38943576812744,-0.5742774605751038
1491,156100.0,-3.359522819519043,9.38943576812744,-0.5742774605751038
1492,156200.0,-3.517449140548706,8.834300994873047,-0.784845769405365
1493,156300.0,-3.517449140548706,8.834300994873047,-0.784845769405365
1494,156400.0,-3.517449140548706,8.834300994873047,-0.784845769405365
1495,156500.0,-4.517649173736572,9.219545364379883,-0.19142580032348636
1496,156600.0,-4.517649173736572,9.219545364379883,-0.19142580032348636
1497,156700.0,-4.814359188079834,8.324630737304688,-0.3158525824546814
1498,156800.0,-4.814359188079834,8.324630737304688,-0.3158525824546814
1499,156900.0,-4.326223373413087,7.752745151519775,-0.6293123364448547
1500,157000.0,-4.326223373413087,7.752745151519775,-0.6293123364448547
1501,157100.0,-4.326223373413087,7.752745151519775,-0.6293123364448547
1502,157200.0,-5.3359947204589835,8.889336585998535,0.1459621787071228
1503,157300.0,-5.3359947204589835,8.889336585998535,0.1459621787071228
1504,157400.0,-5.31685209274292,8.188239097595215,-0.3924228847026825
1505,157500.0,-5.31685209274292,8.188239097595215,-0.3924228847026825
1506,157600.0,-5.474778175354004,7.664210796356201,-0.5623133182525635
1507,157700.0,-5.474778175354004,7.664210796356201,-0.5623133182525635
1508,157800.0,-5.50349235534668,8.61176872253418,-0.007178467698395251
1509,157900.0,-5.50349235534668,8.61176872253418,-0.007178467698395251
1510,158000.0,-6.26440954208374,6.953542709350586,-2.2612173557281494
1511,158100.0,-6.26440954208374,6.953542709350586,-2.2612173557281494
1512,158200.0,-6.26440954208374,6.953542709350586,-2.2612173557281494
1513,158300.0,-5.594419479370117,7.190432548522949,-3.608376264572144
1514,158400.0,-5.594419479370117,7.190432548522949,-3.608376264572144
1515,158500.0,-5.61834716796875,7.125825881958008,-4.3405799865722665
1516,158600.0,-5.61834716796875,7.125825881958008,-4.3405799865722665
1517,158700.0,-5.61834716796875,7.125825881958008,-4.3405799865722665
1518,158800.0,-5.000998973846436,6.439085483551025,-5.489135265350342
1519,158900.0,-5.000998973846436,6.439085483551025,-5.489135265350342
1520,159000.0,-5.771488666534424,6.005984783172607,-5.307280540466309
1521,159100.0,-5.771488666534424,6.005984783172607,-5.307280540466309
1522,159200.0,-6.010770320892334,5.343173027038574,-5.599205493927002
1523,159300.0,-6.010770320892334,5.343173027038574,-5.599205493927002
1524,159400.0,-5.7619171142578125,4.029513359069823,-6.403193473815918
1525,159500.0,-5.7619171142578125,4.029513359069823,-6.403193473815918
1526,159600.0,-5.857630252838135,4.4004011154174805,-6.15673303604126
1527,159700.0,-5.857630252838135,4.4004011154174805,-6.15673303604126
1528,159800.0,-5.857630252838135,4.4004011154174805,-6.15673303604126
1529,159900.0,-6.068198204040527,4.9387855529785165,-6.0466628074646
1530,160000.0,-6.068198204040527,4.9387855529785165,-6.0466628074646
1531,160100.0,-6.283552646636963,4.101297855377196,-6.611368656158447
1532,160200.0,-6.283552646636963,4.101297855377196,-6.611368656158447
1533,160300.0,-5.924628734588622,5.45563554763794,-6.443871021270753
1534,160400.0,-5.924628734588622,5.45563554763794,-6.443871021270753
1535,160500.0,-5.924628734588622,5.45563554763794,-6.443871021270753
1536,160600.0,-4.780859470367432,3.531806230545044,-8.126025199890138
1537,160700.0,-4.780859470367432,3.531806230545044,-8.126025199890138
1538,160800.0,-5.350350856781006,3.3786656856536865,-7.379465103149414
1539,160900.0,-5.350350856781006,3.3786656856536865,-7.379465103149414
1540,161000.0,-4.3166518211364755,6.410372257232666,-6.9320068359375
1541,161100.0,-4.3166518211364755,6.410372257232666,-6.9320068359375
1542,161200.0,-4.3166518211364755,6.410372257232666,-6.9320068359375
1543,161300.0,-3.948157548904419,6.128018856048584,-6.077769756317139
1544,161400.0,-3.948157548904419,6.128018856048584,-6.077769756317139
1545,161500.0,-3.7184462547302246,7.7455668449401855,-6.041877269744872
1546,161600.0,-3.7184462547302246,7.7455668449401855,-6.041877269744872
1547,161700.0,-3.7663028240203857,6.664010524749756,-6.80040168762207
1548,161800.0,-3.7663028240203857,6.664010524749756,-6.80040168762207
1549,161900.0,-3.7663028240203857,6.664010524749756,-6.80040168762207
1550,162000.0,-4.067798614501953,6.1878395080566415,-6.668797016143799
1551,162100.0,-4.067798614501953,6.1878395080566415,-6.668797016143799
1552,162200.0,-3.598805427551269,6.65204668045044,-5.388636112213135
1553,162300.0,-3.598805427551269,6.65204668045044,-5.388636112213135
1554,162400.0,-3.996013641357422,8.035098075866701,-3.617947816848755
1555,162500.0,-3.996013641357422,8.035098075866701,-3.617947816848755
1556,162600.0,-3.996013641357422,8.035098075866701,-3.617947816848755
1557,162700.0,-4.225724697113037,6.857830047607423,-4.919642925262451
1558,162800.0,-4.225724697113037,6.857830047607423,-4.919642925262451
1559,162900.0,-5.120640754699707,4.838287353515625,-6.230910301208496
1560,163000.0,-5.120640754699707,4.838287353515625,-6.230910301208496
1561,163100.0,-4.0390844345092765,5.438885688781738,-6.453442573547362
1562,163200.0,-4.0390844345092765,5.438885688781738,-6.453442573547362
1563,163300.0,-4.369294166564941,6.893722057342528,-5.55852746963501
1564,163400.0,-4.369294166564941,6.893722057342528,-5.55852746963501
1565,163500.0,-4.369294166564941,6.893722057342528,-5.55852746963501
1566,163600.0,-5.910271644592285,2.1583259105682373,-7.278966426849365
1567,163700.0,-5.910271644592285,2.1583259105682373,-7.278966426849365
1568,163800.0,-5.948556900024414,2.2923240661621094,-7.762316703796388
1569,163900.0,-5.948556900024414,2.2923240661621094,-7.762316703796388
1570,164000.0,-6.049055576324463,3.122633695602417,-7.051648139953612
1571,164100.0,-6.049055576324463,3.122633695602417,-7.051648139953612
1572,164200.0,-6.049055576324463,3.122633695602417,-7.051648139953612
1573,164300.0,-4.570291519165039,3.31166672706604,-8.48734188079834
1574,164400.0,-4.570291519165039,3.31166672706604,-8.48734188079834
1575,164500.0,-4.871786594390869,3.7351961135864262,-7.544569969177246
1576,164600.0,-4.871786594390869,3.7351961135864262,-7.544569969177246
1577,164700.0,-6.6903319358825675,2.414358139038086,-6.843472957611084
1578,164800.0,-6.6903319358825675,2.414358139038086,-6.843472957611084
1579,164900.0,-4.642076015472412,4.409972190856934,-6.632904052734375
1580,165000.0,-4.642076015472412,4.409972190856934,-6.632904052734375
1581,165100.0,-4.642076015472412,4.409972190856934,-6.632904052734375
1582,165200.0,-4.4506497383117685,1.289731502532959,-7.680960178375244
1583,165300.0,-4.4506497383117685,1.289731502532959,-7.680960178375244
1584,165400.0,-4.565505504608153,5.757131576538086,-7.527820110321045
1585,165500.0,-4.565505504608153,5.757131576538086,-7.527820110321045
1586,165600.0,-4.01037073135376,8.176274299621582,-3.711267709732056
1587,165700.0,-4.01037073135376,8.176274299621582,-3.711267709732056
1588,165800.0,-4.388436794281007,6.51326322555542,-5.8887367248535165
1589,165900.0,-4.388436794281007,6.51326322555542,-5.8887367248535165
1590,166000.0,-4.388436794281007,6.51326322555542,-5.8887367248535165
1591,166100.0,-3.7710886001586914,4.096512317657472,-8.051848411560059
1592,166200.0,-3.7710886001586914,4.096512317657472,-8.051848411560059
1593,166300.0,-3.670589685440064,6.6281185150146475,-5.6542396545410165
1594,166400.0,-3.670589685440064,6.6281185150146475,-5.6542396545410165
1595,166500.0,-4.163511276245116,8.405985832214355,-3.290131092071533
1596,166600.0,-4.163511276245116,8.405985832214355,-3.290131092071533
1597,166700.0,-4.163511276245116,8.405985832214355,-3.290131092071533
1598,166800.0,-4.034298896789552,8.358129501342772,-3.933800458908081
1599,166900.0,-4.034298896789552,8.358129501342772,-3.933800458908081
1600,167000.0,-4.666004180908203,5.776273727416992,-5.7403812408447275
1601,167100.0,-4.666004180908203,5.776273727416992,-5.7403812408447275
1602,167200.0,-4.6995038986206055,4.194617748260498,-7.300501823425293
1603,167300.0,-4.6995038986206055,4.194617748260498,-7.300501823425293
1604,167400.0,-4.6995038986206055,4.194617748260498,-7.300501823425293
1605,167500.0,-4.718646049499512,4.3453660011291495,-8.001599311828612
1606,167600.0,-4.718646049499512,4.3453660011291495,-8.001599311828612
1607,167700.0,-4.847858428955078,4.902893543243408,-6.527620315551758
1608,167800.0,-4.847858428955078,4.902893543243408,-6.527620315551758
1609,167900.0,-5.06799840927124,5.216352939605713,-7.15932559967041
1610,168000.0,-5.06799840927124,5.216352939605713,-7.15932559967041
1611,168100.0,-5.06799840927124,5.216352939605713,-7.15932559967041
1612,168200.0,-5.680561065673827,3.562912940979004,-5.931807041168213
1613,168300.0,-5.680561065673827,3.562912940979004,-5.931807041168213
1614,168400.0,-5.331209182739258,6.252446174621582,-5.800201892852782
1615,168500.0,-5.331209182739258,6.252446174621582,-5.800201892852782
1616,168600.0,-5.029713153839111,6.111269474029541,-6.2189459800720215
1617,168700.0,-5.029713153839111,6.111269474029541,-6.2189459800720215
1618,168800.0,-5.029713153839111,6.111269474029541,-6.2189459800720215
1619,168900.0,-5.307280540466309,4.783252716064453,-6.788437843322754
1620,169000.0,-5.307280540466309,4.783252716064453,-6.788437843322754
1621,169100.0,-5.5274200439453125,3.366701364517212,-7.604390144348144
1622,169200.0,-5.5274200439453125,3.366701364517212,-7.604390144348144
1623,169300.0,-4.264009952545166,1.4141581058502195,-8.209774017333983
1624,169400.0,-4.264009952545166,1.4141581058502195,-8.209774017333983
1625,169500.0,-3.0771698951721187,1.8664016723632808,-9.633503913879396
1626,169600.0,-3.0771698951721187,1.8664016723632808,-9.633503913879396
1627,169700.0,-3.0771698951721187,1.8664016723632808,-9.633503913879396
1628,169800.0,-5.8097734451293945,0.6652047038078308,-7.515855312347412
1629,169900.0,-5.8097734451293945,0.6652047038078308,-7.515855312347412
1630,170000.0,-5.292923927307129,2.675175428390503,-8.030312538146973
1631,170100.0,-5.292923927307129,2.675175428390503,-8.030312538146973
1632,170200.0,-3.785445213317871,3.3523442745208736,-8.456235885620117
1633,170300.0,-3.785445213317871,3.3523442745208736,-8.456235885620117
1634,170400.0,-3.785445213317871,3.3523442745208736,-8.456235885620117
1635,170500.0,-5.3551368713378915,2.864208698272705,-7.5469627380371085
1636,170600.0,-5.3551368713378915,2.864208698272705,-7.5469627380371085
1637,170700.0,-4.369294166564941,2.3976082801818848,-8.477770805358888
1638,170800.0,-4.369294166564941,2.3976082801818848,-8.477770805358888
1639,170900.0,-4.1347975730896005,0.5742774605751038,-8.382057189941406
1640,171000.0,-4.1347975730896005,0.5742774605751038,-8.382057189941406
1641,171100.0,-4.096512317657472,8.807979583740234,-3.445664882659912
1642,171200.0,-4.096512317657472,8.807979583740234,-3.445664882659912
1643,171300.0,-4.096512317657472,8.807979583740234,-3.445664882659912
1644,171400.0,-4.177868366241455,8.642874717712402,-2.4981069564819336
1645,171500.0,-4.177868366241455,8.642874717712402,-2.4981069564819336
1646,171600.0,-4.713860511779785,9.250652313232422,-0.6101697683334351
1647,171700.0,-4.713860511779785,9.250652313232422,-0.6101697683334351
1648,171800.0,-5.359922409057617,7.8652076721191415,-2.026720762252808
1649,171900.0,-5.359922409057617,7.8652076721191415,-2.026720762252808
1650,172000.0,-5.359922409057617,7.8652076721191415,-2.026720762252808
1651,172100.0,-5.986842632293701,7.45364236831665,-2.452643394470215
1652,172200.0,-5.986842632293701,7.45364236831665,-2.452643394470215
1653,172300.0,-6.149554252624513,6.9583282470703125,-2.411965131759644
1654,172400.0,-6.149554252624513,6.9583282470703125,-2.411965131759644
1655,172500.0,-6.02512788772583,7.795816421508789,-0.5647061467170715
1656,172600.0,-6.02512788772583,7.795816421508789,-0.5647061467170715
1657,172700.0,-4.790431022644043,8.094919204711914,-3.4815566539764404
1658,172800.0,-4.790431022644043,8.094919204711914,-3.4815566539764404
1659,172900.0,-4.790431022644043,8.094919204711914,-3.4815566539764404
1660,173000.0,-4.153940200805663,9.135796546936037,-1.3854442834854126
1661,173100.0,-4.153940200805663,9.135796546936037,-1.3854442834854126
1662,173200.0,-4.498506546020508,8.389235496520996,-1.392622709274292
1663,173300.0,-4.498506546020508,8.389235496520996,-1.392622709274292
1664,173400.0,-4.541577339172363,8.590232849121094,-1.411765456199646
1665,173500.0,-4.541577339172363,8.590232849121094,-1.411765456199646
1666,173600.0,-4.541577339172363,8.590232849121094,-1.411765456199646
1667,173700.0,-4.321437358856201,8.987441062927246,-1.1270195245742798
1668,173800.0,-4.321437358856201,8.987441062927246,-1.1270195245742798
1669,173900.0,-4.632504463195801,8.209774017333983,-3.4743783473968506
1670,174000.0,-4.632504463195801,8.209774017333983,-3.4743783473968506
1671,174100.0,-6.479763507843018,1.7324036359786987,-6.939186096191406
1672,174200.0,-6.479763507843018,1.7324036359786987,-6.939186096191406
1673,174300.0,-6.479763507843018,1.7324036359786987,-6.939186096191406
1674,174400.0,-4.5032920837402335,3.893122434616089,-8.214560508728027
1675,174500.0,-4.5032920837402335,3.893122434616089,-8.214560508728027
1676,174600.0,-3.129812002182007,2.447857618331909,-9.528220176696776
1677,174700.0,-3.129812002182007,2.447857618331909,-9.528220176696776
1678,174800.0,-3.6131620407104488,1.8831514120101929,-8.827122688293457
1679,174900.0,-3.6131620407104488,1.8831514120101929,-8.827122688293457
1680,175000.0,-4.742574691772461,4.304687976837158,-6.494120597839356
1681,175100.0,-4.742574691772461,4.304687976837158,-6.494120597839356
1682,175200.0,-4.742574691772461,4.304687976837158,-6.494120597839356
1683,175300.0,-3.847658634185791,3.3619158267974854,-8.551947593688965
1684,175400.0,-3.847658634185791,3.3619158267974854,-8.551947593688965
1685,175500.0,-4.3310089111328125,1.2251251935958862,-7.003791332244872
1686,175600.0,-4.3310089111328125,1.2251251935958862,-7.003791332244872
1687,175700.0,-4.3310089111328125,1.2251251935958862,-7.003791332244872
1688,175800.0,-5.005784511566162,2.6560330390930176,-7.180860996246338
1689,175900.0,-5.005784511566162,2.6560330390930176,-7.180860996246338
1690,176000.0,-4.019941806793213,1.7371891736984253,-9.107083320617676
1691,176100.0,-4.019941806793213,1.7371891736984253,-9.107083320617676
1692,176200.0,-4.8191447257995605,1.519442439079285,-6.6903319358825675
1693,176300.0,-4.8191447257995605,1.519442439079285,-6.6903319358825675
1694,176400.0,-5.034498691558838,1.6654045581817627,-6.412764549255371
1695,176500.0,-5.034498691558838,1.6654045581817627,-6.412764549255371
1696,176600.0,-5.034498691558838,1.6654045581817627,-6.412764549255371
1697,176700.0,-4.867001533508301,1.0528419017791748,-9.09272575378418
1698,176800.0,-4.867001533508301,1.0528419017791748,-9.09272575378418
1699,176900.0,-2.9383859634399414,0.9116654396057128,-9.078369140625
1700,177000.0,-2.9383859634399414,0.9116654396057128,-9.078369140625
1701,177100.0,-2.9383859634399414,0.9116654396057128,-9.078369140625
1702,177200.0,-3.359522819519043,0.969093143939972,-10.569098472595217
1703,177300.0,-3.359522819519043,0.969093143939972,-10.569098472595217
1704,177400.0,-4.862215518951416,3.4289150238037114,-7.640282154083253
1705,177500.0,-4.862215518951416,3.4289150238037114,-7.640282154083253
1706,177600.0,-4.651647090911865,2.651247262954712,-7.676175117492676
1707,177700.0,-4.651647090911865,2.651247262954712,-7.676175117492676
1708,177800.0,-4.29750919342041,1.0480562448501587,-7.080362319946289
1709,177900.0,-4.29750919342041,1.0480562448501587,-7.080362319946289
1710,178000.0,-4.29750919342041,1.0480562448501587,-7.080362319946289
1711,178100.0,-3.833301782608032,5.962913990020753,-6.056234359741211
1712,178200.0,-3.833301782608032,5.962913990020753,-6.056234359741211
1713,178300.0,-4.2448673248291025,7.393822193145753,-4.9435715675354
1714,178400.0,-4.2448673248291025,7.393822193145753,-4.9435715675354
1715,178500.0,-4.0869412422180185,8.154739379882812,-3.32602334022522
1716,178600.0,-4.0869412422180185,8.154739379882812,-3.32602334022522
1717,178700.0,-4.0869412422180185,8.154739379882812,-3.32602334022522
1718,178800.0,-4.421936511993408,8.901299476623535,-1.2370892763137815
1719,178900.0,-4.421936511993408,8.901299476623535,-1.2370892763137815
1720,179000.0,-4.718646049499512,8.291130065917969,-1.6701902151107788
1721,179100.0,-4.718646049499512,8.291130065917969,-1.6701902151107788
1722,179200.0,-4.3453660011291495,9.008977890014648,-1.105484127998352
1723,179300.0,-4.3453660011291495,9.008977890014648,-1.105484127998352
