,timestamp,ax,ay,az
0,0.0,-8.988431930541992,-3.552995204925537,1.9309237003326416
1,200.0,-10.118494987487793,-3.75291109085083,1.0324994325637815
2,400.0,-4.273650169372559,-6.269217014312744,-5.383961200714111
3,600.0,-3.4997243881225586,-15.142128944396973,-3.8684313297271733
4,800.0,1.6675615310668943,-10.259753227233887,-1.5388731956481934
5,1000.0,-1.0642226934432983,-9.821015357971193,-1.513733983039856
6,1200.0,-1.600523829460144,-9.54209041595459,-0.9229647517204284
7,1400.0,1.7076643705368042,-10.723628997802734,-0.2890998423099518
8,1600.0,1.4562731981277466,-7.287351608276367,1.5125368833541868
9,1800.0,-2.085349798202514,-11.564592361450195,4.439448356628418
10,1000.0,-1.0642226934432983,-9.821015357971193,-1.513733983039856
11,1200.0,-1.600523829460144,-9.54209041595459,-0.9229647517204284
12,1400.0,1.7076643705368042,-10.723628997802734,-0.2890998423099518
13,1600.0,1.4562731981277466,-7.287351608276367,1.5125368833541868
14,1800.0,-2.085349798202514,-11.564592361450195,4.439448356628418
15,2000.0,-0.8667010068893433,-9.801861763000488,-0.011971008032560349
16,2200.0,0.28311434388160706,-9.739612579345703,0.3280056416988373
17,2400.0,-0.5937620401382446,-9.68155288696289,0.9558850526809692
18,2600.0,-0.29628247022628784,-9.64923095703125,0.333991140127182
19,2800.0,-0.5213374495506287,-9.699509620666504,0.7601590156555176
20,2000.0,-0.8667010068893433,-9.801861763000488,-0.011971008032560349
21,2200.0,0.28311434388160706,-9.739612579345703,0.3280056416988373
22,2400.0,-0.5937620401382446,-9.68155288696289,0.9558850526809692
23,2600.0,-0.29628247022628784,-9.64923095703125,0.333991140127182
24,2800.0,-0.5213374495506287,-9.699509620666504,0.7601590156555176
25,3000.0,-0.25977087020874023,-9.521739959716797,-0.2609679996967316
26,3200.0,-0.7559691667556763,-9.774927139282227,0.5961562395095825
27,3400.0,-0.4010287821292877,-9.619303703308104,0.07242459803819656
28,3600.0,0.1412578970193863,-9.662399291992188,0.3998316824436188
29,3800.0,-0.5428852438926697,-9.570222854614258,0.2501940727233887
30,3000.0,-0.25977087020874023,-9.521739959716797,-0.2609679996967316
31,3200.0,-0.7559691667556763,-9.774927139282227,0.5961562395095825
32,3400.0,-0.4010287821292877,-9.619303703308104,0.07242459803819656
33,3600.0,0.1412578970193863,-9.662399291992188,0.3998316824436188
34,3800.0,-0.5428852438926697,-9.570222854614258,0.2501940727233887
35,4000.0,-0.4770447015762329,-9.604340553283693,0.6087257862091064
36,4200.0,-0.21847090125083926,-9.623494148254396,0.596754789352417
37,4400.0,-0.3866635859012604,-9.633668899536133,0.3064578175544739
38,4600.0,-0.3471592366695404,-9.673172950744627,0.3561375141143799
39,4800.0,-0.3603273630142212,-9.634865760803224,0.3298012912273407
40,4000.0,-0.4770447015762329,-9.604340553283693,0.6087257862091064
41,4200.0,-0.21847090125083926,-9.623494148254396,0.596754789352417
42,4400.0,-0.3866635859012604,-9.633668899536133,0.3064578175544739
43,4600.0,-0.3471592366695404,-9.673172950744627,0.3561375141143799
44,4800.0,-0.3603273630142212,-9.634865760803224,0.3298012912273407
45,5000.0,-0.3663128614425659,-9.610923767089844,0.36571431159973145
46,5200.0,-0.3112462162971497,-9.644442558288574,0.3010708689689636
47,5400.0,-0.4405331015586853,-9.651026725769043,0.2998737692832947
48,5600.0,-0.1867477297782898,-9.674370765686037,0.5847837924957275
49,5800.0,-0.2585737705230713,-9.645041465759276,0.1759738177061081
50,5000.0,-0.3663128614425659,-9.610923767089844,0.36571431159973145
51,5200.0,-0.3112462162971497,-9.644442558288574,0.3010708689689636
52,5400.0,-0.4405331015586853,-9.651026725769043,0.2998737692832947
53,5600.0,-0.1867477297782898,-9.674370765686037,0.5847837924957275
54,5800.0,-0.2585737705230713,-9.645041465759276,0.1759738177061081
55,6000.0,-0.10534487664699554,-9.639654159545898,0.2974795699119568
56,6200.0,-0.3286041915416717,-9.588777542114258,0.5835866928100586
57,6400.0,-0.0975637212395668,-9.579200744628906,0.11133038252592088
58,6600.0,-0.15801730751991272,-9.650428771972656,0.3076549172401428
59,6800.0,-0.20709845423698425,-9.656414031982422,0.14784196019172668
60,6000.0,-0.10534487664699554,-9.639654159545898,0.2974795699119568
61,6200.0,-0.3286041915416717,-9.588777542114258,0.5835866928100586
62,6400.0,-0.0975637212395668,-9.579200744628906,0.11133038252592088
63,6600.0,-0.15801730751991272,-9.650428771972656,0.3076549172401428
64,6800.0,-0.20709845423698425,-9.656414031982422,0.14784196019172668
65,7000.0,-0.3896563351154328,-9.59835433959961,0.4135983288288117
66,7200.0,-0.25318682193756104,-9.640253067016602,0.28371289372444153
67,7400.0,-0.23283611238002774,-9.661202430725098,0.3693056106567383
68,7600.0,-0.33997663855552673,-9.639056205749512,0.3058592677116394
69,7800.0,-0.14844051003456116,-9.622895240783693,0.36511576175689703
70,7000.0,-0.3896563351154328,-9.59835433959961,0.4135983288288117
71,7200.0,-0.25318682193756104,-9.640253067016602,0.28371289372444153
72,7400.0,-0.23283611238002774,-9.661202430725098,0.3693056106567383
73,7600.0,-0.33997663855552673,-9.639056205749512,0.3058592677116394
74,7800.0,-0.14844051003456116,-9.622895240783693,0.36511576175689703
75,8000.0,-0.2064998894929886,-9.601945877075195,0.24839842319488525
76,8200.0,-0.16340427100658414,-9.631275177001953,0.3477577865123749
77,8400.0,-0.2286462634801865,-9.72285270690918,0.4734533727169037
78,8600.0,-0.4644751250743866,-9.618106842041016,0.2352303117513657
79,8800.0,-0.547075092792511,-9.609726905822754,0.4411316514015198
80,8000.0,-0.2064998894929886,-9.601945877075195,0.24839842319488525
81,8200.0,-0.16340427100658414,-9.631275177001953,0.3477577865123749
82,8400.0,-0.2286462634801865,-9.72285270690918,0.4734533727169037
83,8600.0,-0.4644751250743866,-9.618106842041016,0.2352303117513657
84,8800.0,-0.547075092792511,-9.609726905822754,0.4411316514015198
85,9000.0,-0.24181437492370605,-9.672574996948242,0.3250128924846649
86,9200.0,-0.323815792798996,-9.633070945739746,0.4010287821292877
87,9400.0,-0.3369838893413544,-9.599552154541016,0.15023615956306458
88,9600.0,-0.4171896576881409,-9.649829864501953,0.3405751883983612
89,9800.0,-0.6117185354232788,-9.710283279418944,0.3830722570419312
90,9000.0,-0.24181437492370605,-9.672574996948242,0.3250128924846649
91,9200.0,-0.323815792798996,-9.633070945739746,0.4010287821292877
92,9400.0,-0.3369838893413544,-9.599552154541016,0.15023615956306458
93,9600.0,-0.4171896576881409,-9.649829864501953,0.3405751883983612
94,9800.0,-0.6117185354232788,-9.710283279418944,0.3830722570419312
95,10000.0,-0.8188169598579407,-9.518747329711914,-0.05386953800916672
96,10200.0,-0.05327098816633225,-9.580398559570312,0.015562310814857485
97,10400.0,-0.152031809091568,-9.633668899536133,0.4608838260173798
98,10600.0,0.11851298063993455,-9.599552154541016,0.12509703636169436
99,10800.0,-0.6087257862091064,-9.69651699066162,0.17298106849193573
100,10000.0,-0.8188169598579407,-9.518747329711914,-0.05386953800916672
101,10200.0,-0.05327098816633225,-9.580398559570312,0.015562310814857485
102,10400.0,-0.152031809091568,-9.633668899536133,0.4608838260173798
103,10600.0,0.11851298063993455,-9.599552154541016,0.12509703636169436
104,10800.0,-0.6087257862091064,-9.69651699066162,0.17298106849193573
105,11000.0,0.3968389332294464,-9.95090103149414,1.3407529592514038
106,11200.0,-0.12629413604736328,-9.700706481933594,0.2340332120656967
107,11400.0,-0.5129576921463013,-9.497797966003418,-0.4806360006332398
108,11600.0,0.18734627962112427,-9.624691009521484,0.06763619929552077
109,11800.0,0.08200141042470932,-9.740211486816406,0.05446808785200119
110,11000.0,0.3968389332294464,-9.95090103149414,1.3407529592514038
111,11200.0,-0.12629413604736328,-9.700706481933594,0.2340332120656967
112,11400.0,-0.5129576921463013,-9.497797966003418,-0.4806360006332398
113,11600.0,0.18734627962112427,-9.624691009521484,0.06763619929552077
114,11800.0,0.08200141042470932,-9.740211486816406,0.05446808785200119
115,12000.0,-0.3052607178688049,-9.587580680847168,0.021547814831137657
116,12200.0,-0.061650693416595466,-9.636063575744627,0.35913026332855225
117,12400.0,-0.014365210197865963,-9.659406661987305,0.21368250250816345
118,12600.0,-0.23762452602386475,-9.640851974487305,0.1711854189634323
119,12800.0,0.061650693416595466,-9.695320129394533,0.5488707423210144
120,12000.0,-0.3052607178688049,-9.587580680847168,0.021547814831137657
121,12200.0,-0.061650693416595466,-9.636063575744627,0.35913026332855225
122,12400.0,-0.014365210197865963,-9.659406661987305,0.21368250250816345
123,12600.0,-0.23762452602386475,-9.640851974487305,0.1711854189634323
124,12800.0,0.061650693416595466,-9.695320129394533,0.5488707423210144
125,13000.0,-0.2890998423099518,-9.649829864501953,0.2513911724090576
126,13200.0,-0.4291606545448303,-9.64923095703125,0.3645172119140625
127,13400.0,-0.1173158809542656,-9.670180320739746,0.30047231912612915
128,13600.0,-0.2885012924671173,-9.636063575744627,0.3812766075134277
129,13800.0,-0.4614823758602142,-9.582792282104492,0.2495955228805542
130,13000.0,-0.2890998423099518,-9.649829864501953,0.2513911724090576
131,13200.0,-0.4291606545448303,-9.64923095703125,0.3645172119140625
132,13400.0,-0.1173158809542656,-9.670180320739746,0.30047231912612915
133,13600.0,-0.2885012924671173,-9.636063575744627,0.3812766075134277
134,13800.0,-0.4614823758602142,-9.582792282104492,0.2495955228805542
135,14000.0,-0.3166331648826599,-9.622296333312988,0.10953472554683684
136,14200.0,-0.08439560979604721,-9.576208114624023,0.198120191693306
137,14400.0,-0.2082955539226532,-9.662399291992188,0.487220048904419
138,14600.0,-0.034117374569177635,-9.66419506072998,0.4979939460754394
139,14800.0,-0.22625206410884854,-9.566033363342283,0.12090718746185306
140,14000.0,-0.3166331648826599,-9.622296333312988,0.10953472554683684
141,14200.0,-0.08439560979604721,-9.576208114624023,0.198120191693306
142,14400.0,-0.2082955539226532,-9.662399291992188,0.487220048904419
143,14600.0,-0.034117374569177635,-9.66419506072998,0.4979939460754394
144,14800.0,-0.22625206410884854,-9.566033363342283,0.12090718746185306
145,15000.0,-0.3734954595565796,-9.67077922821045,0.5123591423034668
146,15200.0,-0.2388216257095337,-9.68813705444336,0.26994624733924866
147,15400.0,-0.05386953800916672,-9.610923767089844,0.3106476664543152
148,15600.0,-0.3806780576705933,-9.725247383117676,0.7422025203704834
149,15800.0,-0.16639702022075653,-9.557653427124023,0.1843535304069519
150,15000.0,-0.3734954595565796,-9.67077922821045,0.5123591423034668
151,15200.0,-0.2388216257095337,-9.68813705444336,0.26994624733924866
152,15400.0,-0.05386953800916672,-9.610923767089844,0.3106476664543152
153,15600.0,-0.3806780576705933,-9.725247383117676,0.7422025203704834
154,15800.0,-0.16639702022075653,-9.557653427124023,0.1843535304069519
155,16000.0,-0.19692309200763705,-9.59057331085205,0.3896563351154328
156,16200.0,-0.11013327538967133,-9.668983459472656,0.6093243360519409
157,16400.0,-0.426167905330658,-9.610325813293457,0.6727706789970398
158,16600.0,-0.0736217051744461,-9.57979965209961,0.3519476354122162
159,16800.0,-0.11432313174009325,-9.619303703308104,0.5069721937179565
160,16000.0,-0.19692309200763705,-9.59057331085205,0.3896563351154328
161,16200.0,-0.11013327538967133,-9.668983459472656,0.6093243360519409
162,16400.0,-0.426167905330658,-9.610325813293457,0.6727706789970398
163,16600.0,-0.0736217051744461,-9.57979965209961,0.3519476354122162
164,16800.0,-0.11432313174009325,-9.619303703308104,0.5069721937179565
165,17000.0,-0.23283611238002774,-9.628880500793457,0.4351461529731751
166,17200.0,-0.20769700407981875,-9.603741645812988,0.3830722570419312
167,17400.0,-0.17238251864910126,-9.62947940826416,0.4399345517158508
168,17600.0,-0.09397241473197936,-9.631275177001953,0.4351461529731751
169,17800.0,-0.14784196019172668,-9.606135368347168,0.5105634927749634
170,17000.0,-0.23283611238002774,-9.628880500793457,0.4351461529731751
171,17200.0,-0.20769700407981875,-9.603741645812988,0.3830722570419312
172,17400.0,-0.17238251864910126,-9.62947940826416,0.4399345517158508
173,17600.0,-0.09397241473197936,-9.631275177001953,0.4351461529731751
174,17800.0,-0.14784196019172668,-9.606135368347168,0.5105634927749634
175,18000.0,-0.21428105235099792,-9.634865760803224,0.3908534348011017
176,18200.0,-0.24181437492370605,-9.576208114624023,0.3998316824436188
177,18400.0,0.09457096457481384,-9.642048835754396,0.4967968463897705
178,18600.0,0.055665191262960434,-9.660005569458008,0.396240383386612
179,18800.0,-0.1472434103488922,-9.592369079589844,0.3920505344867706
180,18000.0,-0.21428105235099792,-9.634865760803224,0.3908534348011017
181,18200.0,-0.24181437492370605,-9.576208114624023,0.3998316824436188
182,18400.0,0.09457096457481384,-9.642048835754396,0.4967968463897705
183,18600.0,0.055665191262960434,-9.660005569458008,0.396240383386612
184,18800.0,-0.1472434103488922,-9.592369079589844,0.3920505344867706
185,19000.0,-0.1885433793067932,-9.68813705444336,0.4806360006332398
186,19200.0,-0.15442600846290588,-9.67077922821045,0.27413609623909
187,19400.0,-0.08858546614646913,-9.596558570861816,0.2789244949817657
188,19600.0,-0.2495955228805542,-9.616311073303224,0.3555389642715454
189,19800.0,-0.20530278980731964,-9.643245697021484,0.4985924959182739
190,19000.0,-0.1885433793067932,-9.68813705444336,0.4806360006332398
191,19200.0,-0.15442600846290588,-9.67077922821045,0.27413609623909
192,19400.0,-0.08858546614646913,-9.596558570861816,0.2789244949817657
193,19600.0,-0.2495955228805542,-9.616311073303224,0.3555389642715454
194,19800.0,-0.20530278980731964,-9.643245697021484,0.4985924959182739
195,20000.0,-0.20769700407981875,-9.661202430725098,0.5105634927749634
196,20200.0,-0.19692309200763705,-9.643245697021484,0.6039373874664307
197,20400.0,0.14604631066322327,-9.667187690734863,0.3561375141143799
198,20600.0,-0.4016273319721222,-9.630077362060547,0.4914098978042602
199,20800.0,-0.33339259028434753,-9.628880500793457,0.4423287510871887
200,20000.0,-0.20769700407981875,-9.661202430725098,0.5105634927749634
201,20200.0,-0.19692309200763705,-9.643245697021484,0.6039373874664307
202,20400.0,0.14604631066322327,-9.667187690734863,0.3561375141143799
203,20600.0,-0.4016273319721222,-9.630077362060547,0.4914098978042602
204,20800.0,-0.33339259028434753,-9.628880500793457,0.4423287510871887
205,21000.0,-0.16879121959209442,-9.647436141967773,0.465073674917221
206,21200.0,-0.10773907601833344,-9.615114212036133,0.405218631029129
207,21400.0,-0.228047713637352,-9.571419715881348,0.1538274586200714
208,21600.0,-0.13766659796237946,-9.618106842041016,0.5129576921463013
209,21800.0,-0.17537526786327362,-9.601945877075195,0.22445641458034515
210,21000.0,-0.16879121959209442,-9.647436141967773,0.465073674917221
211,21200.0,-0.10773907601833344,-9.615114212036133,0.405218631029129
212,21400.0,-0.228047713637352,-9.571419715881348,0.1538274586200714
213,21600.0,-0.13766659796237946,-9.618106842041016,0.5129576921463013
214,21800.0,-0.17537526786327362,-9.601945877075195,0.22445641458034515
215,22000.0,-0.16819266974925995,-9.617507934570312,0.4255693554878235
216,22200.0,0.07302315533161162,-9.622296333312988,0.166995570063591
217,22400.0,-0.22445641458034515,-9.616311073303224,0.3286041915416717
218,22600.0,0.1693897694349289,-9.603741645812988,0.15502455830574036
219,22800.0,0.028131870552897453,-9.655217170715332,0.29568392038345337
220,22000.0,-0.16819266974925995,-9.617507934570312,0.4255693554878235
221,22200.0,0.07302315533161162,-9.622296333312988,0.166995570063591
222,22400.0,-0.22445641458034515,-9.616311073303224,0.3286041915416717
223,22600.0,0.1693897694349289,-9.603741645812988,0.15502455830574036
224,22800.0,0.028131870552897453,-9.655217170715332,0.29568392038345337
225,23000.0,-0.3190273642539978,-9.63187313079834,0.4357447028160095
226,23200.0,0.13108254969120026,-9.671976089477539,0.4788403511047363
227,23400.0,-0.17896658182144165,-9.61870574951172,0.4231751561164856
228,23600.0,-0.4554968774318695,-9.637859344482422,0.4016273319721222
229,23800.0,-0.3118447661399841,-9.609726905822754,0.2914940714836121
230,23000.0,-0.3190273642539978,-9.63187313079834,0.4357447028160095
231,23200.0,0.13108254969120026,-9.671976089477539,0.4788403511047363
232,23400.0,-0.17896658182144165,-9.61870574951172,0.4231751561164856
233,23600.0,-0.4554968774318695,-9.637859344482422,0.4016273319721222
234,23800.0,-0.3118447661399841,-9.609726905822754,0.2914940714836121
235,24000.0,-0.25079262256622314,-9.62409210205078,0.3818751573562622
236,24200.0,0.0017956512747332454,-9.61870574951172,0.2908954918384552
237,24400.0,-0.1586158573627472,-9.654019355773926,0.4830302000045776
238,24600.0,-0.17058686912059784,-9.601346969604492,0.4489128291606903
239,24800.0,-0.07781155407428741,-9.60553741455078,0.3214215636253357
240,24000.0,-0.25079262256622314,-9.62409210205078,0.3818751573562622
241,24200.0,0.0017956512747332454,-9.61870574951172,0.2908954918384552
242,24400.0,-0.1586158573627472,-9.654019355773926,0.4830302000045776
243,24600.0,-0.17058686912059784,-9.601346969604492,0.4489128291606903
244,24800.0,-0.07781155407428741,-9.60553741455078,0.3214215636253357
245,25000.0,-0.12629413604736328,-9.61571216583252,0.4429273009300232
246,25200.0,-0.08200141042470932,-9.634267807006836,0.3298012912273407
247,25400.0,-0.35733461380004883,-9.618106842041016,0.3693056106567383
248,25600.0,-0.08379705995321274,-9.609726905822754,0.4459200799465179
249,25800.0,-0.15263035893440247,-9.606135368347168,0.4333505034446716
250,25000.0,-0.12629413604736328,-9.61571216583252,0.4429273009300232
251,25200.0,-0.08200141042470932,-9.634267807006836,0.3298012912273407
252,25400.0,-0.35733461380004883,-9.618106842041016,0.3693056106567383
253,25600.0,-0.08379705995321274,-9.609726905822754,0.4459200799465179
254,25800.0,-0.15263035893440247,-9.606135368347168,0.4333505034446716
255,26000.0,-0.2825157940387726,-9.654618263244627,0.5147533416748047
256,26200.0,0.1125274822115898,-9.636661529541016,0.2980781197547913
257,26400.0,-0.08439560979604721,-9.606135368347168,0.3381809890270233
258,26600.0,0.008978256024420261,-9.639056205749512,0.4429273009300232
259,26800.0,-0.14784196019172668,-9.637859344482422,0.4740519225597382
260,26000.0,-0.2825157940387726,-9.654618263244627,0.5147533416748047
261,26200.0,0.1125274822115898,-9.636661529541016,0.2980781197547913
262,26400.0,-0.08439560979604721,-9.606135368347168,0.3381809890270233
263,26600.0,0.008978256024420261,-9.639056205749512,0.4429273009300232
264,26800.0,-0.14784196019172668,-9.637859344482422,0.4740519225597382
265,27000.0,0.07122749835252762,-9.61571216583252,0.3471592366695404
266,27200.0,-0.16759411990642548,-9.692327499389648,0.4926069974899292
267,27400.0,-0.41120412945747375,-9.627084732055664,0.44412440061569214
268,27600.0,-0.2047042399644852,-9.618106842041016,0.4351461529731751
269,27800.0,0.32441434264183044,-9.666589736938477,0.37169981002807617
270,27000.0,0.07122749835252762,-9.61571216583252,0.3471592366695404
271,27200.0,-0.16759411990642548,-9.692327499389648,0.4926069974899292
272,27400.0,-0.41120412945747375,-9.627084732055664,0.44412440061569214
273,27600.0,-0.2047042399644852,-9.618106842041016,0.4351461529731751
274,27800.0,0.32441434264183044,-9.666589736938477,0.37169981002807617
275,28000.0,-0.25318682193756104,-9.623494148254396,0.3866635859012604
276,28200.0,-0.166995570063591,-9.595361709594727,0.31364041566848755
277,28400.0,0.0694318488240242,-9.619303703308104,0.4321534037590027
278,28600.0,-0.3645172119140625,-9.611522674560547,0.4321534037590027
279,28800.0,-0.2795230448246002,-9.613917350769043,0.5488707423210144
280,28000.0,-0.25318682193756104,-9.623494148254396,0.3866635859012604
281,28200.0,-0.166995570063591,-9.595361709594727,0.31364041566848755
282,28400.0,0.0694318488240242,-9.619303703308104,0.4321534037590027
283,28600.0,-0.3645172119140625,-9.611522674560547,0.4321534037590027
284,28800.0,-0.2795230448246002,-9.613917350769043,0.5488707423210144
285,29000.0,-0.15442600846290588,-9.632472038269043,0.7074866294860841
286,29200.0,-0.3992331326007843,-9.5624418258667,0.4417302012443543
287,29400.0,-0.1801636815071106,-9.64683723449707,0.5351040959358215
288,29600.0,-0.3435679376125336,-9.573814392089844,0.2849099934101105
289,29800.0,-0.3208230137825012,-9.63187313079834,0.4836287498474121
290,29000.0,-0.15442600846290588,-9.632472038269043,0.7074866294860841
291,29200.0,-0.3992331326007843,-9.5624418258667,0.4417302012443543
292,29400.0,-0.1801636815071106,-9.64683723449707,0.5351040959358215
293,29600.0,-0.3435679376125336,-9.573814392089844,0.2849099934101105
294,29800.0,-0.3208230137825012,-9.63187313079834,0.4836287498474121
295,30000.0,-0.2603694200515747,-9.630077362060547,0.5422866940498352
296,30200.0,0.046088382601737976,-9.679757118225098,0.5494692921638489
297,30400.0,-0.5662286877632141,-9.621099472045898,0.5524620413780212
298,30600.0,0.1364694982767105,-9.663596153259276,0.4429273009300232
299,30800.0,-0.3854664862155914,-9.606135368347168,0.5614402890205383
300,30000.0,-0.2603694200515747,-9.630077362060547,0.5422866940498352
301,30200.0,0.046088382601737976,-9.679757118225098,0.5494692921638489
302,30400.0,-0.5662286877632141,-9.621099472045898,0.5524620413780212
303,30600.0,0.1364694982767105,-9.663596153259276,0.4429273009300232
304,30800.0,-0.3854664862155914,-9.606135368347168,0.5614402890205383
305,31000.0,-0.2908954918384552,-9.632472038269043,0.6751648783683777
306,31200.0,-0.14664486050605774,-9.56483554840088,0.4614823758602142
307,31400.0,-0.06823474913835527,-9.623494148254396,0.5590460896492004
308,31600.0,-0.2448071241378784,-9.59476375579834,0.4938040971755981
309,31800.0,-0.1454477459192276,-9.664793968200684,0.6799532771110535
310,31000.0,-0.2908954918384552,-9.632472038269043,0.6751648783683777
311,31200.0,-0.14664486050605774,-9.56483554840088,0.4614823758602142
312,31400.0,-0.06823474913835527,-9.623494148254396,0.5590460896492004
313,31600.0,-0.2448071241378784,-9.59476375579834,0.4938040971755981
314,31800.0,-0.1454477459192276,-9.664793968200684,0.6799532771110535
315,32000.0,-0.5105634927749634,-9.627683639526367,0.6518214344978333
316,32200.0,-0.3369838893413544,-9.642048835754396,0.6212953329086304
317,32400.0,-0.2148796021938324,-9.585784912109377,0.568622887134552
318,32600.0,-0.30705636739730835,-9.689932823181152,0.6404489278793335
319,32800.0,-0.2885012924671173,-9.5809965133667,0.3543418645858765
320,32000.0,-0.5105634927749634,-9.627683639526367,0.6518214344978333
321,32200.0,-0.3369838893413544,-9.642048835754396,0.6212953329086304
322,32400.0,-0.2148796021938324,-9.585784912109377,0.568622887134552
323,32600.0,-0.30705636739730835,-9.689932823181152,0.6404489278793335
324,32800.0,-0.2885012924671173,-9.5809965133667,0.3543418645858765
325,33000.0,-0.3896563351154328,-9.623494148254396,0.5506663918495178
326,33200.0,-0.24181437492370605,-9.622296333312988,0.345363587141037
327,33400.0,-0.2687491476535797,-9.674968719482422,0.5638344883918762
328,33600.0,-0.5129576921463013,-9.639654159545898,0.5674257874488831
329,33800.0,-0.12868833541870114,-9.61212158203125,0.4135983288288117
330,33000.0,-0.3896563351154328,-9.623494148254396,0.5506663918495178
331,33200.0,-0.24181437492370605,-9.622296333312988,0.345363587141037
332,33400.0,-0.2687491476535797,-9.674968719482422,0.5638344883918762
333,33600.0,-0.5129576921463013,-9.639654159545898,0.5674257874488831
334,33800.0,-0.12868833541870114,-9.61212158203125,0.4135983288288117
335,34000.0,-0.3603273630142212,-9.64803409576416,0.5147533416748047
336,34200.0,-0.5285200476646423,-9.558850288391113,0.5225345492362976
337,34400.0,-0.0975637212395668,-9.615114212036133,0.4764461517333984
338,34600.0,-0.1843535304069519,-9.558850288391113,0.3543418645858765
339,34800.0,-0.3519476354122162,-9.5809965133667,0.4351461529731751
340,34000.0,-0.3603273630142212,-9.64803409576416,0.5147533416748047
341,34200.0,-0.5285200476646423,-9.558850288391113,0.5225345492362976
342,34400.0,-0.0975637212395668,-9.615114212036133,0.4764461517333984
343,34600.0,-0.1843535304069519,-9.558850288391113,0.3543418645858765
344,34800.0,-0.3519476354122162,-9.5809965133667,0.4351461529731751
345,35000.0,-0.3896563351154328,-9.633668899536133,0.5752069354057312
346,35200.0,-0.2190694510936737,-9.582792282104492,0.3621230125427246
347,35400.0,-0.4938040971755981,-9.644442558288574,0.6542156338691711
348,35600.0,-0.19033902883529666,-9.658209800720217,0.6260837316513062
349,35800.0,0.008379706181585789,-9.63067626953125,0.5626373887062073
350,35000.0,-0.3896563351154328,-9.633668899536133,0.5752069354057312
351,35200.0,-0.2190694510936737,-9.582792282104492,0.3621230125427246
352,35400.0,-0.4938040971755981,-9.644442558288574,0.6542156338691711
353,35600.0,-0.19033902883529666,-9.658209800720217,0.6260837316513062
354,35800.0,0.008379706181585789,-9.63067626953125,0.5626373887062073
355,36000.0,-0.3728969097137451,-9.627683639526367,0.33937808871269226
356,36200.0,-0.2513911724090576,-9.596558570861816,0.426167905330658
357,36400.0,-0.3824737071990967,-9.601945877075195,0.3992331326007843
358,36600.0,-0.3531447649002075,-9.652822494506836,0.5716156363487244
359,36800.0,-0.09876082092523576,-9.591172218322754,0.23163901269435885
360,36000.0,-0.3728969097137451,-9.627683639526367,0.33937808871269226
361,36200.0,-0.2513911724090576,-9.596558570861816,0.426167905330658
362,36400.0,-0.3824737071990967,-9.601945877075195,0.3992331326007843
363,36600.0,-0.3531447649002075,-9.652822494506836,0.5716156363487244
364,36800.0,-0.09876082092523576,-9.591172218322754,0.23163901269435885
365,37000.0,-0.32261869311332697,-9.61331844329834,0.3369838893413544
366,37200.0,-0.2663549482822418,-9.607931137084961,0.4710591733455658
367,37400.0,-0.3968389332294464,-9.647436141967773,0.5560533404350281
368,37600.0,-0.2106897532939911,-9.642647743225098,0.3531447649002075
369,37800.0,-0.198120191693306,-9.637859344482422,0.4740519225597382
370,37000.0,-0.32261869311332697,-9.61331844329834,0.3369838893413544
371,37200.0,-0.2663549482822418,-9.607931137084961,0.4710591733455658
372,37400.0,-0.3968389332294464,-9.647436141967773,0.5560533404350281
373,37600.0,-0.2106897532939911,-9.642647743225098,0.3531447649002075
374,37800.0,-0.198120191693306,-9.637859344482422,0.4740519225597382
375,38000.0,-0.3746925592422485,-9.59596061706543,0.33758243918418884
376,38200.0,-0.11432313174009325,-9.616909980773926,0.30286651849746704
377,38400.0,-0.2286462634801865,-9.578003883361816,0.2663549482822418
378,38600.0,-0.13048399984836578,-9.636063575744627,0.5141547918319702
379,38800.0,-0.044292733073234565,-9.659406661987305,0.4465186297893524
380,38000.0,-0.3746925592422485,-9.59596061706543,0.33758243918418884
381,38200.0,-0.11432313174009325,-9.616909980773926,0.30286651849746704
382,38400.0,-0.2286462634801865,-9.578003883361816,0.2663549482822418
383,38600.0,-0.13048399984836578,-9.636063575744627,0.5141547918319702
384,38800.0,-0.044292733073234565,-9.659406661987305,0.4465186297893524
385,39000.0,-0.2867056429386139,-9.570821762084961,0.37888240814208973
386,39200.0,-0.08200141042470932,-9.53311252593994,0.28969839215278625
387,39400.0,-0.14425064623355865,-9.617507934570312,0.5129576921463013
388,39600.0,-0.07841010391712189,-9.661202430725098,0.6105214357376099
389,39800.0,-0.3280056416988373,-9.621099472045898,0.3663128614425659
390,39000.0,-0.2867056429386139,-9.570821762084961,0.37888240814208973
391,39200.0,-0.08200141042470932,-9.53311252593994,0.28969839215278625
392,39400.0,-0.14425064623355865,-9.617507934570312,0.5129576921463013
393,39600.0,-0.07841010391712189,-9.661202430725098,0.6105214357376099
394,39800.0,-0.3280056416988373,-9.621099472045898,0.3663128614425659
395,40000.0,0.044292733073234565,-9.572616577148438,0.21188685297966006
396,40200.0,-0.3938461840152741,-9.638457298278807,0.5823895931243896
397,40400.0,-0.3776853084564209,-9.596558570861816,0.4255693554878235
398,40600.0,-0.11671733111143112,-9.668384552001953,0.2501940727233887
399,40800.0,-0.24839842319488525,-9.63187313079834,0.3172317147254944
400,40000.0,0.044292733073234565,-9.572616577148438,0.21188685297966006
401,40200.0,-0.3938461840152741,-9.638457298278807,0.5823895931243896
402,40400.0,-0.3776853084564209,-9.596558570861816,0.4255693554878235
403,40600.0,-0.11671733111143112,-9.668384552001953,0.2501940727233887
404,40800.0,-0.24839842319488525,-9.63187313079834,0.3172317147254944
405,41000.0,-0.395043283700943,-9.670180320739746,0.5608417391777039
406,41200.0,0.015562310814857485,-9.694122314453123,0.5614402890205383
407,41400.0,-0.08738835901021957,-9.636063575744627,0.3315969407558441
408,41600.0,-0.3824737071990967,-9.659406661987305,0.4159925580024719
409,41800.0,-0.11552023142576218,-9.627084732055664,0.3058592677116394
410,41000.0,-0.395043283700943,-9.670180320739746,0.5608417391777039
411,41200.0,0.015562310814857485,-9.694122314453123,0.5614402890205383
412,41400.0,-0.08738835901021957,-9.636063575744627,0.3315969407558441
413,41600.0,-0.3824737071990967,-9.659406661987305,0.4159925580024719
414,41800.0,-0.11552023142576218,-9.627084732055664,0.3058592677116394
415,42000.0,-0.3860650360584259,-9.619303703308104,0.3896563351154328
416,42200.0,-0.026336219161748886,-9.588777542114258,0.3681085109710693
417,42400.0,-0.17058686912059784,-9.665990829467773,0.4728548228740692
418,42600.0,-0.2382230758666992,-9.609128952026367,0.3699041604995728
419,42800.0,-0.08978256583213806,-9.600749015808104,0.28371289372444153
420,42000.0,-0.3860650360584259,-9.619303703308104,0.3896563351154328
421,42200.0,-0.026336219161748886,-9.588777542114258,0.3681085109710693
422,42400.0,-0.17058686912059784,-9.665990829467773,0.4728548228740692
423,42600.0,-0.2382230758666992,-9.609128952026367,0.3699041604995728
424,42800.0,-0.08978256583213806,-9.600749015808104,0.28371289372444153
425,43000.0,-0.24660277366638186,-9.658209800720217,0.5297171473503113
426,43200.0,-0.2998737692832947,-9.649829864501953,0.4566939771175385
427,43400.0,-0.15981295704841614,-9.591172218322754,0.4513070285320282
428,43600.0,-0.4201824069023132,-9.59715747833252,0.5404910445213318
429,43800.0,-0.04728548228740692,-9.61870574951172,0.5051765441894531
430,43000.0,-0.24660277366638186,-9.658209800720217,0.5297171473503113
431,43200.0,-0.2998737692832947,-9.649829864501953,0.4566939771175385
432,43400.0,-0.15981295704841614,-9.591172218322754,0.4513070285320282
433,43600.0,-0.4201824069023132,-9.59715747833252,0.5404910445213318
434,43800.0,-0.04728548228740692,-9.61870574951172,0.5051765441894531
435,44000.0,-0.4926069974899292,-9.576807022094727,0.5285200476646423
436,44200.0,0.013766659423708916,-9.600150108337402,0.4638765752315521
437,44400.0,-0.4471171796321869,-9.581595420837402,0.4106055796146393
438,44600.0,-0.2124854028224945,-9.61212158203125,0.496198296546936
439,44800.0,-0.09636662155389786,-9.621099472045898,0.5249287486076355
440,44000.0,-0.4926069974899292,-9.576807022094727,0.5285200476646423
441,44200.0,0.013766659423708916,-9.600150108337402,0.4638765752315521
442,44400.0,-0.4471171796321869,-9.581595420837402,0.4106055796146393
443,44600.0,-0.2124854028224945,-9.61212158203125,0.496198296546936
444,44800.0,-0.09636662155389786,-9.621099472045898,0.5249287486076355
445,45000.0,-0.4800374507904053,-9.607333183288574,0.3794809579849243
446,45200.0,-0.08319851011037828,-9.715670585632324,0.8146271109580994
447,45400.0,-0.3968389332294464,-9.634865760803224,0.6607996821403503
448,45600.0,-0.005386953707784414,-9.658209800720217,0.4459200799465179
449,45800.0,-0.406415730714798,-9.625887870788574,0.5339069962501526
450,45000.0,-0.4800374507904053,-9.607333183288574,0.3794809579849243
451,45200.0,-0.08319851011037828,-9.715670585632324,0.8146271109580994
452,45400.0,-0.3968389332294464,-9.634865760803224,0.6607996821403503
453,45600.0,-0.005386953707784414,-9.658209800720217,0.4459200799465179
454,45800.0,-0.406415730714798,-9.625887870788574,0.5339069962501526
455,46000.0,-0.4722562730312347,-9.665990829467773,0.12689268589019775
456,46200.0,-0.3770867586135864,-9.604340553283693,0.3429693877696991
457,46400.0,-0.25318682193756104,-9.651026725769043,0.396240383386612
458,46600.0,-0.0520738884806633,-9.71267795562744,0.5033808946609497
459,46800.0,-0.3106476664543152,-9.637859344482422,0.5889736413955688
460,46000.0,-0.4722562730312347,-9.665990829467773,0.12689268589019775
461,46200.0,-0.3770867586135864,-9.604340553283693,0.3429693877696991
462,46400.0,-0.25318682193756104,-9.651026725769043,0.396240383386612
463,46600.0,-0.0520738884806633,-9.71267795562744,0.5033808946609497
464,46800.0,-0.3106476664543152,-9.637859344482422,0.5889736413955688
465,47000.0,-0.3280056416988373,-9.606734275817873,0.4321534037590027
466,47200.0,-0.08619125932455063,-9.59476375579834,0.4812345504760742
467,47400.0,-0.2358288615942001,-9.53969669342041,0.5009866952896118
468,47600.0,0.32680854201316833,-9.525331497192383,0.3220201432704925
469,47800.0,-0.16579847037792206,-9.537900924682617,0.2986766695976257
470,47000.0,-0.3280056416988373,-9.606734275817873,0.4321534037590027
471,47200.0,-0.08619125932455063,-9.59476375579834,0.4812345504760742
472,47400.0,-0.2358288615942001,-9.53969669342041,0.5009866952896118
473,47600.0,0.32680854201316833,-9.525331497192383,0.3220201432704925
474,47800.0,-0.16579847037792206,-9.537900924682617,0.2986766695976257
475,48000.0,-0.004788403399288654,-9.716867446899414,0.7811083197593689
476,48200.0,-0.8313865661621094,-9.756970405578613,0.4106055796146393
477,48400.0,-0.4076128304004669,-9.54867458343506,0.17417816817760468
478,48600.0,-0.4405331015586853,-9.647436141967773,0.33339259028434753
479,48800.0,0.0628477931022644,-9.588179588317873,0.4967968463897705
480,48000.0,-0.004788403399288654,-9.716867446899414,0.7811083197593689
481,48200.0,-0.8313865661621094,-9.756970405578613,0.4106055796146393
482,48400.0,-0.4076128304004669,-9.54867458343506,0.17417816817760468
483,48600.0,-0.4405331015586853,-9.647436141967773,0.33339259028434753
484,48800.0,0.0628477931022644,-9.588179588317873,0.4967968463897705
485,49000.0,-0.2974795699119568,-9.55466079711914,0.4022258818149567
486,49200.0,-0.15143325924873352,-9.646238327026367,0.4333505034446716
487,49400.0,-0.4644751250743866,-9.586981773376463,0.31364041566848755
488,49600.0,-0.2555810213088989,-9.653421401977539,0.3471592366695404
489,49800.0,-0.2106897532939911,-9.602544784545898,0.30047231912612915
490,49000.0,-0.2974795699119568,-9.55466079711914,0.4022258818149567
491,49200.0,-0.15143325924873352,-9.646238327026367,0.4333505034446716
492,49400.0,-0.4644751250743866,-9.586981773376463,0.31364041566848755
493,49600.0,-0.2555810213088989,-9.653421401977539,0.3471592366695404
494,49800.0,-0.2106897532939911,-9.602544784545898,0.30047231912612915
495,50000.0,-0.12449848651885985,-9.567230224609377,0.3315969407558441
496,50200.0,-0.16160862147808075,-9.626486778259276,0.5291185975074768
497,50400.0,-0.05327098816633225,-9.621698379516602,0.36571431159973145
498,50600.0,-0.4321534037590027,-9.634865760803224,0.4794389009475708
499,50800.0,-0.1849520802497864,-9.639056205749512,0.4411316514015198
500,50000.0,-0.12449848651885985,-9.567230224609377,0.3315969407558441
501,50200.0,-0.16160862147808075,-9.626486778259276,0.5291185975074768
502,50400.0,-0.05327098816633225,-9.621698379516602,0.36571431159973145
503,50600.0,-0.4321534037590027,-9.634865760803224,0.4794389009475708
504,50800.0,-0.1849520802497864,-9.639056205749512,0.4411316514015198
505,51000.0,-0.5907692909240723,-9.607333183288574,0.4728548228740692
506,51200.0,0.16579847037792206,-9.619902610778807,0.33339259028434753
507,51400.0,-0.30047231912612915,-9.660005569458008,0.4854243993759155
508,51600.0,-0.20231004059314728,-9.622895240783693,0.4153940081596375
509,51800.0,-0.03292027488350868,-9.633070945739746,0.4357447028160095
510,51000.0,-0.5907692909240723,-9.607333183288574,0.4728548228740692
511,51200.0,0.16579847037792206,-9.619902610778807,0.33339259028434753
512,51400.0,-0.30047231912612915,-9.660005569458008,0.4854243993759155
513,51600.0,-0.20231004059314728,-9.622895240783693,0.4153940081596375
514,51800.0,-0.03292027488350868,-9.633070945739746,0.4357447028160095
515,52000.0,-0.2537853717803955,-9.637859344482422,0.4926069974899292
516,52200.0,-0.059855043888092034,-9.601346969604492,0.3986345827579498
517,52400.0,-0.4237737059593201,-9.62947940826416,0.5374982953071594
518,52600.0,0.8026561141014099,-10.143633842468262,1.0432734489440918
519,52800.0,0.8643068075180054,-7.704541206359862,4.623802185058594
520,52000.0,-0.2537853717803955,-9.637859344482422,0.4926069974899292
521,52200.0,-0.059855043888092034,-9.601346969604492,0.3986345827579498
522,52400.0,-0.4237737059593201,-9.62947940826416,0.5374982953071594
523,52600.0,0.8026561141014099,-10.143633842468262,1.0432734489440918
524,52800.0,0.8643068075180054,-7.704541206359862,4.623802185058594
525,53000.0,-0.9229647517204284,-9.6989107131958,-0.7918822169303894
526,53200.0,-0.05746084079146385,-9.323619842529297,-0.9127894043922424
527,53400.0,-0.44831427931785583,-9.761159896850586,-0.8469488620758057
528,53600.0,0.5787982344627379,-9.597756385803224,-0.6470330357551575
529,53800.0,0.10115502029657364,-9.59177017211914,-0.09277531504631042
530,53000.0,-0.9229647517204284,-9.6989107131958,-0.7918822169303894
531,53200.0,-0.05746084079146385,-9.323619842529297,-0.9127894043922424
532,53400.0,-0.44831427931785583,-9.761159896850586,-0.8469488620758057
533,53600.0,0.5787982344627379,-9.597756385803224,-0.6470330357551575
534,53800.0,0.10115502029657364,-9.59177017211914,-0.09277531504631042
535,54000.0,0.15143325924873352,-9.674968719482422,-0.4124012291431427
536,54200.0,-0.21368250250816345,-9.606135368347168,-0.6985083222389221
537,54400.0,0.16400282084941864,-9.62828254699707,-0.6332663297653198
538,54600.0,0.18195933103561399,-9.626486778259276,-0.40462008118629456
539,54800.0,0.0586579404771328,-9.732429504394533,-0.4429273009300232
540,54000.0,0.15143325924873352,-9.674968719482422,-0.4124012291431427
541,54200.0,-0.21368250250816345,-9.606135368347168,-0.6985083222389221
542,54400.0,0.16400282084941864,-9.62828254699707,-0.6332663297653198
543,54600.0,0.18195933103561399,-9.626486778259276,-0.40462008118629456
544,54800.0,0.0586579404771328,-9.732429504394533,-0.4429273009300232
545,55000.0,-0.12749123573303225,-9.663596153259276,-0.5003881454467773
546,55200.0,-0.0347159244120121,-9.638457298278807,-0.6200982332229614
547,55400.0,-0.02454056777060032,-9.576807022094727,-0.7715315222740173
548,55600.0,-0.12868833541870114,-9.65581512451172,-0.524330198764801
549,55800.0,0.07122749835252762,-9.677363395690918,-0.6272808313369751
550,55000.0,-0.12749123573303225,-9.663596153259276,-0.5003881454467773
551,55200.0,-0.0347159244120121,-9.638457298278807,-0.6200982332229614
552,55400.0,-0.02454056777060032,-9.576807022094727,-0.7715315222740173
553,55600.0,-0.12868833541870114,-9.65581512451172,-0.524330198764801
554,55800.0,0.07122749835252762,-9.677363395690918,-0.6272808313369751
555,56000.0,-0.08200141042470932,-9.616909980773926,-0.7056909799575806
556,56200.0,-0.09097966551780699,-9.68933391571045,-0.5009866952896118
557,56400.0,0.026336219161748886,-9.660603523254396,-0.6482301354408264
558,56600.0,-0.19692309200763705,-9.679159164428713,-0.3974374830722809
559,56800.0,0.19692309200763705,-9.673172950744627,-0.5398924946784973
560,56000.0,-0.08200141042470932,-9.616909980773926,-0.7056909799575806
561,56200.0,-0.09097966551780699,-9.68933391571045,-0.5009866952896118
562,56400.0,0.026336219161748886,-9.660603523254396,-0.6482301354408264
563,56600.0,-0.19692309200763705,-9.679159164428713,-0.3974374830722809
564,56800.0,0.19692309200763705,-9.673172950744627,-0.5398924946784973
565,57000.0,-0.13766659796237946,-9.608530044555664,-0.5105634927749634
566,57200.0,-0.002394201699644327,-9.645041465759276,-0.4944026470184326
567,57400.0,-0.18734627962112427,-9.618106842041016,-0.3495534360408783
568,57600.0,-0.1867477297782898,-9.639654159545898,-0.5668272376060486
569,57800.0,0.23283611238002774,-9.61870574951172,-0.32441434264183044
570,57000.0,-0.13766659796237946,-9.608530044555664,-0.5105634927749634
571,57200.0,-0.002394201699644327,-9.645041465759276,-0.4944026470184326
572,57400.0,-0.18734627962112427,-9.618106842041016,-0.3495534360408783
573,57600.0,-0.1867477297782898,-9.639654159545898,-0.5668272376060486
574,57800.0,0.23283611238002774,-9.61870574951172,-0.32441434264183044
575,58000.0,-0.23283611238002774,-9.639056205749512,-0.5261258482933044
576,58200.0,-0.012569558806717396,-9.646238327026367,-0.4094084799289704
577,58400.0,-0.11312603205442427,-9.651026725769043,-0.4578910768032074
578,58600.0,-0.15143325924873352,-9.59596061706543,-0.4345476031303406
579,58800.0,0.13587094843387604,-9.670180320739746,-0.4189853072166443
580,58000.0,-0.23283611238002774,-9.639056205749512,-0.5261258482933044
581,58200.0,-0.012569558806717396,-9.646238327026367,-0.4094084799289704
582,58400.0,-0.11312603205442427,-9.651026725769043,-0.4578910768032074
583,58600.0,-0.15143325924873352,-9.59596061706543,-0.4345476031303406
584,58800.0,0.13587094843387604,-9.670180320739746,-0.4189853072166443
585,59000.0,-0.22206220030784607,-9.6618013381958,-0.3669114112854004
586,59200.0,-0.2472013235092163,-9.630077362060547,-0.41778820753097534
587,59400.0,0.008978256024420261,-9.693524360656738,-0.2944868206977844
588,59600.0,-0.07062894850969315,-9.616909980773926,-0.5901707410812378
589,59800.0,-0.2950853705406189,-9.643844604492188,-0.4267664551734924
590,59000.0,-0.22206220030784607,-9.6618013381958,-0.3669114112854004
591,59200.0,-0.2472013235092163,-9.630077362060547,-0.41778820753097534
592,59400.0,0.008978256024420261,-9.693524360656738,-0.2944868206977844
593,59600.0,-0.07062894850969315,-9.616909980773926,-0.5901707410812378
594,59800.0,-0.2950853705406189,-9.643844604492188,-0.4267664551734924
595,60000.0,0.08978256583213806,-9.64564037322998,-0.37888240814208973
596,60200.0,-0.016759412363171574,-9.626486778259276,-0.4932055473327637
597,60400.0,0.12509703636169436,-9.700706481933594,-0.5105634927749634
598,60600.0,0.12988543510437012,-9.61212158203125,-0.5267243981361389
599,60800.0,-0.2885012924671173,-9.68274974822998,-0.5446808934211731
600,60000.0,0.08978256583213806,-9.64564037322998,-0.37888240814208973
601,60200.0,-0.016759412363171574,-9.626486778259276,-0.4932055473327637
602,60400.0,0.12509703636169436,-9.700706481933594,-0.5105634927749634
603,60600.0,0.12988543510437012,-9.61212158203125,-0.5267243981361389
604,60800.0,-0.2885012924671173,-9.68274974822998,-0.5446808934211731
605,61000.0,-0.3058592677116394,-9.679159164428713,-0.4273650050163269
606,61200.0,-0.23762452602386475,-9.64683723449707,-0.4303577542304993
607,61400.0,-0.13168109953403473,-9.639056205749512,-0.4471171796321869
608,61600.0,-0.15741875767707825,-9.63067626953125,-0.4411316514015198
609,61800.0,-0.09876082092523576,-9.635464668273926,-0.5398924946784973
610,61000.0,-0.3058592677116394,-9.679159164428713,-0.4273650050163269
611,61200.0,-0.23762452602386475,-9.64683723449707,-0.4303577542304993
612,61400.0,-0.13168109953403473,-9.639056205749512,-0.4471171796321869
613,61600.0,-0.15741875767707825,-9.63067626953125,-0.4411316514015198
614,61800.0,-0.09876082092523576,-9.635464668273926,-0.5398924946784973
615,62000.0,-0.2346317619085312,-9.645041465759276,-0.5452794432640076
616,62200.0,0.05506663769483566,-9.68813705444336,-0.3256114423274994
617,62400.0,-0.05746084079146385,-9.654019355773926,-0.606930136680603
618,62600.0,-0.06823474913835527,-9.627084732055664,-0.4764461517333984
619,62800.0,0.09097966551780699,-9.646238327026367,-0.414795458316803
620,62000.0,-0.2346317619085312,-9.645041465759276,-0.5452794432640076
621,62200.0,0.05506663769483566,-9.68813705444336,-0.3256114423274994
622,62400.0,-0.05746084079146385,-9.654019355773926,-0.606930136680603
623,62600.0,-0.06823474913835527,-9.627084732055664,-0.4764461517333984
624,62800.0,0.09097966551780699,-9.646238327026367,-0.414795458316803
625,63000.0,-0.10534487664699554,-9.661202430725098,-0.5536591410636902
626,63200.0,-0.3447650372982025,-9.683947563171387,-0.3016694188117981
627,63400.0,0.034117374569177635,-9.675567626953123,-0.6991068720817566
628,63600.0,-0.09696517139673233,-9.671378135681152,-0.3896563351154328
629,63800.0,-0.002394201699644327,-9.680954933166504,-0.4387374520301819
630,63000.0,-0.10534487664699554,-9.661202430725098,-0.5536591410636902
631,63200.0,-0.3447650372982025,-9.683947563171387,-0.3016694188117981
632,63400.0,0.034117374569177635,-9.675567626953123,-0.6991068720817566
633,63600.0,-0.09696517139673233,-9.671378135681152,-0.3896563351154328
634,63800.0,-0.002394201699644327,-9.680954933166504,-0.4387374520301819
635,64000.0,-0.26156654953956604,-9.62947940826416,-0.3603273630142212
636,64200.0,-0.1322796493768692,-9.69651699066162,-0.4626794755458832
637,64400.0,-0.12270283699035645,-9.660005569458008,-0.2645592987537384
638,64600.0,-0.13407529890537262,-9.679757118225098,-0.5626373887062073
639,64800.0,0.18974047899246216,-9.672574996948242,-0.4716577231884002
640,64000.0,-0.26156654953956604,-9.62947940826416,-0.3603273630142212
641,64200.0,-0.1322796493768692,-9.69651699066162,-0.4626794755458832
642,64400.0,-0.12270283699035645,-9.660005569458008,-0.2645592987537384
643,64600.0,-0.13407529890537262,-9.679757118225098,-0.5626373887062073
644,64800.0,0.18974047899246216,-9.672574996948242,-0.4716577231884002
645,65000.0,-0.0867898091673851,-9.620500564575195,-0.5261258482933044
646,65200.0,0.01975216343998909,-9.634865760803224,-0.4626794755458832
647,65400.0,0.09457096457481384,-9.63067626953125,-0.6230909824371338
648,65600.0,0.15143325924873352,-9.6803560256958,-0.497395396232605
649,65800.0,-0.2047042399644852,-9.66419506072998,-0.4884171485900879
650,65000.0,-0.0867898091673851,-9.620500564575195,-0.5261258482933044
651,65200.0,0.01975216343998909,-9.634865760803224,-0.4626794755458832
652,65400.0,0.09457096457481384,-9.63067626953125,-0.6230909824371338
653,65600.0,0.15143325924873352,-9.6803560256958,-0.497395396232605
654,65800.0,-0.2047042399644852,-9.66419506072998,-0.4884171485900879
655,66000.0,-0.09636662155389786,-9.66958236694336,-0.5063736438751221
656,66200.0,0.12928688526153564,-9.654019355773926,-0.5937620401382446
657,66400.0,0.152031809091568,-9.658209800720217,-0.4267664551734924
658,66600.0,0.1646013706922531,-9.66539192199707,-0.3926490843296051
659,66800.0,-0.2256535142660141,-9.656414031982422,-0.426167905330658
660,66000.0,-0.09636662155389786,-9.66958236694336,-0.5063736438751221
661,66200.0,0.12928688526153564,-9.654019355773926,-0.5937620401382446
662,66400.0,0.152031809091568,-9.658209800720217,-0.4267664551734924
663,66600.0,0.1646013706922531,-9.66539192199707,-0.3926490843296051
664,66800.0,-0.2256535142660141,-9.656414031982422,-0.426167905330658
665,67000.0,-0.09217676520347597,-9.695320129394533,-0.6404489278793335
666,67200.0,0.19572599232196808,-9.651026725769043,-0.22445641458034515
667,67400.0,-0.015562310814857485,-9.639654159545898,-0.4279635548591614
668,67600.0,-0.056263741105794914,-9.663596153259276,-0.5859808921813965
669,67800.0,-0.2064998894929886,-9.71507167816162,-0.33279404044151306
670,67000.0,-0.09217676520347597,-9.695320129394533,-0.6404489278793335
671,67200.0,0.19572599232196808,-9.651026725769043,-0.22445641458034515
672,67400.0,-0.015562310814857485,-9.639654159545898,-0.4279635548591614
673,67600.0,-0.056263741105794914,-9.663596153259276,-0.5859808921813965
674,67800.0,-0.2064998894929886,-9.71507167816162,-0.33279404044151306
675,68000.0,-0.12928688526153564,-9.62409210205078,-0.7050924301147461
676,68200.0,0.33758243918418884,-9.577404975891113,-0.5776011347770691
677,68400.0,-0.5901707410812378,-9.695918083190918,-0.333991140127182
678,68600.0,0.33339259028434753,-9.62947940826416,-0.5901707410812378
679,68800.0,-0.06883329898118973,-9.639654159545898,-0.4985924959182739
680,68000.0,-0.12928688526153564,-9.62409210205078,-0.7050924301147461
681,68200.0,0.33758243918418884,-9.577404975891113,-0.5776011347770691
682,68400.0,-0.5901707410812378,-9.695918083190918,-0.333991140127182
683,68600.0,0.33339259028434753,-9.62947940826416,-0.5901707410812378
684,68800.0,-0.06883329898118973,-9.639654159545898,-0.4985924959182739
685,69000.0,-0.2723404467105865,-9.671976089477539,-0.4106055796146393
686,69200.0,-0.2920926213264465,-9.615114212036133,-0.629675030708313
687,69400.0,-0.12330138683319093,-9.65581512451172,-0.3250128924846649
688,69600.0,0.3411737382411957,-9.61331844329834,-0.6949170231819153
689,69800.0,-0.1735796183347702,-9.607333183288574,-0.52552729845047
690,69000.0,-0.2723404467105865,-9.671976089477539,-0.4106055796146393
691,69200.0,-0.2920926213264465,-9.615114212036133,-0.629675030708313
692,69400.0,-0.12330138683319093,-9.65581512451172,-0.3250128924846649
693,69600.0,0.3411737382411957,-9.61331844329834,-0.6949170231819153
694,69800.0,-0.1735796183347702,-9.607333183288574,-0.52552729845047
695,70000.0,-0.08978256583213806,-9.683947563171387,-0.5111620426177979
696,70200.0,-0.36391866207122797,-9.640851974487305,-0.4644751250743866
697,70400.0,0.19452889263629916,-9.657012939453123,-0.5781996846199036
698,70600.0,-0.07661445438861847,-9.637859344482422,-0.558447539806366
699,70800.0,-0.1388636976480484,-9.639654159545898,-0.4854243993759155
700,70000.0,-0.08978256583213806,-9.683947563171387,-0.5111620426177979
701,70200.0,-0.36391866207122797,-9.640851974487305,-0.4644751250743866
702,70400.0,0.19452889263629916,-9.657012939453123,-0.5781996846199036
703,70600.0,-0.07661445438861847,-9.637859344482422,-0.558447539806366
704,70800.0,-0.1388636976480484,-9.639654159545898,-0.4854243993759155
705,71000.0,0.02513911761343479,-9.684545516967773,-0.30705636739730835
706,71200.0,-0.12270283699035645,-9.596558570861816,-0.7398083209991455
707,71400.0,-0.12270283699035645,-9.676764488220217,-0.41120412945747375
708,71600.0,0.017956512048840526,-9.647436141967773,-0.6709750294685364
709,71800.0,0.05506663769483566,-9.650428771972656,-0.3872621357440949
710,71000.0,0.02513911761343479,-9.684545516967773,-0.30705636739730835
711,71200.0,-0.12270283699035645,-9.596558570861816,-0.7398083209991455
712,71400.0,-0.12270283699035645,-9.676764488220217,-0.41120412945747375
713,71600.0,0.017956512048840526,-9.647436141967773,-0.6709750294685364
714,71800.0,0.05506663769483566,-9.650428771972656,-0.3872621357440949
715,72000.0,-0.2112883031368256,-9.652822494506836,-0.3477577865123749
716,72200.0,-0.05446808785200119,-9.658209800720217,-0.4357447028160095
717,72400.0,-0.040701430290937424,-9.636063575744627,-0.5410895943641663
718,72600.0,-0.1238999366760254,-9.640851974487305,-0.38367083668708796
719,72800.0,-0.20709845423698425,-9.663596153259276,-0.4620809257030487
720,72000.0,-0.2112883031368256,-9.652822494506836,-0.3477577865123749
721,72200.0,-0.05446808785200119,-9.658209800720217,-0.4357447028160095
722,72400.0,-0.040701430290937424,-9.636063575744627,-0.5410895943641663
723,72600.0,-0.1238999366760254,-9.640851974487305,-0.38367083668708796
724,72800.0,-0.20709845423698425,-9.663596153259276,-0.4620809257030487
725,73000.0,-0.07661445438861847,-9.582193374633787,-0.6835445761680603
726,73200.0,0.02454056777060032,-9.687539100646973,-0.4189853072166443
727,73400.0,0.014365210197865963,-9.660005569458008,-0.424970805644989
728,73600.0,-0.2477998733520508,-9.65581512451172,-0.4878185987472534
729,73800.0,0.1173158809542656,-9.643245697021484,-0.42437225580215454
730,73000.0,-0.07661445438861847,-9.582193374633787,-0.6835445761680603
731,73200.0,0.02454056777060032,-9.687539100646973,-0.4189853072166443
732,73400.0,0.014365210197865963,-9.660005569458008,-0.424970805644989
733,73600.0,-0.2477998733520508,-9.65581512451172,-0.4878185987472534
734,73800.0,0.1173158809542656,-9.643245697021484,-0.42437225580215454
735,74000.0,-0.0005985504249110818,-9.607931137084961,-0.5913678407669067
736,74200.0,0.17238251864910126,-9.674968719482422,-0.5309142470359802
737,74400.0,-0.14784196019172668,-9.610325813293457,-0.6218938827514648
738,74600.0,-0.05686229094862937,-9.704896926879883,-0.5033808946609497
739,74800.0,0.06464344263076782,-9.618106842041016,-0.7990648150444031
740,74000.0,-0.0005985504249110818,-9.607931137084961,-0.5913678407669067
741,74200.0,0.17238251864910126,-9.674968719482422,-0.5309142470359802
742,74400.0,-0.14784196019172668,-9.610325813293457,-0.6218938827514648
743,74600.0,-0.05686229094862937,-9.704896926879883,-0.5033808946609497
744,74800.0,0.06464344263076782,-9.618106842041016,-0.7990648150444031
745,75000.0,0.09876082092523576,-9.635464668273926,-0.5841852426528931
746,75200.0,-0.047884032130241394,-9.620500564575195,-0.6206967830657959
747,75400.0,0.03591302409768105,-9.657610893249512,-0.5315127968788147
748,75600.0,-0.22206220030784607,-9.671378135681152,-0.6374561786651611
749,75800.0,0.20949265360832212,-9.585784912109377,-0.7445967197418213
750,75000.0,0.09876082092523576,-9.635464668273926,-0.5841852426528931
751,75200.0,-0.047884032130241394,-9.620500564575195,-0.6206967830657959
752,75400.0,0.03591302409768105,-9.657610893249512,-0.5315127968788147
753,75600.0,-0.22206220030784607,-9.671378135681152,-0.6374561786651611
754,75800.0,0.20949265360832212,-9.585784912109377,-0.7445967197418213
755,76000.0,-0.011971008032560349,-9.671378135681152,-0.4291606545448303
756,76200.0,0.047884032130241394,-9.633668899536133,-0.4812345504760742
757,76400.0,-0.10474632680416107,-9.676764488220217,-0.28790274262428284
758,76600.0,-0.012569558806717396,-9.59057331085205,-0.6763619780540466
759,76800.0,-0.19393034279346466,-9.654019355773926,-0.4273650050163269
760,76000.0,-0.011971008032560349,-9.671378135681152,-0.4291606545448303
761,76200.0,0.047884032130241394,-9.633668899536133,-0.4812345504760742
762,76400.0,-0.10474632680416107,-9.676764488220217,-0.28790274262428284
763,76600.0,-0.012569558806717396,-9.59057331085205,-0.6763619780540466
764,76800.0,-0.19393034279346466,-9.654019355773926,-0.4273650050163269
765,77000.0,0.076015904545784,-9.658807754516602,-0.4890156984329224
766,77200.0,0.3842693865299225,-9.608530044555664,-0.7368155717849731
767,77400.0,-0.07122749835252762,-9.71267795562744,-0.3208230137825012
768,77600.0,-0.002992752008140087,-9.636661529541016,-0.4788403511047363
769,77800.0,-0.1538274586200714,-9.640253067016602,-0.6913257241249084
770,77000.0,0.076015904545784,-9.658807754516602,-0.4890156984329224
771,77200.0,0.3842693865299225,-9.608530044555664,-0.7368155717849731
772,77400.0,-0.07122749835252762,-9.71267795562744,-0.3208230137825012
773,77600.0,-0.002992752008140087,-9.636661529541016,-0.4788403511047363
774,77800.0,-0.1538274586200714,-9.640253067016602,-0.6913257241249084
775,78000.0,-0.022146366536617283,-9.61571216583252,-0.5273229479789734
776,78200.0,0.047884032130241394,-9.658209800720217,-0.5368997454643251
777,78400.0,-0.4692635238170624,-9.707889556884766,-0.3830722570419312
778,78600.0,0.13168109953403473,-9.585186958312988,-0.7134721279144287
779,78800.0,-0.07003039866685867,-9.66419506072998,-0.4100070297718048
780,78000.0,-0.022146366536617283,-9.61571216583252,-0.5273229479789734
781,78200.0,0.047884032130241394,-9.658209800720217,-0.5368997454643251
782,78400.0,-0.4692635238170624,-9.707889556884766,-0.3830722570419312
783,78600.0,0.13168109953403473,-9.585186958312988,-0.7134721279144287
784,78800.0,-0.07003039866685867,-9.66419506072998,-0.4100070297718048
785,79000.0,0.005985504016280174,-9.642647743225098,-0.4776432514190674
786,79200.0,-0.019153613597154617,-9.66299819946289,-0.6799532771110535
787,79400.0,0.02274491637945175,-9.661202430725098,-0.456095427274704
788,79600.0,-0.15143325924873352,-9.61870574951172,-0.3776853084564209
789,79800.0,-0.10594342648983003,-9.638457298278807,-0.5225345492362976
790,79000.0,0.005985504016280174,-9.642647743225098,-0.4776432514190674
791,79200.0,-0.019153613597154617,-9.66299819946289,-0.6799532771110535
792,79400.0,0.02274491637945175,-9.661202430725098,-0.456095427274704
793,79600.0,-0.15143325924873352,-9.61870574951172,-0.3776853084564209
794,79800.0,-0.10594342648983003,-9.638457298278807,-0.5225345492362976
795,80000.0,-0.2370259612798691,-9.633668899536133,-0.4106055796146393
796,80200.0,-0.06823474913835527,-9.643245697021484,-0.3932476341724396
797,80400.0,0.026336219161748886,-9.620500564575195,-0.5063736438751221
798,80600.0,-0.06344634294509888,-9.642647743225098,-0.5123591423034668
799,80800.0,-0.2986766695976257,-9.657610893249512,-0.5692214369773865
800,80000.0,-0.2370259612798691,-9.633668899536133,-0.4106055796146393
801,80200.0,-0.06823474913835527,-9.643245697021484,-0.3932476341724396
802,80400.0,0.026336219161748886,-9.620500564575195,-0.5063736438751221
803,80600.0,-0.06344634294509888,-9.642647743225098,-0.5123591423034668
804,80800.0,-0.2986766695976257,-9.657610893249512,-0.5692214369773865
805,81000.0,-0.0628477931022644,-9.699509620666504,-0.3286041915416717
806,81200.0,0.023942016065120697,-9.633070945739746,-0.5398924946784973
807,81400.0,-0.06404489278793335,-9.634865760803224,-0.2759317457675934
808,81600.0,-0.1711854189634323,-9.627683639526367,-0.35733461380004883
809,81800.0,-0.12030863761901855,-9.616311073303224,-0.5710170865058899
810,81000.0,-0.0628477931022644,-9.699509620666504,-0.3286041915416717
811,81200.0,0.023942016065120697,-9.633070945739746,-0.5398924946784973
812,81400.0,-0.06404489278793335,-9.634865760803224,-0.2759317457675934
813,81600.0,-0.1711854189634323,-9.627683639526367,-0.35733461380004883
814,81800.0,-0.12030863761901855,-9.616311073303224,-0.5710170865058899
815,82000.0,-0.16879121959209442,-9.652822494506836,-0.3890577852725983
816,82200.0,0.1454477459192276,-9.61870574951172,-0.628477931022644
817,82400.0,-0.0736217051744461,-9.66958236694336,-0.33339259028434753
818,82600.0,-0.1933317929506302,-9.621698379516602,-0.5991489887237549
819,82800.0,0.0867898091673851,-9.635464668273926,-0.5339069962501526
820,82000.0,-0.16879121959209442,-9.652822494506836,-0.3890577852725983
821,82200.0,0.1454477459192276,-9.61870574951172,-0.628477931022644
822,82400.0,-0.0736217051744461,-9.66958236694336,-0.33339259028434753
823,82600.0,-0.1933317929506302,-9.621698379516602,-0.5991489887237549
824,82800.0,0.0867898091673851,-9.635464668273926,-0.5339069962501526
825,83000.0,-0.16879121959209442,-9.650428771972656,-0.3734954595565796
826,83200.0,0.18375498056411746,-9.621099472045898,-0.618302583694458
827,83400.0,-0.021547814831137657,-9.600749015808104,-0.3387795388698578
828,83600.0,-0.12868833541870114,-9.667786598205566,-0.547075092792511
829,83800.0,-0.27054479718208313,-9.645041465759276,-0.4171896576881409
830,83000.0,-0.16879121959209442,-9.650428771972656,-0.3734954595565796
831,83200.0,0.18375498056411746,-9.621099472045898,-0.618302583694458
832,83400.0,-0.021547814831137657,-9.600749015808104,-0.3387795388698578
833,83600.0,-0.12868833541870114,-9.667786598205566,-0.547075092792511
834,83800.0,-0.27054479718208313,-9.645041465759276,-0.4171896576881409
835,84000.0,0.04369417950510979,-9.6803560256958,-0.4153940081596375
836,84200.0,0.08918401598930359,-9.612719535827637,-0.628477931022644
837,84400.0,-0.3585317134857178,-9.650428771972656,-0.5207388401031494
838,84600.0,-0.19393034279346466,-9.689932823181152,-0.3878606855869293
839,84800.0,0.028730420395731926,-9.678560256958008,-0.5021837949752808
840,84000.0,0.04369417950510979,-9.6803560256958,-0.4153940081596375
841,84200.0,0.08918401598930359,-9.612719535827637,-0.628477931022644
842,84400.0,-0.3585317134857178,-9.650428771972656,-0.5207388401031494
843,84600.0,-0.19393034279346466,-9.689932823181152,-0.3878606855869293
844,84800.0,0.028730420395731926,-9.678560256958008,-0.5021837949752808
845,85000.0,-0.05446808785200119,-9.625288963317873,-0.5877765417098999
846,85200.0,-0.16759411990642548,-9.633070945739746,-0.5363011956214905
847,85400.0,-0.21847090125083926,-9.671378135681152,-0.4201824069023132
848,85600.0,-0.14006079733371735,-9.601945877075195,-0.6841431260108948
849,85800.0,0.026336219161748886,-9.62828254699707,-0.3842693865299225
850,85000.0,-0.05446808785200119,-9.625288963317873,-0.5877765417098999
851,85200.0,-0.16759411990642548,-9.633070945739746,-0.5363011956214905
852,85400.0,-0.21847090125083926,-9.671378135681152,-0.4201824069023132
853,85600.0,-0.14006079733371735,-9.601945877075195,-0.6841431260108948
854,85800.0,0.026336219161748886,-9.62828254699707,-0.3842693865299225
855,86000.0,-0.05147533491253853,-9.643245697021484,-0.5135562419891357
856,86200.0,-0.12749123573303225,-9.64803409576416,-0.48602294921875
857,86400.0,-0.37169981002807617,-9.64564037322998,-0.518943190574646
858,86600.0,-0.07841010391712189,-9.646238327026367,-0.37529110908508295
859,86800.0,0.11552023142576218,-9.65581512451172,-0.6470330357551575
860,86000.0,-0.05147533491253853,-9.643245697021484,-0.5135562419891357
861,86200.0,-0.12749123573303225,-9.64803409576416,-0.48602294921875
862,86400.0,-0.37169981002807617,-9.64564037322998,-0.518943190574646
863,86600.0,-0.07841010391712189,-9.646238327026367,-0.37529110908508295
864,86800.0,0.11552023142576218,-9.65581512451172,-0.6470330357551575
865,87000.0,-0.14784196019172668,-9.63726043701172,-0.3800795078277588
866,87200.0,-0.1215057373046875,-9.609128952026367,-0.5129576921463013
867,87400.0,0.08918401598930359,-9.606135368347168,-0.5219359993934631
868,87600.0,-0.08798690885305405,-9.625887870788574,-0.5746083855628967
869,87800.0,-0.12988543510437012,-9.64683723449707,-0.5249287486076355
870,87000.0,-0.14784196019172668,-9.63726043701172,-0.3800795078277588
871,87200.0,-0.1215057373046875,-9.609128952026367,-0.5129576921463013
872,87400.0,0.08918401598930359,-9.606135368347168,-0.5219359993934631
873,87600.0,-0.08798690885305405,-9.625887870788574,-0.5746083855628967
874,87800.0,-0.12988543510437012,-9.64683723449707,-0.5249287486076355
875,88000.0,-0.043095629662275314,-9.664793968200684,-0.4842272996902466
876,88200.0,0.056263741105794914,-9.619902610778807,-0.5207388401031494
877,88400.0,-0.2477998733520508,-9.684545516967773,-0.5656301379203796
878,88600.0,-0.06823474913835527,-9.627683639526367,-0.5141547918319702
879,88800.0,-0.11552023142576218,-9.66539192199707,-0.3902548849582672
880,88000.0,-0.043095629662275314,-9.664793968200684,-0.4842272996902466
881,88200.0,0.056263741105794914,-9.619902610778807,-0.5207388401031494
882,88400.0,-0.2477998733520508,-9.684545516967773,-0.5656301379203796
883,88600.0,-0.06823474913835527,-9.627683639526367,-0.5141547918319702
884,88800.0,-0.11552023142576218,-9.66539192199707,-0.3902548849582672
885,89000.0,0.0520738884806633,-9.62409210205078,-0.4423287510871887
886,89200.0,0.08918401598930359,-9.615114212036133,-0.3693056106567383
887,89400.0,-0.13527239859104154,-9.661202430725098,-0.5506663918495178
888,89600.0,-0.14844051003456116,-9.645041465759276,-0.5099649429321289
889,89800.0,0.06763619929552077,-9.670180320739746,-0.4237737059593201
890,89000.0,0.0520738884806633,-9.62409210205078,-0.4423287510871887
891,89200.0,0.08918401598930359,-9.615114212036133,-0.3693056106567383
892,89400.0,-0.13527239859104154,-9.661202430725098,-0.5506663918495178
893,89600.0,-0.14844051003456116,-9.645041465759276,-0.5099649429321289
894,89800.0,0.06763619929552077,-9.670180320739746,-0.4237737059593201
895,90000.0,-0.05446808785200119,-9.63187313079834,-0.6865373253822327
896,90200.0,-0.010773907415568829,-9.612719535827637,-0.4542997777462006
897,90400.0,-0.14065934717655182,-9.60553741455078,-0.5003881454467773
898,90600.0,0.034117374569177635,-9.664793968200684,-0.6374561786651611
899,90800.0,-0.07422025501728058,-9.668983459472656,-0.4716577231884002
900,90000.0,-0.05446808785200119,-9.63187313079834,-0.6865373253822327
901,90200.0,-0.010773907415568829,-9.612719535827637,-0.4542997777462006
902,90400.0,-0.14065934717655182,-9.60553741455078,-0.5003881454467773
903,90600.0,0.034117374569177635,-9.664793968200684,-0.6374561786651611
904,90800.0,-0.07422025501728058,-9.668983459472656,-0.4716577231884002
905,91000.0,0.041299980133771896,-9.62828254699707,-0.4938040971755981
906,91200.0,-0.15741875767707825,-9.664793968200684,-0.5404910445213318
907,91400.0,0.06464344263076782,-9.668384552001953,-0.5117605924606323
908,91600.0,-0.015562310814857485,-9.70310115814209,-0.3429693877696991
909,91800.0,-0.03292027488350868,-9.5809965133667,-0.7679402232170105
910,91000.0,0.041299980133771896,-9.62828254699707,-0.4938040971755981
911,91200.0,-0.15741875767707825,-9.664793968200684,-0.5404910445213318
912,91400.0,0.06464344263076782,-9.668384552001953,-0.5117605924606323
913,91600.0,-0.015562310814857485,-9.70310115814209,-0.3429693877696991
914,91800.0,-0.03292027488350868,-9.5809965133667,-0.7679402232170105
915,92000.0,0.059855043888092034,-9.695918083190918,-0.3417722880840301
916,92200.0,-0.13407529890537262,-9.601346969604492,-0.639850378036499
917,92400.0,-0.1107318252325058,-9.694721221923828,-0.4016273319721222
918,92600.0,0.03770867735147476,-9.615114212036133,-0.4710591733455658
919,92800.0,-0.0071826050989329815,-9.64564037322998,-0.6739677786827087
920,92000.0,0.059855043888092034,-9.695918083190918,-0.3417722880840301
921,92200.0,-0.13407529890537262,-9.601346969604492,-0.639850378036499
922,92400.0,-0.1107318252325058,-9.694721221923828,-0.4016273319721222
923,92600.0,0.03770867735147476,-9.615114212036133,-0.4710591733455658
924,92800.0,-0.0071826050989329815,-9.64564037322998,-0.6739677786827087
925,93000.0,-0.04189852997660637,-9.645041465759276,-0.5398924946784973
926,93200.0,-0.14065934717655182,-9.694721221923828,-0.6027402877807617
927,93400.0,-0.0867898091673851,-9.661202430725098,-0.5949591398239136
928,93600.0,-0.035314474254846566,-9.666589736938477,-0.4471171796321869
929,93800.0,-0.09457096457481384,-9.665990829467773,-0.5650315880775452
930,93000.0,-0.04189852997660637,-9.645041465759276,-0.5398924946784973
931,93200.0,-0.14065934717655182,-9.694721221923828,-0.6027402877807617
932,93400.0,-0.0867898091673851,-9.661202430725098,-0.5949591398239136
933,93600.0,-0.035314474254846566,-9.666589736938477,-0.4471171796321869
934,93800.0,-0.09457096457481384,-9.665990829467773,-0.5650315880775452
935,94000.0,-0.0071826050989329815,-9.638457298278807,-0.6147112846374512
936,94200.0,-0.09157821536064148,-9.615114212036133,-0.5482721924781799
937,94400.0,0.01975216343998909,-9.68574333190918,-0.4399345517158508
938,94600.0,0.0520738884806633,-9.637859344482422,-0.5985504388809204
939,94800.0,-0.2424129247665405,-9.621099472045898,-0.4782418012619018
940,94000.0,-0.0071826050989329815,-9.638457298278807,-0.6147112846374512
941,94200.0,-0.09157821536064148,-9.615114212036133,-0.5482721924781799
942,94400.0,0.01975216343998909,-9.68574333190918,-0.4399345517158508
943,94600.0,0.0520738884806633,-9.637859344482422,-0.5985504388809204
944,94800.0,-0.2424129247665405,-9.621099472045898,-0.4782418012619018
945,95000.0,-0.043095629662275314,-9.661202430725098,-0.44412440061569214
946,95200.0,-0.058059390634298325,-9.599552154541016,-0.6985083222389221
947,95400.0,-0.058059390634298325,-9.652822494506836,-0.4088099300861359
948,95600.0,0.11133038252592088,-9.658209800720217,-0.4866214990615845
949,95800.0,0.1173158809542656,-9.66419506072998,-0.6165069341659546
950,95000.0,-0.043095629662275314,-9.661202430725098,-0.44412440061569214
951,95200.0,-0.058059390634298325,-9.599552154541016,-0.6985083222389221
952,95400.0,-0.058059390634298325,-9.652822494506836,-0.4088099300861359
953,95600.0,0.11133038252592088,-9.658209800720217,-0.4866214990615845
954,95800.0,0.1173158809542656,-9.66419506072998,-0.6165069341659546
955,96000.0,0.03232172131538391,-9.727641105651855,-0.272938996553421
956,96200.0,-0.2950853705406189,-9.666589736938477,-0.4830302000045776
957,96400.0,-0.15143325924873352,-9.701305389404297,-0.5117605924606323
958,96600.0,-0.1173158809542656,-9.642048835754396,-0.487220048904419
959,96800.0,-0.07481880486011505,-9.668384552001953,-0.4315548539161682
960,96000.0,0.03232172131538391,-9.727641105651855,-0.272938996553421
961,96200.0,-0.2950853705406189,-9.666589736938477,-0.4830302000045776
962,96400.0,-0.15143325924873352,-9.701305389404297,-0.5117605924606323
963,96600.0,-0.1173158809542656,-9.642048835754396,-0.487220048904419
964,96800.0,-0.07481880486011505,-9.668384552001953,-0.4315548539161682
965,97000.0,-0.243011474609375,-9.651026725769043,-0.4381389021873474
966,97200.0,-0.10833762586116792,-9.654618263244627,-0.6087257862091064
967,97400.0,-0.28311434388160706,-9.674968719482422,-0.3890577852725983
968,97600.0,-0.14245499670505524,-9.673771858215332,-0.4938040971755981
969,97800.0,-0.02693476900458336,-9.750386238098145,-0.13048399984836578
970,97000.0,-0.243011474609375,-9.651026725769043,-0.4381389021873474
971,97200.0,-0.10833762586116792,-9.654618263244627,-0.6087257862091064
972,97400.0,-0.28311434388160706,-9.674968719482422,-0.3890577852725983
973,97600.0,-0.14245499670505524,-9.673771858215332,-0.4938040971755981
974,97800.0,-0.02693476900458336,-9.750386238098145,-0.13048399984836578
975,98000.0,0.21607670187950132,-9.566033363342283,-0.5674257874488831
976,98200.0,-0.07781155407428741,-9.730634689331056,-0.16639702022075653
977,98400.0,0.06584054976701736,-9.580398559570312,-0.5249287486076355
978,98600.0,-0.17836803197860718,-9.653421401977539,-0.3663128614425659
979,98800.0,0.04489128291606903,-9.627084732055664,-0.4088099300861359
980,98000.0,0.21607670187950132,-9.566033363342283,-0.5674257874488831
981,98200.0,-0.07781155407428741,-9.730634689331056,-0.16639702022075653
982,98400.0,0.06584054976701736,-9.580398559570312,-0.5249287486076355
983,98600.0,-0.17836803197860718,-9.653421401977539,-0.3663128614425659
984,98800.0,0.04489128291606903,-9.627084732055664,-0.4088099300861359
985,99000.0,-0.2059013396501541,-9.674968719482422,-0.6458359360694885
986,99200.0,-0.08200141042470932,-9.633668899536133,-0.5398924946784973
987,99400.0,0.029927521944046017,-9.692925453186037,-0.2932897210121155
988,99600.0,-0.07003039866685867,-9.650428771972656,-0.496198296546936
989,99800.0,0.16160862147808075,-9.616909980773926,-0.568622887134552
990,99000.0,-0.2059013396501541,-9.674968719482422,-0.6458359360694885
991,99200.0,-0.08200141042470932,-9.633668899536133,-0.5398924946784973
992,99400.0,0.029927521944046017,-9.692925453186037,-0.2932897210121155
993,99600.0,-0.07003039866685867,-9.650428771972656,-0.496198296546936
994,99800.0,0.16160862147808075,-9.616909980773926,-0.568622887134552
995,100000.0,-0.08738835901021957,-9.676166534423828,-0.4728548228740692
996,100200.0,0.07242459803819656,-9.622296333312988,-0.5494692921638489
997,100400.0,-0.1646013706922531,-9.65581512451172,-0.4722562730312347
998,100600.0,-0.1586158573627472,-9.650428771972656,-0.5949591398239136
999,100800.0,-0.09157821536064148,-9.670180320739746,-0.5620388388633728
1000,100000.0,-0.08738835901021957,-9.676166534423828,-0.4728548228740692
1001,100200.0,0.07242459803819656,-9.622296333312988,-0.5494692921638489
1002,100400.0,-0.1646013706922531,-9.65581512451172,-0.4722562730312347
1003,100600.0,-0.1586158573627472,-9.650428771972656,-0.5949591398239136
1004,100800.0,-0.09157821536064148,-9.670180320739746,-0.5620388388633728
1005,101000.0,-0.18734627962112427,-9.635464668273926,-0.5506663918495178
1006,101200.0,-0.10534487664699554,-9.601346969604492,-0.6745663285255432
1007,101400.0,-0.20949265360832212,-9.689932823181152,-0.396240383386612
1008,101600.0,0.09816227108240128,-9.593565940856934,-0.535702645778656
1009,101800.0,-0.0802057534456253,-9.64923095703125,-0.5171475410461426
1010,101000.0,-0.18734627962112427,-9.635464668273926,-0.5506663918495178
1011,101200.0,-0.10534487664699554,-9.601346969604492,-0.6745663285255432
1012,101400.0,-0.20949265360832212,-9.689932823181152,-0.396240383386612
1013,101600.0,0.09816227108240128,-9.593565940856934,-0.535702645778656
1014,101800.0,-0.0802057534456253,-9.64923095703125,-0.5171475410461426
1015,102000.0,-0.016160860657691956,-9.66299819946289,-0.5183446407318115
1016,102200.0,-0.10594342648983003,-9.647436141967773,-0.5339069962501526
1017,102400.0,-0.1107318252325058,-9.66299819946289,-0.5093663930892944
1018,102600.0,0.20231004059314728,-9.631275177001953,-0.4746504724025726
1019,102800.0,-0.11611878126859665,-9.679757118225098,-0.4938040971755981
1020,102000.0,-0.016160860657691956,-9.66299819946289,-0.5183446407318115
1021,102200.0,-0.10594342648983003,-9.647436141967773,-0.5339069962501526
1022,102400.0,-0.1107318252325058,-9.66299819946289,-0.5093663930892944
1023,102600.0,0.20231004059314728,-9.631275177001953,-0.4746504724025726
1024,102800.0,-0.11611878126859665,-9.679757118225098,-0.4938040971755981
1025,103000.0,0.005386953707784414,-9.60553741455078,-0.657806932926178
1026,103200.0,0.07242459803819656,-9.618106842041016,-0.5165489912033081
1027,103400.0,0.1885433793067932,-9.643844604492188,-0.496198296546936
1028,103600.0,0.02454056777060032,-9.640851974487305,-0.5925649404525757
1029,103800.0,-0.04728548228740692,-9.702502250671387,-0.4094084799289704
1030,103000.0,0.005386953707784414,-9.60553741455078,-0.657806932926178
1031,103200.0,0.07242459803819656,-9.618106842041016,-0.5165489912033081
1032,103400.0,0.1885433793067932,-9.643844604492188,-0.496198296546936
1033,103600.0,0.02454056777060032,-9.640851974487305,-0.5925649404525757
1034,103800.0,-0.04728548228740692,-9.702502250671387,-0.4094084799289704
1035,104000.0,-0.07900865375995636,-9.619303703308104,-0.5428852438926697
1036,104200.0,-0.07242459803819656,-9.673771858215332,-0.395043283700943
1037,104400.0,0.06404489278793335,-9.65222454071045,-0.456095427274704
1038,104600.0,-0.198120191693306,-9.628880500793457,-0.4566939771175385
1039,104800.0,-0.013168109580874443,-9.603142738342283,-0.6248866319656372
1040,104000.0,-0.07900865375995636,-9.619303703308104,-0.5428852438926697
1041,104200.0,-0.07242459803819656,-9.673771858215332,-0.395043283700943
1042,104400.0,0.06404489278793335,-9.65222454071045,-0.456095427274704
1043,104600.0,-0.198120191693306,-9.628880500793457,-0.4566939771175385
1044,104800.0,-0.013168109580874443,-9.603142738342283,-0.6248866319656372
1045,105000.0,-0.12749123573303225,-9.694122314453123,-0.4387374520301819
1046,105200.0,0.1472434103488922,-9.66958236694336,-0.46627077460289
1047,105400.0,-0.15023615956306458,-9.636063575744627,-0.4800374507904053
1048,105600.0,0.1604115068912506,-9.654618263244627,-0.5524620413780212
1049,105800.0,-0.17537526786327362,-9.633070945739746,-0.6446388363838196
1050,105000.0,-0.12749123573303225,-9.694122314453123,-0.4387374520301819
1051,105200.0,0.1472434103488922,-9.66958236694336,-0.46627077460289
1052,105400.0,-0.15023615956306458,-9.636063575744627,-0.4800374507904053
1053,105600.0,0.1604115068912506,-9.654618263244627,-0.5524620413780212
1054,105800.0,-0.17537526786327362,-9.633070945739746,-0.6446388363838196
1055,106000.0,-0.11372458189725874,-9.628880500793457,-0.4740519225597382
1056,106200.0,-0.23104046285152435,-9.621099472045898,-0.5626373887062073
1057,106400.0,-0.007781155407428741,-9.635464668273926,-0.3926490843296051
1058,106600.0,-0.18555063009262085,-9.63187313079834,-0.4800374507904053
1059,106800.0,-0.16998831927776334,-9.601346969604492,-0.4985924959182739
1060,106000.0,-0.11372458189725874,-9.628880500793457,-0.4740519225597382
1061,106200.0,-0.23104046285152435,-9.621099472045898,-0.5626373887062073
1062,106400.0,-0.007781155407428741,-9.635464668273926,-0.3926490843296051
1063,106600.0,-0.18555063009262085,-9.63187313079834,-0.4800374507904053
1064,106800.0,-0.16998831927776334,-9.601346969604492,-0.4985924959182739
1065,107000.0,-0.058059390634298325,-9.633668899536133,-0.5704185366630554
1066,107200.0,-0.2358288615942001,-9.645041465759276,-0.5758054852485657
1067,107400.0,-0.23942017555236814,-9.68694019317627,-0.4932055473327637
1068,107600.0,-0.009576806798577309,-9.616311073303224,-0.6500257849693298
1069,107800.0,-0.22625206410884854,-9.64683723449707,-0.5087678432464601
1070,107000.0,-0.058059390634298325,-9.633668899536133,-0.5704185366630554
1071,107200.0,-0.2358288615942001,-9.645041465759276,-0.5758054852485657
1072,107400.0,-0.23942017555236814,-9.68694019317627,-0.4932055473327637
1073,107600.0,-0.009576806798577309,-9.616311073303224,-0.6500257849693298
1074,107800.0,-0.22625206410884854,-9.64683723449707,-0.5087678432464601
1075,108000.0,-0.13946224749088287,-9.63726043701172,-0.6518214344978333
1076,108200.0,0.12449848651885985,-9.655217170715332,-0.3675099611282349
1077,108400.0,-0.0957680642604828,-9.646238327026367,-0.507570743560791
1078,108600.0,0.060453593730926514,-9.640851974487305,-0.497395396232605
1079,108800.0,-0.21188685297966006,-9.66419506072998,-0.4345476031303406
1080,108000.0,-0.13946224749088287,-9.63726043701172,-0.6518214344978333
1081,108200.0,0.12449848651885985,-9.655217170715332,-0.3675099611282349
1082,108400.0,-0.0957680642604828,-9.646238327026367,-0.507570743560791
1083,108600.0,0.060453593730926514,-9.640851974487305,-0.497395396232605
1084,108800.0,-0.21188685297966006,-9.66419506072998,-0.4345476031303406
1085,109000.0,0.2477998733520508,-9.615114212036133,-0.5201402902603149
1086,109200.0,-0.042497079819440835,-9.63726043701172,-0.2849099934101105
1087,109400.0,-0.14425064623355865,-9.619902610778807,-0.5267243981361389
1088,109600.0,0.10534487664699554,-9.668983459472656,-0.4405331015586853
1089,109800.0,0.0293289702385664,-9.654618263244627,-0.4686649739742279
1090,109000.0,0.2477998733520508,-9.615114212036133,-0.5201402902603149
1091,109200.0,-0.042497079819440835,-9.63726043701172,-0.2849099934101105
1092,109400.0,-0.14425064623355865,-9.619902610778807,-0.5267243981361389
1093,109600.0,0.10534487664699554,-9.668983459472656,-0.4405331015586853
1094,109800.0,0.0293289702385664,-9.654618263244627,-0.4686649739742279
1095,110000.0,0.05327098816633225,-9.603142738342283,-0.6494272351264954
1096,110200.0,-0.021547814831137657,-9.627084732055664,-0.52552729845047
1097,110400.0,-0.0520738884806633,-9.624691009521484,-0.5596446394920349
1098,110600.0,0.18914192914962769,-9.673172950744627,-0.2992752194404602
1099,110800.0,-0.1562216579914093,-9.686341285705566,-0.3824737071990967
1100,110000.0,0.05327098816633225,-9.603142738342283,-0.6494272351264954
1101,110200.0,-0.021547814831137657,-9.627084732055664,-0.52552729845047
1102,110400.0,-0.0520738884806633,-9.624691009521484,-0.5596446394920349
1103,110600.0,0.18914192914962769,-9.673172950744627,-0.2992752194404602
1104,110800.0,-0.1562216579914093,-9.686341285705566,-0.3824737071990967
1105,111000.0,0.04369417950510979,-9.742006301879883,-0.3621230125427246
1106,111200.0,0.08858546614646913,-9.577404975891113,-0.3699041604995728
1107,111400.0,-0.16639702022075653,-9.686341285705566,-0.5380968451499939
1108,111600.0,0.09217676520347597,-9.636661529541016,-0.5123591423034668
1109,111800.0,-0.0694318488240242,-9.715670585632324,-0.4920084476470947
1110,111000.0,0.04369417950510979,-9.742006301879883,-0.3621230125427246
1111,111200.0,0.08858546614646913,-9.577404975891113,-0.3699041604995728
1112,111400.0,-0.16639702022075653,-9.686341285705566,-0.5380968451499939
1113,111600.0,0.09217676520347597,-9.636661529541016,-0.5123591423034668
1114,111800.0,-0.0694318488240242,-9.715670585632324,-0.4920084476470947
1115,112000.0,-0.1041477769613266,-9.7605619430542,-0.2358288615942001
1116,112200.0,0.010175357572734356,-9.637859344482422,-0.6745663285255432
1117,112400.0,0.08738835901021957,-9.635464668273926,-0.3387795388698578
1118,112600.0,0.16340427100658414,-9.609128952026367,-0.4519055783748626
1119,112800.0,-0.11192893236875534,-9.682151794433594,-0.4201824069023132
1120,112000.0,-0.1041477769613266,-9.7605619430542,-0.2358288615942001
1121,112200.0,0.010175357572734356,-9.637859344482422,-0.6745663285255432
1122,112400.0,0.08738835901021957,-9.635464668273926,-0.3387795388698578
1123,112600.0,0.16340427100658414,-9.609128952026367,-0.4519055783748626
1124,112800.0,-0.11192893236875534,-9.682151794433594,-0.4201824069023132
1125,113000.0,-0.2059013396501541,-9.649829864501953,-0.4710591733455658
1126,113200.0,-0.08619125932455063,-9.622895240783693,-0.5668272376060486
1127,113400.0,-0.10354922711849213,-9.676764488220217,-0.3806780576705933
1128,113600.0,-0.020350715145468712,-9.626486778259276,-0.6536170840263367
1129,113800.0,0.15682020783424375,-9.653421401977539,-0.5835866928100586
1130,113000.0,-0.2059013396501541,-9.649829864501953,-0.4710591733455658
1131,113200.0,-0.08619125932455063,-9.622895240783693,-0.5668272376060486
1132,113400.0,-0.10354922711849213,-9.676764488220217,-0.3806780576705933
1133,113600.0,-0.020350715145468712,-9.626486778259276,-0.6536170840263367
1134,113800.0,0.15682020783424375,-9.653421401977539,-0.5835866928100586
1135,114000.0,-0.028730420395731926,-9.688735961914064,-0.4740519225597382
1136,114200.0,-0.1628057211637497,-9.607333183288574,-0.6290764808654785
1137,114400.0,-0.004788403399288654,-9.69651699066162,-0.28371289372444153
1138,114600.0,-0.2783259451389313,-9.683947563171387,-0.545877993106842
1139,114800.0,0.1256955862045288,-9.649829864501953,-0.4914098978042602
1140,114000.0,-0.028730420395731926,-9.688735961914064,-0.4740519225597382
1141,114200.0,-0.1628057211637497,-9.607333183288574,-0.6290764808654785
1142,114400.0,-0.004788403399288654,-9.69651699066162,-0.28371289372444153
1143,114600.0,-0.2783259451389313,-9.683947563171387,-0.545877993106842
1144,114800.0,0.1256955862045288,-9.649829864501953,-0.4914098978042602
1145,115000.0,-0.14604631066322327,-9.626486778259276,-0.6147112846374512
1146,115200.0,-0.10055647045373917,-9.659406661987305,-0.4070142805576325
1147,115400.0,0.08918401598930359,-9.673771858215332,-0.5548562407493591
1148,115600.0,-0.36391866207122797,-9.665990829467773,-0.5009866952896118
1149,115800.0,-0.015562310814857485,-9.655217170715332,-0.2968810200691223
1150,115000.0,-0.14604631066322327,-9.626486778259276,-0.6147112846374512
1151,115200.0,-0.10055647045373917,-9.659406661987305,-0.4070142805576325
1152,115400.0,0.08918401598930359,-9.673771858215332,-0.5548562407493591
1153,115600.0,-0.36391866207122797,-9.665990829467773,-0.5009866952896118
1154,115800.0,-0.015562310814857485,-9.655217170715332,-0.2968810200691223
1155,116000.0,-0.07422025501728058,-9.63067626953125,-0.6961141228675842
1156,116200.0,-0.0520738884806633,-9.62409210205078,-0.33099839091300964
1157,116400.0,-0.0694318488240242,-9.61212158203125,-0.8493430614471436
1158,116600.0,-0.058059390634298325,-9.656414031982422,-0.2687491476535797
1159,116800.0,-0.08978256583213806,-9.626486778259276,-0.6129156351089478
1160,116000.0,-0.07422025501728058,-9.63067626953125,-0.6961141228675842
1161,116200.0,-0.0520738884806633,-9.62409210205078,-0.33099839091300964
1162,116400.0,-0.0694318488240242,-9.61212158203125,-0.8493430614471436
1163,116600.0,-0.058059390634298325,-9.656414031982422,-0.2687491476535797
1164,116800.0,-0.08978256583213806,-9.626486778259276,-0.6129156351089478
1165,117000.0,-0.05506663769483566,-9.672574996948242,-0.4399345517158508
1166,117200.0,-0.07781155407428741,-9.643245697021484,-0.6428431272506714
1167,117400.0,0.0802057534456253,-9.621099472045898,-0.6027402877807617
1168,117600.0,-0.023343466222286224,-9.6989107131958,-0.5153518915176392
1169,117800.0,-0.11671733111143112,-9.634267807006836,-0.36391866207122797
1170,117000.0,-0.05506663769483566,-9.672574996948242,-0.4399345517158508
1171,117200.0,-0.07781155407428741,-9.643245697021484,-0.6428431272506714
1172,117400.0,0.0802057534456253,-9.621099472045898,-0.6027402877807617
1173,117600.0,-0.023343466222286224,-9.6989107131958,-0.5153518915176392
1174,117800.0,-0.11671733111143112,-9.634267807006836,-0.36391866207122797
1175,118000.0,0.16819266974925995,-9.609726905822754,-0.7511807680130005
1176,118200.0,0.058059390634298325,-9.647436141967773,-0.6709750294685364
1177,118400.0,0.21547815203666687,-9.63187313079834,-0.4327519536018372
1178,118600.0,0.03112462162971497,-9.62828254699707,-0.6440402865409851
1179,118800.0,0.0293289702385664,-9.609726905822754,-0.8098387122154236
1180,118000.0,0.16819266974925995,-9.609726905822754,-0.7511807680130005
1181,118200.0,0.058059390634298325,-9.647436141967773,-0.6709750294685364
1182,118400.0,0.21547815203666687,-9.63187313079834,-0.4327519536018372
1183,118600.0,0.03112462162971497,-9.62828254699707,-0.6440402865409851
1184,118800.0,0.0293289702385664,-9.609726905822754,-0.8098387122154236
1185,119000.0,0.07960720360279082,-9.621698379516602,-0.4381389021873474
1186,119200.0,-0.03172317147254944,-9.644442558288574,-0.41120412945747375
1187,119400.0,-0.08559270948171616,-9.601945877075195,-0.702099621295929
1188,119600.0,-0.11971008777618407,-9.693524360656738,-0.4076128304004669
1189,119800.0,0.0017956512747332454,-9.658209800720217,-0.426167905330658
1190,119000.0,0.07960720360279082,-9.621698379516602,-0.4381389021873474
1191,119200.0,-0.03172317147254944,-9.644442558288574,-0.41120412945747375
1192,119400.0,-0.08559270948171616,-9.601945877075195,-0.702099621295929
1193,119600.0,-0.11971008777618407,-9.693524360656738,-0.4076128304004669
1194,119800.0,0.0017956512747332454,-9.658209800720217,-0.426167905330658
1195,120000.0,-0.16400282084941864,-9.660603523254396,-0.4537012279033661
1196,120200.0,0.1927332431077957,-9.630077362060547,-0.7356184720993042
1197,120400.0,-0.0802057534456253,-9.65581512451172,-0.17417816817760468
1198,120600.0,-0.13048399984836578,-9.686341285705566,-0.6937199234962463
1199,120800.0,-0.011372458189725876,-9.634267807006836,-0.4680664241313934
1200,120000.0,-0.16400282084941864,-9.660603523254396,-0.4537012279033661
1201,120200.0,0.1927332431077957,-9.630077362060547,-0.7356184720993042
1202,120400.0,-0.0802057534456253,-9.65581512451172,-0.17417816817760468
1203,120600.0,-0.13048399984836578,-9.686341285705566,-0.6937199234962463
1204,120800.0,-0.011372458189725876,-9.634267807006836,-0.4680664241313934
1205,121000.0,-0.11372458189725874,-9.64803409576416,-0.4836287498474121
1206,121200.0,-0.044292733073234565,-9.700706481933594,-0.475847601890564
1207,121400.0,-0.08259996026754379,-9.667786598205566,-0.3190273642539978
1208,121600.0,-0.2914940714836121,-9.657012939453123,-0.5129576921463013
1209,121800.0,-0.198120191693306,-9.641449928283693,-0.608127236366272
1210,121000.0,-0.11372458189725874,-9.64803409576416,-0.4836287498474121
1211,121200.0,-0.044292733073234565,-9.700706481933594,-0.475847601890564
1212,121400.0,-0.08259996026754379,-9.667786598205566,-0.3190273642539978
1213,121600.0,-0.2914940714836121,-9.657012939453123,-0.5129576921463013
1214,121800.0,-0.198120191693306,-9.641449928283693,-0.608127236366272
1215,122000.0,0.014963760972023009,-9.623494148254396,-0.3699041604995728
1216,122200.0,-0.09157821536064148,-9.64683723449707,-0.4225766062736511
1217,122400.0,0.07242459803819656,-9.679757118225098,-0.35733461380004883
1218,122600.0,-0.20350714027881625,-9.688735961914064,-0.44412440061569214
1219,122800.0,0.09038111567497252,-9.601346969604492,-0.6619967818260193
1220,122000.0,0.014963760972023009,-9.623494148254396,-0.3699041604995728
1221,122200.0,-0.09157821536064148,-9.64683723449707,-0.4225766062736511
1222,122400.0,0.07242459803819656,-9.679757118225098,-0.35733461380004883
1223,122600.0,-0.20350714027881625,-9.688735961914064,-0.44412440061569214
1224,122800.0,0.09038111567497252,-9.601346969604492,-0.6619967818260193
1225,123000.0,-0.0011971008498221636,-9.68155288696289,-0.6063315868377686
1226,123200.0,-0.12449848651885985,-9.606135368347168,-0.6392518281936646
1227,123400.0,-0.060453593730926514,-9.665990829467773,-0.5297171473503113
1228,123600.0,-0.08140286058187485,-9.631275177001953,-0.5315127968788147
1229,123800.0,-0.3429693877696991,-9.667187690734863,-0.5404910445213318
1230,123000.0,-0.0011971008498221636,-9.68155288696289,-0.6063315868377686
1231,123200.0,-0.12449848651885985,-9.606135368347168,-0.6392518281936646
1232,123400.0,-0.060453593730926514,-9.665990829467773,-0.5297171473503113
1233,123600.0,-0.08140286058187485,-9.631275177001953,-0.5315127968788147
1234,123800.0,-0.3429693877696991,-9.667187690734863,-0.5404910445213318
1235,124000.0,0.03112462162971497,-9.62947940826416,-0.4746504724025726
1236,124200.0,-0.041299980133771896,-9.64803409576416,-0.507570743560791
1237,124400.0,-0.1538274586200714,-9.658807754516602,-0.3776853084564209
1238,124600.0,0.15442600846290588,-9.624691009521484,-0.4183867573738098
1239,124800.0,0.04189852997660637,-9.60553741455078,-0.618302583694458
1240,124000.0,0.03112462162971497,-9.62947940826416,-0.4746504724025726
1241,124200.0,-0.041299980133771896,-9.64803409576416,-0.507570743560791
1242,124400.0,-0.1538274586200714,-9.658807754516602,-0.3776853084564209
1243,124600.0,0.15442600846290588,-9.624691009521484,-0.4183867573738098
1244,124800.0,0.04189852997660637,-9.60553741455078,-0.618302583694458
1245,125000.0,-0.11432313174009325,-9.679159164428713,-0.30705636739730835
1246,125200.0,0.1125274822115898,-9.665990829467773,-0.4267664551734924
1247,125400.0,-0.1999158412218094,-9.667786598205566,-0.2783259451389313
1248,125600.0,-0.1472434103488922,-9.607333183288574,-0.4638765752315521
1249,125800.0,-0.11432313174009325,-9.603741645812988,-0.6542156338691711
1250,125000.0,-0.11432313174009325,-9.679159164428713,-0.30705636739730835
1251,125200.0,0.1125274822115898,-9.665990829467773,-0.4267664551734924
1252,125400.0,-0.1999158412218094,-9.667786598205566,-0.2783259451389313
1253,125600.0,-0.1472434103488922,-9.607333183288574,-0.4638765752315521
1254,125800.0,-0.11432313174009325,-9.603741645812988,-0.6542156338691711
1255,126000.0,-0.2902969419956207,-9.70429801940918,-0.3806780576705933
1256,126200.0,0.06464344263076782,-9.615114212036133,-0.7523778676986694
1257,126400.0,0.05446808785200119,-9.654019355773926,-0.12988543510437012
1258,126600.0,-0.16160862147808075,-9.65581512451172,-0.7655459642410278
1259,126800.0,0.018555063754320145,-9.640253067016602,-0.4704606235027313
1260,126000.0,-0.2902969419956207,-9.70429801940918,-0.3806780576705933
1261,126200.0,0.06464344263076782,-9.615114212036133,-0.7523778676986694
1262,126400.0,0.05446808785200119,-9.654019355773926,-0.12988543510437012
1263,126600.0,-0.16160862147808075,-9.65581512451172,-0.7655459642410278
1264,126800.0,0.018555063754320145,-9.640253067016602,-0.4704606235027313
1265,127000.0,-0.07242459803819656,-9.668983459472656,-0.4686649739742279
1266,127200.0,-0.4010287821292877,-9.695320129394533,-0.4722562730312347
1267,127400.0,-0.1562216579914093,-9.668983459472656,-0.4255693554878235
1268,127600.0,0.059855043888092034,-9.642048835754396,-0.628477931022644
1269,127800.0,-0.05027823522686958,-9.620500564575195,-0.4321534037590027
1270,127000.0,-0.07242459803819656,-9.668983459472656,-0.4686649739742279
1271,127200.0,-0.4010287821292877,-9.695320129394533,-0.4722562730312347
1272,127400.0,-0.1562216579914093,-9.668983459472656,-0.4255693554878235
1273,127600.0,0.059855043888092034,-9.642048835754396,-0.628477931022644
1274,127800.0,-0.05027823522686958,-9.620500564575195,-0.4321534037590027
1275,128000.0,0.06524199992418289,-9.64923095703125,-0.5183446407318115
1276,128200.0,-0.26994624733924866,-9.6618013381958,-0.3483563363552093
1277,128400.0,0.12988543510437012,-9.643844604492188,-0.6021417379379272
1278,128600.0,0.076015904545784,-9.609726905822754,-0.44532153010368347
1279,128800.0,-0.2214636504650116,-9.662399291992188,-0.4291606545448303
1280,128000.0,0.06524199992418289,-9.64923095703125,-0.5183446407318115
1281,128200.0,-0.26994624733924866,-9.6618013381958,-0.3483563363552093
1282,128400.0,0.12988543510437012,-9.643844604492188,-0.6021417379379272
1283,128600.0,0.076015904545784,-9.609726905822754,-0.44532153010368347
1284,128800.0,-0.2214636504650116,-9.662399291992188,-0.4291606545448303
1285,129000.0,-0.16220717132091522,-9.650428771972656,-0.6386532783508301
1286,129200.0,-0.03232172131538391,-9.59715747833252,-0.5009866952896118
1287,129400.0,-0.08798690885305405,-9.654618263244627,-0.4572925269603729
1288,129600.0,-0.09935937076807022,-9.68574333190918,-0.4626794755458832
1289,129800.0,-0.08259996026754379,-9.63726043701172,-0.6548141837120056
1290,129000.0,-0.16220717132091522,-9.650428771972656,-0.6386532783508301
1291,129200.0,-0.03232172131538391,-9.59715747833252,-0.5009866952896118
1292,129400.0,-0.08798690885305405,-9.654618263244627,-0.4572925269603729
1293,129600.0,-0.09935937076807022,-9.68574333190918,-0.4626794755458832
1294,129800.0,-0.08259996026754379,-9.63726043701172,-0.6548141837120056
1295,130000.0,-0.12210428714752194,-9.68274974822998,-0.2657563984394073
1296,130200.0,-0.13826514780521393,-9.634865760803224,-0.6386532783508301
1297,130400.0,-0.12330138683319093,-9.636661529541016,-0.29388827085494995
1298,130600.0,-0.05686229094862937,-9.619902610778807,-0.628477931022644
1299,130800.0,0.016160860657691956,-9.65581512451172,-0.414795458316803
1300,130000.0,-0.12210428714752194,-9.68274974822998,-0.2657563984394073
1301,130200.0,-0.13826514780521393,-9.634865760803224,-0.6386532783508301
1302,130400.0,-0.12330138683319093,-9.636661529541016,-0.29388827085494995
1303,130600.0,-0.05686229094862937,-9.619902610778807,-0.628477931022644
1304,130800.0,0.016160860657691956,-9.65581512451172,-0.414795458316803
1305,131000.0,-0.13587094843387604,-9.616311073303224,-0.5662286877632141
1306,131200.0,-0.06344634294509888,-9.658807754516602,-0.545877993106842
1307,131400.0,0.05506663769483566,-9.625288963317873,-0.3190273642539978
1308,131600.0,-0.2059013396501541,-9.70429801940918,-0.46627077460289
1309,131800.0,-0.10594342648983003,-9.632472038269043,-0.5787982344627379
1310,131000.0,-0.13587094843387604,-9.616311073303224,-0.5662286877632141
1311,131200.0,-0.06344634294509888,-9.658807754516602,-0.545877993106842
1312,131400.0,0.05506663769483566,-9.625288963317873,-0.3190273642539978
1313,131600.0,-0.2059013396501541,-9.70429801940918,-0.46627077460289
1314,131800.0,-0.10594342648983003,-9.632472038269043,-0.5787982344627379
1315,132000.0,0.04848258569836617,-9.657012939453123,-0.4129997789859772
1316,132200.0,-0.008379706181585789,-9.661202430725098,-0.48602294921875
1317,132400.0,-0.3687070608139038,-9.633070945739746,-0.5662286877632141
1318,132600.0,0.14245499670505524,-9.662399291992188,-0.3938461840152741
1319,132800.0,-0.2537853717803955,-9.655217170715332,-0.5165489912033081
1320,132000.0,0.04848258569836617,-9.657012939453123,-0.4129997789859772
1321,132200.0,-0.008379706181585789,-9.661202430725098,-0.48602294921875
1322,132400.0,-0.3687070608139038,-9.633070945739746,-0.5662286877632141
1323,132600.0,0.14245499670505524,-9.662399291992188,-0.3938461840152741
1324,132800.0,-0.2537853717803955,-9.655217170715332,-0.5165489912033081
1325,133000.0,-0.07182604819536209,-9.634267807006836,-0.5482721924781799
1326,133200.0,0.0628477931022644,-9.601945877075195,-0.5889736413955688
1327,133400.0,-0.1735796183347702,-9.682151794433594,-0.5153518915176392
1328,133600.0,-0.034117374569177635,-9.627084732055664,-0.558447539806366
1329,133800.0,-0.008379706181585789,-9.654618263244627,-0.4076128304004669
1330,133000.0,-0.07182604819536209,-9.634267807006836,-0.5482721924781799
1331,133200.0,0.0628477931022644,-9.601945877075195,-0.5889736413955688
1332,133400.0,-0.1735796183347702,-9.682151794433594,-0.5153518915176392
1333,133600.0,-0.034117374569177635,-9.627084732055664,-0.558447539806366
1334,133800.0,-0.008379706181585789,-9.654618263244627,-0.4076128304004669
1335,134000.0,-0.09516951441764833,-9.593565940856934,-0.628477931022644
1336,134200.0,0.03292027488350868,-9.677363395690918,-0.4507084786891937
1337,134400.0,0.008978256024420261,-9.618106842041016,-0.4638765752315521
1338,134600.0,-0.1472434103488922,-9.665990829467773,-0.4704606235027313
1339,134800.0,-0.08080431073904037,-9.672574996948242,-0.3974374830722809
1340,134000.0,-0.09516951441764833,-9.593565940856934,-0.628477931022644
1341,134200.0,0.03292027488350868,-9.677363395690918,-0.4507084786891937
1342,134400.0,0.008978256024420261,-9.618106842041016,-0.4638765752315521
1343,134600.0,-0.1472434103488922,-9.665990829467773,-0.4704606235027313
1344,134800.0,-0.08080431073904037,-9.672574996948242,-0.3974374830722809
1345,135000.0,-0.2178723514080048,-9.707889556884766,-0.6554127335548401
1346,135200.0,-0.12030863761901855,-9.622895240783693,-0.5428852438926697
1347,135400.0,0.14844051003456116,-9.690531730651855,-0.4429273009300232
1348,135600.0,-0.23283611238002774,-9.640851974487305,-0.5410895943641663
1349,135800.0,0.13168109953403473,-9.627084732055664,-0.30047231912612915
1350,135000.0,-0.2178723514080048,-9.707889556884766,-0.6554127335548401
1351,135200.0,-0.12030863761901855,-9.622895240783693,-0.5428852438926697
1352,135400.0,0.14844051003456116,-9.690531730651855,-0.4429273009300232
1353,135600.0,-0.23283611238002774,-9.640851974487305,-0.5410895943641663
1354,135800.0,0.13168109953403473,-9.627084732055664,-0.30047231912612915
1355,136000.0,-0.2047042399644852,-9.61571216583252,-0.6470330357551575
1356,136200.0,-0.04967968538403511,-9.674370765686037,-0.497395396232605
1357,136400.0,0.030526071786880493,-9.60553741455078,-0.5123591423034668
1358,136600.0,-0.10833762586116792,-9.691728591918944,-0.4590881764888763
1359,136800.0,-0.08080431073904037,-9.636063575744627,-0.5997475385665894
1360,136000.0,-0.2047042399644852,-9.61571216583252,-0.6470330357551575
1361,136200.0,-0.04967968538403511,-9.674370765686037,-0.497395396232605
1362,136400.0,0.030526071786880493,-9.60553741455078,-0.5123591423034668
1363,136600.0,-0.10833762586116792,-9.691728591918944,-0.4590881764888763
1364,136800.0,-0.08080431073904037,-9.636063575744627,-0.5997475385665894
1365,137000.0,-0.12449848651885985,-9.693524360656738,-0.4620809257030487
1366,137200.0,-0.21009120345115664,-9.659406661987305,-0.4495113790035248
1367,137400.0,-0.16400282084941864,-9.645041465759276,-0.43095630407333374
1368,137600.0,0.06404489278793335,-9.650428771972656,-0.5488707423210144
1369,137800.0,-0.2567781209945679,-9.692925453186037,-0.44831427931785583
1370,137000.0,-0.12449848651885985,-9.693524360656738,-0.4620809257030487
1371,137200.0,-0.21009120345115664,-9.659406661987305,-0.4495113790035248
1372,137400.0,-0.16400282084941864,-9.645041465759276,-0.43095630407333374
1373,137600.0,0.06404489278793335,-9.650428771972656,-0.5488707423210144
1374,137800.0,-0.2567781209945679,-9.692925453186037,-0.44831427931785583
1375,138000.0,0.03112462162971497,-9.622296333312988,-0.5823895931243896
1376,138200.0,-0.05446808785200119,-9.63067626953125,-0.4644751250743866
1377,138400.0,-0.12030863761901855,-9.59715747833252,-0.3411737382411957
1378,138600.0,-0.020350715145468712,-9.591172218322754,-0.6123170852661133
1379,138800.0,-0.2412158250808716,-9.676166534423828,-0.3112462162971497
1380,138000.0,0.03112462162971497,-9.622296333312988,-0.5823895931243896
1381,138200.0,-0.05446808785200119,-9.63067626953125,-0.4644751250743866
1382,138400.0,-0.12030863761901855,-9.59715747833252,-0.3411737382411957
1383,138600.0,-0.020350715145468712,-9.591172218322754,-0.6123170852661133
1384,138800.0,-0.2412158250808716,-9.676166534423828,-0.3112462162971497
1385,139000.0,-0.02693476900458336,-9.657012939453123,-0.5997475385665894
1386,139200.0,-0.284311443567276,-9.68813705444336,-0.5105634927749634
1387,139400.0,0.0035913025494664907,-9.734225273132324,-0.4010287821292877
1388,139600.0,-0.10175357013940813,-9.648633003234863,-0.5476736426353455
1389,139800.0,-0.0065840547904372215,-9.651026725769043,-0.4584896266460418
1390,139000.0,-0.02693476900458336,-9.657012939453123,-0.5997475385665894
1391,139200.0,-0.284311443567276,-9.68813705444336,-0.5105634927749634
1392,139400.0,0.0035913025494664907,-9.734225273132324,-0.4010287821292877
1393,139600.0,-0.10175357013940813,-9.648633003234863,-0.5476736426353455
1394,139800.0,-0.0065840547904372215,-9.651026725769043,-0.4584896266460418
1395,140000.0,-0.18914192914962769,-9.636661529541016,-0.4088099300861359
1396,140200.0,-0.06344634294509888,-9.657610893249512,-0.6254851818084717
1397,140400.0,0.0586579404771328,-9.640851974487305,-0.454898327589035
1398,140600.0,-0.323815792798996,-9.618106842041016,-0.6506243348121643
1399,140800.0,-0.1191115379333496,-9.674968719482422,-0.3387795388698578
1400,140000.0,-0.18914192914962769,-9.636661529541016,-0.4088099300861359
1401,140200.0,-0.06344634294509888,-9.657610893249512,-0.6254851818084717
1402,140400.0,0.0586579404771328,-9.640851974487305,-0.454898327589035
1403,140600.0,-0.323815792798996,-9.618106842041016,-0.6506243348121643
1404,140800.0,-0.1191115379333496,-9.674968719482422,-0.3387795388698578
1405,141000.0,-0.0005985504249110818,-9.663596153259276,-0.30945056676864624
1406,141200.0,-0.2657563984394073,-9.673771858215332,-0.40462008118629456
1407,141400.0,0.09876082092523576,-9.592967987060547,-0.5428852438926697
1408,141600.0,-0.002992752008140087,-9.667187690734863,-0.4507084786891937
1409,141800.0,-0.18734627962112427,-9.635464668273926,-0.7296329736709595
1410,141000.0,-0.0005985504249110818,-9.663596153259276,-0.30945056676864624
1411,141200.0,-0.2657563984394073,-9.673771858215332,-0.40462008118629456
1412,141400.0,0.09876082092523576,-9.592967987060547,-0.5428852438926697
1413,141600.0,-0.002992752008140087,-9.667187690734863,-0.4507084786891937
1414,141800.0,-0.18734627962112427,-9.635464668273926,-0.7296329736709595
1415,142000.0,-0.14604631066322327,-9.66419506072998,-0.487220048904419
1416,142200.0,-0.08918401598930359,-9.651625633239746,-0.3633201122283936
1417,142400.0,0.2472013235092163,-9.634865760803224,-0.4985924959182739
1418,142600.0,-0.4608838260173798,-9.674968719482422,-0.33997663855552673
1419,142800.0,0.13048399984836578,-9.600150108337402,-0.5279214978218079
1420,142000.0,-0.14604631066322327,-9.66419506072998,-0.487220048904419
1421,142200.0,-0.08918401598930359,-9.651625633239746,-0.3633201122283936
1422,142400.0,0.2472013235092163,-9.634865760803224,-0.4985924959182739
1423,142600.0,-0.4608838260173798,-9.674968719482422,-0.33997663855552673
1424,142800.0,0.13048399984836578,-9.600150108337402,-0.5279214978218079
1425,143000.0,-0.19393034279346466,-9.62409210205078,-0.5057750940322876
1426,143200.0,-0.021547814831137657,-9.65222454071045,-0.6961141228675842
1427,143400.0,-0.18555063009262085,-9.677363395690918,-0.32022446393966675
1428,143600.0,0.323815792798996,-9.586383819580078,-0.7098808288574219
1429,143800.0,-0.2124854028224945,-9.657012939453123,-0.20709845423698425
1430,143000.0,-0.19393034279346466,-9.62409210205078,-0.5057750940322876
1431,143200.0,-0.021547814831137657,-9.65222454071045,-0.6961141228675842
1432,143400.0,-0.18555063009262085,-9.677363395690918,-0.32022446393966675
1433,143600.0,0.323815792798996,-9.586383819580078,-0.7098808288574219
1434,143800.0,-0.2124854028224945,-9.657012939453123,-0.20709845423698425
1435,144000.0,-0.20530278980731964,-9.61212158203125,-0.6458359360694885
1436,144200.0,0.06344634294509888,-9.498994827270508,-0.4058171808719635
1437,144400.0,-0.25917232036590576,-9.630077362060547,-0.657806932926178
1438,144600.0,-0.21667525172233584,-9.733028411865234,-0.20051439106464386
1439,144800.0,-0.13587094843387604,-9.650428771972656,-0.3794809579849243
1440,144000.0,-0.20530278980731964,-9.61212158203125,-0.6458359360694885
1441,144200.0,0.06344634294509888,-9.498994827270508,-0.4058171808719635
1442,144400.0,-0.25917232036590576,-9.630077362060547,-0.657806932926178
1443,144600.0,-0.21667525172233584,-9.733028411865234,-0.20051439106464386
1444,144800.0,-0.13587094843387604,-9.650428771972656,-0.3794809579849243
1445,145000.0,-0.21667525172233584,-9.688735961914064,-0.4602852761745453
1446,145200.0,-0.14425064623355865,-9.662399291992188,-0.333991140127182
1447,145400.0,-0.4159925580024719,-9.734824180603027,-0.3447650372982025
1448,145600.0,-0.23283611238002774,-9.667786598205566,-0.2908954918384552
1449,145800.0,0.034117374569177635,-9.613917350769043,-0.3687070608139038
1450,145000.0,-0.21667525172233584,-9.688735961914064,-0.4602852761745453
1451,145200.0,-0.14425064623355865,-9.662399291992188,-0.333991140127182
1452,145400.0,-0.4159925580024719,-9.734824180603027,-0.3447650372982025
1453,145600.0,-0.23283611238002774,-9.667786598205566,-0.2908954918384552
1454,145800.0,0.034117374569177635,-9.613917350769043,-0.3687070608139038
1455,146000.0,0.061052143573760986,-9.633668899536133,-0.26815059781074524
1456,146200.0,0.1256955862045288,-9.646238327026367,-0.6949170231819153
1457,146400.0,-0.4040215313434601,-9.691129684448242,-0.18375498056411746
1458,146600.0,0.13168109953403473,-9.657012939453123,-0.4189853072166443
1459,146800.0,0.17417816817760468,-9.680954933166504,-0.4896142482757568
1460,146000.0,0.061052143573760986,-9.633668899536133,-0.26815059781074524
1461,146200.0,0.1256955862045288,-9.646238327026367,-0.6949170231819153
1462,146400.0,-0.4040215313434601,-9.691129684448242,-0.18375498056411746
1463,146600.0,0.13168109953403473,-9.657012939453123,-0.4189853072166443
1464,146800.0,0.17417816817760468,-9.680954933166504,-0.4896142482757568
1465,147000.0,-0.18315643072128296,-9.657012939453123,-0.44532153010368347
1466,147200.0,0.08738835901021957,-9.659406661987305,-0.3609259128570557
1467,147400.0,0.0736217051744461,-9.694721221923828,-0.4914098978042602
1468,147600.0,-0.3010708689689636,-9.62947940826416,-0.4704606235027313
1469,147800.0,0.010175357572734356,-9.633070945739746,-0.43754035234451294
1470,147000.0,-0.18315643072128296,-9.657012939453123,-0.44532153010368347
1471,147200.0,0.08738835901021957,-9.659406661987305,-0.3609259128570557
1472,147400.0,0.0736217051744461,-9.694721221923828,-0.4914098978042602
1473,147600.0,-0.3010708689689636,-9.62947940826416,-0.4704606235027313
1474,147800.0,0.010175357572734356,-9.633070945739746,-0.43754035234451294
1475,148000.0,-0.1538274586200714,-9.674968719482422,-0.5219359993934631
1476,148200.0,-0.1999158412218094,-9.603142738342283,-0.4094084799289704
1477,148400.0,-0.013766659423708916,-9.66539192199707,-0.465073674917221
1478,148600.0,-0.08140286058187485,-9.66958236694336,-0.496198296546936
1479,148800.0,-0.1909375786781311,-9.59057331085205,-0.5219359993934631
1480,148000.0,-0.1538274586200714,-9.674968719482422,-0.5219359993934631
1481,148200.0,-0.1999158412218094,-9.603142738342283,-0.4094084799289704
1482,148400.0,-0.013766659423708916,-9.66539192199707,-0.465073674917221
1483,148600.0,-0.08140286058187485,-9.66958236694336,-0.496198296546936
1484,148800.0,-0.1909375786781311,-9.59057331085205,-0.5219359993934631
1485,149000.0,0.2286462634801865,-9.68574333190918,-0.4405331015586853
1486,149200.0,-0.2753331959247589,-9.609726905822754,-0.5764040350914001
1487,149400.0,0.06883329898118973,-9.619902610778807,-0.5207388401031494
1488,149600.0,0.09038111567497252,-9.64564037322998,-0.5620388388633728
1489,149800.0,-0.10594342648983003,-9.692327499389648,-0.5590460896492004
1490,149000.0,0.2286462634801865,-9.68574333190918,-0.4405331015586853
1491,149200.0,-0.2753331959247589,-9.609726905822754,-0.5764040350914001
1492,149400.0,0.06883329898118973,-9.619902610778807,-0.5207388401031494
1493,149600.0,0.09038111567497252,-9.64564037322998,-0.5620388388633728
1494,149800.0,-0.10594342648983003,-9.692327499389648,-0.5590460896492004
1495,150000.0,0.04189852997660637,-9.64803409576416,-0.4644751250743866
1496,150200.0,-0.13407529890537262,-9.583989143371582,-0.5674257874488831
1497,150400.0,0.23762452602386475,-9.654019355773926,-0.518943190574646
1498,150600.0,-0.304063618183136,-9.66419506072998,-0.4692635238170624
1499,150800.0,-0.1256955862045288,-9.664793968200684,-0.3148375153541565
1500,150000.0,0.04189852997660637,-9.64803409576416,-0.4644751250743866
1501,150200.0,-0.13407529890537262,-9.583989143371582,-0.5674257874488831
1502,150400.0,0.23762452602386475,-9.654019355773926,-0.518943190574646
1503,150600.0,-0.304063618183136,-9.66419506072998,-0.4692635238170624
1504,150800.0,-0.1256955862045288,-9.664793968200684,-0.3148375153541565
1505,151000.0,-0.01735796220600605,-9.66299819946289,-0.5692214369773865
1506,151200.0,-0.2873041927814484,-9.671976089477539,-0.3675099611282349
1507,151400.0,-0.06464344263076782,-9.645041465759276,-0.5548562407493591
1508,151600.0,-0.05746084079146385,-9.63067626953125,-0.4189853072166443
1509,151800.0,-0.24420857429504395,-9.706093788146973,-0.5632359385490417
1510,151000.0,-0.01735796220600605,-9.66299819946289,-0.5692214369773865
1511,151200.0,-0.2873041927814484,-9.671976089477539,-0.3675099611282349
1512,151400.0,-0.06464344263076782,-9.645041465759276,-0.5548562407493591
1513,151600.0,-0.05746084079146385,-9.63067626953125,-0.4189853072166443
1514,151800.0,-0.24420857429504395,-9.706093788146973,-0.5632359385490417
1515,152000.0,-0.1256955862045288,-9.64923095703125,-0.23762452602386475
1516,152200.0,0.07960720360279082,-9.711481094360352,-0.5267243981361389
1517,152400.0,-0.08319851011037828,-9.691728591918944,-0.2819172441959381
1518,152600.0,-0.28131869435310364,-9.68155288696289,-0.4435258507728577
1519,152800.0,0.1933317929506302,-9.665990829467773,-0.4908113479614258
1520,152000.0,-0.1256955862045288,-9.64923095703125,-0.23762452602386475
1521,152200.0,0.07960720360279082,-9.711481094360352,-0.5267243981361389
1522,152400.0,-0.08319851011037828,-9.691728591918944,-0.2819172441959381
1523,152600.0,-0.28131869435310364,-9.68155288696289,-0.4435258507728577
1524,152800.0,0.1933317929506302,-9.665990829467773,-0.4908113479614258
1525,153000.0,-0.24420857429504395,-9.657610893249512,-0.4034229815006256
1526,153200.0,0.025737667456269264,-9.665990829467773,-0.5752069354057312
1527,153400.0,-0.09696517139673233,-9.636661529541016,-0.4620809257030487
1528,153600.0,-0.10175357013940813,-9.694122314453123,-0.4189853072166443
1529,153800.0,-0.1628057211637497,-9.627683639526367,-0.5955576896667479
1530,153000.0,-0.24420857429504395,-9.657610893249512,-0.4034229815006256
1531,153200.0,0.025737667456269264,-9.665990829467773,-0.5752069354057312
1532,153400.0,-0.09696517139673233,-9.636661529541016,-0.4620809257030487
1533,153600.0,-0.10175357013940813,-9.694122314453123,-0.4189853072166443
1534,153800.0,-0.1628057211637497,-9.627683639526367,-0.5955576896667479
1535,154000.0,0.1454477459192276,-9.62828254699707,-0.4746504724025726
1536,154200.0,-0.152031809091568,-9.642647743225098,-0.5422866940498352
1537,154400.0,0.3363853394985199,-9.67077922821045,-0.2825157940387726
1538,154600.0,-0.03232172131538391,-9.65581512451172,-0.4118026793003082
1539,154800.0,-0.06703764945268631,-9.658209800720217,-0.4135983288288117
1540,154000.0,0.1454477459192276,-9.62828254699707,-0.4746504724025726
1541,154200.0,-0.152031809091568,-9.642647743225098,-0.5422866940498352
1542,154400.0,0.3363853394985199,-9.67077922821045,-0.2825157940387726
1543,154600.0,-0.03232172131538391,-9.65581512451172,-0.4118026793003082
1544,154800.0,-0.06703764945268631,-9.658209800720217,-0.4135983288288117
1545,155000.0,0.008978256024420261,-9.613917350769043,-0.656609833240509
1546,155200.0,-0.014963760972023009,-9.589376449584961,-0.4135983288288117
1547,155400.0,-0.014963760972023009,-9.61571216583252,-0.5710170865058899
1548,155600.0,-0.041299980133771896,-9.668983459472656,-0.5380968451499939
1549,155800.0,-0.10055647045373917,-9.678560256958008,-0.5285200476646423
1550,155000.0,0.008978256024420261,-9.613917350769043,-0.656609833240509
1551,155200.0,-0.014963760972023009,-9.589376449584961,-0.4135983288288117
1552,155400.0,-0.014963760972023009,-9.61571216583252,-0.5710170865058899
1553,155600.0,-0.041299980133771896,-9.668983459472656,-0.5380968451499939
1554,155800.0,-0.10055647045373917,-9.678560256958008,-0.5285200476646423
1555,156000.0,-0.12030863761901855,-9.61571216583252,-0.6392518281936646
1556,156200.0,-0.11133038252592088,-9.707889556884766,-0.436343252658844
1557,156400.0,-0.1149216815829277,-9.623494148254396,-0.4716577231884002
1558,156600.0,-0.1777694821357727,-9.680954933166504,-0.4788403511047363
1559,156800.0,-0.05267243832349777,-9.701904296875,-0.4632780253887177
1560,156000.0,-0.12030863761901855,-9.61571216583252,-0.6392518281936646
1561,156200.0,-0.11133038252592088,-9.707889556884766,-0.436343252658844
1562,156400.0,-0.1149216815829277,-9.623494148254396,-0.4716577231884002
1563,156600.0,-0.1777694821357727,-9.680954933166504,-0.4788403511047363
1564,156800.0,-0.05267243832349777,-9.701904296875,-0.4632780253887177
1565,157000.0,-0.1867477297782898,-9.626486778259276,-0.5237316489219666
1566,157200.0,-0.013766659423708916,-9.658209800720217,-0.5249287486076355
1567,157400.0,-0.058059390634298325,-9.661202430725098,-0.7182605266571045
1568,157600.0,-0.035314474254846566,-9.620500564575195,-0.5841852426528931
1569,157800.0,-0.061650693416595466,-9.651625633239746,-0.40462008118629456
1570,157000.0,-0.1867477297782898,-9.626486778259276,-0.5237316489219666
1571,157200.0,-0.013766659423708916,-9.658209800720217,-0.5249287486076355
1572,157400.0,-0.058059390634298325,-9.661202430725098,-0.7182605266571045
1573,157600.0,-0.035314474254846566,-9.620500564575195,-0.5841852426528931
1574,157800.0,-0.061650693416595466,-9.651625633239746,-0.40462008118629456
1575,158000.0,-0.03770867735147476,-9.622895240783693,-0.679354727268219
1576,158200.0,-0.14903905987739566,-9.671976089477539,-0.3830722570419312
1577,158400.0,-0.09097966551780699,-9.587580680847168,-0.7996633648872375
1578,158600.0,-0.13946224749088287,-9.692327499389648,-0.2807201445102692
1579,158800.0,-0.2047042399644852,-9.588777542114258,-0.7745242714881897
1580,158000.0,-0.03770867735147476,-9.622895240783693,-0.679354727268219
1581,158200.0,-0.14903905987739566,-9.671976089477539,-0.3830722570419312
1582,158400.0,-0.09097966551780699,-9.587580680847168,-0.7996633648872375
1583,158600.0,-0.13946224749088287,-9.692327499389648,-0.2807201445102692
1584,158800.0,-0.2047042399644852,-9.588777542114258,-0.7745242714881897
1585,159000.0,-0.19452889263629916,-9.658209800720217,-0.21368250250816345
1586,159200.0,-0.08858546614646913,-9.583391189575195,-0.4680664241313934
1587,159400.0,0.1927332431077957,-9.603142738342283,-0.5219359993934631
1588,159600.0,0.24420857429504395,-9.658209800720217,-0.284311443567276
1589,159800.0,-0.262763649225235,-9.638457298278807,-0.4070142805576325
1590,159000.0,-0.19452889263629916,-9.658209800720217,-0.21368250250816345
1591,159200.0,-0.08858546614646913,-9.583391189575195,-0.4680664241313934
1592,159400.0,0.1927332431077957,-9.603142738342283,-0.5219359993934631
1593,159600.0,0.24420857429504395,-9.658209800720217,-0.284311443567276
1594,159800.0,-0.262763649225235,-9.638457298278807,-0.4070142805576325
1595,160000.0,0.2561795711517334,-9.608530044555664,-0.6057330369949341
1596,160200.0,-0.3830722570419312,-9.694122314453123,-0.4955997467041016
1597,160400.0,0.042497079819440835,-9.636063575744627,-0.5404910445213318
1598,160600.0,-0.10833762586116792,-9.642647743225098,-0.5434837937355042
1599,160800.0,-0.11971008777618407,-9.6618013381958,-0.6350619792938232
1600,160000.0,0.2561795711517334,-9.608530044555664,-0.6057330369949341
1601,160200.0,-0.3830722570419312,-9.694122314453123,-0.4955997467041016
1602,160400.0,0.042497079819440835,-9.636063575744627,-0.5404910445213318
1603,160600.0,-0.10833762586116792,-9.642647743225098,-0.5434837937355042
1604,160800.0,-0.11971008777618407,-9.6618013381958,-0.6350619792938232
1605,161000.0,-0.015562310814857485,-9.63187313079834,-0.3184288144111633
1606,161200.0,-0.042497079819440835,-9.610923767089844,-0.8152256608009338
1607,161400.0,0.25498247146606445,-9.577404975891113,-0.4076128304004669
1608,161600.0,-0.2777273952960968,-9.646238327026367,-0.5327098965644836
1609,161800.0,-0.12270283699035645,-9.702502250671387,-0.4537012279033661
1610,161000.0,-0.015562310814857485,-9.63187313079834,-0.3184288144111633
1611,161200.0,-0.042497079819440835,-9.610923767089844,-0.8152256608009338
1612,161400.0,0.25498247146606445,-9.577404975891113,-0.4076128304004669
1613,161600.0,-0.2777273952960968,-9.646238327026367,-0.5327098965644836
1614,161800.0,-0.12270283699035645,-9.702502250671387,-0.4537012279033661
1615,162000.0,-0.3076549172401428,-9.678560256958008,-0.3184288144111633
1616,162200.0,0.04489128291606903,-9.64683723449707,-0.6075286865234375
1617,162400.0,-0.029927521944046017,-9.6618013381958,-0.5309142470359802
1618,162600.0,0.05267243832349777,-9.609726905822754,-0.6470330357551575
1619,162800.0,0.061650693416595466,-9.67077922821045,-0.5674257874488831
1620,162000.0,-0.3076549172401428,-9.678560256958008,-0.3184288144111633
1621,162200.0,0.04489128291606903,-9.64683723449707,-0.6075286865234375
1622,162400.0,-0.029927521944046017,-9.6618013381958,-0.5309142470359802
1623,162600.0,0.05267243832349777,-9.609726905822754,-0.6470330357551575
1624,162800.0,0.061650693416595466,-9.67077922821045,-0.5674257874488831
1625,163000.0,0.20530278980731964,-9.622895240783693,-0.6835445761680603
1626,163200.0,-0.04010287672281265,-9.667187690734863,-0.406415730714798
1627,163400.0,-0.1562216579914093,-9.647436141967773,-0.5273229479789734
1628,163600.0,-0.022146366536617283,-9.600150108337402,-0.4932055473327637
1629,163800.0,0.14604631066322327,-9.695918083190918,-0.2974795699119568
1630,163000.0,0.20530278980731964,-9.622895240783693,-0.6835445761680603
1631,163200.0,-0.04010287672281265,-9.667187690734863,-0.406415730714798
1632,163400.0,-0.1562216579914093,-9.647436141967773,-0.5273229479789734
1633,163600.0,-0.022146366536617283,-9.600150108337402,-0.4932055473327637
1634,163800.0,0.14604631066322327,-9.695918083190918,-0.2974795699119568
1635,164000.0,-0.1346738487482071,-9.609128952026367,-0.8786720037460327
1636,164200.0,-0.038307227194309235,-9.651026725769043,-0.3531447649002075
1637,164400.0,-0.025737667456269264,-9.634865760803224,-0.35913026332855225
1638,164600.0,-0.05446808785200119,-9.637859344482422,-0.5829881429672241
1639,164800.0,-0.04848258569836617,-9.62947940826416,-0.4644751250743866
1640,164000.0,-0.1346738487482071,-9.609128952026367,-0.8786720037460327
1641,164200.0,-0.038307227194309235,-9.651026725769043,-0.3531447649002075
1642,164400.0,-0.025737667456269264,-9.634865760803224,-0.35913026332855225
1643,164600.0,-0.05446808785200119,-9.637859344482422,-0.5829881429672241
1644,164800.0,-0.04848258569836617,-9.62947940826416,-0.4644751250743866
1645,165000.0,-0.14784196019172668,-9.692327499389648,-0.4279635548591614
1646,165200.0,-0.019153613597154617,-9.650428771972656,-0.396240383386612
1647,165400.0,-0.1430535465478897,-9.632472038269043,-0.7320271730422974
1648,165600.0,0.04489128291606903,-9.653421401977539,-0.3758896589279175
1649,165800.0,-0.058059390634298325,-9.626486778259276,-0.4435258507728577
1650,165000.0,-0.14784196019172668,-9.692327499389648,-0.4279635548591614
1651,165200.0,-0.019153613597154617,-9.650428771972656,-0.396240383386612
1652,165400.0,-0.1430535465478897,-9.632472038269043,-0.7320271730422974
1653,165600.0,0.04489128291606903,-9.653421401977539,-0.3758896589279175
1654,165800.0,-0.058059390634298325,-9.626486778259276,-0.4435258507728577
1655,166000.0,-0.1454477459192276,-9.700706481933594,-0.4273650050163269
1656,166200.0,-0.1646013706922531,-9.712079048156738,-0.2980781197547913
1657,166400.0,-0.2663549482822418,-9.60553741455078,-0.586579442024231
1658,166600.0,0.05386953800916672,-9.627683639526367,-0.5530605912208557
1659,166800.0,-0.10773907601833344,-9.603741645812988,-0.5105634927749634
1660,166000.0,-0.1454477459192276,-9.700706481933594,-0.4273650050163269
1661,166200.0,-0.1646013706922531,-9.712079048156738,-0.2980781197547913
1662,166400.0,-0.2663549482822418,-9.60553741455078,-0.586579442024231
1663,166600.0,0.05386953800916672,-9.627683639526367,-0.5530605912208557
1664,166800.0,-0.10773907601833344,-9.603741645812988,-0.5105634927749634
1665,167000.0,0.1472434103488922,-9.64564037322998,-0.4351461529731751
1666,167200.0,-0.1388636976480484,-9.661202430725098,-0.4914098978042602
1667,167400.0,-0.22266076505184174,-9.639654159545898,-0.4578910768032074
1668,167600.0,0.32441434264183044,-9.589376449584961,-0.6224924325942993
1669,167800.0,-0.20051439106464386,-9.640851974487305,-0.3633201122283936
1670,167000.0,0.1472434103488922,-9.64564037322998,-0.4351461529731751
1671,167200.0,-0.1388636976480484,-9.661202430725098,-0.4914098978042602
1672,167400.0,-0.22266076505184174,-9.639654159545898,-0.4578910768032074
