,timestamp,ax,ay,az
0,0.0,3.31166672706604,11.440084457397461,-5.438885688781738
1,100.0,3.31166672706604,11.440084457397461,-5.438885688781738
2,200.0,3.31166672706604,11.440084457397461,-5.438885688781738
3,300.0,3.0149567127227783,5.529813289642334,-5.855237007141112
4,400.0,3.0149567127227783,5.529813289642334,-5.855237007141112
5,500.0,3.488735675811768,25.653451919555664,-8.063812255859375
6,600.0,3.488735675811768,25.653451919555664,-8.063812255859375
7,700.0,7.2885379791259775,-6.881758213043213,0.7393822073936462
8,800.0,7.2885379791259775,-6.881758213043213,0.7393822073936462
9,900.0,7.2885379791259775,-6.881758213043213,0.7393822073936462
10,1000.0,-3.6945178508758554,11.306086540222168,-1.526620864868164
11,1100.0,-3.6945178508758554,11.306086540222168,-1.526620864868164
12,1200.0,-8.992227554321289,31.55654525756836,-4.488935470581055
13,1300.0,-8.992227554321289,31.55654525756836,-4.488935470581055
14,1400.0,-8.992227554321289,31.55654525756836,-4.488935470581055
15,1500.0,9.781858444213867,-8.34855842590332,1.56251323223114
16,1600.0,9.781858444213867,-8.34855842590332,1.56251323223114
17,1700.0,-6.642475128173827,16.618154525756836,0.057427741587162025
18,1800.0,-6.642475128173827,16.618154525756836,0.057427741587162025
19,1900.0,-6.355337142944336,21.494726181030273,-1.6510475873947144
20,2000.0,-6.355337142944336,21.494726181030273,-1.6510475873947144
21,2100.0,-6.355337142944336,21.494726181030273,-1.6510475873947144
22,2200.0,7.025327682495117,-8.724230766296388,1.2179466485977173
23,2300.0,7.025327682495117,-8.724230766296388,1.2179466485977173
24,2400.0,-4.632504463195801,22.214967727661133,-1.9573287963867188
25,2500.0,-4.632504463195801,22.214967727661133,-1.9573287963867188
26,2600.0,-4.632504463195801,22.214967727661133,-1.9573287963867188
27,2700.0,-5.130211353302002,7.7048888206481925,-2.4957141876220703
28,2800.0,-5.130211353302002,7.7048888206481925,-2.4957141876220703
29,2900.0,8.126025199890138,-4.6061835289001465,0.4881358444690704
30,3000.0,8.126025199890138,-4.6061835289001465,0.4881358444690704
31,3100.0,-1.856830358505249,25.05763816833496,-4.283152580261231
32,3200.0,-1.856830358505249,25.05763816833496,-4.283152580261231
33,3300.0,-1.856830358505249,25.05763816833496,-4.283152580261231
34,3400.0,-4.311866760253906,13.208380699157715,-1.1389836072921753
35,3500.0,-4.311866760253906,13.208380699157715,-1.1389836072921753
36,3600.0,4.493720531463623,2.8115665912628174,-0.7896314859390259
37,3700.0,4.493720531463623,2.8115665912628174,-0.7896314859390259
38,3800.0,17.749958038330078,35.27499008178711,-20.69312858581543
39,3900.0,17.749958038330078,35.27499008178711,-20.69312858581543
40,2000.0,-6.355337142944336,21.494726181030273,-1.6510475873947144
41,2100.0,-6.355337142944336,21.494726181030273,-1.6510475873947144
42,2200.0,7.025327682495117,-8.724230766296388,1.2179466485977173
43,2300.0,7.025327682495117,-8.724230766296388,1.2179466485977173
44,2400.0,-4.632504463195801,22.214967727661133,-1.9573287963867188
45,2500.0,-4.632504463195801,22.214967727661133,-1.9573287963867188
46,2600.0,-4.632504463195801,22.214967727661133,-1.9573287963867188
47,2700.0,-5.130211353302002,7.7048888206481925,-2.4957141876220703
48,2800.0,-5.130211353302002,7.7048888206481925,-2.4957141876220703
49,2900.0,8.126025199890138,-4.6061835289001465,0.4881358444690704
50,3000.0,8.126025199890138,-4.6061835289001465,0.4881358444690704
51,3100.0,-1.856830358505249,25.05763816833496,-4.283152580261231
52,3200.0,-1.856830358505249,25.05763816833496,-4.283152580261231
53,3300.0,-1.856830358505249,25.05763816833496,-4.283152580261231
54,3400.0,-4.311866760253906,13.208380699157715,-1.1389836072921753
55,3500.0,-4.311866760253906,13.208380699157715,-1.1389836072921753
56,3600.0,4.493720531463623,2.8115665912628174,-0.7896314859390259
57,3700.0,4.493720531463623,2.8115665912628174,-0.7896314859390259
58,3800.0,17.749958038330078,35.27499008178711,-20.69312858581543
59,3900.0,17.749958038330078,35.27499008178711,-20.69312858581543
60,4000.0,-6.57547664642334,-3.871586799621582,1.584048628807068
61,4100.0,-6.57547664642334,-3.871586799621582,1.584048628807068
62,4200.0,-6.57547664642334,-3.871586799621582,1.584048628807068
63,4300.0,3.7710886001586914,8.71466064453125,-1.935793399810791
64,4400.0,3.7710886001586914,8.71466064453125,-1.935793399810791
65,4500.0,12.701102256774902,30.479774475097656,-21.82971954345703
66,4600.0,12.701102256774902,30.479774475097656,-21.82971954345703
67,4700.0,12.701102256774902,30.479774475097656,-21.82971954345703
68,4800.0,-5.7619171142578125,0.8327022790908813,0.23449662327766416
69,4900.0,-5.7619171142578125,0.8327022790908813,0.23449662327766416
70,5000.0,2.5459630489349365,5.458028793334961,-1.916650891304016
71,5100.0,2.5459630489349365,5.458028793334961,-1.916650891304016
72,5200.0,10.04985523223877,3.3068809509277344,1.2801601886749268
73,5300.0,10.04985523223877,3.3068809509277344,1.2801601886749268
74,5400.0,-7.83410120010376,-1.0049854516983032,1.871187210083008
75,5500.0,-7.83410120010376,-1.0049854516983032,1.871187210083008
76,5600.0,-7.83410120010376,-1.0049854516983032,1.871187210083008
77,5700.0,1.4261221885681152,30.53720283508301,-10.222138404846193
78,5800.0,1.4261221885681152,30.53720283508301,-10.222138404846193
79,5900.0,7.211967468261719,-2.6775684356689453,0.9499505758285522
80,4000.0,-6.57547664642334,-3.871586799621582,1.584048628807068
81,4100.0,-6.57547664642334,-3.871586799621582,1.584048628807068
82,4200.0,-6.57547664642334,-3.871586799621582,1.584048628807068
83,4300.0,3.7710886001586914,8.71466064453125,-1.935793399810791
84,4400.0,3.7710886001586914,8.71466064453125,-1.935793399810791
85,4500.0,12.701102256774902,30.479774475097656,-21.82971954345703
86,4600.0,12.701102256774902,30.479774475097656,-21.82971954345703
87,4700.0,12.701102256774902,30.479774475097656,-21.82971954345703
88,4800.0,-5.7619171142578125,0.8327022790908813,0.23449662327766416
89,4900.0,-5.7619171142578125,0.8327022790908813,0.23449662327766416
90,5000.0,2.5459630489349365,5.458028793334961,-1.916650891304016
91,5100.0,2.5459630489349365,5.458028793334961,-1.916650891304016
92,5200.0,10.04985523223877,3.3068809509277344,1.2801601886749268
93,5300.0,10.04985523223877,3.3068809509277344,1.2801601886749268
94,5400.0,-7.83410120010376,-1.0049854516983032,1.871187210083008
95,5500.0,-7.83410120010376,-1.0049854516983032,1.871187210083008
96,5600.0,-7.83410120010376,-1.0049854516983032,1.871187210083008
97,5700.0,1.4261221885681152,30.53720283508301,-10.222138404846193
98,5800.0,1.4261221885681152,30.53720283508301,-10.222138404846193
99,5900.0,7.211967468261719,-2.6775684356689453,0.9499505758285522
100,6000.0,7.211967468261719,-2.6775684356689453,0.9499505758285522
101,6100.0,7.211967468261719,-2.6775684356689453,0.9499505758285522
102,6200.0,-6.350551128387451,2.617748022079468,-0.2991028428077698
103,6300.0,-6.350551128387451,2.617748022079468,-0.2991028428077698
104,6400.0,-9.619147300720217,36.56950759887695,-9.131011009216307
105,6500.0,-9.619147300720217,36.56950759887695,-9.131011009216307
106,6600.0,9.274580955505373,-5.242674350738525,2.230110645294189
107,6700.0,9.274580955505373,-5.242674350738525,2.230110645294189
108,6800.0,8.12123966217041,37.6367073059082,-7.032505512237549
109,6900.0,8.12123966217041,37.6367073059082,-7.032505512237549
110,7000.0,-7.8006019592285165,1.131805181503296,1.495514154434204
111,7100.0,-7.8006019592285165,1.131805181503296,1.495514154434204
112,7200.0,-7.8006019592285165,1.131805181503296,1.495514154434204
113,7300.0,8.475377082824707,0.4211367666721344,0.7441678047180176
114,7400.0,8.475377082824707,0.4211367666721344,0.7441678047180176
115,7500.0,14.423934936523438,36.26322937011719,-13.174880981445312
116,7600.0,14.423934936523438,36.26322937011719,-13.174880981445312
117,7700.0,14.423934936523438,36.26322937011719,-13.174880981445312
118,7800.0,-7.63310432434082,1.1509476900100708,1.4093725681304932
119,7900.0,-7.63310432434082,1.1509476900100708,1.4093725681304932
120,6000.0,7.211967468261719,-2.6775684356689453,0.9499505758285522
121,6100.0,7.211967468261719,-2.6775684356689453,0.9499505758285522
122,6200.0,-6.350551128387451,2.617748022079468,-0.2991028428077698
123,6300.0,-6.350551128387451,2.617748022079468,-0.2991028428077698
124,6400.0,-9.619147300720217,36.56950759887695,-9.131011009216307
125,6500.0,-9.619147300720217,36.56950759887695,-9.131011009216307
126,6600.0,9.274580955505373,-5.242674350738525,2.230110645294189
127,6700.0,9.274580955505373,-5.242674350738525,2.230110645294189
128,6800.0,8.12123966217041,37.6367073059082,-7.032505512237549
129,6900.0,8.12123966217041,37.6367073059082,-7.032505512237549
130,7000.0,-7.8006019592285165,1.131805181503296,1.495514154434204
131,7100.0,-7.8006019592285165,1.131805181503296,1.495514154434204
132,7200.0,-7.8006019592285165,1.131805181503296,1.495514154434204
133,7300.0,8.475377082824707,0.4211367666721344,0.7441678047180176
134,7400.0,8.475377082824707,0.4211367666721344,0.7441678047180176
135,7500.0,14.423934936523438,36.26322937011719,-13.174880981445312
136,7600.0,14.423934936523438,36.26322937011719,-13.174880981445312
137,7700.0,14.423934936523438,36.26322937011719,-13.174880981445312
138,7800.0,-7.63310432434082,1.1509476900100708,1.4093725681304932
139,7900.0,-7.63310432434082,1.1509476900100708,1.4093725681304932
140,8000.0,4.335794448852538,3.833301782608032,-0.3732803165912628
141,8100.0,4.335794448852538,3.833301782608032,-0.3732803165912628
142,8200.0,12.42832088470459,18.78365707397461,-12.98106288909912
143,8300.0,12.42832088470459,18.78365707397461,-12.98106288909912
144,8400.0,-10.231709480285645,-1.8951154947280884,-1.2729815244674685
145,8500.0,-10.231709480285645,-1.8951154947280884,-1.2729815244674685
146,8600.0,-10.231709480285645,-1.8951154947280884,-1.2729815244674685
147,8700.0,-3.0436704158782963,21.750757217407227,-2.9623143672943115
148,8800.0,-3.0436704158782963,21.750757217407227,-2.9623143672943115
149,8900.0,9.695716857910156,9.937392234802246,-9.05683422088623
150,9000.0,9.695716857910156,9.937392234802246,-9.05683422088623
151,9100.0,-12.480962753295898,1.043270707130432,1.1988041400909424
152,9200.0,-12.480962753295898,1.043270707130432,1.1988041400909424
153,9300.0,-12.480962753295898,1.043270707130432,1.1988041400909424
154,9400.0,4.460221290588379,17.883955001831055,-8.236095428466799
155,9500.0,4.460221290588379,17.883955001831055,-8.236095428466799
156,9600.0,6.776473522186278,-6.230910301208496,1.3950155973434448
157,9700.0,6.776473522186278,-6.230910301208496,1.3950155973434448
158,9800.0,-7.5469627380371085,8.441878318786621,0.11246266961097716
159,9900.0,-7.5469627380371085,8.441878318786621,0.11246266961097716
160,8000.0,4.335794448852538,3.833301782608032,-0.3732803165912628
161,8100.0,4.335794448852538,3.833301782608032,-0.3732803165912628
162,8200.0,12.42832088470459,18.78365707397461,-12.98106288909912
163,8300.0,12.42832088470459,18.78365707397461,-12.98106288909912
164,8400.0,-10.231709480285645,-1.8951154947280884,-1.2729815244674685
165,8500.0,-10.231709480285645,-1.8951154947280884,-1.2729815244674685
166,8600.0,-10.231709480285645,-1.8951154947280884,-1.2729815244674685
167,8700.0,-3.0436704158782963,21.750757217407227,-2.9623143672943115
168,8800.0,-3.0436704158782963,21.750757217407227,-2.9623143672943115
169,8900.0,9.695716857910156,9.937392234802246,-9.05683422088623
170,9000.0,9.695716857910156,9.937392234802246,-9.05683422088623
171,9100.0,-12.480962753295898,1.043270707130432,1.1988041400909424
172,9200.0,-12.480962753295898,1.043270707130432,1.1988041400909424
173,9300.0,-12.480962753295898,1.043270707130432,1.1988041400909424
174,9400.0,4.460221290588379,17.883955001831055,-8.236095428466799
175,9500.0,4.460221290588379,17.883955001831055,-8.236095428466799
176,9600.0,6.776473522186278,-6.230910301208496,1.3950155973434448
177,9700.0,6.776473522186278,-6.230910301208496,1.3950155973434448
178,9800.0,-7.5469627380371085,8.441878318786621,0.11246266961097716
179,9900.0,-7.5469627380371085,8.441878318786621,0.11246266961097716
180,10000.0,-0.4163511395454407,37.72045516967773,-12.380464553833008
181,10100.0,-0.4163511395454407,37.72045516967773,-12.380464553833008
182,10200.0,-0.4163511395454407,37.72045516967773,-12.380464553833008
183,10300.0,6.9918274879455575,-7.080362319946289,3.981656789779663
184,10400.0,6.9918274879455575,-7.080362319946289,3.981656789779663
185,10500.0,-5.06799840927124,12.057433128356935,-1.3830513954162598
186,10600.0,-5.06799840927124,12.057433128356935,-1.3830513954162598
187,10700.0,-4.082155227661134,10.569098472595217,-3.5030922889709477
188,10800.0,-4.082155227661134,10.569098472595217,-3.5030922889709477
189,10900.0,-4.082155227661134,10.569098472595217,-3.5030922889709477
190,11000.0,7.858029365539551,-3.919443368911743,0.5910272002220154
191,11100.0,7.858029365539551,-3.919443368911743,0.5910272002220154
192,11200.0,13.083954811096193,36.96671676635742,-14.612967491149902
193,11300.0,13.083954811096193,36.96671676635742,-14.612967491149902
194,11400.0,-7.274180889129639,2.048256158828736,3.0245277881622314
195,11500.0,-7.274180889129639,2.048256158828736,3.0245277881622314
196,11600.0,4.431507587432861,11.942577362060547,-5.45563554763794
197,11700.0,4.431507587432861,11.942577362060547,-5.45563554763794
198,11800.0,13.021740913391113,10.389636039733887,-3.38823676109314
199,11900.0,13.021740913391113,10.389636039733887,-3.38823676109314
200,10000.0,-0.4163511395454407,37.72045516967773,-12.380464553833008
201,10100.0,-0.4163511395454407,37.72045516967773,-12.380464553833008
202,10200.0,-0.4163511395454407,37.72045516967773,-12.380464553833008
203,10300.0,6.9918274879455575,-7.080362319946289,3.981656789779663
204,10400.0,6.9918274879455575,-7.080362319946289,3.981656789779663
205,10500.0,-5.06799840927124,12.057433128356935,-1.3830513954162598
206,10600.0,-5.06799840927124,12.057433128356935,-1.3830513954162598
207,10700.0,-4.082155227661134,10.569098472595217,-3.5030922889709477
208,10800.0,-4.082155227661134,10.569098472595217,-3.5030922889709477
209,10900.0,-4.082155227661134,10.569098472595217,-3.5030922889709477
210,11000.0,7.858029365539551,-3.919443368911743,0.5910272002220154
211,11100.0,7.858029365539551,-3.919443368911743,0.5910272002220154
212,11200.0,13.083954811096193,36.96671676635742,-14.612967491149902
213,11300.0,13.083954811096193,36.96671676635742,-14.612967491149902
214,11400.0,-7.274180889129639,2.048256158828736,3.0245277881622314
215,11500.0,-7.274180889129639,2.048256158828736,3.0245277881622314
216,11600.0,4.431507587432861,11.942577362060547,-5.45563554763794
217,11700.0,4.431507587432861,11.942577362060547,-5.45563554763794
218,11800.0,13.021740913391113,10.389636039733887,-3.38823676109314
219,11900.0,13.021740913391113,10.389636039733887,-3.38823676109314
220,12000.0,13.021740913391113,10.389636039733887,-3.38823676109314
221,12100.0,-9.375079154968262,-0.6747759580612183,0.9762716889381408
222,12200.0,-9.375079154968262,-0.6747759580612183,0.9762716889381408
223,12300.0,1.22033953666687,26.35694122314453,-6.63769006729126
224,12400.0,1.22033953666687,26.35694122314453,-6.63769006729126
225,12500.0,1.22033953666687,26.35694122314453,-6.63769006729126
226,12600.0,11.90668487548828,5.084747791290283,0.5599204897880554
227,12700.0,11.90668487548828,5.084747791290283,0.5599204897880554
228,12800.0,-6.5084776878356925,1.155733346939087,1.5026925802230835
229,12900.0,-6.5084776878356925,1.155733346939087,1.5026925802230835
230,13000.0,0.20578275620937347,33.61676406860352,-8.164310455322267
231,13100.0,0.20578275620937347,33.61676406860352,-8.164310455322267
232,13200.0,0.20578275620937347,33.61676406860352,-8.164310455322267
233,13300.0,4.948357105255127,-5.670989990234375,1.550549030303955
234,13400.0,4.948357105255127,-5.670989990234375,1.550549030303955
235,13500.0,-4.398008346557616,5.723631858825684,-0.9499505758285522
236,13600.0,-4.398008346557616,5.723631858825684,-0.9499505758285522
237,13700.0,-4.398008346557616,5.723631858825684,-0.9499505758285522
238,13800.0,-4.584648132324219,34.963924407958984,-13.064811706542967
239,13900.0,-4.584648132324219,34.963924407958984,-13.064811706542967
240,12000.0,13.021740913391113,10.389636039733887,-3.38823676109314
241,12100.0,-9.375079154968262,-0.6747759580612183,0.9762716889381408
242,12200.0,-9.375079154968262,-0.6747759580612183,0.9762716889381408
243,12300.0,1.22033953666687,26.35694122314453,-6.63769006729126
244,12400.0,1.22033953666687,26.35694122314453,-6.63769006729126
245,12500.0,1.22033953666687,26.35694122314453,-6.63769006729126
246,12600.0,11.90668487548828,5.084747791290283,0.5599204897880554
247,12700.0,11.90668487548828,5.084747791290283,0.5599204897880554
248,12800.0,-6.5084776878356925,1.155733346939087,1.5026925802230835
249,12900.0,-6.5084776878356925,1.155733346939087,1.5026925802230835
250,13000.0,0.20578275620937347,33.61676406860352,-8.164310455322267
251,13100.0,0.20578275620937347,33.61676406860352,-8.164310455322267
252,13200.0,0.20578275620937347,33.61676406860352,-8.164310455322267
253,13300.0,4.948357105255127,-5.670989990234375,1.550549030303955
254,13400.0,4.948357105255127,-5.670989990234375,1.550549030303955
255,13500.0,-4.398008346557616,5.723631858825684,-0.9499505758285522
256,13600.0,-4.398008346557616,5.723631858825684,-0.9499505758285522
257,13700.0,-4.398008346557616,5.723631858825684,-0.9499505758285522
258,13800.0,-4.584648132324219,34.963924407958984,-13.064811706542967
259,13900.0,-4.584648132324219,34.963924407958984,-13.064811706542967
260,14000.0,6.10169792175293,-7.441678524017334,0.8494520783424377
261,14100.0,6.10169792175293,-7.441678524017334,0.8494520783424377
262,14200.0,-7.575676441192628,12.023933410644533,-0.5479563474655151
263,14300.0,-7.575676441192628,12.023933410644533,-0.5479563474655151
264,14400.0,-7.575676441192628,12.023933410644533,-0.5479563474655151
265,14500.0,-9.585646629333496,36.75854110717773,-7.334001541137695
266,14600.0,-9.585646629333496,36.75854110717773,-7.334001541137695
267,14700.0,9.686145782470703,-8.71944522857666,2.3473589420318604
268,14800.0,9.686145782470703,-8.71944522857666,2.3473589420318604
269,14900.0,9.686145782470703,-8.71944522857666,2.3473589420318604
270,15000.0,-6.0394840240478525,17.374284744262695,-1.043270707130432
271,15100.0,-6.0394840240478525,17.374284744262695,-1.043270707130432
272,15200.0,-4.091726779937743,11.303693771362305,-3.8572301864624015
273,15300.0,-4.091726779937743,11.303693771362305,-3.8572301864624015
274,15400.0,1.3878371715545654,-6.106483459472656,0.3684946894645691
275,15500.0,1.3878371715545654,-6.106483459472656,0.3684946894645691
276,15600.0,12.20339584350586,41.47479248046875,-5.166104316711426
277,15700.0,12.20339584350586,41.47479248046875,-5.166104316711426
278,15800.0,12.20339584350586,41.47479248046875,-5.166104316711426
279,15900.0,-7.5326056480407715,1.9262222051620483,-1.0839486122131348
280,14000.0,6.10169792175293,-7.441678524017334,0.8494520783424377
281,14100.0,6.10169792175293,-7.441678524017334,0.8494520783424377
282,14200.0,-7.575676441192628,12.023933410644533,-0.5479563474655151
283,14300.0,-7.575676441192628,12.023933410644533,-0.5479563474655151
284,14400.0,-7.575676441192628,12.023933410644533,-0.5479563474655151
285,14500.0,-9.585646629333496,36.75854110717773,-7.334001541137695
286,14600.0,-9.585646629333496,36.75854110717773,-7.334001541137695
287,14700.0,9.686145782470703,-8.71944522857666,2.3473589420318604
288,14800.0,9.686145782470703,-8.71944522857666,2.3473589420318604
289,14900.0,9.686145782470703,-8.71944522857666,2.3473589420318604
290,15000.0,-6.0394840240478525,17.374284744262695,-1.043270707130432
291,15100.0,-6.0394840240478525,17.374284744262695,-1.043270707130432
292,15200.0,-4.091726779937743,11.303693771362305,-3.8572301864624015
293,15300.0,-4.091726779937743,11.303693771362305,-3.8572301864624015
294,15400.0,1.3878371715545654,-6.106483459472656,0.3684946894645691
295,15500.0,1.3878371715545654,-6.106483459472656,0.3684946894645691
296,15600.0,12.20339584350586,41.47479248046875,-5.166104316711426
297,15700.0,12.20339584350586,41.47479248046875,-5.166104316711426
298,15800.0,12.20339584350586,41.47479248046875,-5.166104316711426
299,15900.0,-7.5326056480407715,1.9262222051620483,-1.0839486122131348
300,16000.0,-7.5326056480407715,1.9262222051620483,-1.0839486122131348
301,16100.0,1.373480200767517,4.3166518211364755,-0.2464607357978821
302,16200.0,1.373480200767517,4.3166518211364755,-0.2464607357978821
303,16300.0,1.373480200767517,4.3166518211364755,-0.2464607357978821
304,16400.0,9.30329418182373,32.793636322021484,-14.172688484191895
305,16500.0,9.30329418182373,32.793636322021484,-14.172688484191895
306,16600.0,-7.3842506408691415,-2.531606435775757,-0.3493521213531494
307,16700.0,-7.3842506408691415,-2.531606435775757,-0.3493521213531494
308,16800.0,3.0388848781585693,9.449256896972656,-3.7567315101623535
309,16900.0,3.0388848781585693,9.449256896972656,-3.7567315101623535
310,17000.0,9.226724624633787,-1.584048628807068,1.4356936216354368
311,17100.0,9.226724624633787,-1.584048628807068,1.4356936216354368
312,17200.0,9.226724624633787,-1.584048628807068,1.4356936216354368
313,17300.0,-7.307680606842041,2.63449764251709,-0.8470591902732849
314,17400.0,-7.307680606842041,2.63449764251709,-0.8470591902732849
315,17500.0,-0.6508477926254272,33.583267211914055,-8.073383331298826
316,17600.0,-0.6508477926254272,33.583267211914055,-8.073383331298826
317,17700.0,-0.6508477926254272,33.583267211914055,-8.073383331298826
318,17800.0,8.044669151306152,-4.292723655700684,1.969292998313904
319,17900.0,8.044669151306152,-4.292723655700684,1.969292998313904
320,16000.0,-7.5326056480407715,1.9262222051620483,-1.0839486122131348
321,16100.0,1.373480200767517,4.3166518211364755,-0.2464607357978821
322,16200.0,1.373480200767517,4.3166518211364755,-0.2464607357978821
323,16300.0,1.373480200767517,4.3166518211364755,-0.2464607357978821
324,16400.0,9.30329418182373,32.793636322021484,-14.172688484191895
325,16500.0,9.30329418182373,32.793636322021484,-14.172688484191895
326,16600.0,-7.3842506408691415,-2.531606435775757,-0.3493521213531494
327,16700.0,-7.3842506408691415,-2.531606435775757,-0.3493521213531494
328,16800.0,3.0388848781585693,9.449256896972656,-3.7567315101623535
329,16900.0,3.0388848781585693,9.449256896972656,-3.7567315101623535
330,17000.0,9.226724624633787,-1.584048628807068,1.4356936216354368
331,17100.0,9.226724624633787,-1.584048628807068,1.4356936216354368
332,17200.0,9.226724624633787,-1.584048628807068,1.4356936216354368
333,17300.0,-7.307680606842041,2.63449764251709,-0.8470591902732849
334,17400.0,-7.307680606842041,2.63449764251709,-0.8470591902732849
335,17500.0,-0.6508477926254272,33.583267211914055,-8.073383331298826
336,17600.0,-0.6508477926254272,33.583267211914055,-8.073383331298826
337,17700.0,-0.6508477926254272,33.583267211914055,-8.073383331298826
338,17800.0,8.044669151306152,-4.292723655700684,1.969292998313904
339,17900.0,8.044669151306152,-4.292723655700684,1.969292998313904
340,18000.0,-5.111069202423097,3.9505498409271236,-1.3471590280532837
341,18100.0,-5.111069202423097,3.9505498409271236,-1.3471590280532837
342,18200.0,-1.6654045581817627,30.510883331298828,-8.764908790588379
343,18300.0,-1.6654045581817627,30.510883331298828,-8.764908790588379
344,18400.0,-1.6654045581817627,30.510883331298828,-8.764908790588379
345,18500.0,7.144968032836914,-7.204789161682129,2.1056838035583496
346,18600.0,7.144968032836914,-7.204789161682129,2.1056838035583496
347,18700.0,-4.67078971862793,8.563912391662598,-1.6534404754638672
348,18800.0,-4.67078971862793,8.563912391662598,-1.6534404754638672
349,18900.0,-3.3978083133697514,34.17429351806641,-10.930414199829102
350,19000.0,-3.3978083133697514,34.17429351806641,-10.930414199829102
351,19100.0,-3.3978083133697514,34.17429351806641,-10.930414199829102
352,19200.0,7.4081788063049325,-9.492327690124512,3.907479047775269
353,19300.0,7.4081788063049325,-9.492327690124512,3.907479047775269
354,19400.0,-3.263810157775879,21.925432205200195,-4.022334575653076
355,19500.0,-3.263810157775879,21.925432205200195,-4.022334575653076
356,19600.0,-5.044069766998291,11.284551620483398,-0.9547362923622132
357,19700.0,-5.044069766998291,11.284551620483398,-0.9547362923622132
358,19800.0,-5.044069766998291,11.284551620483398,-0.9547362923622132
359,19900.0,8.685946464538574,-3.4528429508209233,0.8733802437782288
360,18000.0,-5.111069202423097,3.9505498409271236,-1.3471590280532837
361,18100.0,-5.111069202423097,3.9505498409271236,-1.3471590280532837
362,18200.0,-1.6654045581817627,30.510883331298828,-8.764908790588379
363,18300.0,-1.6654045581817627,30.510883331298828,-8.764908790588379
364,18400.0,-1.6654045581817627,30.510883331298828,-8.764908790588379
365,18500.0,7.144968032836914,-7.204789161682129,2.1056838035583496
366,18600.0,7.144968032836914,-7.204789161682129,2.1056838035583496
367,18700.0,-4.67078971862793,8.563912391662598,-1.6534404754638672
368,18800.0,-4.67078971862793,8.563912391662598,-1.6534404754638672
369,18900.0,-3.3978083133697514,34.17429351806641,-10.930414199829102
370,19000.0,-3.3978083133697514,34.17429351806641,-10.930414199829102
371,19100.0,-3.3978083133697514,34.17429351806641,-10.930414199829102
372,19200.0,7.4081788063049325,-9.492327690124512,3.907479047775269
373,19300.0,7.4081788063049325,-9.492327690124512,3.907479047775269
374,19400.0,-3.263810157775879,21.925432205200195,-4.022334575653076
375,19500.0,-3.263810157775879,21.925432205200195,-4.022334575653076
376,19600.0,-5.044069766998291,11.284551620483398,-0.9547362923622132
377,19700.0,-5.044069766998291,11.284551620483398,-0.9547362923622132
378,19800.0,-5.044069766998291,11.284551620483398,-0.9547362923622132
379,19900.0,8.685946464538574,-3.4528429508209233,0.8733802437782288
380,20000.0,8.685946464538574,-3.4528429508209233,0.8733802437782288
381,20100.0,10.011569023132324,31.33161926269531,-12.710674285888672
382,20200.0,10.011569023132324,31.33161926269531,-12.710674285888672
383,20300.0,-6.915257453918457,1.2921242713928225,0.7752745151519775
384,20400.0,-6.915257453918457,1.2921242713928225,0.7752745151519775
385,20500.0,3.6753754615783687,6.592226982116699,-0.3924228847026825
386,20600.0,3.6753754615783687,6.592226982116699,-0.3924228847026825
387,20700.0,15.00299835205078,23.61716079711914,-7.121039390563965
388,20800.0,15.00299835205078,23.61716079711914,-7.121039390563965
389,20900.0,15.00299835205078,23.61716079711914,-7.121039390563965
390,21000.0,-12.165109634399414,3.0221347808837886,0.3278167247772217
391,21100.0,-12.165109634399414,3.0221347808837886,0.3278167247772217
392,21200.0,1.9669002294540403,27.74477767944336,-8.925228118896484
393,21300.0,1.9669002294540403,27.74477767944336,-8.925228118896484
394,21400.0,8.628519058227539,-2.4885356426239014,1.495514154434204
395,21500.0,8.628519058227539,-2.4885356426239014,1.495514154434204
396,21600.0,8.628519058227539,-2.4885356426239014,1.495514154434204
397,21700.0,-9.025726318359377,9.454042434692383,3.665804386138916
398,21800.0,-9.025726318359377,9.454042434692383,3.665804386138916
399,21900.0,-2.622533798217773,35.909088134765625,-11.12662410736084
400,20000.0,8.685946464538574,-3.4528429508209233,0.8733802437782288
401,20100.0,10.011569023132324,31.33161926269531,-12.710674285888672
402,20200.0,10.011569023132324,31.33161926269531,-12.710674285888672
403,20300.0,-6.915257453918457,1.2921242713928225,0.7752745151519775
404,20400.0,-6.915257453918457,1.2921242713928225,0.7752745151519775
405,20500.0,3.6753754615783687,6.592226982116699,-0.3924228847026825
406,20600.0,3.6753754615783687,6.592226982116699,-0.3924228847026825
407,20700.0,15.00299835205078,23.61716079711914,-7.121039390563965
408,20800.0,15.00299835205078,23.61716079711914,-7.121039390563965
409,20900.0,15.00299835205078,23.61716079711914,-7.121039390563965
410,21000.0,-12.165109634399414,3.0221347808837886,0.3278167247772217
411,21100.0,-12.165109634399414,3.0221347808837886,0.3278167247772217
412,21200.0,1.9669002294540403,27.74477767944336,-8.925228118896484
413,21300.0,1.9669002294540403,27.74477767944336,-8.925228118896484
414,21400.0,8.628519058227539,-2.4885356426239014,1.495514154434204
415,21500.0,8.628519058227539,-2.4885356426239014,1.495514154434204
416,21600.0,8.628519058227539,-2.4885356426239014,1.495514154434204
417,21700.0,-9.025726318359377,9.454042434692383,3.665804386138916
418,21800.0,-9.025726318359377,9.454042434692383,3.665804386138916
419,21900.0,-2.622533798217773,35.909088134765625,-11.12662410736084
420,22000.0,-2.622533798217773,35.909088134765625,-11.12662410736084
421,22100.0,7.039684295654298,-7.621140003204347,3.060420036315918
422,22200.0,7.039684295654298,-7.621140003204347,3.060420036315918
423,22300.0,7.039684295654298,-7.621140003204347,3.060420036315918
424,22400.0,-4.1347975730896005,12.282358169555664,-0.6771688461303711
425,22500.0,-4.1347975730896005,12.282358169555664,-0.6771688461303711
426,22600.0,-5.235496044158936,10.124032974243164,-2.7828526496887207
427,22700.0,-5.235496044158936,10.124032974243164,-2.7828526496887207
428,22800.0,12.729815483093262,-3.3092737197875977,1.1581261157989502
429,22900.0,12.729815483093262,-3.3092737197875977,1.1581261157989502
430,23000.0,12.729815483093262,-3.3092737197875977,1.1581261157989502
431,23100.0,2.426322221755981,28.92922592163086,-5.601597785949707
432,23200.0,2.426322221755981,28.92922592163086,-5.601597785949707
433,23300.0,-5.201996326446533,6.400800704956055,-4.1180477142333975
434,23400.0,-5.201996326446533,6.400800704956055,-4.1180477142333975
435,23500.0,6.561119556427003,2.7182462215423584,1.868794322013855
436,23600.0,6.561119556427003,2.7182462215423584,1.868794322013855
437,23700.0,6.561119556427003,2.7182462215423584,1.868794322013855
438,23800.0,8.446663856506348,23.99522399902344,-12.43310546875
439,23900.0,8.446663856506348,23.99522399902344,-12.43310546875
440,22000.0,-2.622533798217773,35.909088134765625,-11.12662410736084
441,22100.0,7.039684295654298,-7.621140003204347,3.060420036315918
442,22200.0,7.039684295654298,-7.621140003204347,3.060420036315918
443,22300.0,7.039684295654298,-7.621140003204347,3.060420036315918
444,22400.0,-4.1347975730896005,12.282358169555664,-0.6771688461303711
445,22500.0,-4.1347975730896005,12.282358169555664,-0.6771688461303711
446,22600.0,-5.235496044158936,10.124032974243164,-2.7828526496887207
447,22700.0,-5.235496044158936,10.124032974243164,-2.7828526496887207
448,22800.0,12.729815483093262,-3.3092737197875977,1.1581261157989502
449,22900.0,12.729815483093262,-3.3092737197875977,1.1581261157989502
450,23000.0,12.729815483093262,-3.3092737197875977,1.1581261157989502
451,23100.0,2.426322221755981,28.92922592163086,-5.601597785949707
452,23200.0,2.426322221755981,28.92922592163086,-5.601597785949707
453,23300.0,-5.201996326446533,6.400800704956055,-4.1180477142333975
454,23400.0,-5.201996326446533,6.400800704956055,-4.1180477142333975
455,23500.0,6.561119556427003,2.7182462215423584,1.868794322013855
456,23600.0,6.561119556427003,2.7182462215423584,1.868794322013855
457,23700.0,6.561119556427003,2.7182462215423584,1.868794322013855
458,23800.0,8.446663856506348,23.99522399902344,-12.43310546875
459,23900.0,8.446663856506348,23.99522399902344,-12.43310546875
460,24000.0,-8.389235496520996,1.8783657550811768,0.34695929288864136
461,24100.0,-8.389235496520996,1.8783657550811768,0.34695929288864136
462,24200.0,8.752944946289062,4.362115383148193,2.6153552532196045
463,24300.0,8.752944946289062,4.362115383148193,2.6153552532196045
464,24400.0,8.752944946289062,4.362115383148193,2.6153552532196045
465,24500.0,9.652647018432617,27.373891830444336,-14.17747402191162
466,24600.0,9.652647018432617,27.373891830444336,-14.17747402191162
467,24700.0,-7.049255847930907,2.806780815124512,-0.6197410225868225
468,24800.0,-7.049255847930907,2.806780815124512,-0.6197410225868225
469,24900.0,-7.049255847930907,2.806780815124512,-0.6197410225868225
470,25000.0,6.604190349578857,6.963113307952881,-1.7467604875564575
471,25100.0,6.604190349578857,6.963113307952881,-1.7467604875564575
472,25200.0,6.656832218170166,21.06401824951172,-13.064811706542967
473,25300.0,6.656832218170166,21.06401824951172,-13.064811706542967
474,25400.0,-9.293723106384276,3.44327163696289,-2.093719720840454
475,25500.0,-9.293723106384276,3.44327163696289,-2.093719720840454
476,25600.0,-9.293723106384276,3.44327163696289,-2.093719720840454
477,25700.0,7.259823799133301,5.958127975463867,2.2229323387146
478,25800.0,7.259823799133301,5.958127975463867,2.2229323387146
479,25900.0,8.226524353027344,16.053447723388672,-7.4057860374450675
480,24000.0,-8.389235496520996,1.8783657550811768,0.34695929288864136
481,24100.0,-8.389235496520996,1.8783657550811768,0.34695929288864136
482,24200.0,8.752944946289062,4.362115383148193,2.6153552532196045
483,24300.0,8.752944946289062,4.362115383148193,2.6153552532196045
484,24400.0,8.752944946289062,4.362115383148193,2.6153552532196045
485,24500.0,9.652647018432617,27.373891830444336,-14.17747402191162
486,24600.0,9.652647018432617,27.373891830444336,-14.17747402191162
487,24700.0,-7.049255847930907,2.806780815124512,-0.6197410225868225
488,24800.0,-7.049255847930907,2.806780815124512,-0.6197410225868225
489,24900.0,-7.049255847930907,2.806780815124512,-0.6197410225868225
490,25000.0,6.604190349578857,6.963113307952881,-1.7467604875564575
491,25100.0,6.604190349578857,6.963113307952881,-1.7467604875564575
492,25200.0,6.656832218170166,21.06401824951172,-13.064811706542967
493,25300.0,6.656832218170166,21.06401824951172,-13.064811706542967
494,25400.0,-9.293723106384276,3.44327163696289,-2.093719720840454
495,25500.0,-9.293723106384276,3.44327163696289,-2.093719720840454
496,25600.0,-9.293723106384276,3.44327163696289,-2.093719720840454
497,25700.0,7.259823799133301,5.958127975463867,2.2229323387146
498,25800.0,7.259823799133301,5.958127975463867,2.2229323387146
499,25900.0,8.226524353027344,16.053447723388672,-7.4057860374450675
500,26000.0,8.226524353027344,16.053447723388672,-7.4057860374450675
501,26100.0,-11.2366943359375,1.215553879737854,-1.2035897970199585
502,26200.0,-11.2366943359375,1.215553879737854,-1.2035897970199585
503,26300.0,-11.2366943359375,1.215553879737854,-1.2035897970199585
504,26400.0,8.370094299316406,26.883363723754886,-12.16989517211914
505,26500.0,8.370094299316406,26.883363723754886,-12.16989517211914
506,26600.0,10.222138404846193,-3.3643085956573486,3.0460631847381587
507,26700.0,10.222138404846193,-3.3643085956573486,3.0460631847381587
508,26800.0,-5.37906551361084,6.647261142730713,-1.813759446144104
509,26900.0,-5.37906551361084,6.647261142730713,-1.813759446144104
510,27000.0,-6.824329853057861,29.14697265625,-7.5876407623291025
511,27100.0,-6.824329853057861,29.14697265625,-7.5876407623291025
512,27200.0,9.030512809753418,-10.578668594360352,3.6610186100006095
513,27300.0,9.030512809753418,-10.578668594360352,3.6610186100006095
514,27400.0,9.030512809753418,-10.578668594360352,3.6610186100006095
515,27500.0,7.594818592071532,32.961132049560554,-9.956534385681152
516,27600.0,7.594818592071532,32.961132049560554,-9.956534385681152
517,27700.0,-7.15932559967041,0.14356936514377594,-0.6604190468788147
518,27800.0,-7.15932559967041,0.14356936514377594,-0.6604190468788147
519,27900.0,7.810173511505128,1.0695916414260864,-0.8135597109794617
520,26000.0,8.226524353027344,16.053447723388672,-7.4057860374450675
521,26100.0,-11.2366943359375,1.215553879737854,-1.2035897970199585
522,26200.0,-11.2366943359375,1.215553879737854,-1.2035897970199585
523,26300.0,-11.2366943359375,1.215553879737854,-1.2035897970199585
524,26400.0,8.370094299316406,26.883363723754886,-12.16989517211914
525,26500.0,8.370094299316406,26.883363723754886,-12.16989517211914
526,26600.0,10.222138404846193,-3.3643085956573486,3.0460631847381587
527,26700.0,10.222138404846193,-3.3643085956573486,3.0460631847381587
528,26800.0,-5.37906551361084,6.647261142730713,-1.813759446144104
529,26900.0,-5.37906551361084,6.647261142730713,-1.813759446144104
530,27000.0,-6.824329853057861,29.14697265625,-7.5876407623291025
531,27100.0,-6.824329853057861,29.14697265625,-7.5876407623291025
532,27200.0,9.030512809753418,-10.578668594360352,3.6610186100006095
533,27300.0,9.030512809753418,-10.578668594360352,3.6610186100006095
534,27400.0,9.030512809753418,-10.578668594360352,3.6610186100006095
535,27500.0,7.594818592071532,32.961132049560554,-9.956534385681152
536,27600.0,7.594818592071532,32.961132049560554,-9.956534385681152
537,27700.0,-7.15932559967041,0.14356936514377594,-0.6604190468788147
538,27800.0,-7.15932559967041,0.14356936514377594,-0.6604190468788147
539,27900.0,7.810173511505128,1.0695916414260864,-0.8135597109794617
540,28000.0,7.810173511505128,1.0695916414260864,-0.8135597109794617
541,28100.0,14.12243938446045,28.086952209472656,-16.663616180419922
542,28200.0,14.12243938446045,28.086952209472656,-16.663616180419922
543,28300.0,14.12243938446045,28.086952209472656,-16.663616180419922
544,28400.0,-8.877371788024902,2.71346116065979,-2.603391170501709
545,28500.0,-8.877371788024902,2.71346116065979,-2.603391170501709
546,28600.0,6.891329765319824,7.623533248901367,-3.775874137878418
547,28700.0,6.891329765319824,7.623533248901367,-3.775874137878418
548,28800.0,11.720046043395994,21.576080322265625,-10.164710998535156
549,28900.0,11.720046043395994,21.576080322265625,-10.164710998535156
550,29000.0,11.720046043395994,21.576080322265625,-10.164710998535156
551,29100.0,-9.437292098999023,-0.04307081177830696,-1.0097711086273191
552,29200.0,-9.437292098999023,-0.04307081177830696,-1.0097711086273191
553,29300.0,10.451848983764648,27.857240676879886,-11.016555786132812
554,29400.0,10.451848983764648,27.857240676879886,-11.016555786132812
555,29500.0,9.30329418182373,5.039284706115723,-2.2085752487182617
556,29600.0,9.30329418182373,5.039284706115723,-2.2085752487182617
557,29700.0,9.30329418182373,5.039284706115723,-2.2085752487182617
558,29800.0,-7.255037784576416,3.6370904445648193,-0.7728817462921143
559,29900.0,-7.255037784576416,3.6370904445648193,-0.7728817462921143
560,28000.0,7.810173511505128,1.0695916414260864,-0.8135597109794617
561,28100.0,14.12243938446045,28.086952209472656,-16.663616180419922
562,28200.0,14.12243938446045,28.086952209472656,-16.663616180419922
563,28300.0,14.12243938446045,28.086952209472656,-16.663616180419922
564,28400.0,-8.877371788024902,2.71346116065979,-2.603391170501709
565,28500.0,-8.877371788024902,2.71346116065979,-2.603391170501709
566,28600.0,6.891329765319824,7.623533248901367,-3.775874137878418
567,28700.0,6.891329765319824,7.623533248901367,-3.775874137878418
568,28800.0,11.720046043395994,21.576080322265625,-10.164710998535156
569,28900.0,11.720046043395994,21.576080322265625,-10.164710998535156
570,29000.0,11.720046043395994,21.576080322265625,-10.164710998535156
571,29100.0,-9.437292098999023,-0.04307081177830696,-1.0097711086273191
572,29200.0,-9.437292098999023,-0.04307081177830696,-1.0097711086273191
573,29300.0,10.451848983764648,27.857240676879886,-11.016555786132812
574,29400.0,10.451848983764648,27.857240676879886,-11.016555786132812
575,29500.0,9.30329418182373,5.039284706115723,-2.2085752487182617
576,29600.0,9.30329418182373,5.039284706115723,-2.2085752487182617
577,29700.0,9.30329418182373,5.039284706115723,-2.2085752487182617
578,29800.0,-7.255037784576416,3.6370904445648193,-0.7728817462921143
579,29900.0,-7.255037784576416,3.6370904445648193,-0.7728817462921143
580,30000.0,12.65324592590332,22.6839599609375,-9.65503978729248
581,30100.0,12.65324592590332,22.6839599609375,-9.65503978729248
582,30200.0,8.154739379882812,-1.2801601886749268,0.7992027401924133
583,30300.0,8.154739379882812,-1.2801601886749268,0.7992027401924133
584,30400.0,8.154739379882812,-1.2801601886749268,0.7992027401924133
585,30500.0,-4.192224979400635,4.479363918304443,-2.1702899932861333
586,30600.0,-4.192224979400635,4.479363918304443,-2.1702899932861333
587,30700.0,10.901700019836426,27.86441993713379,-11.306086540222168
588,30800.0,10.901700019836426,27.86441993713379,-11.306086540222168
589,30900.0,4.718646049499512,-8.080562591552733,2.998206615447998
590,31000.0,4.718646049499512,-8.080562591552733,2.998206615447998
591,31100.0,4.718646049499512,-8.080562591552733,2.998206615447998
592,31200.0,-1.2586246728897097,11.164910316467283,-4.582255363464356
593,31300.0,-1.2586246728897097,11.164910316467283,-4.582255363464356
594,31400.0,-8.116454124450684,7.216752529144287,-1.9238293170928955
595,31500.0,-8.116454124450684,7.216752529144287,-1.9238293170928955
596,31600.0,7.3124656677246085,-1.3208380937576294,3.2781667709350586
597,31700.0,7.3124656677246085,-1.3208380937576294,3.2781667709350586
598,31800.0,7.3124656677246085,-1.3208380937576294,3.2781667709350586
599,31900.0,7.594818592071532,24.11486625671387,-13.083954811096193
600,30000.0,12.65324592590332,22.6839599609375,-9.65503978729248
601,30100.0,12.65324592590332,22.6839599609375,-9.65503978729248
602,30200.0,8.154739379882812,-1.2801601886749268,0.7992027401924133
603,30300.0,8.154739379882812,-1.2801601886749268,0.7992027401924133
604,30400.0,8.154739379882812,-1.2801601886749268,0.7992027401924133
605,30500.0,-4.192224979400635,4.479363918304443,-2.1702899932861333
606,30600.0,-4.192224979400635,4.479363918304443,-2.1702899932861333
607,30700.0,10.901700019836426,27.86441993713379,-11.306086540222168
608,30800.0,10.901700019836426,27.86441993713379,-11.306086540222168
609,30900.0,4.718646049499512,-8.080562591552733,2.998206615447998
610,31000.0,4.718646049499512,-8.080562591552733,2.998206615447998
611,31100.0,4.718646049499512,-8.080562591552733,2.998206615447998
612,31200.0,-1.2586246728897097,11.164910316467283,-4.582255363464356
613,31300.0,-1.2586246728897097,11.164910316467283,-4.582255363464356
614,31400.0,-8.116454124450684,7.216752529144287,-1.9238293170928955
615,31500.0,-8.116454124450684,7.216752529144287,-1.9238293170928955
616,31600.0,7.3124656677246085,-1.3208380937576294,3.2781667709350586
617,31700.0,7.3124656677246085,-1.3208380937576294,3.2781667709350586
618,31800.0,7.3124656677246085,-1.3208380937576294,3.2781667709350586
619,31900.0,7.594818592071532,24.11486625671387,-13.083954811096193
620,32000.0,7.594818592071532,24.11486625671387,-13.083954811096193
621,32100.0,-5.852844715118407,2.8666017055511475,-1.4069796800613403
622,32200.0,-5.852844715118407,2.8666017055511475,-1.4069796800613403
623,32300.0,7.125825881958008,-0.7657032012939453,1.026520848274231
624,32400.0,7.125825881958008,-0.7657032012939453,1.026520848274231
625,32500.0,7.125825881958008,-0.7657032012939453,1.026520848274231
626,32600.0,10.609774589538574,25.696521759033203,-8.987441062927246
627,32700.0,10.609774589538574,25.696521759033203,-8.987441062927246
628,32800.0,-6.106483459472656,4.2137603759765625,-2.2372891902923584
629,32900.0,-6.106483459472656,4.2137603759765625,-2.2372891902923584
630,33000.0,6.781259536743164,1.3136597871780396,0.30149564146995544
631,33100.0,6.781259536743164,1.3136597871780396,0.30149564146995544
632,33200.0,6.781259536743164,1.3136597871780396,0.30149564146995544
633,33300.0,14.538790702819824,26.337799072265625,-11.576476097106935
634,33400.0,14.538790702819824,26.337799072265625,-11.576476097106935
635,33500.0,-8.628519058227539,2.864208698272705,-1.584048628807068
636,33600.0,-8.628519058227539,2.864208698272705,-1.584048628807068
637,33700.0,6.340980052947997,7.128218650817871,0.2632104754447937
638,33800.0,6.340980052947997,7.128218650817871,0.2632104754447937
639,33900.0,6.340980052947997,7.128218650817871,0.2632104754447937
640,32000.0,7.594818592071532,24.11486625671387,-13.083954811096193
641,32100.0,-5.852844715118407,2.8666017055511475,-1.4069796800613403
642,32200.0,-5.852844715118407,2.8666017055511475,-1.4069796800613403
643,32300.0,7.125825881958008,-0.7657032012939453,1.026520848274231
644,32400.0,7.125825881958008,-0.7657032012939453,1.026520848274231
645,32500.0,7.125825881958008,-0.7657032012939453,1.026520848274231
646,32600.0,10.609774589538574,25.696521759033203,-8.987441062927246
647,32700.0,10.609774589538574,25.696521759033203,-8.987441062927246
648,32800.0,-6.106483459472656,4.2137603759765625,-2.2372891902923584
649,32900.0,-6.106483459472656,4.2137603759765625,-2.2372891902923584
650,33000.0,6.781259536743164,1.3136597871780396,0.30149564146995544
651,33100.0,6.781259536743164,1.3136597871780396,0.30149564146995544
652,33200.0,6.781259536743164,1.3136597871780396,0.30149564146995544
653,33300.0,14.538790702819824,26.337799072265625,-11.576476097106935
654,33400.0,14.538790702819824,26.337799072265625,-11.576476097106935
655,33500.0,-8.628519058227539,2.864208698272705,-1.584048628807068
656,33600.0,-8.628519058227539,2.864208698272705,-1.584048628807068
657,33700.0,6.340980052947997,7.128218650817871,0.2632104754447937
658,33800.0,6.340980052947997,7.128218650817871,0.2632104754447937
659,33900.0,6.340980052947997,7.128218650817871,0.2632104754447937
660,34000.0,13.57209014892578,26.629722595214844,-12.105289459228516
661,34100.0,13.57209014892578,26.629722595214844,-12.105289459228516
662,34200.0,-10.14556884765625,3.7256247997283936,-1.428515076637268
663,34300.0,-10.14556884765625,3.7256247997283936,-1.428515076637268
664,34400.0,-10.14556884765625,3.7256247997283936,-1.428515076637268
665,34500.0,4.627718925476074,12.416357040405273,-3.1489543914794917
666,34600.0,4.627718925476074,12.416357040405273,-3.1489543914794917
667,34700.0,9.824929237365724,0.8135597109794617,-1.0983055830001829
668,34800.0,9.824929237365724,0.8135597109794617,-1.0983055830001829
669,34900.0,-3.8668015003204346,8.271987915039062,-1.22033953666687
670,35000.0,-3.8668015003204346,8.271987915039062,-1.22033953666687
671,35100.0,-3.8668015003204346,8.271987915039062,-1.22033953666687
672,35200.0,1.7754744291305542,33.39183807373047,-11.105090141296387
673,35300.0,1.7754744291305542,33.39183807373047,-11.105090141296387
674,35400.0,6.374479293823242,-6.015556335449219,3.230310440063477
675,35500.0,6.374479293823242,-6.015556335449219,3.230310440063477
676,35600.0,-5.3694939613342285,9.66221809387207,-1.4715858697891235
677,35700.0,-5.3694939613342285,9.66221809387207,-1.4715858697891235
678,35800.0,-5.3694939613342285,9.66221809387207,-1.4715858697891235
679,35900.0,-4.005585193634033,29.39582633972168,-8.628519058227539
680,34000.0,13.57209014892578,26.629722595214844,-12.105289459228516
681,34100.0,13.57209014892578,26.629722595214844,-12.105289459228516
682,34200.0,-10.14556884765625,3.7256247997283936,-1.428515076637268
683,34300.0,-10.14556884765625,3.7256247997283936,-1.428515076637268
684,34400.0,-10.14556884765625,3.7256247997283936,-1.428515076637268
685,34500.0,4.627718925476074,12.416357040405273,-3.1489543914794917
686,34600.0,4.627718925476074,12.416357040405273,-3.1489543914794917
687,34700.0,9.824929237365724,0.8135597109794617,-1.0983055830001829
688,34800.0,9.824929237365724,0.8135597109794617,-1.0983055830001829
689,34900.0,-3.8668015003204346,8.271987915039062,-1.22033953666687
690,35000.0,-3.8668015003204346,8.271987915039062,-1.22033953666687
691,35100.0,-3.8668015003204346,8.271987915039062,-1.22033953666687
692,35200.0,1.7754744291305542,33.39183807373047,-11.105090141296387
693,35300.0,1.7754744291305542,33.39183807373047,-11.105090141296387
694,35400.0,6.374479293823242,-6.015556335449219,3.230310440063477
695,35500.0,6.374479293823242,-6.015556335449219,3.230310440063477
696,35600.0,-5.3694939613342285,9.66221809387207,-1.4715858697891235
697,35700.0,-5.3694939613342285,9.66221809387207,-1.4715858697891235
698,35800.0,-5.3694939613342285,9.66221809387207,-1.4715858697891235
699,35900.0,-4.005585193634033,29.39582633972168,-8.628519058227539
700,36000.0,-4.005585193634033,29.39582633972168,-8.628519058227539
701,36100.0,6.096912384033202,-6.0538411140441895,2.9718859195709233
702,36200.0,6.096912384033202,-6.0538411140441895,2.9718859195709233
703,36300.0,5.42692232131958,14.775679588317873,-16.21615982055664
704,36400.0,5.42692232131958,14.775679588317873,-16.21615982055664
705,36500.0,-6.656832218170166,4.163511276245116,-5.8265228271484375
706,36600.0,-6.656832218170166,4.163511276245116,-5.8265228271484375
707,36700.0,-6.656832218170166,4.163511276245116,-5.8265228271484375
708,36800.0,6.460620880126952,-1.6654045581817627,3.931407451629639
709,36900.0,6.460620880126952,-1.6654045581817627,3.931407451629639
710,37000.0,7.781459331512451,27.43132019042969,-13.332807540893555
711,37100.0,7.781459331512451,27.43132019042969,-13.332807540893555
712,37200.0,7.781459331512451,27.43132019042969,-13.332807540893555
713,37300.0,-6.9918274879455575,1.4141581058502195,-0.28235307335853577
714,37400.0,-6.9918274879455575,1.4141581058502195,-0.28235307335853577
715,37500.0,8.250452041625978,-0.4809573292732239,2.0099709033966064
716,37600.0,8.250452041625978,-0.4809573292732239,2.0099709033966064
717,37700.0,13.112667083740234,27.96970176696777,-11.720046043395994
718,37800.0,13.112667083740234,27.96970176696777,-11.720046043395994
719,37900.0,13.112667083740234,27.96970176696777,-11.720046043395994
720,36000.0,-4.005585193634033,29.39582633972168,-8.628519058227539
721,36100.0,6.096912384033202,-6.0538411140441895,2.9718859195709233
722,36200.0,6.096912384033202,-6.0538411140441895,2.9718859195709233
723,36300.0,5.42692232131958,14.775679588317873,-16.21615982055664
724,36400.0,5.42692232131958,14.775679588317873,-16.21615982055664
725,36500.0,-6.656832218170166,4.163511276245116,-5.8265228271484375
726,36600.0,-6.656832218170166,4.163511276245116,-5.8265228271484375
727,36700.0,-6.656832218170166,4.163511276245116,-5.8265228271484375
728,36800.0,6.460620880126952,-1.6654045581817627,3.931407451629639
729,36900.0,6.460620880126952,-1.6654045581817627,3.931407451629639
730,37000.0,7.781459331512451,27.43132019042969,-13.332807540893555
731,37100.0,7.781459331512451,27.43132019042969,-13.332807540893555
732,37200.0,7.781459331512451,27.43132019042969,-13.332807540893555
733,37300.0,-6.9918274879455575,1.4141581058502195,-0.28235307335853577
734,37400.0,-6.9918274879455575,1.4141581058502195,-0.28235307335853577
735,37500.0,8.250452041625978,-0.4809573292732239,2.0099709033966064
736,37600.0,8.250452041625978,-0.4809573292732239,2.0099709033966064
737,37700.0,13.112667083740234,27.96970176696777,-11.720046043395994
738,37800.0,13.112667083740234,27.96970176696777,-11.720046043395994
739,37900.0,13.112667083740234,27.96970176696777,-11.720046043395994
740,38000.0,-9.140583038330078,4.90528678894043,-1.155733346939087
741,38100.0,-9.140583038330078,4.90528678894043,-1.155733346939087
742,38200.0,7.4081788063049325,3.7902309894561768,-0.055034920573234565
743,38300.0,7.4081788063049325,3.7902309894561768,-0.055034920573234565
744,38400.0,15.830914497375488,22.437496185302734,-6.946363925933838
745,38500.0,15.830914497375488,22.437496185302734,-6.946363925933838
746,38600.0,15.830914497375488,22.437496185302734,-6.946363925933838
747,38700.0,-11.337193489074707,1.1365907192230225,0.6604190468788147
748,38800.0,-11.337193489074707,1.1365907192230225,0.6604190468788147
749,38900.0,6.752545356750487,14.81396484375,-5.800201892852782
750,39000.0,6.752545356750487,14.81396484375,-5.800201892852782
751,39100.0,13.744373321533205,11.653045654296875,-4.342973232269287
752,39200.0,13.744373321533205,11.653045654296875,-4.342973232269287
753,39300.0,13.744373321533205,11.653045654296875,-4.342973232269287
754,39400.0,-5.240281581878662,3.6299118995666495,0.0526420958340168
755,39500.0,-5.240281581878662,3.6299118995666495,0.0526420958340168
756,39600.0,7.805387496948242,34.34178924560547,-13.165310859680176
757,39700.0,7.805387496948242,34.34178924560547,-13.165310859680176
758,39800.0,6.135197162628174,-7.838886737823486,2.9048867225646973
759,39900.0,6.135197162628174,-7.838886737823486,2.9048867225646973
760,38000.0,-9.140583038330078,4.90528678894043,-1.155733346939087
761,38100.0,-9.140583038330078,4.90528678894043,-1.155733346939087
762,38200.0,7.4081788063049325,3.7902309894561768,-0.055034920573234565
763,38300.0,7.4081788063049325,3.7902309894561768,-0.055034920573234565
764,38400.0,15.830914497375488,22.437496185302734,-6.946363925933838
765,38500.0,15.830914497375488,22.437496185302734,-6.946363925933838
766,38600.0,15.830914497375488,22.437496185302734,-6.946363925933838
767,38700.0,-11.337193489074707,1.1365907192230225,0.6604190468788147
768,38800.0,-11.337193489074707,1.1365907192230225,0.6604190468788147
769,38900.0,6.752545356750487,14.81396484375,-5.800201892852782
770,39000.0,6.752545356750487,14.81396484375,-5.800201892852782
771,39100.0,13.744373321533205,11.653045654296875,-4.342973232269287
772,39200.0,13.744373321533205,11.653045654296875,-4.342973232269287
773,39300.0,13.744373321533205,11.653045654296875,-4.342973232269287
774,39400.0,-5.240281581878662,3.6299118995666495,0.0526420958340168
775,39500.0,-5.240281581878662,3.6299118995666495,0.0526420958340168
776,39600.0,7.805387496948242,34.34178924560547,-13.165310859680176
777,39700.0,7.805387496948242,34.34178924560547,-13.165310859680176
778,39800.0,6.135197162628174,-7.838886737823486,2.9048867225646973
779,39900.0,6.135197162628174,-7.838886737823486,2.9048867225646973
780,40000.0,6.135197162628174,-7.838886737823486,2.9048867225646973
781,40100.0,-2.6799612045288086,10.631311416625977,-3.060420036315918
782,40200.0,-2.6799612045288086,10.631311416625977,-3.060420036315918
783,40300.0,-5.958127975463867,15.201601028442385,-3.6059837341308594
784,40400.0,-5.958127975463867,15.201601028442385,-3.6059837341308594
785,40500.0,5.364708423614502,-3.0436704158782963,2.909672498703003
786,40600.0,5.364708423614502,-3.0436704158782963,2.909672498703003
787,40700.0,2.3736801147460938,23.21755790710449,-6.917649745941162
788,40800.0,2.3736801147460938,23.21755790710449,-6.917649745941162
789,40900.0,-7.345965385437013,5.027320384979248,-1.4739787578582764
790,41000.0,-7.345965385437013,5.027320384979248,-1.4739787578582764
791,41100.0,-7.345965385437013,5.027320384979248,-1.4739787578582764
792,41200.0,8.341379165649414,1.1030912399291992,1.6151552200317385
793,41300.0,8.341379165649414,1.1030912399291992,1.6151552200317385
794,41400.0,10.088139533996582,18.793228149414066,-10.602598190307617
795,41500.0,10.088139533996582,18.793228149414066,-10.602598190307617
796,41600.0,-11.748759269714355,-0.6556334495544434,0.2847459018230438
797,41700.0,-11.748759269714355,-0.6556334495544434,0.2847459018230438
798,41800.0,7.2023963928222665,27.21117973327637,-6.386443614959718
799,41900.0,7.2023963928222665,27.21117973327637,-6.386443614959718
800,40000.0,6.135197162628174,-7.838886737823486,2.9048867225646973
801,40100.0,-2.6799612045288086,10.631311416625977,-3.060420036315918
802,40200.0,-2.6799612045288086,10.631311416625977,-3.060420036315918
803,40300.0,-5.958127975463867,15.201601028442385,-3.6059837341308594
804,40400.0,-5.958127975463867,15.201601028442385,-3.6059837341308594
805,40500.0,5.364708423614502,-3.0436704158782963,2.909672498703003
806,40600.0,5.364708423614502,-3.0436704158782963,2.909672498703003
807,40700.0,2.3736801147460938,23.21755790710449,-6.917649745941162
808,40800.0,2.3736801147460938,23.21755790710449,-6.917649745941162
809,40900.0,-7.345965385437013,5.027320384979248,-1.4739787578582764
810,41000.0,-7.345965385437013,5.027320384979248,-1.4739787578582764
811,41100.0,-7.345965385437013,5.027320384979248,-1.4739787578582764
812,41200.0,8.341379165649414,1.1030912399291992,1.6151552200317385
813,41300.0,8.341379165649414,1.1030912399291992,1.6151552200317385
814,41400.0,10.088139533996582,18.793228149414066,-10.602598190307617
815,41500.0,10.088139533996582,18.793228149414066,-10.602598190307617
816,41600.0,-11.748759269714355,-0.6556334495544434,0.2847459018230438
817,41700.0,-11.748759269714355,-0.6556334495544434,0.2847459018230438
818,41800.0,7.2023963928222665,27.21117973327637,-6.386443614959718
819,41900.0,7.2023963928222665,27.21117973327637,-6.386443614959718
820,42000.0,7.2023963928222665,27.21117973327637,-6.386443614959718
821,42100.0,11.720046043395994,8.638089179992676,-3.1082763671875
822,42200.0,11.720046043395994,8.638089179992676,-3.1082763671875
823,42300.0,-8.681159973144531,2.1918253898620605,-1.4811571836471558
824,42400.0,-8.681159973144531,2.1918253898620605,-1.4811571836471558
825,42500.0,3.0484561920166016,34.892139434814446,-9.856036186218262
826,42600.0,3.0484561920166016,34.892139434814446,-9.856036186218262
827,42700.0,7.513463020324707,-4.716253280639648,2.0171494483947754
828,42800.0,7.513463020324707,-4.716253280639648,2.0171494483947754
829,42900.0,7.513463020324707,-4.716253280639648,2.0171494483947754
830,43000.0,-1.4404792785644531,12.806386947631836,-4.907679080963135
831,43100.0,-1.4404792785644531,12.806386947631836,-4.907679080963135
832,43200.0,-1.4404792785644531,12.806386947631836,-4.907679080963135
833,43300.0,11.24626636505127,38.77330017089844,-8.913264274597168
834,43400.0,11.24626636505127,38.77330017089844,-8.913264274597168
835,43500.0,9.365508079528807,-3.9146575927734375,2.258824586868286
836,43600.0,9.365508079528807,-3.9146575927734375,2.258824586868286
837,43700.0,-3.3308091163635254,6.128018856048584,0.22013968229293826
838,43800.0,-3.3308091163635254,6.128018856048584,0.22013968229293826
839,43900.0,-6.388835906982423,24.97867584228516,-2.9383859634399414
840,42000.0,7.2023963928222665,27.21117973327637,-6.386443614959718
841,42100.0,11.720046043395994,8.638089179992676,-3.1082763671875
842,42200.0,11.720046043395994,8.638089179992676,-3.1082763671875
843,42300.0,-8.681159973144531,2.1918253898620605,-1.4811571836471558
844,42400.0,-8.681159973144531,2.1918253898620605,-1.4811571836471558
845,42500.0,3.0484561920166016,34.892139434814446,-9.856036186218262
846,42600.0,3.0484561920166016,34.892139434814446,-9.856036186218262
847,42700.0,7.513463020324707,-4.716253280639648,2.0171494483947754
848,42800.0,7.513463020324707,-4.716253280639648,2.0171494483947754
849,42900.0,7.513463020324707,-4.716253280639648,2.0171494483947754
850,43000.0,-1.4404792785644531,12.806386947631836,-4.907679080963135
851,43100.0,-1.4404792785644531,12.806386947631836,-4.907679080963135
852,43200.0,-1.4404792785644531,12.806386947631836,-4.907679080963135
853,43300.0,11.24626636505127,38.77330017089844,-8.913264274597168
854,43400.0,11.24626636505127,38.77330017089844,-8.913264274597168
855,43500.0,9.365508079528807,-3.9146575927734375,2.258824586868286
856,43600.0,9.365508079528807,-3.9146575927734375,2.258824586868286
857,43700.0,-3.3308091163635254,6.128018856048584,0.22013968229293826
858,43800.0,-3.3308091163635254,6.128018856048584,0.22013968229293826
859,43900.0,-6.388835906982423,24.97867584228516,-2.9383859634399414
860,44000.0,-6.388835906982423,24.97867584228516,-2.9383859634399414
861,44100.0,-6.388835906982423,24.97867584228516,-2.9383859634399414
862,44200.0,8.767301559448242,-6.8554368019104,1.7898313999176023
863,44300.0,8.767301559448242,-6.8554368019104,1.7898313999176023
864,44400.0,15.495919227600098,37.170108795166016,-12.031112670898438
865,44500.0,15.495919227600098,37.170108795166016,-12.031112670898438
866,44600.0,-8.059026718139647,-0.6580261588096619,0.27756744623184204
867,44700.0,-8.059026718139647,-0.6580261588096619,0.27756744623184204
868,44800.0,3.3020951747894287,5.3694939613342285,-1.7515461444854736
869,44900.0,3.3020951747894287,5.3694939613342285,-1.7515461444854736
870,45000.0,3.3020951747894287,5.3694939613342285,-1.7515461444854736
871,45100.0,15.783059120178224,25.811378479003906,-21.13819694519043
872,45200.0,15.783059120178224,25.811378479003906,-21.13819694519043
873,45300.0,-8.60459041595459,2.548356056213379,-0.7657032012939453
874,45400.0,-8.60459041595459,2.548356056213379,-0.7657032012939453
875,45500.0,-8.60459041595459,2.548356056213379,-0.7657032012939453
876,45600.0,4.9914283752441415,12.315858840942385,-3.8955152034759517
877,45700.0,4.9914283752441415,12.315858840942385,-3.8955152034759517
878,45800.0,8.508876800537111,-3.479164123535156,2.792424201965332
879,45900.0,8.508876800537111,-3.479164123535156,2.792424201965332
880,44000.0,-6.388835906982423,24.97867584228516,-2.9383859634399414
881,44100.0,-6.388835906982423,24.97867584228516,-2.9383859634399414
882,44200.0,8.767301559448242,-6.8554368019104,1.7898313999176023
883,44300.0,8.767301559448242,-6.8554368019104,1.7898313999176023
884,44400.0,15.495919227600098,37.170108795166016,-12.031112670898438
885,44500.0,15.495919227600098,37.170108795166016,-12.031112670898438
886,44600.0,-8.059026718139647,-0.6580261588096619,0.27756744623184204
887,44700.0,-8.059026718139647,-0.6580261588096619,0.27756744623184204
888,44800.0,3.3020951747894287,5.3694939613342285,-1.7515461444854736
889,44900.0,3.3020951747894287,5.3694939613342285,-1.7515461444854736
890,45000.0,3.3020951747894287,5.3694939613342285,-1.7515461444854736
891,45100.0,15.783059120178224,25.811378479003906,-21.13819694519043
892,45200.0,15.783059120178224,25.811378479003906,-21.13819694519043
893,45300.0,-8.60459041595459,2.548356056213379,-0.7657032012939453
894,45400.0,-8.60459041595459,2.548356056213379,-0.7657032012939453
895,45500.0,-8.60459041595459,2.548356056213379,-0.7657032012939453
896,45600.0,4.9914283752441415,12.315858840942385,-3.8955152034759517
897,45700.0,4.9914283752441415,12.315858840942385,-3.8955152034759517
898,45800.0,8.508876800537111,-3.479164123535156,2.792424201965332
899,45900.0,8.508876800537111,-3.479164123535156,2.792424201965332
900,46000.0,-5.31685209274292,2.730210542678833,0.6364907622337341
901,46100.0,-5.31685209274292,2.730210542678833,0.6364907622337341
902,46200.0,-5.31685209274292,2.730210542678833,0.6364907622337341
903,46300.0,10.825129508972168,28.33819961547852,-9.446864128112793
904,46400.0,10.825129508972168,28.33819961547852,-9.446864128112793
905,46500.0,8.183453559875487,-4.137190341949463,1.6725829839706419
906,46600.0,8.183453559875487,-4.137190341949463,1.6725829839706419
907,46700.0,-4.886143684387207,6.5324058532714835,0.5670989155769348
908,46800.0,-4.886143684387207,6.5324058532714835,0.5670989155769348
909,46900.0,-4.886143684387207,6.5324058532714835,0.5670989155769348
910,47000.0,5.871986389160156,35.58127212524414,-13.342379570007324
911,47100.0,5.871986389160156,35.58127212524414,-13.342379570007324
912,47200.0,6.2117671966552725,-7.5804619789123535,2.455036163330078
913,47300.0,6.2117671966552725,-7.5804619789123535,2.455036163330078
914,47400.0,-3.230310440063477,10.090532302856444,0.3206382095813751
915,47500.0,-3.230310440063477,10.090532302856444,0.3206382095813751
916,47600.0,-4.25922441482544,11.746365547180176,-0.9810572862625122
917,47700.0,-4.25922441482544,11.746365547180176,-0.9810572862625122
918,47800.0,-4.25922441482544,11.746365547180176,-0.9810572862625122
919,47900.0,9.74835968017578,-7.015756130218506,1.8185452222824097
920,46000.0,-5.31685209274292,2.730210542678833,0.6364907622337341
921,46100.0,-5.31685209274292,2.730210542678833,0.6364907622337341
922,46200.0,-5.31685209274292,2.730210542678833,0.6364907622337341
923,46300.0,10.825129508972168,28.33819961547852,-9.446864128112793
924,46400.0,10.825129508972168,28.33819961547852,-9.446864128112793
925,46500.0,8.183453559875487,-4.137190341949463,1.6725829839706419
926,46600.0,8.183453559875487,-4.137190341949463,1.6725829839706419
927,46700.0,-4.886143684387207,6.5324058532714835,0.5670989155769348
928,46800.0,-4.886143684387207,6.5324058532714835,0.5670989155769348
929,46900.0,-4.886143684387207,6.5324058532714835,0.5670989155769348
930,47000.0,5.871986389160156,35.58127212524414,-13.342379570007324
931,47100.0,5.871986389160156,35.58127212524414,-13.342379570007324
932,47200.0,6.2117671966552725,-7.5804619789123535,2.455036163330078
933,47300.0,6.2117671966552725,-7.5804619789123535,2.455036163330078
934,47400.0,-3.230310440063477,10.090532302856444,0.3206382095813751
935,47500.0,-3.230310440063477,10.090532302856444,0.3206382095813751
936,47600.0,-4.25922441482544,11.746365547180176,-0.9810572862625122
937,47700.0,-4.25922441482544,11.746365547180176,-0.9810572862625122
938,47800.0,-4.25922441482544,11.746365547180176,-0.9810572862625122
939,47900.0,9.74835968017578,-7.015756130218506,1.8185452222824097
940,48000.0,9.74835968017578,-7.015756130218506,1.8185452222824097
941,48100.0,7.829315185546875,31.37708282470703,-11.105090141296387
942,48200.0,7.829315185546875,31.37708282470703,-11.105090141296387
943,48300.0,-7.690531730651855,-1.2011969089508057,-0.9738788008689879
944,48400.0,-7.690531730651855,-1.2011969089508057,-0.9738788008689879
945,48500.0,7.082754611968994,18.735801696777344,-4.95792818069458
946,48600.0,7.082754611968994,18.735801696777344,-4.95792818069458
947,48700.0,7.082754611968994,18.735801696777344,-4.95792818069458
948,48800.0,14.849857330322266,11.947362899780273,-0.5886343717575073
949,48900.0,14.849857330322266,11.947362899780273,-0.5886343717575073
950,49000.0,-9.212367057800293,0.916451096534729,0.9571290016174316
951,49100.0,-9.212367057800293,0.916451096534729,0.9571290016174316
952,49200.0,8.566305160522461,28.57030296325684,-7.982456684112549
953,49300.0,8.566305160522461,28.57030296325684,-7.982456684112549
954,49400.0,6.982256412506104,-9.35832977294922,3.2805597782135014
955,49500.0,6.982256412506104,-9.35832977294922,3.2805597782135014
956,49600.0,6.982256412506104,-9.35832977294922,3.2805597782135014
957,49700.0,-4.063012599945068,9.812965393066406,-0.2464607357978821
958,49800.0,-4.063012599945068,9.812965393066406,-0.2464607357978821
959,49900.0,-1.0911270380020142,22.399213790893555,-5.247459888458252
960,48000.0,9.74835968017578,-7.015756130218506,1.8185452222824097
961,48100.0,7.829315185546875,31.37708282470703,-11.105090141296387
962,48200.0,7.829315185546875,31.37708282470703,-11.105090141296387
963,48300.0,-7.690531730651855,-1.2011969089508057,-0.9738788008689879
964,48400.0,-7.690531730651855,-1.2011969089508057,-0.9738788008689879
965,48500.0,7.082754611968994,18.735801696777344,-4.95792818069458
966,48600.0,7.082754611968994,18.735801696777344,-4.95792818069458
967,48700.0,7.082754611968994,18.735801696777344,-4.95792818069458
968,48800.0,14.849857330322266,11.947362899780273,-0.5886343717575073
969,48900.0,14.849857330322266,11.947362899780273,-0.5886343717575073
970,49000.0,-9.212367057800293,0.916451096534729,0.9571290016174316
971,49100.0,-9.212367057800293,0.916451096534729,0.9571290016174316
972,49200.0,8.566305160522461,28.57030296325684,-7.982456684112549
973,49300.0,8.566305160522461,28.57030296325684,-7.982456684112549
974,49400.0,6.982256412506104,-9.35832977294922,3.2805597782135014
975,49500.0,6.982256412506104,-9.35832977294922,3.2805597782135014
976,49600.0,6.982256412506104,-9.35832977294922,3.2805597782135014
977,49700.0,-4.063012599945068,9.812965393066406,-0.2464607357978821
978,49800.0,-4.063012599945068,9.812965393066406,-0.2464607357978821
979,49900.0,-1.0911270380020142,22.399213790893555,-5.247459888458252
980,50000.0,-1.0911270380020142,22.399213790893555,-5.247459888458252
981,50100.0,-1.0911270380020142,22.399213790893555,-5.247459888458252
982,50200.0,8.98265552520752,-7.3531436920166025,-3.522234916687012
983,50300.0,8.98265552520752,-7.3531436920166025,-3.522234916687012
984,50400.0,11.28933811187744,33.65744400024414,-12.634103775024414
985,50500.0,11.28933811187744,33.65744400024414,-12.634103775024414
986,50600.0,-8.398807525634767,1.4021940231323242,1.210768222808838
987,50700.0,-8.398807525634767,1.4021940231323242,1.210768222808838
988,50800.0,4.407578945159912,4.453042984008789,-0.8853443264961243
989,50900.0,4.407578945159912,4.453042984008789,-0.8853443264961243
990,51000.0,4.407578945159912,4.453042984008789,-0.8853443264961243
991,51100.0,12.423534393310547,35.58366394042969,-10.729416847229004
992,51200.0,12.423534393310547,35.58366394042969,-10.729416847229004
993,51300.0,-8.547162055969237,0.3134597539901733,1.117448091506958
994,51400.0,-8.547162055969237,0.3134597539901733,1.117448091506958
995,51500.0,-8.547162055969237,0.3134597539901733,1.117448091506958
996,51600.0,4.063012599945068,3.3164520263671875,-0.8877372145652771
997,51700.0,4.063012599945068,3.3164520263671875,-0.8877372145652771
998,51800.0,13.835299491882324,10.588239669799805,-4.120440483093262
999,51900.0,13.835299491882324,10.588239669799805,-4.120440483093262
1000,50000.0,-1.0911270380020142,22.399213790893555,-5.247459888458252
1001,50100.0,-1.0911270380020142,22.399213790893555,-5.247459888458252
1002,50200.0,8.98265552520752,-7.3531436920166025,-3.522234916687012
1003,50300.0,8.98265552520752,-7.3531436920166025,-3.522234916687012
1004,50400.0,11.28933811187744,33.65744400024414,-12.634103775024414
1005,50500.0,11.28933811187744,33.65744400024414,-12.634103775024414
1006,50600.0,-8.398807525634767,1.4021940231323242,1.210768222808838
1007,50700.0,-8.398807525634767,1.4021940231323242,1.210768222808838
1008,50800.0,4.407578945159912,4.453042984008789,-0.8853443264961243
1009,50900.0,4.407578945159912,4.453042984008789,-0.8853443264961243
1010,51000.0,4.407578945159912,4.453042984008789,-0.8853443264961243
1011,51100.0,12.423534393310547,35.58366394042969,-10.729416847229004
1012,51200.0,12.423534393310547,35.58366394042969,-10.729416847229004
1013,51300.0,-8.547162055969237,0.3134597539901733,1.117448091506958
1014,51400.0,-8.547162055969237,0.3134597539901733,1.117448091506958
1015,51500.0,-8.547162055969237,0.3134597539901733,1.117448091506958
1016,51600.0,4.063012599945068,3.3164520263671875,-0.8877372145652771
1017,51700.0,4.063012599945068,3.3164520263671875,-0.8877372145652771
1018,51800.0,13.835299491882324,10.588239669799805,-4.120440483093262
1019,51900.0,13.835299491882324,10.588239669799805,-4.120440483093262
1020,52000.0,-6.451050281524657,1.428515076637268,0.7704889178276062
1021,52100.0,-6.451050281524657,1.428515076637268,0.7704889178276062
1022,52200.0,2.9288151264190674,34.932815551757805,-6.496513843536378
1023,52300.0,2.9288151264190674,34.932815551757805,-6.496513843536378
1024,52400.0,9.265008926391602,-9.24825954437256,1.1581261157989502
1025,52500.0,9.265008926391602,-9.24825954437256,1.1581261157989502
1026,52600.0,9.265008926391602,-9.24825954437256,1.1581261157989502
1027,52700.0,-3.804587841033936,9.497113227844238,-1.7563319206237793
1028,52800.0,-3.804587841033936,9.497113227844238,-1.7563319206237793
1029,52900.0,-3.4408791065216064,19.11865234375,-2.3736801147460938
1030,53000.0,-3.4408791065216064,19.11865234375,-2.3736801147460938
1031,53100.0,10.413564682006836,-5.800201892852782,1.4644075632095337
1032,53200.0,10.413564682006836,-5.800201892852782,1.4644075632095337
1033,53300.0,10.413564682006836,-5.800201892852782,1.4644075632095337
1034,53400.0,6.910471439361572,28.63969421386719,-13.395020484924315
1035,53500.0,6.910471439361572,28.63969421386719,-13.395020484924315
1036,53600.0,-6.805188179016112,-0.2153540551662445,0.11006984114646913
1037,53700.0,-6.805188179016112,-0.2153540551662445,0.11006984114646913
1038,53800.0,7.556533336639403,-0.17946170270442965,1.1126624345779421
1039,53900.0,7.556533336639403,-0.17946170270442965,1.1126624345779421
1040,52000.0,-6.451050281524657,1.428515076637268,0.7704889178276062
1041,52100.0,-6.451050281524657,1.428515076637268,0.7704889178276062
1042,52200.0,2.9288151264190674,34.932815551757805,-6.496513843536378
1043,52300.0,2.9288151264190674,34.932815551757805,-6.496513843536378
1044,52400.0,9.265008926391602,-9.24825954437256,1.1581261157989502
1045,52500.0,9.265008926391602,-9.24825954437256,1.1581261157989502
1046,52600.0,9.265008926391602,-9.24825954437256,1.1581261157989502
1047,52700.0,-3.804587841033936,9.497113227844238,-1.7563319206237793
1048,52800.0,-3.804587841033936,9.497113227844238,-1.7563319206237793
1049,52900.0,-3.4408791065216064,19.11865234375,-2.3736801147460938
1050,53000.0,-3.4408791065216064,19.11865234375,-2.3736801147460938
1051,53100.0,10.413564682006836,-5.800201892852782,1.4644075632095337
1052,53200.0,10.413564682006836,-5.800201892852782,1.4644075632095337
1053,53300.0,10.413564682006836,-5.800201892852782,1.4644075632095337
1054,53400.0,6.910471439361572,28.63969421386719,-13.395020484924315
1055,53500.0,6.910471439361572,28.63969421386719,-13.395020484924315
1056,53600.0,-6.805188179016112,-0.2153540551662445,0.11006984114646913
1057,53700.0,-6.805188179016112,-0.2153540551662445,0.11006984114646913
1058,53800.0,7.556533336639403,-0.17946170270442965,1.1126624345779421
1059,53900.0,7.556533336639403,-0.17946170270442965,1.1126624345779421
1060,54000.0,7.556533336639403,-0.17946170270442965,1.1126624345779421
1061,54100.0,8.394021987915039,27.45285415649414,-15.591632843017578
1062,54200.0,8.394021987915039,27.45285415649414,-15.591632843017578
1063,54300.0,-9.494720458984377,2.7900311946868896,-0.4450649619102478
1064,54400.0,-9.494720458984377,2.7900311946868896,-0.4450649619102478
1065,54500.0,5.757131576538086,3.1106693744659424,2.1726830005645748
1066,54600.0,5.757131576538086,3.1106693744659424,2.1726830005645748
1067,54700.0,5.757131576538086,3.1106693744659424,2.1726830005645748
1068,54800.0,13.529020309448242,26.65365028381348,-15.907485008239744
1069,54900.0,13.529020309448242,26.65365028381348,-15.907485008239744
1070,55000.0,-10.241281509399414,1.9764715433120728,2.210968255996704
1071,55100.0,-10.241281509399414,1.9764715433120728,2.210968255996704
1072,55200.0,-10.241281509399414,1.9764715433120728,2.210968255996704
1073,55300.0,5.182853698730469,6.005984783172607,-1.8855443000793457
1074,55400.0,5.182853698730469,6.005984783172607,-1.8855443000793457
1075,55500.0,11.164910316467283,22.035505294799805,-6.099304676055907
1076,55600.0,11.164910316467283,22.035505294799805,-6.099304676055907
1077,55700.0,-9.633503913879396,-0.8446664214134216,1.3902300596237185
1078,55800.0,-9.633503913879396,-0.8446664214134216,1.3902300596237185
1079,55900.0,-9.633503913879396,-0.8446664214134216,1.3902300596237185
1080,54000.0,7.556533336639403,-0.17946170270442965,1.1126624345779421
1081,54100.0,8.394021987915039,27.45285415649414,-15.591632843017578
1082,54200.0,8.394021987915039,27.45285415649414,-15.591632843017578
1083,54300.0,-9.494720458984377,2.7900311946868896,-0.4450649619102478
1084,54400.0,-9.494720458984377,2.7900311946868896,-0.4450649619102478
1085,54500.0,5.757131576538086,3.1106693744659424,2.1726830005645748
1086,54600.0,5.757131576538086,3.1106693744659424,2.1726830005645748
1087,54700.0,5.757131576538086,3.1106693744659424,2.1726830005645748
1088,54800.0,13.529020309448242,26.65365028381348,-15.907485008239744
1089,54900.0,13.529020309448242,26.65365028381348,-15.907485008239744
1090,55000.0,-10.241281509399414,1.9764715433120728,2.210968255996704
1091,55100.0,-10.241281509399414,1.9764715433120728,2.210968255996704
1092,55200.0,-10.241281509399414,1.9764715433120728,2.210968255996704
1093,55300.0,5.182853698730469,6.005984783172607,-1.8855443000793457
1094,55400.0,5.182853698730469,6.005984783172607,-1.8855443000793457
1095,55500.0,11.164910316467283,22.035505294799805,-6.099304676055907
1096,55600.0,11.164910316467283,22.035505294799805,-6.099304676055907
1097,55700.0,-9.633503913879396,-0.8446664214134216,1.3902300596237185
1098,55800.0,-9.633503913879396,-0.8446664214134216,1.3902300596237185
1099,55900.0,-9.633503913879396,-0.8446664214134216,1.3902300596237185
1100,56000.0,7.767102241516112,31.49433135986328,-9.944571495056152
1101,56100.0,7.767102241516112,31.49433135986328,-9.944571495056152
1102,56200.0,6.87697172164917,-7.116254806518555,3.38105845451355
1103,56300.0,6.87697172164917,-7.116254806518555,3.38105845451355
1104,56400.0,-7.140182495117188,6.675975322723389,-0.3038884699344635
1105,56500.0,-7.140182495117188,6.675975322723389,-0.3038884699344635
1106,56600.0,-7.140182495117188,6.675975322723389,-0.3038884699344635
1107,56700.0,3.4073793888092037,33.793834686279304,-13.2897367477417
1108,56800.0,3.4073793888092037,33.793834686279304,-13.2897367477417
1109,56900.0,5.1732821464538565,-6.735795497894287,2.2827527523040767
1110,57000.0,5.1732821464538565,-6.735795497894287,2.2827527523040767
1111,57100.0,-4.6372904777526855,9.32004451751709,-2.1726830005645748
1112,57200.0,-4.6372904777526855,9.32004451751709,-2.1726830005645748
1113,57300.0,-4.6372904777526855,9.32004451751709,-2.1726830005645748
1114,57400.0,-4.919642925262451,30.163923263549805,-8.652446746826174
1115,57500.0,-4.919642925262451,30.163923263549805,-8.652446746826174
1116,57600.0,4.106083393096924,-6.08494758605957,-1.88075852394104
1117,57700.0,4.106083393096924,-6.08494758605957,-1.88075852394104
1118,57800.0,19.64507484436035,17.685352325439453,-0.6699903011322021
1119,57900.0,19.64507484436035,17.685352325439453,-0.6699903011322021
1120,56000.0,7.767102241516112,31.49433135986328,-9.944571495056152
1121,56100.0,7.767102241516112,31.49433135986328,-9.944571495056152
1122,56200.0,6.87697172164917,-7.116254806518555,3.38105845451355
1123,56300.0,6.87697172164917,-7.116254806518555,3.38105845451355
1124,56400.0,-7.140182495117188,6.675975322723389,-0.3038884699344635
1125,56500.0,-7.140182495117188,6.675975322723389,-0.3038884699344635
1126,56600.0,-7.140182495117188,6.675975322723389,-0.3038884699344635
1127,56700.0,3.4073793888092037,33.793834686279304,-13.2897367477417
1128,56800.0,3.4073793888092037,33.793834686279304,-13.2897367477417
1129,56900.0,5.1732821464538565,-6.735795497894287,2.2827527523040767
1130,57000.0,5.1732821464538565,-6.735795497894287,2.2827527523040767
1131,57100.0,-4.6372904777526855,9.32004451751709,-2.1726830005645748
1132,57200.0,-4.6372904777526855,9.32004451751709,-2.1726830005645748
1133,57300.0,-4.6372904777526855,9.32004451751709,-2.1726830005645748
1134,57400.0,-4.919642925262451,30.163923263549805,-8.652446746826174
1135,57500.0,-4.919642925262451,30.163923263549805,-8.652446746826174
1136,57600.0,4.106083393096924,-6.08494758605957,-1.88075852394104
1137,57700.0,4.106083393096924,-6.08494758605957,-1.88075852394104
1138,57800.0,19.64507484436035,17.685352325439453,-0.6699903011322021
1139,57900.0,19.64507484436035,17.685352325439453,-0.6699903011322021
1140,58000.0,-4.560719966888428,-0.935593605041504,3.6251261234283447
1141,58100.0,-4.560719966888428,-0.935593605041504,3.6251261234283447
1142,58200.0,-4.560719966888428,-0.935593605041504,3.6251261234283447
1143,58300.0,5.312066078186035,15.110673904418945,-1.5026925802230835
1144,58400.0,5.312066078186035,15.110673904418945,-1.5026925802230835
1145,58500.0,13.619946479797365,1.1820544004440308,-0.6005984544754028
1146,58600.0,13.619946479797365,1.1820544004440308,-0.6005984544754028
1147,58700.0,-9.509077072143556,1.674975872039795,0.5886343717575073
1148,58800.0,-9.509077072143556,1.674975872039795,0.5886343717575073
1149,58900.0,-9.509077072143556,1.674975872039795,0.5886343717575073
1150,59000.0,12.720245361328125,29.225934982299805,-11.97607707977295
1151,59100.0,12.720245361328125,29.225934982299805,-11.97607707977295
1152,59200.0,9.135796546936037,-4.055834770202637,2.988635540008545
1153,59300.0,9.135796546936037,-4.055834770202637,2.988635540008545
1154,59400.0,9.135796546936037,-4.055834770202637,2.988635540008545
1155,59500.0,-8.59501838684082,2.8522443771362305,0.6149553656578064
1156,59600.0,-8.59501838684082,2.8522443771362305,0.6149553656578064
1157,59700.0,0.6843472719192505,27.47917366027832,-3.103491306304932
1158,59800.0,0.6843472719192505,27.47917366027832,-3.103491306304932
1159,59900.0,5.752345561981201,-4.54636287689209,1.031306505203247
1160,58000.0,-4.560719966888428,-0.935593605041504,3.6251261234283447
1161,58100.0,-4.560719966888428,-0.935593605041504,3.6251261234283447
1162,58200.0,-4.560719966888428,-0.935593605041504,3.6251261234283447
1163,58300.0,5.312066078186035,15.110673904418945,-1.5026925802230835
1164,58400.0,5.312066078186035,15.110673904418945,-1.5026925802230835
1165,58500.0,13.619946479797365,1.1820544004440308,-0.6005984544754028
1166,58600.0,13.619946479797365,1.1820544004440308,-0.6005984544754028
1167,58700.0,-9.509077072143556,1.674975872039795,0.5886343717575073
1168,58800.0,-9.509077072143556,1.674975872039795,0.5886343717575073
1169,58900.0,-9.509077072143556,1.674975872039795,0.5886343717575073
1170,59000.0,12.720245361328125,29.225934982299805,-11.97607707977295
1171,59100.0,12.720245361328125,29.225934982299805,-11.97607707977295
1172,59200.0,9.135796546936037,-4.055834770202637,2.988635540008545
1173,59300.0,9.135796546936037,-4.055834770202637,2.988635540008545
1174,59400.0,9.135796546936037,-4.055834770202637,2.988635540008545
1175,59500.0,-8.59501838684082,2.8522443771362305,0.6149553656578064
1176,59600.0,-8.59501838684082,2.8522443771362305,0.6149553656578064
1177,59700.0,0.6843472719192505,27.47917366027832,-3.103491306304932
1178,59800.0,0.6843472719192505,27.47917366027832,-3.103491306304932
1179,59900.0,5.752345561981201,-4.54636287689209,1.031306505203247
1180,60000.0,5.752345561981201,-4.54636287689209,1.031306505203247
1181,60100.0,5.752345561981201,-4.54636287689209,1.031306505203247
1182,60200.0,-5.321637630462647,10.760523796081543,1.4787644147872925
1183,60300.0,-5.321637630462647,10.760523796081543,1.4787644147872925
1184,60400.0,4.541577339172363,28.37887763977051,-7.077969074249268
1185,60500.0,4.541577339172363,28.37887763977051,-7.077969074249268
1186,60600.0,4.541577339172363,28.37887763977051,-7.077969074249268
1187,60700.0,9.260223388671877,-4.5678982734680185,3.9122648239135738
1188,60800.0,9.260223388671877,-4.5678982734680185,3.9122648239135738
1189,60900.0,0.818345308303833,21.430118560791016,-3.122633695602417
1190,61000.0,0.818345308303833,21.430118560791016,-3.122633695602417
1191,61100.0,-5.292923927307129,12.90927791595459,-5.0201416015625
1192,61200.0,-5.292923927307129,12.90927791595459,-5.0201416015625
1193,61300.0,11.00698471069336,2.7014968395233154,2.502892255783081
1194,61400.0,11.00698471069336,2.7014968395233154,2.502892255783081
1195,61500.0,11.00698471069336,2.7014968395233154,2.502892255783081
1196,61600.0,9.681360244750977,27.723243713378906,-12.978670120239258
1197,61700.0,9.681360244750977,27.723243713378906,-12.978670120239258
1198,61800.0,-10.016355514526367,0.09571290016174316,-0.04785645008087158
1199,61900.0,-10.016355514526367,0.09571290016174316,-0.04785645008087158
1200,60000.0,5.752345561981201,-4.54636287689209,1.031306505203247
1201,60100.0,5.752345561981201,-4.54636287689209,1.031306505203247
1202,60200.0,-5.321637630462647,10.760523796081543,1.4787644147872925
1203,60300.0,-5.321637630462647,10.760523796081543,1.4787644147872925
1204,60400.0,4.541577339172363,28.37887763977051,-7.077969074249268
1205,60500.0,4.541577339172363,28.37887763977051,-7.077969074249268
1206,60600.0,4.541577339172363,28.37887763977051,-7.077969074249268
1207,60700.0,9.260223388671877,-4.5678982734680185,3.9122648239135738
1208,60800.0,9.260223388671877,-4.5678982734680185,3.9122648239135738
1209,60900.0,0.818345308303833,21.430118560791016,-3.122633695602417
1210,61000.0,0.818345308303833,21.430118560791016,-3.122633695602417
1211,61100.0,-5.292923927307129,12.90927791595459,-5.0201416015625
1212,61200.0,-5.292923927307129,12.90927791595459,-5.0201416015625
1213,61300.0,11.00698471069336,2.7014968395233154,2.502892255783081
1214,61400.0,11.00698471069336,2.7014968395233154,2.502892255783081
1215,61500.0,11.00698471069336,2.7014968395233154,2.502892255783081
1216,61600.0,9.681360244750977,27.723243713378906,-12.978670120239258
1217,61700.0,9.681360244750977,27.723243713378906,-12.978670120239258
1218,61800.0,-10.016355514526367,0.09571290016174316,-0.04785645008087158
1219,61900.0,-10.016355514526367,0.09571290016174316,-0.04785645008087158
1220,62000.0,-10.016355514526367,0.09571290016174316,-0.04785645008087158
1221,62100.0,8.394021987915039,3.3379876613616943,-0.2871387302875519
1222,62200.0,8.394021987915039,3.3379876613616943,-0.2871387302875519
1223,62300.0,10.260422706604004,17.113466262817386,-9.719645500183104
1224,62400.0,10.260422706604004,17.113466262817386,-9.719645500183104
1225,62500.0,-12.547962188720705,1.88075852394104,-0.17228324711322784
1226,62600.0,-12.547962188720705,1.88075852394104,-0.17228324711322784
1227,62700.0,10.514062881469727,32.2552490234375,-11.92821979522705
1228,62800.0,10.514062881469727,32.2552490234375,-11.92821979522705
1229,62900.0,7.441678524017334,-3.6370904445648193,2.51007080078125
1230,63000.0,7.441678524017334,-3.6370904445648193,2.51007080078125
1231,63100.0,7.441678524017334,-3.6370904445648193,2.51007080078125
1232,63200.0,-3.507878065109253,9.54496955871582,-3.4528429508209233
1233,63300.0,-3.507878065109253,9.54496955871582,-3.4528429508209233
1234,63400.0,-4.326223373413087,24.571895599365234,-3.328416109085083
1235,63500.0,-4.326223373413087,24.571895599365234,-3.328416109085083
1236,63600.0,-4.326223373413087,24.571895599365234,-3.328416109085083
1237,63700.0,8.063812255859375,-5.053641319274902,-2.3258235454559326
1238,63800.0,8.063812255859375,-5.053641319274902,-2.3258235454559326
1239,63900.0,-3.445664882659912,18.46780586242676,-2.711068153381348
1240,62000.0,-10.016355514526367,0.09571290016174316,-0.04785645008087158
1241,62100.0,8.394021987915039,3.3379876613616943,-0.2871387302875519
1242,62200.0,8.394021987915039,3.3379876613616943,-0.2871387302875519
1243,62300.0,10.260422706604004,17.113466262817386,-9.719645500183104
1244,62400.0,10.260422706604004,17.113466262817386,-9.719645500183104
1245,62500.0,-12.547962188720705,1.88075852394104,-0.17228324711322784
1246,62600.0,-12.547962188720705,1.88075852394104,-0.17228324711322784
1247,62700.0,10.514062881469727,32.2552490234375,-11.92821979522705
1248,62800.0,10.514062881469727,32.2552490234375,-11.92821979522705
1249,62900.0,7.441678524017334,-3.6370904445648193,2.51007080078125
1250,63000.0,7.441678524017334,-3.6370904445648193,2.51007080078125
1251,63100.0,7.441678524017334,-3.6370904445648193,2.51007080078125
1252,63200.0,-3.507878065109253,9.54496955871582,-3.4528429508209233
1253,63300.0,-3.507878065109253,9.54496955871582,-3.4528429508209233
1254,63400.0,-4.326223373413087,24.571895599365234,-3.328416109085083
1255,63500.0,-4.326223373413087,24.571895599365234,-3.328416109085083
1256,63600.0,-4.326223373413087,24.571895599365234,-3.328416109085083
1257,63700.0,8.063812255859375,-5.053641319274902,-2.3258235454559326
1258,63800.0,8.063812255859375,-5.053641319274902,-2.3258235454559326
1259,63900.0,-3.445664882659912,18.46780586242676,-2.711068153381348
1260,64000.0,-3.445664882659912,18.46780586242676,-2.711068153381348
1261,64100.0,-5.958127975463867,25.89034080505371,-4.333401679992677
1262,64200.0,-5.958127975463867,25.89034080505371,-4.333401679992677
1263,64300.0,-5.958127975463867,25.89034080505371,-4.333401679992677
1264,64400.0,8.10688304901123,-5.620740413665772,3.4097721576690674
1265,64500.0,8.10688304901123,-5.620740413665772,3.4097721576690674
1266,64600.0,8.930014610290527,29.89831733703613,-12.497713088989258
1267,64700.0,8.930014610290527,29.89831733703613,-12.497713088989258
1268,64800.0,-10.183852195739746,4.666004180908203,0.0406779870390892
1269,64900.0,-10.183852195739746,4.666004180908203,0.0406779870390892
1270,65000.0,-10.183852195739746,4.666004180908203,0.0406779870390892
1271,65100.0,11.370694160461426,-2.359323024749756,1.8592231273651123
1272,65200.0,11.370694160461426,-2.359323024749756,1.8592231273651123
1273,65300.0,17.395820617675778,35.80141067504883,-14.569897651672365
1274,65400.0,17.395820617675778,35.80141067504883,-14.569897651672365
1275,65500.0,-7.609175682067871,-1.1700903177261353,-0.4642075896263122
1276,65600.0,-7.609175682067871,-1.1700903177261353,-0.4642075896263122
1277,65700.0,-7.609175682067871,-1.1700903177261353,-0.4642075896263122
1278,65800.0,6.034698486328125,3.634697675704956,0.5168496966362001
1279,65900.0,6.034698486328125,3.634697675704956,0.5168496966362001
1280,64000.0,-3.445664882659912,18.46780586242676,-2.711068153381348
1281,64100.0,-5.958127975463867,25.89034080505371,-4.333401679992677
1282,64200.0,-5.958127975463867,25.89034080505371,-4.333401679992677
1283,64300.0,-5.958127975463867,25.89034080505371,-4.333401679992677
1284,64400.0,8.10688304901123,-5.620740413665772,3.4097721576690674
1285,64500.0,8.10688304901123,-5.620740413665772,3.4097721576690674
1286,64600.0,8.930014610290527,29.89831733703613,-12.497713088989258
1287,64700.0,8.930014610290527,29.89831733703613,-12.497713088989258
1288,64800.0,-10.183852195739746,4.666004180908203,0.0406779870390892
1289,64900.0,-10.183852195739746,4.666004180908203,0.0406779870390892
1290,65000.0,-10.183852195739746,4.666004180908203,0.0406779870390892
1291,65100.0,11.370694160461426,-2.359323024749756,1.8592231273651123
1292,65200.0,11.370694160461426,-2.359323024749756,1.8592231273651123
1293,65300.0,17.395820617675778,35.80141067504883,-14.569897651672365
1294,65400.0,17.395820617675778,35.80141067504883,-14.569897651672365
1295,65500.0,-7.609175682067871,-1.1700903177261353,-0.4642075896263122
1296,65600.0,-7.609175682067871,-1.1700903177261353,-0.4642075896263122
1297,65700.0,-7.609175682067871,-1.1700903177261353,-0.4642075896263122
1298,65800.0,6.034698486328125,3.634697675704956,0.5168496966362001
1299,65900.0,6.034698486328125,3.634697675704956,0.5168496966362001
1300,66000.0,12.212966918945312,30.00121116638184,-20.50649070739746
1301,66100.0,12.212966918945312,30.00121116638184,-20.50649070739746
1302,66200.0,12.212966918945312,30.00121116638184,-20.50649070739746
1303,66300.0,-9.614361763000488,-3.969692707061768,1.7324036359786987
1304,66400.0,-9.614361763000488,-3.969692707061768,1.7324036359786987
1305,66500.0,2.9814569950103764,10.348958015441896,0.18903298676013947
1306,66600.0,2.9814569950103764,10.348958015441896,0.18903298676013947
1307,66700.0,9.7005033493042,-2.337787628173828,1.1102697849273682
1308,66800.0,9.7005033493042,-2.337787628173828,1.1102697849273682
1309,66900.0,-6.2500529289245605,0.18185453116893768,0.6771688461303711
1310,67000.0,-6.2500529289245605,0.18185453116893768,0.6771688461303711
1311,67100.0,-6.2500529289245605,0.18185453116893768,0.6771688461303711
1312,67200.0,4.828716278076172,36.31108093261719,-3.6299118995666495
1313,67300.0,4.828716278076172,36.31108093261719,-3.6299118995666495
1314,67400.0,7.987241268157959,-8.011170387268066,2.909672498703003
1315,67500.0,7.987241268157959,-8.011170387268066,2.909672498703003
1316,67600.0,7.987241268157959,-8.011170387268066,2.909672498703003
1317,67700.0,-6.130411148071289,6.266802310943604,1.3878371715545654
1318,67800.0,-6.130411148071289,6.266802310943604,1.3878371715545654
1319,67900.0,-3.996013641357422,35.992835998535156,-12.141182899475098
1320,66000.0,12.212966918945312,30.00121116638184,-20.50649070739746
1321,66100.0,12.212966918945312,30.00121116638184,-20.50649070739746
1322,66200.0,12.212966918945312,30.00121116638184,-20.50649070739746
1323,66300.0,-9.614361763000488,-3.969692707061768,1.7324036359786987
1324,66400.0,-9.614361763000488,-3.969692707061768,1.7324036359786987
1325,66500.0,2.9814569950103764,10.348958015441896,0.18903298676013947
1326,66600.0,2.9814569950103764,10.348958015441896,0.18903298676013947
1327,66700.0,9.7005033493042,-2.337787628173828,1.1102697849273682
1328,66800.0,9.7005033493042,-2.337787628173828,1.1102697849273682
1329,66900.0,-6.2500529289245605,0.18185453116893768,0.6771688461303711
1330,67000.0,-6.2500529289245605,0.18185453116893768,0.6771688461303711
1331,67100.0,-6.2500529289245605,0.18185453116893768,0.6771688461303711
1332,67200.0,4.828716278076172,36.31108093261719,-3.6299118995666495
1333,67300.0,4.828716278076172,36.31108093261719,-3.6299118995666495
1334,67400.0,7.987241268157959,-8.011170387268066,2.909672498703003
1335,67500.0,7.987241268157959,-8.011170387268066,2.909672498703003
1336,67600.0,7.987241268157959,-8.011170387268066,2.909672498703003
1337,67700.0,-6.130411148071289,6.266802310943604,1.3878371715545654
1338,67800.0,-6.130411148071289,6.266802310943604,1.3878371715545654
1339,67900.0,-3.996013641357422,35.992835998535156,-12.141182899475098
1340,68000.0,-3.996013641357422,35.992835998535156,-12.141182899475098
1341,68100.0,7.101897716522218,-8.638089179992676,2.675175428390503
1342,68200.0,7.101897716522218,-8.638089179992676,2.675175428390503
1343,68300.0,7.101897716522218,-8.638089179992676,2.675175428390503
1344,68400.0,-5.7954163551330575,17.343177795410153,-0.705882728099823
1345,68500.0,-5.7954163551330575,17.343177795410153,-0.705882728099823
1346,68600.0,-5.814558982849121,3.1274189949035645,-0.7824530005455017
1347,68700.0,-5.814558982849121,3.1274189949035645,-0.7824530005455017
1348,68800.0,8.288737297058105,-1.9932212829589844,1.3782659769058228
1349,68900.0,8.288737297058105,-1.9932212829589844,1.3782659769058228
1350,69000.0,2.622533798217773,32.281566619873054,-3.232703685760498
1351,69100.0,2.622533798217773,32.281566619873054,-3.232703685760498
1352,69200.0,-8.853443145751953,2.304288148880005,0.2105683833360672
1353,69300.0,-8.853443145751953,2.304288148880005,0.2105683833360672
1354,69400.0,-8.853443145751953,2.304288148880005,0.2105683833360672
1355,69500.0,3.5605196952819824,7.767102241516112,-2.2683956623077397
1356,69600.0,3.5605196952819824,7.767102241516112,-2.2683956623077397
1357,69700.0,12.815958023071287,2.6560330390930176,1.0336993932724001
1358,69800.0,12.815958023071287,2.6560330390930176,1.0336993932724001
1359,69900.0,-6.661618232727051,1.043270707130432,1.741974949836731
1360,68000.0,-3.996013641357422,35.992835998535156,-12.141182899475098
1361,68100.0,7.101897716522218,-8.638089179992676,2.675175428390503
1362,68200.0,7.101897716522218,-8.638089179992676,2.675175428390503
1363,68300.0,7.101897716522218,-8.638089179992676,2.675175428390503
1364,68400.0,-5.7954163551330575,17.343177795410153,-0.705882728099823
1365,68500.0,-5.7954163551330575,17.343177795410153,-0.705882728099823
1366,68600.0,-5.814558982849121,3.1274189949035645,-0.7824530005455017
1367,68700.0,-5.814558982849121,3.1274189949035645,-0.7824530005455017
1368,68800.0,8.288737297058105,-1.9932212829589844,1.3782659769058228
1369,68900.0,8.288737297058105,-1.9932212829589844,1.3782659769058228
1370,69000.0,2.622533798217773,32.281566619873054,-3.232703685760498
1371,69100.0,2.622533798217773,32.281566619873054,-3.232703685760498
1372,69200.0,-8.853443145751953,2.304288148880005,0.2105683833360672
1373,69300.0,-8.853443145751953,2.304288148880005,0.2105683833360672
1374,69400.0,-8.853443145751953,2.304288148880005,0.2105683833360672
1375,69500.0,3.5605196952819824,7.767102241516112,-2.2683956623077397
1376,69600.0,3.5605196952819824,7.767102241516112,-2.2683956623077397
1377,69700.0,12.815958023071287,2.6560330390930176,1.0336993932724001
1378,69800.0,12.815958023071287,2.6560330390930176,1.0336993932724001
1379,69900.0,-6.661618232727051,1.043270707130432,1.741974949836731
1380,70000.0,-6.661618232727051,1.043270707130432,1.741974949836731
1381,70100.0,-6.661618232727051,1.043270707130432,1.741974949836731
1382,70200.0,2.187039852142334,37.691741943359375,-7.987241268157959
1383,70300.0,2.187039852142334,37.691741943359375,-7.987241268157959
1384,70400.0,6.943971633911133,-5.9533424377441415,3.084348201751709
1385,70500.0,6.943971633911133,-5.9533424377441415,3.084348201751709
1386,70600.0,-5.804987907409668,5.209175109863281,-0.4546363055706024
1387,70700.0,-5.804987907409668,5.209175109863281,-0.4546363055706024
1388,70800.0,-5.804987907409668,5.209175109863281,-0.4546363055706024
1389,70900.0,-4.479363918304443,34.712677001953125,-14.641681671142578
1390,71000.0,-4.479363918304443,34.712677001953125,-14.641681671142578
1391,71100.0,8.216952323913574,-8.803194999694824,1.8975083827972408
1392,71200.0,8.216952323913574,-8.803194999694824,1.8975083827972408
1393,71300.0,8.216952323913574,-8.803194999694824,1.8975083827972408
1394,71400.0,-4.321437358856201,10.473384857177734,0.8566305041313171
1395,71500.0,-4.321437358856201,10.473384857177734,0.8566305041313171
1396,71600.0,-4.565505504608153,11.145767211914062,-1.7443678379058838
1397,71700.0,-4.565505504608153,11.145767211914062,-1.7443678379058838
1398,71800.0,9.255437850952148,-2.950350284576416,0.9978070855140686
1399,71900.0,9.255437850952148,-2.950350284576416,0.9978070855140686
1400,70000.0,-6.661618232727051,1.043270707130432,1.741974949836731
1401,70100.0,-6.661618232727051,1.043270707130432,1.741974949836731
1402,70200.0,2.187039852142334,37.691741943359375,-7.987241268157959
1403,70300.0,2.187039852142334,37.691741943359375,-7.987241268157959
1404,70400.0,6.943971633911133,-5.9533424377441415,3.084348201751709
1405,70500.0,6.943971633911133,-5.9533424377441415,3.084348201751709
1406,70600.0,-5.804987907409668,5.209175109863281,-0.4546363055706024
1407,70700.0,-5.804987907409668,5.209175109863281,-0.4546363055706024
1408,70800.0,-5.804987907409668,5.209175109863281,-0.4546363055706024
1409,70900.0,-4.479363918304443,34.712677001953125,-14.641681671142578
1410,71000.0,-4.479363918304443,34.712677001953125,-14.641681671142578
1411,71100.0,8.216952323913574,-8.803194999694824,1.8975083827972408
1412,71200.0,8.216952323913574,-8.803194999694824,1.8975083827972408
1413,71300.0,8.216952323913574,-8.803194999694824,1.8975083827972408
1414,71400.0,-4.321437358856201,10.473384857177734,0.8566305041313171
1415,71500.0,-4.321437358856201,10.473384857177734,0.8566305041313171
1416,71600.0,-4.565505504608153,11.145767211914062,-1.7443678379058838
1417,71700.0,-4.565505504608153,11.145767211914062,-1.7443678379058838
1418,71800.0,9.255437850952148,-2.950350284576416,0.9978070855140686
1419,71900.0,9.255437850952148,-2.950350284576416,0.9978070855140686
1420,72000.0,8.556733131408691,36.301513671875,-8.094919204711914
1421,72100.0,8.556733131408691,36.301513671875,-8.094919204711914
1422,72200.0,-7.192824840545653,-2.364108800888061,1.2035897970199585
1423,72300.0,-7.192824840545653,-2.364108800888061,1.2035897970199585
1424,72400.0,-7.192824840545653,-2.364108800888061,1.2035897970199585
1425,72500.0,4.603790760040283,13.387842178344727,-3.084348201751709
1426,72600.0,4.603790760040283,13.387842178344727,-3.084348201751709
1427,72700.0,10.604989051818848,-1.7132610082626345,2.581855773925781
1428,72800.0,10.604989051818848,-1.7132610082626345,2.581855773925781
1429,72900.0,-5.484349250793457,2.12961220741272,0.4091726541519165
1430,73000.0,-5.484349250793457,2.12961220741272,0.4091726541519165
1431,73100.0,-5.484349250793457,2.12961220741272,0.4091726541519165
1432,73200.0,0.6987042427062988,32.40599822998047,-15.27578067779541
1433,73300.0,0.6987042427062988,32.40599822998047,-15.27578067779541
1434,73400.0,7.39860725402832,-7.731209754943848,3.6753754615783687
1435,73500.0,7.39860725402832,-7.731209754943848,3.6753754615783687
1436,73600.0,-4.388436794281007,9.78664493560791,-2.2612173557281494
1437,73700.0,-4.388436794281007,9.78664493560791,-2.2612173557281494
1438,73800.0,-3.7328033447265625,18.427127838134766,-4.675575256347656
1439,73900.0,-3.7328033447265625,18.427127838134766,-4.675575256347656
1440,72000.0,8.556733131408691,36.301513671875,-8.094919204711914
1441,72100.0,8.556733131408691,36.301513671875,-8.094919204711914
1442,72200.0,-7.192824840545653,-2.364108800888061,1.2035897970199585
1443,72300.0,-7.192824840545653,-2.364108800888061,1.2035897970199585
1444,72400.0,-7.192824840545653,-2.364108800888061,1.2035897970199585
1445,72500.0,4.603790760040283,13.387842178344727,-3.084348201751709
1446,72600.0,4.603790760040283,13.387842178344727,-3.084348201751709
1447,72700.0,10.604989051818848,-1.7132610082626345,2.581855773925781
1448,72800.0,10.604989051818848,-1.7132610082626345,2.581855773925781
1449,72900.0,-5.484349250793457,2.12961220741272,0.4091726541519165
1450,73000.0,-5.484349250793457,2.12961220741272,0.4091726541519165
1451,73100.0,-5.484349250793457,2.12961220741272,0.4091726541519165
1452,73200.0,0.6987042427062988,32.40599822998047,-15.27578067779541
1453,73300.0,0.6987042427062988,32.40599822998047,-15.27578067779541
1454,73400.0,7.39860725402832,-7.731209754943848,3.6753754615783687
1455,73500.0,7.39860725402832,-7.731209754943848,3.6753754615783687
1456,73600.0,-4.388436794281007,9.78664493560791,-2.2612173557281494
1457,73700.0,-4.388436794281007,9.78664493560791,-2.2612173557281494
1458,73800.0,-3.7328033447265625,18.427127838134766,-4.675575256347656
1459,73900.0,-3.7328033447265625,18.427127838134766,-4.675575256347656
1460,74000.0,-3.7328033447265625,18.427127838134766,-4.675575256347656
1461,74100.0,8.130810737609862,-3.8572301864624015,1.4165509939193726
1462,74200.0,8.130810737609862,-3.8572301864624015,1.4165509939193726
1463,74300.0,16.467405319213867,26.54597473144531,-20.949161529541016
1464,74400.0,16.467405319213867,26.54597473144531,-20.949161529541016
1465,74500.0,-9.260223388671877,-1.7347965240478516,1.9453648328781128
1466,74600.0,-9.260223388671877,-1.7347965240478516,1.9453648328781128
1467,74700.0,4.508078098297119,5.223531246185303,-0.8973084688186646
1468,74800.0,4.508078098297119,5.223531246185303,-0.8973084688186646
1469,74900.0,11.94497013092041,11.743972778320312,-5.213961124420166
1470,75000.0,11.94497013092041,11.743972778320312,-5.213961124420166
1471,75100.0,11.94497013092041,11.743972778320312,-5.213961124420166
1472,75200.0,-7.2885379791259775,2.562713146209717,0.8925228118896484
1473,75300.0,-7.2885379791259775,2.562713146209717,0.8925228118896484
1474,75400.0,7.077969074249268,27.20639419555664,-10.28195858001709
1475,75500.0,7.077969074249268,27.20639419555664,-10.28195858001709
1476,75600.0,7.077969074249268,27.20639419555664,-10.28195858001709
1477,75700.0,8.685946464538574,-3.804587841033936,1.0360921621322632
1478,75800.0,8.685946464538574,-3.804587841033936,1.0360921621322632
1479,75900.0,-6.86261510848999,5.364708423614502,-1.938186287879944
1480,74000.0,-3.7328033447265625,18.427127838134766,-4.675575256347656
1481,74100.0,8.130810737609862,-3.8572301864624015,1.4165509939193726
1482,74200.0,8.130810737609862,-3.8572301864624015,1.4165509939193726
1483,74300.0,16.467405319213867,26.54597473144531,-20.949161529541016
1484,74400.0,16.467405319213867,26.54597473144531,-20.949161529541016
1485,74500.0,-9.260223388671877,-1.7347965240478516,1.9453648328781128
1486,74600.0,-9.260223388671877,-1.7347965240478516,1.9453648328781128
1487,74700.0,4.508078098297119,5.223531246185303,-0.8973084688186646
1488,74800.0,4.508078098297119,5.223531246185303,-0.8973084688186646
1489,74900.0,11.94497013092041,11.743972778320312,-5.213961124420166
1490,75000.0,11.94497013092041,11.743972778320312,-5.213961124420166
1491,75100.0,11.94497013092041,11.743972778320312,-5.213961124420166
1492,75200.0,-7.2885379791259775,2.562713146209717,0.8925228118896484
1493,75300.0,-7.2885379791259775,2.562713146209717,0.8925228118896484
1494,75400.0,7.077969074249268,27.20639419555664,-10.28195858001709
1495,75500.0,7.077969074249268,27.20639419555664,-10.28195858001709
1496,75600.0,7.077969074249268,27.20639419555664,-10.28195858001709
1497,75700.0,8.685946464538574,-3.804587841033936,1.0360921621322632
1498,75800.0,8.685946464538574,-3.804587841033936,1.0360921621322632
1499,75900.0,-6.86261510848999,5.364708423614502,-1.938186287879944
1500,76000.0,-6.86261510848999,5.364708423614502,-1.938186287879944
1501,76100.0,-6.86261510848999,5.364708423614502,-1.938186287879944
1502,76200.0,4.790431022644043,33.87279510498047,-10.107282638549805
1503,76300.0,4.790431022644043,33.87279510498047,-10.107282638549805
1504,76400.0,4.977071285247803,-7.020541667938232,1.9070796966552732
1505,76500.0,4.977071285247803,-7.020541667938232,1.9070796966552732
1506,76600.0,-4.589433670043945,7.240681171417236,-0.7441678047180176
1507,76700.0,-4.589433670043945,7.240681171417236,-0.7441678047180176
1508,76800.0,-4.589433670043945,7.240681171417236,-0.7441678047180176
1509,76900.0,-1.9477576017379759,34.528430938720696,-10.054640769958496
1510,77000.0,-1.9477576017379759,34.528430938720696,-10.054640769958496
1511,77100.0,6.087340831756593,-9.91585636138916,3.1058835983276367
1512,77200.0,6.087340831756593,-9.91585636138916,3.1058835983276367
1513,77300.0,-3.1250264644622803,11.090733528137207,-2.2253248691558842
1514,77400.0,-3.1250264644622803,11.090733528137207,-2.2253248691558842
1515,77500.0,-3.1250264644622803,11.090733528137207,-2.2253248691558842
1516,77600.0,-8.226524353027344,24.39961242675781,0.5431707501411438
1517,77700.0,-8.226524353027344,24.39961242675781,0.5431707501411438
1518,77800.0,8.331808090209961,-10.786844253540039,2.7326035499572754
1519,77900.0,8.331808090209961,-10.786844253540039,2.7326035499572754
1520,76000.0,-6.86261510848999,5.364708423614502,-1.938186287879944
1521,76100.0,-6.86261510848999,5.364708423614502,-1.938186287879944
1522,76200.0,4.790431022644043,33.87279510498047,-10.107282638549805
1523,76300.0,4.790431022644043,33.87279510498047,-10.107282638549805
1524,76400.0,4.977071285247803,-7.020541667938232,1.9070796966552732
1525,76500.0,4.977071285247803,-7.020541667938232,1.9070796966552732
1526,76600.0,-4.589433670043945,7.240681171417236,-0.7441678047180176
1527,76700.0,-4.589433670043945,7.240681171417236,-0.7441678047180176
1528,76800.0,-4.589433670043945,7.240681171417236,-0.7441678047180176
1529,76900.0,-1.9477576017379759,34.528430938720696,-10.054640769958496
1530,77000.0,-1.9477576017379759,34.528430938720696,-10.054640769958496
1531,77100.0,6.087340831756593,-9.91585636138916,3.1058835983276367
1532,77200.0,6.087340831756593,-9.91585636138916,3.1058835983276367
1533,77300.0,-3.1250264644622803,11.090733528137207,-2.2253248691558842
1534,77400.0,-3.1250264644622803,11.090733528137207,-2.2253248691558842
1535,77500.0,-3.1250264644622803,11.090733528137207,-2.2253248691558842
1536,77600.0,-8.226524353027344,24.39961242675781,0.5431707501411438
1537,77700.0,-8.226524353027344,24.39961242675781,0.5431707501411438
1538,77800.0,8.331808090209961,-10.786844253540039,2.7326035499572754
1539,77900.0,8.331808090209961,-10.786844253540039,2.7326035499572754
1540,78000.0,8.331808090209961,-10.786844253540039,2.7326035499572754
1541,78100.0,-2.6321046352386475,19.872392654418945,-3.7280178070068364
1542,78200.0,-2.6321046352386475,19.872392654418945,-3.7280178070068364
1543,78300.0,-6.886543273925781,0.0933200791478157,0.8853443264961243
1544,78400.0,-6.886543273925781,0.0933200791478157,0.8853443264961243
1545,78500.0,5.187639236450195,6.479763507843018,-1.3902300596237185
1546,78600.0,5.187639236450195,6.479763507843018,-1.3902300596237185
1547,78700.0,9.250652313232422,27.92663383483887,-16.197015762329098
1548,78800.0,9.250652313232422,27.92663383483887,-16.197015762329098
1549,78900.0,9.250652313232422,27.92663383483887,-16.197015762329098
1550,79000.0,-9.461220741271973,0.7513462901115417,-1.495514154434204
1551,79100.0,-9.461220741271973,0.7513462901115417,-1.495514154434204
1552,79200.0,3.1585259437561035,10.112068176269533,-2.311466693878174
1553,79300.0,3.1585259437561035,10.112068176269533,-2.311466693878174
1554,79400.0,9.81057357788086,-1.0169496536254885,2.1894328594207764
1555,79500.0,9.81057357788086,-1.0169496536254885,2.1894328594207764
1556,79600.0,9.81057357788086,-1.0169496536254885,2.1894328594207764
1557,79700.0,-3.1202406883239746,4.072584152221681,2.526820659637451
1558,79800.0,-3.1202406883239746,4.072584152221681,2.526820659637451
1559,79900.0,-0.5838487148284912,34.58107376098633,-11.638689994812012
1560,78000.0,8.331808090209961,-10.786844253540039,2.7326035499572754
1561,78100.0,-2.6321046352386475,19.872392654418945,-3.7280178070068364
1562,78200.0,-2.6321046352386475,19.872392654418945,-3.7280178070068364
1563,78300.0,-6.886543273925781,0.0933200791478157,0.8853443264961243
1564,78400.0,-6.886543273925781,0.0933200791478157,0.8853443264961243
1565,78500.0,5.187639236450195,6.479763507843018,-1.3902300596237185
1566,78600.0,5.187639236450195,6.479763507843018,-1.3902300596237185
1567,78700.0,9.250652313232422,27.92663383483887,-16.197015762329098
1568,78800.0,9.250652313232422,27.92663383483887,-16.197015762329098
1569,78900.0,9.250652313232422,27.92663383483887,-16.197015762329098
1570,79000.0,-9.461220741271973,0.7513462901115417,-1.495514154434204
1571,79100.0,-9.461220741271973,0.7513462901115417,-1.495514154434204
1572,79200.0,3.1585259437561035,10.112068176269533,-2.311466693878174
1573,79300.0,3.1585259437561035,10.112068176269533,-2.311466693878174
1574,79400.0,9.81057357788086,-1.0169496536254885,2.1894328594207764
1575,79500.0,9.81057357788086,-1.0169496536254885,2.1894328594207764
1576,79600.0,9.81057357788086,-1.0169496536254885,2.1894328594207764
1577,79700.0,-3.1202406883239746,4.072584152221681,2.526820659637451
1578,79800.0,-3.1202406883239746,4.072584152221681,2.526820659637451
1579,79900.0,-0.5838487148284912,34.58107376098633,-11.638689994812012
1580,80000.0,-0.5838487148284912,34.58107376098633,-11.638689994812012
1581,80100.0,7.101897716522218,-8.915657043457031,2.770888566970825
1582,80200.0,7.101897716522218,-8.915657043457031,2.770888566970825
1583,80300.0,7.101897716522218,-8.915657043457031,2.770888566970825
1584,80400.0,-7.75753116607666,10.85145092010498,-2.438286304473877
1585,80500.0,-7.75753116607666,10.85145092010498,-2.438286304473877
1586,80600.0,-2.71346116065979,20.87259101867676,-4.1276187896728525
1587,80700.0,-2.71346116065979,20.87259101867676,-4.1276187896728525
1588,80800.0,7.58524751663208,-7.087540626525879,2.218146562576294
1589,80900.0,7.58524751663208,-7.087540626525879,2.218146562576294
1590,81000.0,7.58524751663208,-7.087540626525879,2.218146562576294
1591,81100.0,-0.8039883971214294,23.954547882080078,-5.67338228225708
1592,81200.0,-0.8039883971214294,23.954547882080078,-5.67338228225708
1593,81300.0,-9.126225471496582,-3.1585259437561035,-2.6775684356689453
1594,81400.0,-9.126225471496582,-3.1585259437561035,-2.6775684356689453
1595,81500.0,3.828516006469727,6.175874710083008,0.4378865361213684
1596,81600.0,3.828516006469727,6.175874710083008,0.4378865361213684
1597,81700.0,8.274380683898926,24.77289390563965,-11.25344467163086
1598,81800.0,8.274380683898926,24.77289390563965,-11.25344467163086
1599,81900.0,8.274380683898926,24.77289390563965,-11.25344467163086
1600,80000.0,-0.5838487148284912,34.58107376098633,-11.638689994812012
1601,80100.0,7.101897716522218,-8.915657043457031,2.770888566970825
1602,80200.0,7.101897716522218,-8.915657043457031,2.770888566970825
1603,80300.0,7.101897716522218,-8.915657043457031,2.770888566970825
1604,80400.0,-7.75753116607666,10.85145092010498,-2.438286304473877
1605,80500.0,-7.75753116607666,10.85145092010498,-2.438286304473877
1606,80600.0,-2.71346116065979,20.87259101867676,-4.1276187896728525
1607,80700.0,-2.71346116065979,20.87259101867676,-4.1276187896728525
1608,80800.0,7.58524751663208,-7.087540626525879,2.218146562576294
1609,80900.0,7.58524751663208,-7.087540626525879,2.218146562576294
1610,81000.0,7.58524751663208,-7.087540626525879,2.218146562576294
1611,81100.0,-0.8039883971214294,23.954547882080078,-5.67338228225708
1612,81200.0,-0.8039883971214294,23.954547882080078,-5.67338228225708
1613,81300.0,-9.126225471496582,-3.1585259437561035,-2.6775684356689453
1614,81400.0,-9.126225471496582,-3.1585259437561035,-2.6775684356689453
1615,81500.0,3.828516006469727,6.175874710083008,0.4378865361213684
1616,81600.0,3.828516006469727,6.175874710083008,0.4378865361213684
1617,81700.0,8.274380683898926,24.77289390563965,-11.25344467163086
1618,81800.0,8.274380683898926,24.77289390563965,-11.25344467163086
1619,81900.0,8.274380683898926,24.77289390563965,-11.25344467163086
1620,82000.0,-8.638089179992676,-0.7824530005455017,-0.5910272002220154
1621,82100.0,-8.638089179992676,-0.7824530005455017,-0.5910272002220154
1622,82200.0,2.517249345779419,7.063612461090088,-0.413958340883255
1623,82300.0,2.517249345779419,7.063612461090088,-0.413958340883255
1624,82400.0,2.517249345779419,7.063612461090088,-0.413958340883255
1625,82500.0,9.078369140625,22.88974189758301,-14.921642303466795
1626,82600.0,9.078369140625,22.88974189758301,-14.921642303466795
1627,82700.0,-12.337392807006836,0.7824530005455017,-0.0406779870390892
1628,82800.0,-12.337392807006836,0.7824530005455017,-0.0406779870390892
1629,82900.0,8.819944381713867,14.141582489013672,-2.557927370071411
1630,83000.0,8.819944381713867,14.141582489013672,-2.557927370071411
1631,83100.0,8.819944381713867,14.141582489013672,-2.557927370071411
1632,83200.0,10.80120086669922,22.482961654663086,-11.636297225952148
1633,83300.0,10.80120086669922,22.482961654663086,-11.636297225952148
1634,83400.0,-8.24566650390625,-2.0027925968170166,0.1579262912273407
1635,83500.0,-8.24566650390625,-2.0027925968170166,0.1579262912273407
1636,83600.0,6.87697172164917,29.288148880004886,-6.671189785003662
1637,83700.0,6.87697172164917,29.288148880004886,-6.671189785003662
1638,83800.0,5.8480587005615225,-5.857630252838135,0.7776673436164856
1639,83900.0,5.8480587005615225,-5.857630252838135,0.7776673436164856
1640,82000.0,-8.638089179992676,-0.7824530005455017,-0.5910272002220154
1641,82100.0,-8.638089179992676,-0.7824530005455017,-0.5910272002220154
1642,82200.0,2.517249345779419,7.063612461090088,-0.413958340883255
1643,82300.0,2.517249345779419,7.063612461090088,-0.413958340883255
1644,82400.0,2.517249345779419,7.063612461090088,-0.413958340883255
1645,82500.0,9.078369140625,22.88974189758301,-14.921642303466795
1646,82600.0,9.078369140625,22.88974189758301,-14.921642303466795
1647,82700.0,-12.337392807006836,0.7824530005455017,-0.0406779870390892
1648,82800.0,-12.337392807006836,0.7824530005455017,-0.0406779870390892
1649,82900.0,8.819944381713867,14.141582489013672,-2.557927370071411
1650,83000.0,8.819944381713867,14.141582489013672,-2.557927370071411
1651,83100.0,8.819944381713867,14.141582489013672,-2.557927370071411
1652,83200.0,10.80120086669922,22.482961654663086,-11.636297225952148
1653,83300.0,10.80120086669922,22.482961654663086,-11.636297225952148
1654,83400.0,-8.24566650390625,-2.0027925968170166,0.1579262912273407
1655,83500.0,-8.24566650390625,-2.0027925968170166,0.1579262912273407
1656,83600.0,6.87697172164917,29.288148880004886,-6.671189785003662
1657,83700.0,6.87697172164917,29.288148880004886,-6.671189785003662
1658,83800.0,5.8480587005615225,-5.857630252838135,0.7776673436164856
1659,83900.0,5.8480587005615225,-5.857630252838135,0.7776673436164856
1660,84000.0,5.8480587005615225,-5.857630252838135,0.7776673436164856
1661,84100.0,-5.742774486541747,5.850451469421388,-0.8638089299201965
1662,84200.0,-5.742774486541747,5.850451469421388,-0.8638089299201965
1663,84300.0,0.6556334495544434,34.54757308959961,-10.557132720947266
1664,84400.0,0.6556334495544434,34.54757308959961,-10.557132720947266
1665,84500.0,0.6556334495544434,34.54757308959961,-10.557132720947266
1666,84600.0,7.350750923156737,-9.650253295898438,0.9738788008689879
1667,84700.0,7.350750923156737,-9.650253295898438,0.9738788008689879
1668,84800.0,-3.90987229347229,9.308080673217773,-0.9882357716560364
1669,84900.0,-3.90987229347229,9.308080673217773,-0.9882357716560364
1670,85000.0,-3.493520975112915,37.328033447265625,-8.295915603637695
1671,85100.0,-3.493520975112915,37.328033447265625,-8.295915603637695
1672,85200.0,-3.493520975112915,37.328033447265625,-8.295915603637695
1673,85300.0,8.461020469665527,-10.310672760009766,1.9812570810317995
1674,85400.0,8.461020469665527,-10.310672760009766,1.9812570810317995
1675,85500.0,-1.1102697849273682,15.393027305603027,-4.132404804229736
1676,85600.0,-1.1102697849273682,15.393027305603027,-4.132404804229736
1677,85700.0,-1.1102697849273682,15.393027305603027,-4.132404804229736
1678,85800.0,-4.517649173736572,18.230915069580078,-6.451050281524657
1679,85900.0,-4.517649173736572,18.230915069580078,-6.451050281524657
1680,84000.0,5.8480587005615225,-5.857630252838135,0.7776673436164856
1681,84100.0,-5.742774486541747,5.850451469421388,-0.8638089299201965
1682,84200.0,-5.742774486541747,5.850451469421388,-0.8638089299201965
1683,84300.0,0.6556334495544434,34.54757308959961,-10.557132720947266
1684,84400.0,0.6556334495544434,34.54757308959961,-10.557132720947266
1685,84500.0,0.6556334495544434,34.54757308959961,-10.557132720947266
1686,84600.0,7.350750923156737,-9.650253295898438,0.9738788008689879
1687,84700.0,7.350750923156737,-9.650253295898438,0.9738788008689879
1688,84800.0,-3.90987229347229,9.308080673217773,-0.9882357716560364
1689,84900.0,-3.90987229347229,9.308080673217773,-0.9882357716560364
1690,85000.0,-3.493520975112915,37.328033447265625,-8.295915603637695
1691,85100.0,-3.493520975112915,37.328033447265625,-8.295915603637695
1692,85200.0,-3.493520975112915,37.328033447265625,-8.295915603637695
1693,85300.0,8.461020469665527,-10.310672760009766,1.9812570810317995
1694,85400.0,8.461020469665527,-10.310672760009766,1.9812570810317995
1695,85500.0,-1.1102697849273682,15.393027305603027,-4.132404804229736
1696,85600.0,-1.1102697849273682,15.393027305603027,-4.132404804229736
1697,85700.0,-1.1102697849273682,15.393027305603027,-4.132404804229736
1698,85800.0,-4.517649173736572,18.230915069580078,-6.451050281524657
1699,85900.0,-4.517649173736572,18.230915069580078,-6.451050281524657
1700,86000.0,8.207381248474121,-6.98704195022583,1.3902300596237185
1701,86100.0,8.207381248474121,-6.98704195022583,1.3902300596237185
1702,86200.0,12.710674285888672,35.04288864135742,-12.117253303527832
1703,86300.0,12.710674285888672,35.04288864135742,-12.117253303527832
1704,86400.0,-7.776673316955566,1.9525433778762815,-1.196411371231079
1705,86500.0,-7.776673316955566,1.9525433778762815,-1.196411371231079
1706,86600.0,-7.776673316955566,1.9525433778762815,-1.196411371231079
1707,86700.0,5.312066078186035,5.146961212158203,-1.4715858697891235
1708,86800.0,5.312066078186035,5.146961212158203,-1.4715858697891235
1709,86900.0,10.882556915283203,25.653451919555664,-13.591233253479006
1710,87000.0,10.882556915283203,25.653451919555664,-13.591233253479006
1711,87100.0,10.882556915283203,25.653451919555664,-13.591233253479006
1712,87200.0,-9.107083320617676,-3.2207393646240234,0.7896314859390259
1713,87300.0,-9.107083320617676,-3.2207393646240234,0.7896314859390259
1714,87400.0,4.421936511993408,9.91585636138916,-1.8233308792114256
1715,87500.0,4.421936511993408,9.91585636138916,-1.8233308792114256
1716,87600.0,13.347164154052734,19.98724937438965,-7.245467185974121
1717,87700.0,13.347164154052734,19.98724937438965,-7.245467185974121
1718,87800.0,13.347164154052734,19.98724937438965,-7.245467185974121
1719,87900.0,-11.514263153076172,0.6532405614852905,-1.06480610370636
1720,86000.0,8.207381248474121,-6.98704195022583,1.3902300596237185
1721,86100.0,8.207381248474121,-6.98704195022583,1.3902300596237185
1722,86200.0,12.710674285888672,35.04288864135742,-12.117253303527832
1723,86300.0,12.710674285888672,35.04288864135742,-12.117253303527832
1724,86400.0,-7.776673316955566,1.9525433778762815,-1.196411371231079
1725,86500.0,-7.776673316955566,1.9525433778762815,-1.196411371231079
1726,86600.0,-7.776673316955566,1.9525433778762815,-1.196411371231079
1727,86700.0,5.312066078186035,5.146961212158203,-1.4715858697891235
1728,86800.0,5.312066078186035,5.146961212158203,-1.4715858697891235
1729,86900.0,10.882556915283203,25.653451919555664,-13.591233253479006
1730,87000.0,10.882556915283203,25.653451919555664,-13.591233253479006
1731,87100.0,10.882556915283203,25.653451919555664,-13.591233253479006
1732,87200.0,-9.107083320617676,-3.2207393646240234,0.7896314859390259
1733,87300.0,-9.107083320617676,-3.2207393646240234,0.7896314859390259
1734,87400.0,4.421936511993408,9.91585636138916,-1.8233308792114256
1735,87500.0,4.421936511993408,9.91585636138916,-1.8233308792114256
1736,87600.0,13.347164154052734,19.98724937438965,-7.245467185974121
1737,87700.0,13.347164154052734,19.98724937438965,-7.245467185974121
1738,87800.0,13.347164154052734,19.98724937438965,-7.245467185974121
1739,87900.0,-11.514263153076172,0.6532405614852905,-1.06480610370636
1740,88000.0,-11.514263153076172,0.6532405614852905,-1.06480610370636
1741,88100.0,6.996613025665282,28.64448165893555,-8.410772323608397
1742,88200.0,6.996613025665282,28.64448165893555,-8.410772323608397
1743,88300.0,7.432106971740723,-4.862215518951416,0.7968099117279053
