,timestamp,ax,ay,az
0,5000.0,4.043208122253418,-8.548497200012207,-1.2946646213531494
1,5100.0,4.043208122253418,-8.548497200012207,-1.2946646213531494
2,5200.0,4.043208122253418,-8.548497200012207,-1.2946646213531494
3,5300.0,2.1619641780853267,-10.178350448608398,-1.592742681503296
4,5400.0,2.7048494815826416,-9.191340446472168,-0.934935748577118
5,5500.0,2.7048494815826416,-9.191340446472168,-0.934935748577118
6,5600.0,3.224391222000122,-9.922768592834473,-1.1647791862487793
7,5700.0,3.224391222000122,-9.922768592834473,-1.1647791862487793
8,5800.0,4.226364612579347,-9.408614158630373,-0.4746504724025726
9,5900.0,4.226364612579347,-9.408614158630373,-0.4746504724025726
10,6000.0,3.155557870864868,-9.710882186889648,0.5955576896667479
11,6100.0,3.155557870864868,-9.710882186889648,0.5955576896667479
12,6200.0,3.9193081855773926,-8.541913032531737,2.481590032577514
13,6300.0,5.05715274810791,-8.495824813842772,-0.34416648745536804
14,6400.0,5.05715274810791,-8.495824813842772,-0.34416648745536804
15,6500.0,2.169146776199341,-10.494982719421387,-0.9941922426223756
16,6600.0,2.169146776199341,-10.494982719421387,-0.9941922426223756
17,6700.0,3.2154128551483154,-8.62391471862793,-0.5925649404525757
18,6800.0,3.2154128551483154,-8.62391471862793,-0.5925649404525757
19,6900.0,2.287061214447021,-8.804078102111816,-1.1815385818481443
20,7000.0,2.287061214447021,-8.804078102111816,-1.1815385818481443
21,7100.0,3.014898538589477,-8.611345291137695,-0.4578910768032074
22,7200.0,5.7305216789245605,-7.634510517120361,2.008136749267578
23,7300.0,5.7305216789245605,-7.634510517120361,2.008136749267578
24,7400.0,1.7974469661712646,-13.038822174072266,-1.747767210006714
25,7500.0,1.7974469661712646,-13.038822174072266,-1.747767210006714
26,7600.0,3.26688814163208,-9.313444137573242,-0.20949265360832212
27,7700.0,3.26688814163208,-9.313444137573242,-0.20949265360832212
28,7800.0,3.0280666351318364,-9.047688484191896,0.3345896899700165
29,7900.0,3.0280666351318364,-9.047688484191896,0.3345896899700165
30,8000.0,7.832630634307861,-9.943717956542967,13.737330436706545
31,8100.0,1.3563152551651,-9.192537307739258,1.0893617868423462
32,8200.0,1.3563152551651,-9.192537307739258,1.0893617868423462
33,8300.0,4.838681697845459,-8.00800609588623,2.1254525184631348
34,8400.0,4.838681697845459,-8.00800609588623,2.1254525184631348
35,8500.0,4.425682067871094,-8.627506256103517,-0.9085995554924012
36,8600.0,4.425682067871094,-8.627506256103517,-0.9085995554924012
37,8700.0,3.455431699752808,-7.625532627105713,-3.858256101608277
38,8800.0,3.455431699752808,-7.625532627105713,-3.858256101608277
39,8900.0,2.2349872589111333,-10.209474563598633,-0.38486793637275696
40,9000.0,2.2349872589111333,-10.209474563598633,-0.38486793637275696
41,9100.0,2.407968282699585,-9.693524360656738,-1.215057373046875
42,9200.0,3.843292236328125,-9.03631591796875,-0.8277952671051025
43,9300.0,3.843292236328125,-9.03631591796875,-0.8277952671051025
44,9400.0,5.671864032745361,-7.522581577301025,-2.3307554721832275
45,9500.0,5.671864032745361,-7.522581577301025,-2.3307554721832275
46,9600.0,2.7240030765533447,-9.702502250671387,-0.2017114907503128
47,9700.0,2.7240030765533447,-9.702502250671387,-0.2017114907503128
48,9800.0,2.9035680294036865,-9.444527626037598,-1.9764134883880613
49,9900.0,2.9035680294036865,-9.444527626037598,-1.9764134883880613
50,10000.0,3.1920695304870605,-8.921992301940918,-0.9929951429367064
51,10100.0,4.305373191833496,-8.844181060791016,-1.2749123573303225
52,10200.0,4.305373191833496,-8.844181060791016,-1.2749123573303225
53,10300.0,3.3848025798797607,-8.735843658447267,-1.3401544094085691
54,10400.0,3.3848025798797607,-8.735843658447267,-1.3401544094085691
55,10500.0,3.2261867523193364,-8.796297073364258,-1.668160080909729
56,10600.0,3.2261867523193364,-8.796297073364258,-1.668160080909729
57,10700.0,3.7223851680755615,-11.1072998046875,0.5051765441894531
58,10800.0,3.7223851680755615,-11.1072998046875,0.5051765441894531
59,10900.0,2.27209734916687,-9.848548889160156,3.744531393051148
60,11000.0,5.324106216430664,-9.054272651672363,3.277063608169556
61,11100.0,5.324106216430664,-9.054272651672363,3.277063608169556
62,11200.0,5.633556365966798,-13.068151473999025,13.310564041137695
63,11300.0,5.633556365966798,-13.068151473999025,13.310564041137695
64,11400.0,1.7615338563919067,-10.599729537963867,1.4939818382263184
65,11500.0,1.7615338563919067,-10.599729537963867,1.4939818382263184
66,11600.0,-0.454898327589035,-10.00836181640625,-0.3740940093994141
67,11700.0,3.9677908420562735,-8.959102630615234,1.5783774852752686
68,11800.0,3.9677908420562735,-8.959102630615234,1.5783774852752686
69,11900.0,4.37540340423584,-5.938817501068115,-0.9463081955909728
70,12000.0,4.37540340423584,-5.938817501068115,-0.9463081955909728
71,12100.0,-1.7501614093780518,-11.559206008911133,-1.3569138050079346
72,12200.0,-1.7501614093780518,-11.559206008911133,-1.3569138050079346
73,12300.0,4.484339714050293,-8.545504570007324,-1.1617863178253174
74,12400.0,4.484339714050293,-8.545504570007324,-1.1617863178253174
75,12500.0,3.0166940689086914,-9.147645950317383,-0.9091981053352356
76,12600.0,3.0166940689086914,-9.147645950317383,-0.9091981053352356
77,12700.0,2.405574083328247,-9.273940086364746,-1.4065934419631958
78,12800.0,1.9015947580337524,-9.079411506652832,-0.4920084476470947
79,12900.0,1.9015947580337524,-9.079411506652832,-0.4920084476470947
80,13000.0,7.671022415161133,-5.515642166137695,0.6129156351089478
81,13100.0,7.671022415161133,-5.515642166137695,0.6129156351089478
82,13200.0,4.762665748596191,-6.925228595733643,-2.2439656257629395
83,13300.0,4.762665748596191,-6.925228595733643,-2.2439656257629395
84,13400.0,3.659537315368652,-8.145672798156737,-1.9596540927886963
85,13500.0,3.659537315368652,-8.145672798156737,-1.9596540927886963
86,13600.0,4.443039894104004,-8.771158218383789,-2.0871453285217285
87,13700.0,4.579509258270264,-8.543708801269531,-2.4630351066589355
88,13800.0,4.579509258270264,-8.543708801269531,-2.4630351066589355
89,13900.0,4.553173065185547,-8.276156425476074,-2.100313425064087
90,14000.0,4.553173065185547,-8.276156425476074,-2.100313425064087
91,14100.0,0.5889736413955688,-9.164405822753906,-0.05327098816633225
92,14200.0,0.5889736413955688,-9.164405822753906,-0.05327098816633225
93,14300.0,3.688267707824707,-8.499416351318361,-1.0330979824066162
94,14400.0,3.688267707824707,-8.499416351318361,-1.0330979824066162
95,14500.0,6.350021362304688,-7.747636795043945,-1.4197616577148438
96,14600.0,2.3774423599243164,-9.172186851501463,-0.22625206410884854
97,14700.0,2.3774423599243164,-9.172186851501463,-0.22625206410884854
98,14800.0,3.6948518753051762,-8.716690063476562,-0.6775590777397156
99,14900.0,3.6948518753051762,-8.716690063476562,-0.6775590777397156
100,15000.0,4.25629186630249,-8.7669677734375,-0.6129156351089478
101,15100.0,4.25629186630249,-8.7669677734375,-0.6129156351089478
102,15200.0,3.2363622188568115,-9.148244857788086,-0.5518634915351868
103,15300.0,3.2363622188568115,-9.148244857788086,-0.5518634915351868
104,15400.0,2.551021814346313,-9.23563289642334,-0.557250440120697
105,15500.0,5.937021732330322,-8.826224327087402,-0.6739677786827087
106,15600.0,5.937021732330322,-8.826224327087402,-0.6739677786827087
107,15700.0,5.513846397399902,-7.536348342895508,-2.702455282211304
108,15800.0,5.513846397399902,-7.536348342895508,-2.702455282211304
109,15900.0,2.56000018119812,-8.313266754150389,-2.4402899742126465
110,16000.0,2.56000018119812,-8.313266754150389,-2.4402899742126465
111,16100.0,6.304531574249268,-9.148244857788086,-1.4047977924346924
112,16200.0,6.304531574249268,-9.148244857788086,-1.4047977924346924
113,16300.0,2.6868927478790283,-6.541557788848878,-2.252943754196167
114,16400.0,0.8188169598579407,-9.947309494018556,-0.5141547918319702
115,16500.0,0.8188169598579407,-9.947309494018556,-0.5141547918319702
116,16600.0,4.074931144714356,-8.559869766235353,-0.646434485912323
117,16700.0,4.074931144714356,-8.559869766235353,-0.646434485912323
118,16800.0,4.074931144714356,-9.67077922821045,-1.189319729804993
119,16900.0,4.074931144714356,-9.67077922821045,-1.189319729804993
120,17000.0,1.7699135541915894,-9.68933391571045,-0.9481038451194764
121,17100.0,1.7699135541915894,-9.68933391571045,-0.9481038451194764
122,17200.0,3.813364744186402,-9.19972038269043,-0.979827046394348
123,17300.0,4.930858612060547,-7.7446441650390625,-1.7070658206939695
124,17400.0,4.930858612060547,-7.7446441650390625,-1.7070658206939695
125,17500.0,1.7555483579635618,-9.613917350769043,-0.6494272351264954
126,17600.0,1.7555483579635618,-9.613917350769043,-0.6494272351264954
127,17700.0,2.9436709880828857,-9.55585765838623,-0.4417302012443543
128,17800.0,2.9436709880828857,-9.55585765838623,-0.4417302012443543
129,17900.0,6.3973069190979,-8.204330444335938,-1.8944120407104488
130,18000.0,6.3973069190979,-8.204330444335938,-1.8944120407104488
131,18100.0,3.00053334236145,-8.9249849319458,-0.25258827209472656
132,18200.0,0.7661445140838623,-9.488221168518066,-0.5482721924781799
133,18300.0,0.7661445140838623,-9.488221168518066,-0.5482721924781799
134,18400.0,5.705382823944093,-7.909843921661378,-0.9780313968658448
135,18500.0,5.705382823944093,-7.909843921661378,-0.9780313968658448
136,18600.0,3.0585925579071045,-9.312846183776855,-1.2653355598449707
137,18700.0,3.0585925579071045,-9.312846183776855,-1.2653355598449707
138,18800.0,3.4769794940948486,-8.803479194641113,-0.5321113467216492
139,18900.0,3.4769794940948486,-8.803479194641113,-0.5321113467216492
140,19000.0,4.139574527740479,-8.447341918945312,-0.8325836658477783
141,19100.0,4.464587688446045,-8.716091156005861,-1.006163239479065
142,19200.0,4.464587688446045,-8.716091156005861,-1.006163239479065
143,19300.0,3.243544816970825,-9.262567520141602,-0.983418345451355
144,19400.0,3.243544816970825,-9.262567520141602,-0.983418345451355
145,19500.0,4.318541526794434,-8.702324867248535,-0.426167905330658
146,19600.0,4.318541526794434,-8.702324867248535,-0.426167905330658
147,19700.0,2.40198278427124,-9.683947563171387,-0.10773907601833344
148,19800.0,2.40198278427124,-9.683947563171387,-0.10773907601833344
149,19900.0,5.237316131591797,-7.7853455543518075,0.1604115068912506
150,20000.0,2.831143617630005,-9.5007905960083,-1.4113819599151611
151,20100.0,2.831143617630005,-9.5007905960083,-1.4113819599151611
152,20200.0,3.322553396224976,-8.465298652648926,-0.6518214344978333
153,20300.0,3.322553396224976,-8.465298652648926,-0.6518214344978333
154,20400.0,0.7529764175415039,-10.72722053527832,0.3423708379268646
155,20500.0,0.7529764175415039,-10.72722053527832,0.3423708379268646
156,20600.0,4.814141273498535,-7.371747016906737,-2.551620483398437
157,20700.0,4.814141273498535,-7.371747016906737,-2.551620483398437
158,20800.0,6.676231384277344,-10.232817649841307,5.739500045776367
159,20900.0,2.6443958282470703,-8.813654899597168,-1.953668594360352
160,21000.0,2.6443958282470703,-8.813654899597168,-1.953668594360352
161,21100.0,1.745373010635376,-10.119093894958496,4.3586440086364755
162,21200.0,1.745373010635376,-10.119093894958496,4.3586440086364755
163,21300.0,2.8215668201446533,-9.950302124023438,-1.2318167686462402
164,21400.0,2.8215668201446533,-9.950302124023438,-1.2318167686462402
165,21500.0,4.932055473327637,-8.721478462219237,-1.7561469078063965
166,21600.0,4.932055473327637,-8.721478462219237,-1.7561469078063965
167,21700.0,2.932298421859741,-9.545681953430176,-0.9361328482627868
168,21800.0,4.516062736511231,-10.845134735107422,9.024344444274902
169,21900.0,4.516062736511231,-10.845134735107422,9.024344444274902
170,22000.0,4.516062736511231,-10.845134735107422,9.024344444274902
171,22100.0,2.0027496814727783,-9.06145477294922,1.1300631761550903
172,22200.0,4.854842662811278,-7.514202117919923,0.4979939460754394
173,22300.0,4.854842662811278,-7.514202117919923,0.4979939460754394
174,22400.0,3.5506010055541988,-9.965266227722168,-5.749076843261719
175,22500.0,3.5506010055541988,-9.965266227722168,-5.749076843261719
176,22600.0,2.674921751022339,-8.937555313110352,-1.9075802564620967
177,22700.0,1.6328455209732056,-9.814431190490724,-0.7499836683273315
178,22800.0,1.6328455209732056,-9.814431190490724,-0.7499836683273315
179,22900.0,3.4805707931518555,-9.045293807983398,-2.316988706588745
180,23000.0,3.4805707931518555,-9.045293807983398,-2.316988706588745
181,23100.0,6.530185222625732,-5.146336555480957,-1.4245500564575195
182,23200.0,6.530185222625732,-5.146336555480957,-1.4245500564575195
183,23300.0,2.7234044075012207,-8.045714378356934,-1.2838906049728394
184,23400.0,2.7234044075012207,-8.045714378356934,-1.2838906049728394
185,23500.0,5.58986234664917,-8.732851028442383,0.7296329736709595
186,23600.0,2.8359320163726807,-9.166799545288086,-2.291250944137573
187,23700.0,2.8359320163726807,-9.166799545288086,-2.291250944137573
188,23800.0,6.050746440887451,-7.731475830078125,-1.4706383943557741
189,23900.0,6.050746440887451,-7.731475830078125,-1.4706383943557741
190,24000.0,2.8383262157440186,-9.051877975463867,-0.518943190574646
191,24100.0,2.8383262157440186,-9.051877975463867,-0.518943190574646
192,24200.0,2.715623378753662,-9.038111686706543,-1.0175356864929201
193,24300.0,2.715623378753662,-9.038111686706543,-1.0175356864929201
194,24400.0,4.109647274017334,-10.11550235748291,-0.7571662664413452
195,24500.0,3.9007530212402335,-8.549694061279299,-2.228403329849243
196,24600.0,3.9007530212402335,-8.549694061279299,-2.228403329849243
197,24700.0,3.614645957946777,-8.588001251220701,-1.436521053314209
198,24800.0,3.614645957946777,-8.588001251220701,-1.436521053314209
199,24900.0,4.059967517852783,-10.639832496643066,-0.2561795711517334
200,25000.0,4.059967517852783,-10.639832496643066,-0.2561795711517334
201,25100.0,2.4642322063446045,-8.856152534484863,0.038905777037143714
202,25200.0,2.4642322063446045,-8.856152534484863,0.038905777037143714
203,25300.0,6.63433313369751,-6.7696051597595215,-0.37828385829925537
204,25400.0,3.90554141998291,-8.228272438049316,-3.8157589435577393
205,25500.0,3.90554141998291,-8.228272438049316,-3.8157589435577393
206,25600.0,3.4171242713928223,-8.808866500854492,-0.029927521944046017
207,25700.0,3.4171242713928223,-8.808866500854492,-0.029927521944046017
208,25800.0,2.167949676513672,-9.946710586547852,-1.348534107208252
209,25900.0,2.167949676513672,-9.946710586547852,-1.348534107208252
210,26000.0,3.8558619022369385,-9.435548782348633,-1.6065093278884888
211,26100.0,3.8558619022369385,-9.435548782348633,-1.6065093278884888
212,26200.0,4.144362926483153,-8.99621295928955,-1.6304513216018677
213,26300.0,3.8211460113525386,-8.327631950378418,-1.681926727294922
214,26400.0,3.8211460113525386,-8.327631950378418,-1.681926727294922
215,26500.0,3.388393878936768,-10.275315284729004,1.866280198097229
216,26600.0,3.388393878936768,-10.275315284729004,1.866280198097229
217,26700.0,3.4584243297576904,-8.890868186950684,-0.9540894031524658
218,26800.0,3.4584243297576904,-8.890868186950684,-0.9540894031524658
219,26900.0,5.658695697784424,-7.526771545410156,-0.5668272376060486
220,27000.0,5.658695697784424,-7.526771545410156,-0.5668272376060486
221,27100.0,3.160346269607544,-8.404845237731934,-1.8124107122421265
222,27200.0,2.030881643295288,-9.558850288391113,-0.4004302322864533
223,27300.0,2.030881643295288,-9.558850288391113,-0.4004302322864533
224,27400.0,3.86005163192749,-8.941145896911621,-1.114500880241394
225,27500.0,3.86005163192749,-8.941145896911621,-1.114500880241394
226,27600.0,4.977545261383057,-8.328230857849121,-1.7884687185287476
227,27700.0,4.977545261383057,-8.328230857849121,-1.7884687185287476
228,27800.0,3.0095114707946777,-10.36449909210205,-2.1164743900299072
229,27900.0,3.0095114707946777,-10.36449909210205,-2.1164743900299072
230,28000.0,2.715623378753662,-9.107542991638184,-0.8487445116043091
231,28100.0,3.3848025798797607,-9.53011989593506,-0.9768342971801758
232,28200.0,3.3848025798797607,-9.53011989593506,-0.9768342971801758
233,28300.0,4.746504783630371,-9.096769332885742,-1.8914192914962769
234,28400.0,4.746504783630371,-9.096769332885742,-1.8914192914962769
235,28500.0,3.3482911586761475,-9.422380447387695,-1.1976994276046753
236,28600.0,3.3482911586761475,-9.422380447387695,-1.1976994276046753
237,28700.0,3.4847605228424072,-9.526528358459473,-1.1911153793334959
238,28800.0,3.4847605228424072,-9.526528358459473,-1.1911153793334959
239,28900.0,3.230376720428467,-9.024344444274902,1.3982137441635132
240,29000.0,3.5212721824646,-9.232640266418457,0.9498994946479796
241,29100.0,3.5212721824646,-9.232640266418457,0.9498994946479796
242,29200.0,7.620145320892334,-6.958747386932372,0.27712884545326233
243,29300.0,7.620145320892334,-6.958747386932372,0.27712884545326233
244,29400.0,1.5670050382614136,-10.74218463897705,0.7152677774429321
245,29500.0,1.5670050382614136,-10.74218463897705,0.7152677774429321
246,29600.0,1.390432596206665,-9.570821762084961,-0.656609833240509
247,29700.0,1.390432596206665,-9.570821762084961,-0.656609833240509
248,29800.0,2.781463861465454,-8.82442855834961,-1.4000093936920166
249,29900.0,4.092289447784424,-8.636484146118164,-1.446696400642395
250,30000.0,4.092289447784424,-8.636484146118164,-1.446696400642395
251,30100.0,4.755483150482178,-11.249156951904297,-1.0947487354278564
252,30200.0,4.755483150482178,-11.249156951904297,-1.0947487354278564
253,30300.0,5.558737754821777,-7.2813658714294425,-1.3090298175811768
254,30400.0,5.558737754821777,-7.2813658714294425,-1.3090298175811768
255,30500.0,4.8309006690979,-7.892486095428468,-3.0166940689086914
256,30600.0,4.8309006690979,-7.892486095428468,-3.0166940689086914
257,30700.0,6.4386067390441895,-6.984484672546388,-1.358709454536438
258,30800.0,3.4404678344726562,-8.632294654846191,-0.06883329898118973
259,30900.0,3.4404678344726562,-8.632294654846191,-0.06883329898118973
260,31000.0,4.300584793090819,-8.801684379577637,-1.006163239479065
261,31100.0,4.300584793090819,-8.801684379577637,-1.006163239479065
262,31200.0,6.980893611907959,-6.66904878616333,-0.2148796021938324
263,31300.0,6.980893611907959,-6.66904878616333,-0.2148796021938324
264,31400.0,3.7894227504730233,-8.672995567321777,-0.3303998410701752
265,31500.0,3.7894227504730233,-8.672995567321777,-0.3303998410701752
266,31600.0,4.831499099731445,-8.233659744262695,0.3058592677116394
267,31700.0,4.168903827667236,-8.711302757263184,-0.7469909191131592
268,31800.0,4.168903827667236,-8.711302757263184,-0.7469909191131592
269,31900.0,6.395511150360107,-7.243657112121582,-0.11851298063993455
270,32000.0,6.395511150360107,-7.243657112121582,-0.11851298063993455
271,32100.0,4.1156325340271005,-8.573636054992676,-0.08559270948171616
272,32200.0,4.1156325340271005,-8.573636054992676,-0.08559270948171616
273,32300.0,5.284003257751465,-8.312069892883299,0.5267243981361389
274,32400.0,5.284003257751465,-8.312069892883299,0.5267243981361389
275,32500.0,4.4741644859313965,-8.435371398925781,0.3531447649002075
276,32600.0,5.721543312072754,-7.573458671569824,0.2041056901216507
277,32700.0,5.721543312072754,-7.573458671569824,0.2041056901216507
278,32800.0,3.449446201324463,-9.107542991638184,-1.2826935052871704
279,32900.0,3.449446201324463,-9.107542991638184,-1.2826935052871704
280,33000.0,6.5062432289123535,-8.62271785736084,-1.977012038230896
281,33100.0,6.5062432289123535,-8.62271785736084,-1.977012038230896
282,33200.0,3.982754468917847,-11.728595733642578,-2.23857855796814
283,33300.0,3.982754468917847,-11.728595733642578,-2.23857855796814
284,33400.0,0.545877993106842,-9.188347816467283,-2.477400302886963
285,33500.0,0.545877993106842,-9.188347816467283,-2.477400302886963
286,33600.0,3.7409400939941406,-9.105149269104004,-0.8020575642585754
287,33700.0,3.885789394378662,-9.262567520141602,-1.0450690984725952
288,33800.0,3.885789394378662,-9.262567520141602,-1.0450690984725952
289,33900.0,5.274426460266113,-8.588600158691406,1.3126211166381836
290,34000.0,5.274426460266113,-8.588600158691406,1.3126211166381836
291,34100.0,5.293580055236816,-7.8571715354919425,0.15143325924873352
292,34200.0,5.293580055236816,-7.8571715354919425,0.15143325924873352
293,34300.0,5.605424880981445,-7.484274387359619,-0.5596446394920349
294,34400.0,5.605424880981445,-7.484274387359619,-0.5596446394920349
295,34500.0,5.558737754821777,-7.594407558441162,-0.5147533416748047
296,34600.0,3.60566782951355,-7.802703380584718,-0.7158663272857666
297,34700.0,3.60566782951355,-7.802703380584718,-0.7158663272857666
298,34800.0,7.7637977600097665,-9.014169692993164,-0.5273229479789734
299,34900.0,7.7637977600097665,-9.014169692993164,-0.5273229479789734
300,35000.0,1.611896276473999,-7.708132266998291,-0.5380968451499939
301,35100.0,1.611896276473999,-7.708132266998291,-0.5380968451499939
302,35200.0,4.438849925994873,-8.944737434387207,-1.4113819599151611
303,35300.0,4.438849925994873,-8.944737434387207,-1.4113819599151611
304,35400.0,3.288435935974121,-9.218873977661133,0.17417816817760468
305,35500.0,2.805405855178833,-10.260351181030273,1.061229944229126
306,35600.0,2.805405855178833,-10.260351181030273,1.061229944229126
307,35700.0,4.477755546569824,-7.4106526374816895,0.0736217051744461
308,35800.0,4.477755546569824,-7.4106526374816895,0.0736217051744461
309,35900.0,6.806117057800293,-8.696338653564451,5.14813232421875
310,36000.0,6.806117057800293,-8.696338653564451,5.14813232421875
311,36100.0,2.9903578758239746,-10.656591415405273,-2.497750997543335
312,36200.0,2.9903578758239746,-10.656591415405273,-2.497750997543335
313,36300.0,3.688267707824707,-7.900267124176025,0.5680243372917175
314,36400.0,4.408323764801025,-9.146449089050293,-1.1929110288619995
315,36500.0,4.408323764801025,-9.146449089050293,-1.1929110288619995
316,36600.0,4.941632270812988,-9.202713012695312,-2.5965118408203125
317,36700.0,4.941632270812988,-9.202713012695312,-2.5965118408203125
318,36800.0,0.3824737071990967,-11.082160949707033,-3.35667085647583
319,36900.0,0.3824737071990967,-11.082160949707033,-3.35667085647583
320,37000.0,2.587533473968506,-9.378686904907227,-0.3016694188117981
321,37100.0,2.587533473968506,-9.378686904907227,-0.3016694188117981
322,37200.0,4.4963107109069815,-10.00177764892578,-1.6537947654724119
323,37300.0,3.7732617855072017,-8.98543930053711,-1.5095441341400146
324,37400.0,3.7732617855072017,-8.98543930053711,-1.5095441341400146
325,37500.0,2.584540843963623,-9.384073257446287,-1.1528080701828003
326,37600.0,2.584540843963623,-9.384073257446287,-1.1528080701828003
327,37700.0,4.2114009857177725,-8.491635322570799,-1.2318167686462402
328,37800.0,4.2114009857177725,-8.491635322570799,-1.2318167686462402
329,37900.0,3.2836475372314453,-8.940547943115234,-1.1982979774475098
330,38000.0,3.2836475372314453,-8.940547943115234,-1.1982979774475098
331,38100.0,3.876212596893311,-8.489240646362305,-1.278503656387329
332,38200.0,3.599083662033081,-8.945934295654297,-0.5632359385490417
333,38300.0,3.599083662033081,-8.945934295654297,-0.5632359385490417
334,38400.0,2.963423252105713,-9.232640266418457,-0.8595184087753296
335,38500.0,2.963423252105713,-9.232640266418457,-0.8595184087753296
336,38600.0,2.762310266494751,-8.741828918457031,-1.159990668296814
337,38700.0,2.762310266494751,-8.741828918457031,-1.159990668296814
338,38800.0,4.799177169799805,-8.83699893951416,-1.994369983673096
339,38900.0,4.799177169799805,-8.83699893951416,-1.994369983673096
340,39000.0,3.080739021301269,-8.664017677307129,-1.3563152551651
341,39100.0,0.8307880163192749,-10.01075553894043,-0.7751228213310242
342,39200.0,0.8307880163192749,-10.01075553894043,-0.7751228213310242
343,39300.0,4.404133796691895,-8.769362449645996,1.127070426940918
344,39400.0,4.404133796691895,-8.769362449645996,1.127070426940918
345,39500.0,3.56017804145813,-7.7643961906433105,0.2735375463962555
346,39600.0,3.56017804145813,-7.7643961906433105,0.2735375463962555
347,39700.0,0.1238999366760254,-10.83436107635498,0.4321534037590027
348,39800.0,0.1238999366760254,-10.83436107635498,0.4321534037590027
349,39900.0,6.2632317543029785,-9.125499725341797,-0.3603273630142212
350,40000.0,3.9372646808624263,-6.48289966583252,-0.16579847037792206
351,40100.0,3.9372646808624263,-6.48289966583252,-0.16579847037792206
352,40200.0,3.61225175857544,-8.683769226074219,1.1252747774124146
353,40300.0,3.61225175857544,-8.683769226074219,1.1252747774124146
354,40400.0,0.8170213103294373,-10.769119262695312,-0.18734627962112427
355,40500.0,0.8170213103294373,-10.769119262695312,-0.18734627962112427
356,40600.0,4.587889194488525,-12.863447189331055,-1.5167267322540283
357,40700.0,4.587889194488525,-12.863447189331055,-1.5167267322540283
358,40800.0,5.151723384857178,-8.44554615020752,0.3232172429561615
359,40900.0,2.054823637008667,-9.363123893737793,-0.5416881442070007
360,41000.0,2.054823637008667,-9.363123893737793,-0.5416881442070007
361,41100.0,4.179677486419679,-9.430161476135254,-1.6130933761596682
362,41200.0,4.179677486419679,-9.430161476135254,-1.6130933761596682
363,41300.0,5.8651957511901855,-10.157401084899902,-1.547252893447876
364,41400.0,5.8651957511901855,-10.157401084899902,-1.547252893447876
365,41500.0,5.762245178222656,-8.024765968322754,-0.4303577542304993
366,41600.0,5.762245178222656,-8.024765968322754,-0.4303577542304993
367,41700.0,3.6750996112823486,-8.58620548248291,0.07541735470294952
368,41800.0,3.0801405906677246,-8.185775756835938,-2.1470003128051762
369,41900.0,3.0801405906677246,-8.185775756835938,-2.1470003128051762
370,42000.0,4.036025524139403,-9.099761962890623,0.11971008777618407
371,42100.0,4.036025524139403,-9.099761962890623,0.11971008777618407
372,42200.0,3.043030261993408,-9.59057331085205,-2.009932279586792
373,42300.0,3.043030261993408,-9.59057331085205,-2.009932279586792
374,42400.0,4.747702121734619,-9.601945877075195,-2.0141222476959233
375,42500.0,4.747702121734619,-9.601945877075195,-2.0141222476959233
376,42600.0,4.2096052169799805,-8.492832183837889,-0.5979518890380859
377,42700.0,4.007893562316895,-8.346785545349121,-2.478597402572632
378,42800.0,4.007893562316895,-8.346785545349121,-2.478597402572632
379,42900.0,4.007893562316895,-8.346785545349121,-2.478597402572632
380,43000.0,6.598419666290282,-7.343016624450684,0.919972002506256
381,43100.0,4.202422618865967,-8.429385185241701,-0.046088382601737976
382,43200.0,4.202422618865967,-8.429385185241701,-0.046088382601737976
383,43300.0,4.389170169830321,-9.29309368133545,0.8092401623725891
384,43400.0,4.389170169830321,-9.29309368133545,0.8092401623725891
385,43500.0,7.091026782989503,-5.1361613273620605,-1.5071499347686768
386,43600.0,3.709217071533203,-8.414422035217285,0.5614402890205383
387,43700.0,3.709217071533203,-8.414422035217285,0.5614402890205383
388,43800.0,3.3680431842803955,-9.111733436584473,2.0368671417236333
389,43900.0,3.3680431842803955,-9.111733436584473,2.0368671417236333
390,44000.0,4.395155906677246,-8.127716064453125,1.0720038414001465
391,44100.0,4.395155906677246,-8.127716064453125,1.0720038414001465
392,44200.0,4.291606426239014,-9.198522567749023,0.5506663918495178
393,44300.0,4.291606426239014,-9.198522567749023,0.5506663918495178
394,44400.0,6.734889507293701,-6.636727333068848,0.2412158250808716
395,44500.0,4.3837833404541025,-7.982867240905763,0.6009446382522583
396,44600.0,4.3837833404541025,-7.982867240905763,0.6009446382522583
397,44700.0,0.8020575642585754,-10.691905975341797,3.0735564231872563
398,44800.0,0.8020575642585754,-10.691905975341797,3.0735564231872563
399,44900.0,3.5703532695770264,-8.765172004699707,0.9044097065925598
400,45000.0,3.5703532695770264,-8.765172004699707,0.9044097065925598
401,45100.0,6.6337342262268075,-8.286332130432129,-2.4235305786132812
402,45200.0,6.6337342262268075,-8.286332130432129,-2.4235305786132812
403,45300.0,4.473566055297852,-8.886677742004395,0.5434837937355042
404,45400.0,1.9602526426315308,-11.317391395568848,-0.8702923059463501
405,45500.0,1.9602526426315308,-11.317391395568848,-0.8702923059463501
406,45600.0,2.475006103515625,-10.66856288909912,-0.9157821536064148
407,45700.0,2.475006103515625,-10.66856288909912,-0.9157821536064148
408,45800.0,6.56190824508667,-7.529764175415039,-1.1797429323196411
409,45900.0,6.56190824508667,-7.529764175415039,-1.1797429323196411
410,46000.0,2.70185661315918,-8.665813446044924,-1.4257471561431885
411,46100.0,2.70185661315918,-8.665813446044924,-1.4257471561431885
412,46200.0,2.1057004928588867,-10.74338150024414,-1.0881646871566772
413,46300.0,4.0060977935791025,-9.32661247253418,-0.8182184100151062
414,46400.0,4.0060977935791025,-9.32661247253418,-0.8182184100151062
415,46500.0,4.850652694702148,-7.697957038879394,-1.3640964031219482
416,46600.0,4.850652694702148,-7.697957038879394,-1.3640964031219482
417,46700.0,2.1715409755706787,-9.649829864501953,-0.9522937536239624
418,46800.0,2.1715409755706787,-9.649829864501953,-0.9522937536239624
419,46900.0,3.5488054752349854,-8.85794734954834,-1.195903778076172
420,47000.0,3.5488054752349854,-8.85794734954834,-1.195903778076172
421,47100.0,2.8461072444915767,-9.272743225097656,-0.8337807655334473
422,47200.0,3.846883535385132,-9.20091724395752,-1.974019289016724
423,47300.0,3.846883535385132,-9.20091724395752,-1.974019289016724
424,47400.0,3.213018655776977,-9.313444137573242,-0.5404910445213318
425,47500.0,3.213018655776977,-9.313444137573242,-0.5404910445213318
426,47600.0,3.3614592552185063,-8.745420455932617,-1.7190368175506592
427,47700.0,3.3614592552185063,-8.745420455932617,-1.7190368175506592
428,47800.0,3.3393127918243413,-8.7484130859375,-0.8756792545318604
429,47900.0,3.3393127918243413,-8.7484130859375,-0.8756792545318604
430,48000.0,4.219182014465332,-9.48343276977539,-0.8966285586357117
431,48100.0,2.4648306369781494,-9.477447509765623,-0.7362170219421387
432,48200.0,2.4648306369781494,-9.477447509765623,-0.7362170219421387
433,48300.0,3.9677908420562735,-8.439560890197754,-0.9929951429367064
434,48400.0,3.9677908420562735,-8.439560890197754,-0.9929951429367064
435,48500.0,3.4967315196990967,-8.571242332458496,-0.3423708379268646
436,48600.0,3.4967315196990967,-8.571242332458496,-0.3423708379268646
437,48700.0,1.8393454551696775,-9.513958930969238,-0.5596446394920349
438,48800.0,1.8393454551696775,-9.513958930969238,-0.5596446394920349
439,48900.0,5.596446514129639,-9.57441234588623,4.751293182373047
440,49000.0,2.9041666984558105,-10.318410873413086,-1.5861586332321167
441,49100.0,2.9041666984558105,-10.318410873413086,-1.5861586332321167
442,49200.0,5.10264253616333,-6.049549102783202,1.3748703002929688
443,49300.0,5.10264253616333,-6.049549102783202,1.3748703002929688
444,49400.0,-0.11791443079710008,-11.849502563476564,5.012261390686035
445,49500.0,-0.11791443079710008,-11.849502563476564,5.012261390686035
446,49600.0,4.304774761199951,-9.804255485534668,-3.7211880683898926
447,49700.0,4.304774761199951,-9.804255485534668,-3.7211880683898926
448,49800.0,3.0286650657653813,-8.745420455932617,-1.3210008144378662
449,49900.0,3.27227520942688,-9.474454879760742,0.12629413604736328
450,50000.0,3.27227520942688,-9.474454879760742,0.12629413604736328
451,50100.0,5.680243492126465,-8.82203483581543,2.3792378902435303
452,50200.0,5.680243492126465,-8.82203483581543,2.3792378902435303
453,50300.0,3.4081461429595947,-6.7031660079956055,-0.7912836670875549
454,50400.0,3.4081461429595947,-6.7031660079956055,-0.7912836670875549
455,50500.0,3.603872060775757,-7.283161640167236,-1.2755109071731567
456,50600.0,3.603872060775757,-7.283161640167236,-1.2755109071731567
457,50700.0,1.5304933786392212,-9.639654159545898,-1.903390407562256
458,50800.0,3.925892353057861,-9.430161476135254,-1.366490602493286
459,50900.0,3.925892353057861,-9.430161476135254,-1.366490602493286
460,51000.0,10.210671424865724,-8.534730911254883,0.8870517015457153
461,51100.0,10.210671424865724,-8.534730911254883,0.8870517015457153
462,51200.0,4.032433986663818,-6.511630058288574,-1.3718775510787964
463,51300.0,4.032433986663818,-6.511630058288574,-1.3718775510787964
464,51400.0,5.7071781158447275,-8.355165481567383,0.7110779285430908
465,51500.0,5.7071781158447275,-8.355165481567383,0.7110779285430908
466,51600.0,3.7343561649322514,-10.286687850952148,-0.14425064623355865
467,51700.0,7.53275728225708,-6.691195011138916,-2.210446834564209
468,51800.0,7.53275728225708,-6.691195011138916,-2.210446834564209
469,51900.0,4.104260444641113,-8.992023468017578,-1.6711528301239014
470,52000.0,4.104260444641113,-8.992023468017578,-1.6711528301239014
471,52100.0,3.79840087890625,-8.926780700683594,-1.816600561141968
472,52200.0,3.79840087890625,-8.926780700683594,-1.816600561141968
473,52300.0,7.936180114746094,-7.084442615509032,-1.6687586307525637
474,52400.0,7.936180114746094,-7.084442615509032,-1.6687586307525637
475,52500.0,4.8051629066467285,-8.15764331817627,-2.1218612194061284
476,52600.0,3.5170822143554688,-8.169015884399414,-2.4001872539520264
477,52700.0,3.5170822143554688,-8.169015884399414,-2.4001872539520264
478,52800.0,5.728127479553223,-9.109338760375977,-1.514931082725525
479,52900.0,5.728127479553223,-9.109338760375977,-1.514931082725525
480,53000.0,4.43585729598999,-6.1752448081970215,-0.851138710975647
481,53100.0,4.43585729598999,-6.1752448081970215,-0.851138710975647
482,53200.0,2.5971102714538574,-10.0580415725708,-2.732382774353028
483,53300.0,2.5971102714538574,-10.0580415725708,-2.732382774353028
484,53400.0,2.759916067123413,-8.892663955688477,-0.3633201122283936
485,53500.0,2.741360902786255,-9.301473617553713,-1.513733983039856
486,53600.0,2.741360902786255,-9.301473617553713,-1.513733983039856
487,53700.0,1.492186188697815,-9.456498146057127,-1.1444283723831177
488,53800.0,1.492186188697815,-9.456498146057127,-1.1444283723831177
489,53900.0,4.367023944854736,-8.71369743347168,3.746925592422485
490,54000.0,4.367023944854736,-8.71369743347168,3.746925592422485
491,54100.0,1.4538789987564087,-9.366117477416992,-0.4489128291606903
492,54200.0,1.4538789987564087,-9.366117477416992,-0.4489128291606903
493,54300.0,3.6308069229125977,-9.674968719482422,-1.4963760375976565
494,54400.0,3.6308069229125977,-9.674968719482422,-1.4963760375976565
495,54500.0,1.6436194181442259,-9.099164009094238,0.861314058303833
496,54600.0,8.062474250793457,-12.318167686462402,11.45146656036377
497,54700.0,8.062474250793457,-12.318167686462402,11.45146656036377
498,54800.0,4.030638694763184,-8.727463722229004,-3.6954503059387207
499,54900.0,4.030638694763184,-8.727463722229004,-3.6954503059387207
500,55000.0,3.291428804397583,-10.204087257385254,-2.0817582607269287
501,55100.0,3.291428804397583,-10.204087257385254,-2.0817582607269287
502,55200.0,1.222239971160889,-10.308834075927734,-0.6302735805511475
503,55300.0,1.222239971160889,-10.308834075927734,-0.6302735805511475
504,55400.0,4.2066125869750985,-7.848193168640138,0.6045359373092651
505,55500.0,5.674258232116699,-7.528567314147949,-0.9588778018951416
506,55600.0,5.674258232116699,-7.528567314147949,-0.9588778018951416
507,55700.0,2.388814687728882,-9.694721221923828,1.602918028831482
508,55800.0,2.388814687728882,-9.694721221923828,1.602918028831482
509,55900.0,5.161300182342528,-8.061277389526367,0.13587094843387604
510,56000.0,5.161300182342528,-8.061277389526367,0.13587094843387604
511,56100.0,3.356072187423706,-9.326014518737793,-1.0360907316207886
512,56200.0,3.356072187423706,-9.326014518737793,-1.0360907316207886
513,56300.0,4.322731018066406,-8.627506256103517,-0.8667010068893433
514,56400.0,2.536656618118286,-9.992799758911133,-1.149815320968628
515,56500.0,2.536656618118286,-9.992799758911133,-1.149815320968628
516,56600.0,3.3458969593048096,-10.092158317565918,-0.4686649739742279
517,56700.0,3.3458969593048096,-10.092158317565918,-0.4686649739742279
518,56800.0,4.40233850479126,-9.51455783843994,-2.278082847595215
519,56900.0,4.40233850479126,-9.51455783843994,-2.278082847595215
520,57000.0,2.5145103931427,-9.927556991577148,-0.5554547905921936
521,57100.0,2.5145103931427,-9.927556991577148,-0.5554547905921936
522,57200.0,3.1052796840667725,-8.836400032043457,-0.6859387755393982
523,57300.0,1.759738206863403,-12.270283699035645,0.8206126093864441
524,57400.0,1.759738206863403,-12.270283699035645,0.8206126093864441
525,57500.0,3.812167644500733,-7.422623634338379,-1.625662922859192
526,57600.0,3.812167644500733,-7.422623634338379,-1.625662922859192
527,57700.0,6.071695327758789,-4.856039524078369,0.6715735793113708
528,57800.0,6.071695327758789,-4.856039524078369,0.6715735793113708
529,57900.0,4.552574634552002,-7.609371662139893,1.1665748357772827
530,58000.0,4.552574634552002,-7.609371662139893,1.1665748357772827
531,58100.0,1.6268600225448608,-10.450092315673828,-0.9032126069068908
532,58200.0,3.1040825843811035,-9.238625526428224,1.0324994325637815
533,58300.0,3.1040825843811035,-9.238625526428224,1.0324994325637815
534,58400.0,4.0533833503723145,-9.379284858703613,-1.3090298175811768
535,58500.0,4.0533833503723145,-9.379284858703613,-1.3090298175811768
536,58600.0,3.3530795574188232,-8.918999671936035,-0.992396593093872
537,58700.0,3.3530795574188232,-8.918999671936035,-0.992396593093872
538,58800.0,1.2599486112594604,-10.13166332244873,-0.7158663272857666
539,58900.0,1.2599486112594604,-10.13166332244873,-0.7158663272857666
540,59000.0,3.4320881366729736,-9.960477828979492,3.606266260147095
541,59100.0,3.4823663234710693,-7.951143741607666,-1.4305355548858645
542,59200.0,3.4823663234710693,-7.951143741607666,-1.4305355548858645
543,59300.0,7.533355712890625,-5.882553577423097,-0.7080851793289185
544,59400.0,7.533355712890625,-5.882553577423097,-0.7080851793289185
545,59500.0,2.518101692199707,-8.751405715942383,-1.2970588207244873
546,59600.0,2.518101692199707,-8.751405715942383,-1.2970588207244873
547,59700.0,1.8082208633422847,-10.02811336517334,-0.9229647517204284
548,59800.0,1.8082208633422847,-10.02811336517334,-0.9229647517204284
549,59900.0,3.3674447536468506,-9.485827445983887,0.08858546614646913
550,60000.0,3.9606082439422607,-8.739435195922853,-1.6184803247451782
551,60100.0,3.9606082439422607,-8.739435195922853,-1.6184803247451782
552,60200.0,5.9771246910095215,-6.873753070831299,-1.6687586307525637
553,60300.0,5.9771246910095215,-6.873753070831299,-1.6687586307525637
554,60400.0,5.925649166107178,-10.565013885498047,4.57232666015625
555,60500.0,5.925649166107178,-10.565013885498047,4.57232666015625
556,60600.0,1.083974838256836,-10.353126525878906,-1.3976151943206787
557,60700.0,1.083974838256836,-10.353126525878906,-1.3976151943206787
558,60800.0,8.075642585754395,-6.098031520843506,-1.623268723487854
559,60900.0,2.9269115924835205,-7.734468460083008,-0.5213374495506287
560,61000.0,2.9269115924835205,-7.734468460083008,-0.5213374495506287
561,61100.0,11.101913452148438,-10.160393714904783,10.13405704498291
562,61200.0,11.101913452148438,-10.160393714904783,10.13405704498291
563,61300.0,1.6891093254089355,-12.113463401794435,-0.24420857429504395
564,61400.0,1.6891093254089355,-12.113463401794435,-0.24420857429504395
565,61500.0,3.0184898376464844,-9.181763648986816,-0.9498994946479796
566,61600.0,3.0184898376464844,-9.181763648986816,-0.9498994946479796
567,61700.0,3.587112665176392,-8.415618896484375,-1.9297266006469729
568,61800.0,3.256712913513184,-9.383475303649902,0.3830722570419312
569,61900.0,3.256712913513184,-9.383475303649902,0.3830722570419312
570,62000.0,1.644816517829895,-9.633668899536133,-0.9624691009521484
571,62100.0,1.644816517829895,-9.633668899536133,-0.9624691009521484
572,62200.0,4.8015713691711435,-10.503961563110352,-1.6436194181442259
573,62300.0,4.8015713691711435,-10.503961563110352,-1.6436194181442259
574,62400.0,4.878185749053955,-8.957306861877441,5.059546947479248
575,62500.0,4.878185749053955,-8.957306861877441,5.059546947479248
576,62600.0,5.366602897644043,-7.784746646881103,-0.9900023937225342
577,62700.0,6.4439940452575675,-7.099406719207764,-0.4764461517333984
578,62800.0,6.4439940452575675,-7.099406719207764,-0.4764461517333984
579,62900.0,6.633135795593263,-5.303755283355713,-0.4800374507904053
580,63000.0,6.633135795593263,-5.303755283355713,-0.4800374507904053
581,63100.0,4.1437644958496085,-11.83872890472412,3.3494882583618164
582,63200.0,4.1437644958496085,-11.83872890472412,3.3494882583618164
583,63300.0,4.991312026977539,-8.147468566894531,-1.4077905416488647
584,63400.0,4.991312026977539,-8.147468566894531,-1.4077905416488647
585,63500.0,2.615066766738892,-9.995792388916016,-1.2773065567016602
586,63600.0,3.3728315830230717,-7.91163969039917,-1.3634978532791138
587,63700.0,3.3728315830230717,-7.91163969039917,-1.3634978532791138
588,63800.0,3.3961751461029053,-9.333795547485352,-0.345363587141037
589,63900.0,3.3961751461029053,-9.333795547485352,-0.345363587141037
590,64000.0,3.3016040325164795,-9.965864181518556,0.8068459630012512
591,64100.0,3.3016040325164795,-9.965864181518556,0.8068459630012512
592,64200.0,4.210802078247069,-7.224503517150879,-1.1779472827911377
593,64300.0,4.210802078247069,-7.224503517150879,-1.1779472827911377
594,64400.0,5.724536418914795,-7.8272438049316415,-0.8218097090721129
595,64500.0,4.013879299163818,-7.949347972869872,-1.2102689743041992
596,64600.0,4.013879299163818,-7.949347972869872,-1.2102689743041992
597,64700.0,4.032433986663818,-9.051877975463867,-2.006939649581909
598,64800.0,4.032433986663818,-9.051877975463867,-2.006939649581909
599,64900.0,3.9863457679748535,-8.701725959777832,-1.6956933736801147
600,65000.0,3.9863457679748535,-8.701725959777832,-1.6956933736801147
601,65100.0,2.919728994369507,-9.07522201538086,0.7068880796432495
602,65200.0,2.919728994369507,-9.07522201538086,0.7068880796432495
603,65300.0,6.139331817626952,-9.731831550598145,2.3798365592956543
604,65400.0,4.275445461273193,-8.386289596557617,2.470816135406494
605,65500.0,4.275445461273193,-8.386289596557617,2.470816135406494
606,65600.0,5.183446884155273,-8.431779861450195,1.4879963397979736
607,65700.0,5.183446884155273,-8.431779861450195,1.4879963397979736
608,65800.0,3.97257924079895,-9.403825759887695,-1.3509283065795898
609,65900.0,3.97257924079895,-9.403825759887695,-1.3509283065795898
610,66000.0,5.279214859008789,-8.301296234130861,-1.5155296325683594
611,66100.0,5.279214859008789,-8.301296234130861,-1.5155296325683594
612,66200.0,4.602852821350098,-8.358158111572267,0.8882488012313843
613,66300.0,3.175309896469116,-9.819219589233398,-1.9177556037902832
614,66400.0,3.175309896469116,-9.819219589233398,-1.9177556037902832
615,66500.0,3.8684313297271733,-8.118139266967772,1.0366892814636228
616,66600.0,3.8684313297271733,-8.118139266967772,1.0366892814636228
617,66700.0,6.243479251861572,-7.604583263397218,-0.04189852997660637
618,66800.0,6.243479251861572,-7.604583263397218,-0.04189852997660637
619,66900.0,5.5994391441345215,-7.665036678314209,0.5841852426528931
620,67000.0,5.5994391441345215,-7.665036678314209,0.5841852426528931
621,67100.0,3.925293684005737,-8.593987464904785,0.6931213736534119
622,67200.0,3.4650084972381587,-8.474875450134277,1.7974469661712646
623,67300.0,3.4650084972381587,-8.474875450134277,1.7974469661712646
624,67400.0,2.961029052734375,-9.043498039245604,1.922544002532959
625,67500.0,2.961029052734375,-9.043498039245604,1.922544002532959
626,67600.0,5.543774127960205,-6.496666431427003,0.1496376097202301
627,67700.0,5.543774127960205,-6.496666431427003,0.1496376097202301
628,67800.0,6.742072105407715,-4.96737003326416,-4.830301761627197
629,67900.0,6.742072105407715,-4.96737003326416,-4.830301761627197
630,68000.0,0.8349778652191162,-11.047445297241213,0.5339069962501526
631,68100.0,5.56053352355957,-12.524667739868164,9.580398559570312
632,68200.0,5.56053352355957,-12.524667739868164,9.580398559570312
633,68300.0,3.360262155532837,-7.04793119430542,-1.2443863153457642
634,68400.0,3.360262155532837,-7.04793119430542,-1.2443863153457642
635,68500.0,9.503185272216797,-3.660135746002197,-4.585494995117188
636,68600.0,9.503185272216797,-3.660135746002197,-4.585494995117188
637,68700.0,5.349245071411133,-7.954136371612549,1.335964560508728
638,68800.0,5.349245071411133,-7.954136371612549,1.335964560508728
639,68900.0,10.678738594055176,-10.250176429748537,2.0925323963165283
640,69000.0,1.2419921159744265,-14.594454765319824,-4.548983097076416
641,69100.0,1.2419921159744265,-14.594454765319824,-4.548983097076416
642,69200.0,1.2204443216323853,-10.392032623291016,-2.1775264739990234
643,69300.0,1.2204443216323853,-10.392032623291016,-2.1775264739990234
644,69400.0,2.0871453285217285,-11.25095272064209,-1.6101006269454956
645,69500.0,2.0871453285217285,-11.25095272064209,-1.6101006269454956
646,69600.0,7.089231014251709,-8.239645004272461,-1.7980455160140991
647,69700.0,7.089231014251709,-8.239645004272461,-1.7980455160140991
648,69800.0,0.6015431880950928,-13.128604888916016,0.040701430290937424
649,69900.0,3.448249101638794,-8.828619003295898,0.6027402877807617
650,70000.0,3.448249101638794,-8.828619003295898,0.6027402877807617
651,70100.0,5.07451057434082,-7.252635478973389,-0.4566939771175385
652,70200.0,5.07451057434082,-7.252635478973389,-0.4566939771175385
653,70300.0,3.3195607662200928,-13.28602409362793,8.005612373352049
654,70400.0,3.3195607662200928,-13.28602409362793,8.005612373352049
655,70500.0,2.362478494644165,-8.382100105285645,0.8948329091072083
656,70600.0,2.362478494644165,-8.382100105285645,0.8948329091072083
657,70700.0,1.920748353004456,-9.552865028381348,-1.5610195398330688
658,70800.0,3.869628429412842,-8.9064302444458,-0.3812766075134277
659,70900.0,3.869628429412842,-8.9064302444458,-0.3812766075134277
660,71000.0,3.190273761749268,-8.400056838989258,1.3509283065795898
661,71100.0,3.190273761749268,-8.400056838989258,1.3509283065795898
662,71200.0,2.959831953048706,-8.175002098083496,0.9415197968482972
663,71300.0,2.959831953048706,-8.175002098083496,0.9415197968482972
664,71400.0,3.597886562347412,-9.55705451965332,0.7864952683448792
665,71500.0,3.597886562347412,-9.55705451965332,0.7864952683448792
666,71600.0,9.988011360168457,-4.8482584953308105,-1.9800047874450684
667,71700.0,3.4129345417022705,-8.366538047790527,0.558447539806366
668,71800.0,3.4129345417022705,-8.366538047790527,0.558447539806366
669,71900.0,-0.2645592987537384,-7.786542415618896,-1.4449007511138916
670,72000.0,-0.2645592987537384,-7.786542415618896,-1.4449007511138916
671,72100.0,4.3400893211364755,-7.967903137207031,-2.3546974658966064
672,72200.0,4.3400893211364755,-7.967903137207031,-2.3546974658966064
673,72300.0,2.5725696086883545,-9.622296333312988,-1.4209587574005127
674,72400.0,2.5725696086883545,-9.622296333312988,-1.4209587574005127
675,72500.0,8.24742603302002,-6.044162273406982,1.3539210557937622
676,72600.0,2.801814556121826,-8.40843677520752,0.974440097808838
677,72700.0,2.801814556121826,-8.40843677520752,0.974440097808838
678,72800.0,0.6350619792938232,-11.271303176879885,2.3074119091033936
679,72900.0,0.6350619792938232,-11.271303176879885,2.3074119091033936
680,73000.0,6.023212909698486,-8.239645004272461,1.049857497215271
681,73100.0,6.023212909698486,-8.239645004272461,1.049857497215271
682,73200.0,3.7158010005950928,-8.545504570007324,-0.5512649416923523
683,73300.0,3.7158010005950928,-8.545504570007324,-0.5512649416923523
684,73400.0,3.994127035140991,-7.688978672027588,-1.0522516965866089
685,73500.0,4.973355293273926,-5.430647850036621,-2.2068555355072017
686,73600.0,4.973355293273926,-5.430647850036621,-2.2068555355072017
687,73700.0,0.2609679996967316,-8.775946617126465,-1.413776159286499
688,73800.0,0.2609679996967316,-8.775946617126465,-1.413776159286499
689,73900.0,5.916072368621826,-7.043142795562744,-1.0654197931289673
690,74000.0,5.916072368621826,-7.043142795562744,-1.0654197931289673
691,74100.0,4.954800605773926,-8.53293514251709,-2.1817162036895748
692,74200.0,4.954800605773926,-8.53293514251709,-2.1817162036895748
693,74300.0,0.0071826050989329815,-11.950657844543455,-1.7040730714797974
694,74400.0,3.532644510269165,-9.550470352172852,-1.7896658182144165
695,74500.0,3.532644510269165,-9.550470352172852,-1.7896658182144165
696,74600.0,4.1449618339538565,-8.647257804870605,0.8134300112724304
697,74700.0,4.1449618339538565,-8.647257804870605,0.8134300112724304
698,74800.0,3.181894063949585,-8.93156909942627,-0.3519476354122162
699,74900.0,3.181894063949585,-8.93156909942627,-0.3519476354122162
700,75000.0,2.3092074394226074,-8.620922088623049,1.325789213180542
701,75100.0,2.3092074394226074,-8.620922088623049,1.325789213180542
702,75200.0,1.3204022645950315,-8.732851028442383,-1.3617022037506104
703,75300.0,3.4799721240997314,-10.537480354309082,-1.9734207391738887
704,75400.0,3.4799721240997314,-10.537480354309082,-1.9734207391738887
705,75500.0,3.193266630172729,-9.74679470062256,5.260659694671631
706,75600.0,3.193266630172729,-9.74679470062256,5.260659694671631
707,75700.0,4.48134708404541,-8.083423614501951,-2.4438812732696533
708,75800.0,4.48134708404541,-8.083423614501951,-2.4438812732696533
709,75900.0,0.4584896266460418,-9.499593734741213,6.728305339813232
710,76000.0,0.4584896266460418,-9.499593734741213,6.728305339813232
711,76100.0,5.433042049407959,-8.313266754150389,2.3271639347076416
712,76200.0,4.84406852722168,-8.055890083312987,2.2014684677124023
713,76300.0,4.84406852722168,-8.055890083312987,2.2014684677124023
714,76400.0,3.4763808250427246,-8.107365608215332,-0.3663128614425659
715,76500.0,3.4763808250427246,-8.107365608215332,-0.3663128614425659
716,76600.0,2.985569477081299,-9.087791442871094,-1.3515268564224243
717,76700.0,2.985569477081299,-9.087791442871094,-1.3515268564224243
718,76800.0,6.628945827484131,-9.83538055419922,-2.609679937362671
719,76900.0,6.628945827484131,-9.83538055419922,-2.609679937362671
720,77000.0,5.69580602645874,-10.579379081726074,-3.429693937301636
721,77100.0,5.69580602645874,-10.579379081726074,-3.429693937301636
722,77200.0,1.6454150676727295,-10.327987670898438,-0.5171475410461426
723,77300.0,0.7326257228851318,-9.959280967712402,-0.34416648745536804
724,77400.0,0.7326257228851318,-9.959280967712402,-0.34416648745536804
725,77500.0,4.141370296478272,-8.678980827331543,-0.24181437492370605
726,77600.0,4.141370296478272,-8.678980827331543,-0.24181437492370605
727,77700.0,2.715024709701538,-8.923190116882324,-1.1336544752120972
728,77800.0,2.715024709701538,-8.923190116882324,-1.1336544752120972
729,77900.0,2.0045454502105717,-9.833584785461426,-0.9917980432510376
730,78000.0,5.881955146789551,-10.04427433013916,6.53257942199707
731,78100.0,5.881955146789551,-10.04427433013916,6.53257942199707
732,78200.0,0.484825849533081,-9.840168952941896,-1.840542554855347
733,78300.0,0.484825849533081,-9.840168952941896,-1.840542554855347
734,78400.0,4.733336925506592,-8.27735424041748,-0.8164227604866028
735,78500.0,4.733336925506592,-8.27735424041748,-0.8164227604866028
736,78600.0,5.94061279296875,-5.6431336402893075,1.7441759109497068
737,78700.0,5.94061279296875,-5.6431336402893075,1.7441759109497068
738,78800.0,1.0324994325637815,-6.783970355987549,-0.8571242094039917
739,78900.0,1.0324994325637815,-6.783970355987549,-0.8571242094039917
740,79000.0,3.4392707347869877,-8.890868186950684,-1.5280991792678833
741,79100.0,1.80881941318512,-12.350489616394045,-2.793434858322144
742,79200.0,1.80881941318512,-12.350489616394045,-2.793434858322144
743,79300.0,6.183624267578125,-7.618948459625244,-0.33339259028434753
744,79400.0,6.183624267578125,-7.618948459625244,-0.33339259028434753
745,79500.0,0.2537853717803955,-7.65186882019043,-0.5841852426528931
746,79600.0,0.2537853717803955,-7.65186882019043,-0.5841852426528931
747,79700.0,3.778648853302002,-9.716269493103027,2.404376983642578
748,79800.0,3.778648853302002,-9.716269493103027,2.404376983642578
749,79900.0,3.4314894676208496,-7.30650520324707,-1.4269442558288574
750,80000.0,3.3057940006256104,-7.888296127319336,0.2914940714836121
751,80100.0,3.3057940006256104,-7.888296127319336,0.2914940714836121
752,80200.0,3.1202433109283447,-8.274360656738281,-1.52630352973938
753,80300.0,3.1202433109283447,-8.274360656738281,-1.52630352973938
754,80400.0,4.2084078788757315,-7.732673168182372,-2.070984363555908
755,80500.0,4.2084078788757315,-7.732673168182372,-2.070984363555908
756,80600.0,4.552574634552002,-13.766060829162598,3.089717388153076
757,80700.0,4.552574634552002,-13.766060829162598,3.089717388153076
758,80800.0,3.3961751461029053,-4.380790710449219,-1.591545581817627
759,80900.0,2.1793220043182373,-11.33654499053955,-2.324769735336304
760,81000.0,2.1793220043182373,-11.33654499053955,-2.324769735336304
761,81100.0,1.9991583824157717,-9.525930404663086,-2.655169725418091
762,81200.0,1.9991583824157717,-9.525930404663086,-2.655169725418091
763,81300.0,3.589506864547729,-9.11113452911377,0.8954314589500427
764,81400.0,3.589506864547729,-9.11113452911377,0.8954314589500427
765,81500.0,2.3133974075317383,-9.337985038757324,-1.5179238319396973
766,81600.0,2.3133974075317383,-9.337985038757324,-1.5179238319396973
767,81700.0,2.296638011932373,-8.421604156494139,-0.74040687084198
768,81800.0,3.1477766036987305,-9.370306968688963,2.9927520751953125
769,81900.0,3.1477766036987305,-9.370306968688963,2.9927520751953125
770,82000.0,2.6581623554229736,-10.132261276245117,-3.516483783721924
771,82100.0,2.6581623554229736,-10.132261276245117,-3.516483783721924
772,82200.0,8.332420349121094,-10.649409294128418,-2.09672212600708
773,82300.0,8.332420349121094,-10.649409294128418,-2.09672212600708
774,82400.0,8.85435676574707,-2.6228480339050293,-0.7433996200561523
775,82500.0,8.85435676574707,-2.6228480339050293,-0.7433996200561523
776,82600.0,1.4107834100723269,-9.047089576721193,0.7936778664588928
777,82700.0,4.966771602630615,-12.378621101379395,6.509834289550781
778,82800.0,4.966771602630615,-12.378621101379395,6.509834289550781
779,82900.0,4.471770286560059,-8.149862289428711,1.5173252820968628
780,83000.0,4.471770286560059,-8.149862289428711,1.5173252820968628
781,83100.0,2.5228900909423833,-10.005967140197754,-1.224035620689392
782,83200.0,2.5228900909423833,-10.005967140197754,-1.224035620689392
783,83300.0,-1.240795016288757,-10.703877449035645,1.8046295642852783
784,83400.0,-1.240795016288757,-10.703877449035645,1.8046295642852783
785,83500.0,2.727594375610352,-8.62271785736084,0.28790274262428284
786,83600.0,4.7584757804870605,-8.258798599243164,-0.454898327589035
787,83700.0,4.7584757804870605,-8.258798599243164,-0.454898327589035
788,83800.0,3.0508115291595463,-9.558850288391113,0.023343466222286224
789,83900.0,3.0508115291595463,-9.558850288391113,0.023343466222286224
790,84000.0,4.3448777198791495,-8.609549522399902,-0.6248866319656372
791,84100.0,4.3448777198791495,-8.609549522399902,-0.6248866319656372
792,84200.0,3.1657330989837646,-9.25179386138916,-0.5764040350914001
793,84300.0,3.1657330989837646,-9.25179386138916,-0.5764040350914001
794,84400.0,3.93906044960022,-8.330026626586914,-0.5045779943466187
795,84500.0,3.0544028282165527,-9.22785186767578,-0.8403648138046265
796,84600.0,3.0544028282165527,-9.22785186767578,-0.8403648138046265
797,84700.0,3.3446998596191406,-8.999804496765137,-1.2090718746185305
798,84800.0,3.3446998596191406,-8.999804496765137,-1.2090718746185305
799,84900.0,4.575918197631836,-8.740632057189941,-1.6023194789886477
800,85000.0,4.575918197631836,-8.740632057189941,-1.6023194789886477
801,85100.0,3.4769794940948486,-9.527725219726564,-1.0031704902648926
802,85200.0,3.4769794940948486,-9.527725219726564,-1.0031704902648926
803,85300.0,3.066972494125366,-9.063849449157717,-0.8906430602073669
804,85400.0,3.2094273567199707,-8.409633636474611,-0.2980781197547913
805,85500.0,3.2094273567199707,-8.409633636474611,-0.2980781197547913
806,85600.0,5.0050787925720215,-9.220669746398926,-1.7848774194717407
807,85700.0,5.0050787925720215,-9.220669746398926,-1.7848774194717407
808,85800.0,4.141968727111816,-8.133701324462889,-1.5209165811538696
809,85900.0,4.141968727111816,-8.133701324462889,-1.5209165811538696
810,86000.0,1.0432734489440918,-10.849923133850098,1.1091139316558838
811,86100.0,1.0432734489440918,-10.849923133850098,1.1091139316558838
812,86200.0,4.240131378173828,-9.308655738830566,-1.801636815071106
813,86300.0,5.535993099212647,-7.548319339752197,-3.050212860107422
814,86400.0,5.535993099212647,-7.548319339752197,-3.050212860107422
815,86500.0,4.676474571228027,-8.775347709655763,0.1125274822115898
816,86600.0,4.676474571228027,-8.775347709655763,0.1125274822115898
817,86700.0,4.756081581115723,-8.614935874938965,0.8906430602073669
818,86800.0,4.756081581115723,-8.614935874938965,0.8906430602073669
819,86900.0,4.218583583831787,-8.603564262390138,0.017956512048840526
820,87000.0,4.218583583831787,-8.603564262390138,0.017956512048840526
821,87100.0,4.946420669555664,-7.633313655853271,-0.6428431272506714
822,87200.0,5.41987419128418,-8.537124633789062,0.3411737382411957
823,87300.0,5.41987419128418,-8.537124633789062,0.3411737382411957
824,87400.0,4.462193489074707,-8.74721622467041,-0.18315643072128296
825,87500.0,4.462193489074707,-8.74721622467041,-0.18315643072128296
826,87600.0,3.1920695304870605,-9.767146110534668,-1.670554280281067
827,87700.0,3.1920695304870605,-9.767146110534668,-1.670554280281067
828,87800.0,2.3930046558380127,-9.151836395263672,-1.1432312726974487
829,87900.0,2.3930046558380127,-9.151836395263672,-1.1432312726974487
830,88000.0,4.89494514465332,-8.435969352722168,-1.261744260787964
831,88100.0,3.0735564231872563,-9.065644264221193,-1.240795016288757
832,88200.0,3.0735564231872563,-9.065644264221193,-1.240795016288757
833,88300.0,3.0633809566497803,-9.131484985351564,-1.1629834175109863
834,88400.0,3.0633809566497803,-9.131484985351564,-1.1629834175109863
835,88500.0,2.1326351165771484,-9.924564361572266,0.6518214344978333
836,88600.0,2.1326351165771484,-9.924564361572266,0.6518214344978333
837,88700.0,4.2509050369262695,-9.105149269104004,-1.3682862520217896
838,88800.0,4.2509050369262695,-9.105149269104004,-1.3682862520217896
839,88900.0,3.553593873977661,-9.247005462646484,-1.3742717504501345
840,89000.0,3.1052796840667725,-9.276932716369627,-1.0247182846069336
841,89100.0,3.1052796840667725,-9.276932716369627,-1.0247182846069336
842,89200.0,2.28287124633789,-9.617507934570312,-0.2603694200515747
843,89300.0,2.28287124633789,-9.617507934570312,-0.2603694200515747
844,89400.0,3.4069490432739262,-9.170391082763672,-0.9864110946655272
845,89500.0,3.4069490432739262,-9.170391082763672,-0.9864110946655272
846,89600.0,7.384915351867676,-6.631340026855469,1.3227964639663696
847,89700.0,7.384915351867676,-6.631340026855469,1.3227964639663696
848,89800.0,3.0053217411041264,-9.525930404663086,0.444722980260849
849,89900.0,1.3832499980926514,-10.482413291931152,-0.4405331015586853
850,90000.0,1.3832499980926514,-10.482413291931152,-0.4405331015586853
851,90100.0,6.27400541305542,-6.524199485778809,-3.220201253890991
852,90200.0,6.27400541305542,-6.524199485778809,-3.220201253890991
853,90300.0,6.04655647277832,-9.298480987548828,2.33913516998291
854,90400.0,6.04655647277832,-9.298480987548828,2.33913516998291
855,90500.0,2.3511061668396,-8.316858291625978,-3.751115560531616
856,90600.0,2.3511061668396,-8.316858291625978,-3.751115560531616
857,90700.0,0.17417816817760468,-9.318233489990234,-1.2258312702178955
858,90800.0,3.869628429412842,-9.212289810180664,1.295263171195984
859,90900.0,3.869628429412842,-9.212289810180664,1.295263171195984
860,91000.0,2.1308395862579346,-9.121908187866213,-2.6982653141021733
861,91100.0,2.1308395862579346,-9.121908187866213,-2.6982653141021733
862,91200.0,3.9480385780334473,-7.9834656715393075,-0.4914098978042602
863,91300.0,3.9480385780334473,-7.9834656715393075,-0.4914098978042602
864,91400.0,3.552995204925537,-8.953716278076172,2.5061306953430176
865,91500.0,3.552995204925537,-8.953716278076172,2.5061306953430176
866,91600.0,3.224989652633667,-9.10574722290039,0.7960720658302307
867,91700.0,0.7864952683448792,-10.163386344909668,0.3124433159828186
868,91800.0,0.7864952683448792,-10.163386344909668,0.3124433159828186
869,91900.0,4.352060317993163,-8.610746383666992,0.9660604000091552
870,92000.0,4.352060317993163,-8.610746383666992,0.9660604000091552
871,92100.0,2.56000018119812,-9.288904190063477,0.8062474131584167
872,92200.0,2.56000018119812,-9.288904190063477,0.8062474131584167
873,92300.0,3.654150247573853,-9.096170425415039,2.018910646438598
874,92400.0,3.654150247573853,-9.096170425415039,2.018910646438598
875,92500.0,4.881178855895996,-9.163806915283203,-0.3052607178688049
876,92600.0,3.400963544845581,-9.047688484191896,-2.0835540294647217
877,92700.0,3.400963544845581,-9.047688484191896,-2.0835540294647217
878,92800.0,5.413290023803711,-9.2841157913208,2.186504602432251
879,92900.0,5.413290023803711,-9.2841157913208,2.186504602432251
880,93000.0,1.9644424915313718,-8.191761016845701,1.778891921043396
881,93100.0,1.9644424915313718,-8.191761016845701,1.778891921043396
882,93200.0,7.349001884460449,-6.7917518615722665,1.853710651397705
883,93300.0,7.349001884460449,-6.7917518615722665,1.853710651397705
884,93400.0,3.86005163192749,-6.62355899810791,-3.3022027015686035
885,93500.0,2.0697872638702397,-9.92935276031494,-0.0867898091673851
886,93600.0,2.0697872638702397,-9.92935276031494,-0.0867898091673851
887,93700.0,2.7515363693237305,-8.837596893310547,-1.2102689743041992
888,93800.0,2.7515363693237305,-8.837596893310547,-1.2102689743041992
889,93900.0,1.5831658840179443,-8.298901557922362,-1.1264718770980835
890,94000.0,1.5831658840179443,-8.298901557922362,-1.1264718770980835
891,94100.0,4.0312371253967285,-8.207921981811522,-1.316810965538025
892,94200.0,4.0312371253967285,-8.207921981811522,-1.316810965538025
893,94300.0,3.9372646808624263,-8.753800392150879,0.6613982319831848
894,94400.0,3.745130062103272,-9.455899238586426,1.1581950187683103
895,94500.0,3.745130062103272,-9.455899238586426,1.1581950187683103
896,94600.0,4.53761100769043,-7.824251174926758,0.9355342984199524
897,94700.0,4.53761100769043,-7.824251174926758,0.9355342984199524
898,94800.0,3.004124641418457,-8.811261177062988,0.333991140127182
899,94900.0,3.004124641418457,-8.811261177062988,0.333991140127182
900,95000.0,2.4588451385498047,-10.524312019348145,0.043095629662275314
901,95100.0,2.4588451385498047,-10.524312019348145,0.043095629662275314
902,95200.0,5.060145378112793,-8.146271705627441,0.2477998733520508
903,95300.0,3.5146880149841313,-9.008183479309082,0.8882488012313843
904,95400.0,3.5146880149841313,-9.008183479309082,0.8882488012313843
905,95500.0,3.840898036956787,-8.988431930541992,0.1364694982767105
906,95600.0,3.840898036956787,-8.988431930541992,0.1364694982767105
907,95700.0,4.040215492248535,-8.419210433959961,-0.29388827085494995
908,95800.0,4.040215492248535,-8.419210433959961,-0.29388827085494995
909,95900.0,3.78104305267334,-9.011775016784668,0.0005985504249110818
910,96000.0,3.78104305267334,-9.011775016784668,0.0005985504249110818
911,96100.0,4.0108861923217765,-8.977059364318848,0.17417816817760468
912,96200.0,4.213795185089111,-7.615955829620361,-1.116895079612732
913,96300.0,4.213795185089111,-7.615955829620361,-1.116895079612732
914,96400.0,4.37420654296875,-8.488641738891603,-0.05147533491253853
915,96500.0,4.37420654296875,-8.488641738891603,-0.05147533491253853
916,96600.0,3.4853591918945317,-9.193136215209961,-0.35913026332855225
917,96700.0,3.4853591918945317,-9.193136215209961,-0.35913026332855225
918,96800.0,3.429095268249512,-8.871115684509277,0.07541735470294952
919,96900.0,3.429095268249512,-8.871115684509277,0.07541735470294952
920,97000.0,4.574122428894043,-7.264008045196532,-0.5297171473503113
921,97100.0,4.2957963943481445,-8.659229278564451,0.436343252658844
922,97200.0,4.2957963943481445,-8.659229278564451,0.436343252658844
923,97300.0,4.039018154144287,-9.15004062652588,0.7428010702133179
924,97400.0,4.039018154144287,-9.15004062652588,0.7428010702133179
925,97500.0,5.054758548736572,-8.519167900085451,0.5333084464073181
926,97600.0,5.054758548736572,-8.519167900085451,0.5333084464073181
927,97700.0,3.437475204467773,-8.773551940917969,0.09516951441764833
928,97800.0,3.437475204467773,-8.773551940917969,0.09516951441764833
929,97900.0,3.8097734451293945,-8.67359447479248,-0.2735375463962555
930,98000.0,3.8097734451293945,-8.67359447479248,-0.2735375463962555
931,98100.0,4.287416458129884,-8.44434928894043,0.1041477769613266
932,98200.0,3.692457675933838,-8.989029884338379,0.4106055796146393
933,98300.0,3.692457675933838,-8.989029884338379,0.4106055796146393
934,98400.0,3.9426517486572266,-8.948927879333496,0.22685061395168304
935,98500.0,3.9426517486572266,-8.948927879333496,0.22685061395168304
936,98600.0,3.75291109085083,-8.862137794494629,0.4578910768032074
937,98700.0,3.75291109085083,-8.862137794494629,0.4578910768032074
938,98800.0,2.7916390895843506,-9.370905876159668,2.32297420501709
939,98900.0,7.006631374359131,-10.125677108764648,3.774458885192871
940,99000.0,7.006631374359131,-10.125677108764648,3.774458885192871
941,99100.0,0.8026561141014099,-11.668740272521973,2.8377275466918945
942,99200.0,0.8026561141014099,-11.668740272521973,2.8377275466918945
943,99300.0,-18.04030990600586,-6.004657745361327,19.608510971069336
944,99400.0,-18.04030990600586,-6.004657745361327,19.608510971069336
945,99500.0,-5.627571105957031,2.7240030765533447,8.991424560546875
946,99600.0,-5.627571105957031,2.7240030765533447,8.991424560546875
947,99700.0,-2.7904419898986816,0.800261914730072,7.739855766296388
948,99800.0,-7.687781810760497,1.8363527059555051,6.610390663146973
949,99900.0,-7.687781810760497,1.8363527059555051,6.610390663146973
950,100000.0,-4.972756862640381,0.7086837291717529,8.133103370666504
951,100100.0,-4.972756862640381,0.7086837291717529,8.133103370666504
952,100200.0,-5.3336830139160165,0.882861852645874,7.976881504058838
953,100300.0,-5.3336830139160165,0.882861852645874,7.976881504058838
954,100400.0,-6.546944618225098,1.3048399686813354,7.559691905975343
955,100500.0,-6.546944618225098,1.3048399686813354,7.559691905975343
956,100600.0,-5.0260281562805185,0.9870096445083618,8.110957145690918
957,100700.0,-5.0260281562805185,0.9870096445083618,8.110957145690918
958,100800.0,-4.883573055267334,-0.14185644686222074,8.10018253326416
959,100900.0,-5.416881561279297,1.634641170501709,7.342418193817139
960,101000.0,-5.416881561279297,1.634641170501709,7.342418193817139
961,101100.0,-2.779668092727661,-0.3567360639572144,9.554061889648438
962,101200.0,-2.779668092727661,-0.3567360639572144,9.554061889648438
963,101300.0,-3.832518339157105,1.026513934135437,8.433575630187987
964,101400.0,-3.832518339157105,1.026513934135437,8.433575630187987
965,101500.0,-1.9985598325729368,2.0614075660705566,8.086416244506836
966,101600.0,-1.9985598325729368,2.0614075660705566,8.086416244506836
967,101700.0,-3.0095114707946777,1.9201498031616209,7.163451671600343
968,101800.0,-2.7006595134735107,1.592742681503296,8.434173583984375
969,101900.0,-2.7006595134735107,1.592742681503296,8.434173583984375
970,102000.0,-5.2696380615234375,-1.5939397811889648,8.856152534484863
971,102100.0,-5.2696380615234375,-1.5939397811889648,8.856152534484863
972,102200.0,-3.642179250717163,-1.765723705291748,8.243236541748049
973,102300.0,-3.642179250717163,-1.765723705291748,8.243236541748049
974,102400.0,-4.057573318481444,-2.074575662612915,8.449137687683105
975,102500.0,-4.057573318481444,-2.074575662612915,8.449137687683105
976,102600.0,-5.502473831176758,0.5368997454643251,8.188169479370117
977,102700.0,-5.4486045837402335,2.251148223876953,11.076175689697266
978,102800.0,-5.4486045837402335,2.251148223876953,11.076175689697266
979,102900.0,-5.692812919616699,-4.87639045715332,1.6759412288665771
980,103000.0,-5.692812919616699,-4.87639045715332,1.6759412288665771
981,103100.0,-1.5424644947052002,-19.608510971069336,-0.8481459617614746
982,103200.0,-1.5424644947052002,-19.608510971069336,-0.8481459617614746
983,103300.0,-0.2388216257095337,-6.105813026428223,0.15682020783424375
984,103400.0,-0.2388216257095337,-6.105813026428223,0.15682020783424375
985,103500.0,2.1960813999176025,-6.856993675231934,1.7735048532485962
986,103600.0,1.9309237003326416,-8.680178642272951,-1.778891921043396
987,103700.0,1.9309237003326416,-8.680178642272951,-1.778891921043396
988,103800.0,4.392162799835205,-8.801085472106934,0.061650693416595466
989,103900.0,4.392162799835205,-8.801085472106934,0.061650693416595466
990,104000.0,-0.9044097065925598,-10.722432136535645,3.918709516525269
991,104100.0,-0.9044097065925598,-10.722432136535645,3.918709516525269
992,104200.0,3.5751416683197017,-5.020042419433594,-2.9035680294036865
993,104300.0,3.5751416683197017,-5.020042419433594,-2.9035680294036865
994,104400.0,6.412869453430176,-14.434043884277346,1.7723077535629272
995,104500.0,0.5871779918670654,-11.965023040771484,-1.1480196714401243
996,104600.0,0.5871779918670654,-11.965023040771484,-1.1480196714401243
997,104700.0,4.0863037109375,-8.119336128234862,-0.9654618501663208
998,104800.0,4.0863037109375,-8.119336128234862,-0.9654618501663208
999,104900.0,4.790199279785156,-8.871115684509277,-2.0320787429809566
1000,105000.0,4.790199279785156,-8.871115684509277,-2.0320787429809566
1001,105100.0,3.423109769821167,-7.073070526123048,0.5309142470359802
1002,105200.0,3.423109769821167,-7.073070526123048,0.5309142470359802
1003,105300.0,1.0666168928146362,-7.457339763641357,3.3207578659057617
1004,105400.0,4.680065631866455,-6.1740474700927725,3.983951568603516
1005,105500.0,4.680065631866455,-6.1740474700927725,3.983951568603516
1006,105600.0,3.359663486480713,-11.050437927246094,2.029684543609619
1007,105700.0,3.359663486480713,-11.050437927246094,2.029684543609619
1008,105800.0,4.992508888244629,-6.642712593078612,2.258929252624512
1009,105900.0,4.992508888244629,-6.642712593078612,2.258929252624512
1010,106000.0,8.209118843078612,-4.57112979888916,14.754267692565918
1011,106100.0,8.209118843078612,-4.57112979888916,14.754267692565918
1012,106200.0,-0.2448071241378784,-16.97189712524414,-3.206434726715088
1013,106300.0,-3.2411506175994877,-7.672817707061768,-2.873042106628418
1014,106400.0,-3.2411506175994877,-7.672817707061768,-2.873042106628418
1015,106500.0,-1.3437457084655762,-12.877812385559082,-4.284423828125
1016,106600.0,-1.3437457084655762,-12.877812385559082,-4.284423828125
1017,106700.0,5.656899929046631,-8.364742279052733,-4.374804973602295
1018,106800.0,5.656899929046631,-8.364742279052733,-4.374804973602295
1019,106900.0,5.060743808746338,-14.426261901855467,-7.639298915863037
1020,107000.0,5.060743808746338,-14.426261901855467,-7.639298915863037
1021,107100.0,3.390788078308105,-10.149619102478027,-0.5590460896492004
1022,107200.0,3.338115692138672,-7.892486095428468,-3.8247373104095463
1023,107300.0,3.338115692138672,-7.892486095428468,-3.8247373104095463
1024,107400.0,4.389170169830321,-7.138312339782715,0.1256955862045288
1025,107500.0,4.389170169830321,-7.138312339782715,0.1256955862045288
1026,107600.0,1.5843629837036133,-9.847352027893066,-0.3106476664543152
1027,107700.0,1.5843629837036133,-9.847352027893066,-0.3106476664543152
1028,107800.0,2.407968282699585,-9.062651634216307,-0.4566939771175385
1029,107900.0,2.407968282699585,-9.062651634216307,-0.4566939771175385
1030,108000.0,-0.3058592677116394,-10.456077575683594,1.5041571855545044
1031,108100.0,3.7122097015380864,-9.895236015319824,0.08319851011037828
1032,108200.0,3.7122097015380864,-9.895236015319824,0.08319851011037828
1033,108300.0,2.9436709880828857,-7.365761756896973,-2.5755624771118164
1034,108400.0,2.9436709880828857,-7.365761756896973,-2.5755624771118164
1035,108500.0,3.441664934158325,-10.976217269897461,-2.2026655673980717
1036,108600.0,3.441664934158325,-10.976217269897461,-2.2026655673980717
1037,108700.0,-0.16998831927776334,-10.66856288909912,4.08510684967041
1038,108800.0,-0.16998831927776334,-10.66856288909912,4.08510684967041
1039,108900.0,1.8142063617706297,-9.400833129882812,-1.2030863761901855
1040,109000.0,1.1174936294555664,-8.452130317687987,-2.1481974124908447
1041,109100.0,1.1174936294555664,-8.452130317687987,-2.1481974124908447
1042,109200.0,0.5913678407669067,-11.529278755187988,1.0360907316207886
1043,109300.0,0.5913678407669067,-11.529278755187988,1.0360907316207886
1044,109400.0,3.78104305267334,-7.980473041534424,-2.383427858352661
1045,109500.0,3.78104305267334,-7.980473041534424,-2.383427858352661
1046,109600.0,1.922544002532959,-8.483853340148926,-1.9548656940460205
1047,109700.0,1.922544002532959,-8.483853340148926,-1.9548656940460205
1048,109800.0,2.6605565547943115,-15.163676261901855,-8.574832916259767
1049,109900.0,1.9602526426315308,-8.610746383666992,-3.3195607662200928
1050,110000.0,1.9602526426315308,-8.610746383666992,-3.3195607662200928
1051,110100.0,0.9510966539382936,-9.473855972290039,2.0165164470672607
1052,110200.0,0.9510966539382936,-9.473855972290039,2.0165164470672607
1053,110300.0,3.766677856445313,-9.485827445983887,-2.8784289360046387
1054,110400.0,3.766677856445313,-9.485827445983887,-2.8784289360046387
1055,110500.0,1.007360339164734,-9.241618156433104,1.7561469078063965
1056,110600.0,1.007360339164734,-9.241618156433104,1.7561469078063965
1057,110700.0,2.1709423065185547,-8.631695747375487,1.4772224426269531
1058,110800.0,2.61087703704834,-7.864952564239503,2.6611552238464355
1059,110900.0,2.61087703704834,-7.864952564239503,2.6611552238464355
1060,111000.0,0.7721300721168518,-10.315418243408203,-0.2232593148946762
1061,111100.0,0.7721300721168518,-10.315418243408203,-0.2232593148946762
1062,111200.0,0.1238999366760254,-8.829815864562988,-0.6003460884094238
1063,111300.0,0.1238999366760254,-8.829815864562988,-0.6003460884094238
1064,111400.0,2.1553800106048584,-9.559449195861816,-3.7481226921081534
1065,111500.0,2.1553800106048584,-9.559449195861816,-3.7481226921081534
1066,111600.0,1.5658079385757446,-8.760383605957031,1.1366472244262695
1067,111700.0,1.6974890232086182,-9.243413925170898,-1.4377181529998782
1068,111800.0,1.6974890232086182,-9.243413925170898,-1.4377181529998782
1069,111900.0,3.4775779247283936,-11.646594047546387,-3.687669277191162
1070,112000.0,3.4775779247283936,-11.646594047546387,-3.687669277191162
1071,112100.0,3.7343561649322514,-4.978143692016602,-7.0150108337402335
1072,112200.0,3.7343561649322514,-4.978143692016602,-7.0150108337402335
1073,112300.0,-1.7196353673934937,-14.954183578491213,-0.21009120345115664
1074,112400.0,-1.7196353673934937,-14.954183578491213,-0.21009120345115664
1075,112500.0,5.678447723388673,-13.39974880218506,-2.07397723197937
1076,112600.0,0.0454898327589035,-10.61768627166748,2.0632033348083496
1077,112700.0,0.0454898327589035,-10.61768627166748,2.0632033348083496
1078,112800.0,-1.049857497215271,-9.28531265258789,-0.30047231912612915
1079,112900.0,-1.049857497215271,-9.28531265258789,-0.30047231912612915
1080,113000.0,1.1785458326339722,-9.723451614379883,-1.6944962739944458
1081,113100.0,1.1785458326339722,-9.723451614379883,-1.6944962739944458
1082,113200.0,7.253832817077638,-1.6525976657867432,5.151723384857178
1083,113300.0,7.253832817077638,-1.6525976657867432,5.151723384857178
1084,113400.0,-0.2513911724090576,-8.784924507141112,2.7509377002716064
1085,113500.0,3.858854532241821,-10.108319282531738,1.3922282457351685
1086,113600.0,3.858854532241821,-10.108319282531738,1.3922282457351685
1087,113700.0,2.1128830909729004,-8.759186744689941,0.6206967830657959
1088,113800.0,2.1128830909729004,-8.759186744689941,0.6206967830657959
1089,113900.0,5.509057998657227,-9.159018516540527,8.49522590637207
1090,114000.0,5.509057998657227,-9.159018516540527,8.49522590637207
1091,114100.0,-3.0963013172149663,-12.404358863830565,-0.2501940727233887
1092,114200.0,-3.0963013172149663,-12.404358863830565,-0.2501940727233887
1093,114300.0,1.0678139925003052,-10.290278434753418,0.6859387755393982
1094,114400.0,1.6699557304382324,-11.380837440490724,-0.9056068062782288
1095,114500.0,1.6699557304382324,-11.380837440490724,-0.9056068062782288
1096,114600.0,1.2856862545013428,-9.066243171691896,0.14006079733371735
1097,114700.0,1.2856862545013428,-9.066243171691896,0.14006079733371735
1098,114800.0,4.6734819412231445,-9.27034854888916,0.8816647529602051
1099,114900.0,4.6734819412231445,-9.27034854888916,0.8816647529602051
1100,115000.0,1.6148890256881714,-10.762535095214844,1.61069917678833
1101,115100.0,1.6148890256881714,-10.762535095214844,1.61069917678833
1102,115200.0,-1.4496891498565674,-9.836577415466307,0.7942764163017273
1103,115300.0,2.3241713047027592,-6.068104267120361,3.673303842544556
1104,115400.0,2.3241713047027592,-6.068104267120361,3.673303842544556
1105,115500.0,2.0063409805297847,-5.874173641204834,0.08619125932455063
1106,115600.0,2.0063409805297847,-5.874173641204834,0.08619125932455063
1107,115700.0,0.702099621295929,-9.823410034179688,-1.2982559204101565
1108,115800.0,0.702099621295929,-9.823410034179688,-1.2982559204101565
1109,115900.0,0.5680243372917175,-9.739612579345703,0.9217676520347596
1110,116000.0,0.5680243372917175,-9.739612579345703,0.9217676520347596
1111,116100.0,2.8880057334899902,-8.254010200500487,-1.324592113494873
1112,116200.0,3.475183725357056,-9.730634689331056,0.4321534037590027
1113,116300.0,3.475183725357056,-9.730634689331056,0.4321534037590027
1114,116400.0,3.6086604595184326,-8.428188323974611,0.23942017555236814
1115,116500.0,3.6086604595184326,-8.428188323974611,0.23942017555236814
1116,116600.0,1.9506758451461792,-7.4800848960876465,1.2779051065444946
1117,116700.0,1.9506758451461792,-7.4800848960876465,1.2779051065444946
1118,116800.0,3.803189516067505,-7.440580368041992,-0.70090252161026
1119,116900.0,3.803189516067505,-7.440580368041992,-0.70090252161026
1120,117000.0,2.1577742099761963,-9.030330657958984,-1.3958195447921753
1121,117100.0,2.1577742099761963,-9.030330657958984,-1.3958195447921753
1122,117200.0,2.483385801315308,-9.123703956604004,-1.315613865852356
1123,117300.0,1.999756932258606,-8.89445972442627,-1.6442179679870603
1124,117400.0,1.999756932258606,-8.89445972442627,-1.6442179679870603
1125,117500.0,0.1125274822115898,-9.235034942626953,-0.6147112846374512
1126,117600.0,0.1125274822115898,-9.235034942626953,-0.6147112846374512
1127,117700.0,1.9464859962463381,-10.5530424118042,11.59092903137207
1128,117800.0,1.9464859962463381,-10.5530424118042,11.59092903137207
1129,117900.0,-1.7190368175506592,-9.238027572631836,-2.313995838165283
1130,118000.0,0.4387374520301819,-7.26221227645874,1.5765818357467651
1131,118100.0,0.4387374520301819,-7.26221227645874,1.5765818357467651
1132,118200.0,0.3681085109710693,-8.983044624328613,-0.18794482946395874
1133,118300.0,0.3681085109710693,-8.983044624328613,-0.18794482946395874
1134,118400.0,0.2489969730377197,-9.585186958312988,-0.6637924313545227
1135,118500.0,0.2489969730377197,-9.585186958312988,-0.6637924313545227
1136,118600.0,0.7392097711563109,-9.431957244873047,-0.7374141216278076
1137,118700.0,0.7392097711563109,-9.431957244873047,-0.7374141216278076
1138,118800.0,5.75985050201416,-11.368866920471193,-3.489548921585083
1139,118900.0,4.383184909820557,-6.65288782119751,1.6932991743087769
1140,119000.0,4.383184909820557,-6.65288782119751,1.6932991743087769
1141,119100.0,6.195595264434815,-7.840412139892577,-3.581127166748047
1142,119200.0,6.195595264434815,-7.840412139892577,-3.581127166748047
1143,119300.0,5.337872505187988,-7.0144124031066895,-2.278082847595215
1144,119400.0,5.337872505187988,-7.0144124031066895,-2.278082847595215
1145,119500.0,4.961384296417236,-7.4980411529541025,-0.8655039072036743
1146,119600.0,4.961384296417236,-7.4980411529541025,-0.8655039072036743
1147,119700.0,4.2509050369262695,-9.800065994262695,-1.9381062984466555
1148,119800.0,4.2509050369262695,-9.800065994262695,-1.9381062984466555
1149,119900.0,4.109647274017334,-8.754997253417969,-1.2216414213180542
1150,120000.0,1.6430208683013916,-9.138069152832033,-1.3174095153808594
1151,120100.0,1.6430208683013916,-9.138069152832033,-1.3174095153808594
1152,120200.0,0.4854243993759155,-10.433332443237305,-0.9253589510917664
1153,120300.0,0.4854243993759155,-10.433332443237305,-0.9253589510917664
1154,120400.0,2.8377275466918945,-9.011775016784668,-1.1204863786697388
1155,120500.0,2.8377275466918945,-9.011775016784668,-1.1204863786697388
1156,120600.0,1.2653355598449707,-10.284293174743652,-1.4215573072433472
1157,120700.0,1.2653355598449707,-10.284293174743652,-1.4215573072433472
1158,120800.0,3.5847184658050537,-8.69214916229248,-1.873462796211243
1159,120900.0,0.7224503755569458,-10.500370025634766,1.071405291557312
1160,121000.0,0.7224503755569458,-10.500370025634766,1.071405291557312
1161,121100.0,2.1164743900299072,-9.667187690734863,-1.4802151918411257
1162,121200.0,2.1164743900299072,-9.667187690734863,-1.4802151918411257
1163,121300.0,3.309983968734741,-7.60637903213501,-0.5937620401382446
1164,121400.0,3.309983968734741,-7.60637903213501,-0.5937620401382446
1165,121500.0,-0.07541735470294952,-9.062053680419922,-0.6105214357376099
1166,121600.0,-0.07541735470294952,-9.062053680419922,-0.6105214357376099
1167,121700.0,-0.4411316514015198,-10.263343811035156,-1.0223240852355957
1168,121800.0,1.3114240169525146,-9.305065155029297,-0.5452794432640076
1169,121900.0,1.3114240169525146,-9.305065155029297,-0.5452794432640076
1170,122000.0,5.175066947937012,-7.871536731719972,-1.5364789962768557
1171,122100.0,5.175066947937012,-7.871536731719972,-1.5364789962768557
1172,122200.0,3.523067712783813,-10.030508041381836,-2.782062292098999
1173,122300.0,3.523067712783813,-10.030508041381836,-2.782062292098999
1174,122400.0,2.8125884532928467,-7.105990409851074,-3.638587951660156
1175,122500.0,2.8125884532928467,-7.105990409851074,-3.638587951660156
1176,122600.0,4.337695121765137,-7.802104949951173,-1.4550760984420776
1177,122700.0,1.5939397811889648,-9.024943351745604,-1.7842788696289065
1178,122800.0,1.5939397811889648,-9.024943351745604,-1.7842788696289065
1179,122900.0,2.324769735336304,-9.32541561126709,-1.3389573097229004
1180,123000.0,2.324769735336304,-9.32541561126709,-1.3389573097229004
1181,123100.0,-0.6590040326118469,-9.892242431640623,-0.5452794432640076
1182,123200.0,-0.6590040326118469,-9.892242431640623,-0.5452794432640076
1183,123300.0,1.236605167388916,-9.880271911621094,-0.924760401248932
1184,123400.0,1.236605167388916,-9.880271911621094,-0.924760401248932
1185,123500.0,3.5003228187561035,-9.642647743225098,-0.8601169586181641
1186,123600.0,6.236895561218263,-9.76295566558838,-2.9981391429901123
1187,123700.0,6.236895561218263,-9.76295566558838,-2.9981391429901123
1188,123800.0,2.9879636764526367,-6.692990779876709,-1.391629695892334
1189,123900.0,2.9879636764526367,-6.692990779876709,-1.391629695892334
1190,124000.0,2.8329391479492188,-9.637859344482422,-2.4642322063446045
1191,124100.0,2.8329391479492188,-9.637859344482422,-2.4642322063446045
1192,124200.0,2.862268209457397,-9.486425399780273,-2.0129251480102544
1193,124300.0,2.862268209457397,-9.486425399780273,-2.0129251480102544
1194,124400.0,2.855085611343384,-7.876923561096191,-5.219958305358887
1195,124500.0,3.205237627029419,-8.574832916259767,-1.5843629837036133
1196,124600.0,3.205237627029419,-8.574832916259767,-1.5843629837036133
1197,124700.0,-1.895010590553284,-11.058817863464355,3.646967649459839
1198,124800.0,-1.895010590553284,-11.058817863464355,3.646967649459839
1199,124900.0,0.7098808288574219,-11.84770679473877,5.061941146850586
1200,125000.0,0.7098808288574219,-11.84770679473877,5.061941146850586
1201,125100.0,3.858854532241821,-5.602431774139403,0.3010708689689636
1202,125200.0,3.858854532241821,-5.602431774139403,0.3010708689689636
1203,125300.0,-2.1110873222351074,-9.389460563659668,2.691082715988159
1204,125400.0,4.963180065155028,-1.4526818990707395,-3.327341794967652
1205,125500.0,4.963180065155028,-1.4526818990707395,-3.327341794967652
1206,125600.0,0.6649895310401917,-7.641693115234375,-5.16549015045166
1207,125700.0,0.6649895310401917,-7.641693115234375,-5.16549015045166
1208,125800.0,-1.4185645580291748,-9.468469619750977,-0.019153613597154617
1209,125900.0,-1.4185645580291748,-9.468469619750977,-0.019153613597154617
1210,126000.0,-2.0027496814727783,-10.277111053466797,3.204638957977295
1211,126100.0,-2.0027496814727783,-10.277111053466797,3.204638957977295
1212,126200.0,3.2327709197998047,-10.721834182739258,1.8608932495117188
1213,126300.0,2.056020736694336,-4.854243755340576,4.1623196601867685
1214,126400.0,2.056020736694336,-4.854243755340576,4.1623196601867685
1215,126500.0,3.969586372375488,-4.058770656585693,-4.602254390716553
1216,126600.0,3.969586372375488,-4.058770656585693,-4.602254390716553
1217,126700.0,3.4171242713928223,-11.5250883102417,3.624222755432129
1218,126800.0,3.4171242713928223,-11.5250883102417,3.624222755432129
1219,126900.0,1.965639591217041,-9.816226959228516,-0.6943184733390808
1220,127000.0,1.965639591217041,-9.816226959228516,-0.6943184733390808
1221,127100.0,1.5837644338607788,-9.416994094848633,-0.10953472554683684
1222,127200.0,0.8445546627044678,-9.692925453186037,-0.8026561141014099
1223,127300.0,0.8445546627044678,-9.692925453186037,-0.8026561141014099
1224,127400.0,2.6581623554229736,-9.057265281677246,-1.0301052331924438
1225,127500.0,2.6581623554229736,-9.057265281677246,-1.0301052331924438
1226,127600.0,2.0949265956878658,-9.39245319366455,-0.5057750940322876
1227,127700.0,2.0949265956878658,-9.39245319366455,-0.5057750940322876
1228,127800.0,2.9155390262603764,-9.777320861816406,1.2084733247756958
1229,127900.0,2.9155390262603764,-9.777320861816406,1.2084733247756958
1230,128000.0,2.8682537078857417,-5.716156482696532,1.5460557937622068
1231,128100.0,1.3072341680526731,-9.55705451965332,-1.2144588232040403
1232,128200.0,1.3072341680526731,-9.55705451965332,-1.2144588232040403
1233,128300.0,0.7547720670700073,-9.789292335510254,-0.7122750282287598
1234,128400.0,0.7547720670700073,-9.789292335510254,-0.7122750282287598
1235,128500.0,0.6613982319831848,-8.739435195922853,-0.20889410376548767
1236,128600.0,0.6613982319831848,-8.739435195922853,-0.20889410376548767
1237,128700.0,0.12330138683319093,-9.719860076904297,-0.4686649739742279
1238,128800.0,0.12330138683319093,-9.719860076904297,-0.4686649739742279
1239,128900.0,2.892195701599121,-9.11113452911377,-2.054823637008667
1240,129000.0,4.684854030609131,-8.466495513916017,3.090914487838745
1241,129100.0,4.684854030609131,-8.466495513916017,3.090914487838745
1242,129200.0,6.691793918609619,-7.348403453826903,0.4423287510871887
1243,129300.0,6.691793918609619,-7.348403453826903,0.4423287510871887
1244,129400.0,4.762665748596191,-8.012195587158201,-2.3038206100463867
1245,129500.0,4.762665748596191,-8.012195587158201,-2.3038206100463867
1246,129600.0,4.607641220092773,-7.690176010131836,-1.2114660739898682
1247,129700.0,4.607641220092773,-7.690176010131836,-1.2114660739898682
1248,129800.0,3.904344320297241,-8.015787124633789,0.5793967843055725
1249,129900.0,5.628767967224121,-9.812037467956543,-3.250727415084839
1250,130000.0,5.628767967224121,-9.812037467956543,-3.250727415084839
1251,130100.0,0.4932055473327637,-12.181697845458984,-0.8212111592292786
1252,130200.0,0.4932055473327637,-12.181697845458984,-0.8212111592292786
1253,130300.0,-0.8289923667907715,-9.870096206665039,-0.5955576896667479
1254,130400.0,-0.8289923667907715,-9.870096206665039,-0.5955576896667479
1255,130500.0,1.4155718088150024,-9.49121379852295,-0.3124433159828186
1256,130600.0,1.4155718088150024,-9.49121379852295,-0.3124433159828186
1257,130700.0,-0.9229647517204284,-9.81024169921875,-0.034117374569177635
1258,130800.0,0.5159504413604736,-9.937732696533203,-0.4411316514015198
1259,130900.0,0.5159504413604736,-9.937732696533203,-0.4411316514015198
1260,131000.0,1.5538369417190552,-9.02254867553711,-1.4006079435348509
1261,131100.0,1.5538369417190552,-9.02254867553711,-1.4006079435348509
1262,131200.0,1.4071919918060305,-9.106346130371094,0.2214636504650116
1263,131300.0,1.4071919918060305,-9.106346130371094,0.2214636504650116
1264,131400.0,-1.6597803831100464,-10.004770278930664,-0.013168109580874443
1265,131500.0,-1.6597803831100464,-10.004770278930664,-0.013168109580874443
1266,131600.0,0.6883329749107361,-9.625288963317873,0.06344634294509888
1267,131700.0,0.8702923059463501,-9.526528358459473,-1.0666168928146362
1268,131800.0,0.8702923059463501,-9.526528358459473,-1.0666168928146362
1269,131900.0,0.8672995567321777,-9.823410034179688,-0.8786720037460327
1270,132000.0,0.8672995567321777,-9.823410034179688,-0.8786720037460327
1271,132100.0,0.7469909191131592,-9.612719535827637,-0.6763619780540466
1272,132200.0,0.7469909191131592,-9.612719535827637,-0.6763619780540466
1273,132300.0,-0.414795458316803,-10.137648582458496,-0.984615445137024
1274,132400.0,-0.414795458316803,-10.137648582458496,-0.984615445137024
1275,132500.0,-0.1346738487482071,-9.719860076904297,-1.3317747116088867
1276,132600.0,1.3186066150665283,-8.677783966064451,-0.9552865028381348
1277,132700.0,1.3186066150665283,-8.677783966064451,-0.9552865028381348
1278,132800.0,1.6472107172012331,-9.089587211608887,-0.3675099611282349
1279,132900.0,1.6472107172012331,-9.089587211608887,-0.3675099611282349
1280,133000.0,0.8212111592292786,-10.107721328735352,0.2017114907503128
1281,133100.0,0.8212111592292786,-10.107721328735352,0.2017114907503128
1282,133200.0,-0.8571242094039917,-10.828974723815918,-0.7589619159698486
1283,133300.0,-0.8571242094039917,-10.828974723815918,-0.7589619159698486
1284,133400.0,0.3435679376125336,-9.084798812866213,-0.16220717132091522
1285,133500.0,1.5873557329177856,-12.27626895904541,-2.0542249679565434
1286,133600.0,1.5873557329177856,-12.27626895904541,-2.0542249679565434
1287,133700.0,-0.4076128304004669,-8.030152320861816,1.4556746482849119
1288,133800.0,-0.4076128304004669,-8.030152320861816,1.4556746482849119
1289,133900.0,-1.292868971824646,-19.608510971069336,19.48760414123535
1290,134000.0,-1.292868971824646,-19.608510971069336,19.48760414123535
1291,134100.0,0.3693056106567383,-8.602965354919434,-2.211045265197754
1292,134200.0,0.3693056106567383,-8.602965354919434,-2.211045265197754
1293,134300.0,-0.0293289702385664,-9.23682975769043,3.897760391235352
1294,134400.0,-0.7553706169128418,-9.993996620178224,-0.7996633648872375
1295,134500.0,-0.7553706169128418,-9.993996620178224,-0.7996633648872375
1296,134600.0,-13.514071464538574,-17.347787857055664,-1.928529500961304
1297,134700.0,-13.514071464538574,-17.347787857055664,-1.928529500961304
1298,134800.0,-1.568800687789917,-10.056245803833008,5.515642166137695
1299,134900.0,-1.568800687789917,-10.056245803833008,5.515642166137695
1300,135000.0,-0.5488707423210144,-8.908824920654297,-0.669179379940033
1301,135100.0,-0.5488707423210144,-8.908824920654297,-0.669179379940033
1302,135200.0,2.3995885848999023,-8.99860668182373,-2.0039467811584477
1303,135300.0,-2.8437130451202397,-10.864288330078123,1.413776159286499
1304,135400.0,-2.8437130451202397,-10.864288330078123,1.413776159286499
1305,135500.0,3.230975151062012,-9.93474006652832,6.9030818939208975
1306,135600.0,3.230975151062012,-9.93474006652832,6.9030818939208975
1307,135700.0,-0.4297592043876648,-11.49276638031006,2.1278467178344727
1308,135800.0,-0.4297592043876648,-11.49276638031006,2.1278467178344727
1309,135900.0,-0.3998316824436188,-9.808445930480957,-0.4171896576881409
1310,136000.0,-0.3998316824436188,-9.808445930480957,-0.4171896576881409
1311,136100.0,1.6328455209732056,-10.062829971313477,-1.3108254671096802
1312,136200.0,-0.7529764175415039,-9.745597839355467,-0.30047231912612915
1313,136300.0,-0.7529764175415039,-9.745597839355467,-0.30047231912612915
1314,136400.0,0.4165911078453064,-9.55825138092041,-0.9618705511093141
1315,136500.0,0.4165911078453064,-9.55825138092041,-0.9618705511093141
1316,136600.0,3.29502010345459,-9.589975357055664,-1.1689690351486206
1317,136700.0,3.29502010345459,-9.589975357055664,-1.1689690351486206
1318,136800.0,0.46627077460289,-9.699509620666504,-1.7998411655426023
1319,136900.0,0.46627077460289,-9.699509620666504,-1.7998411655426023
1320,137000.0,0.6955155730247498,-9.540295600891113,-0.8080430626869202
1321,137100.0,0.6141127347946167,-9.132083892822266,-0.6667851805686951
1322,137200.0,0.6141127347946167,-9.132083892822266,-0.6667851805686951
1323,137300.0,1.9500772953033447,-9.519346237182617,-0.6129156351089478
1324,137400.0,1.9500772953033447,-9.519346237182617,-0.6129156351089478
1325,137500.0,0.6362590789794922,-9.658807754516602,-0.9504981040954591
1326,137600.0,0.6362590789794922,-9.658807754516602,-0.9504981040954591
1327,137700.0,0.8086416125297546,-9.084199905395508,-1.3736732006072998
1328,137800.0,0.8086416125297546,-9.084199905395508,-1.3736732006072998
1329,137900.0,-2.233191728591919,-9.82879638671875,-0.6320692300796509
1330,138000.0,0.4070142805576325,-9.55705451965332,-1.3036428689956665
1331,138100.0,0.4070142805576325,-9.55705451965332,-1.3036428689956665
1332,138200.0,2.0009541511535645,-9.677961349487305,-1.212663173675537
1333,138300.0,2.0009541511535645,-9.677961349487305,-1.212663173675537
1334,138400.0,-1.060032844543457,-9.43255615234375,-1.108515381813049
1335,138500.0,-1.060032844543457,-9.43255615234375,-1.108515381813049
1336,138600.0,-0.7948749661445618,-9.82759952545166,-0.6386532783508301
1337,138700.0,-0.7948749661445618,-9.82759952545166,-0.6386532783508301
1338,138800.0,1.3581109046936035,-9.622296333312988,-1.1773487329483032
1339,138900.0,0.03711012750864029,-9.707889556884766,-0.2645592987537384
1340,139000.0,0.03711012750864029,-9.707889556884766,-0.2645592987537384
1341,139100.0,-0.8942343592643738,-9.601945877075195,-1.288679122924805
1342,139200.0,-0.8942343592643738,-9.601945877075195,-1.288679122924805
1343,139300.0,0.7374141216278076,-9.49001693725586,-0.24660277366638186
1344,139400.0,0.7374141216278076,-9.49001693725586,-0.24660277366638186
1345,139500.0,-1.7262194156646729,-10.230423927307127,-1.1516109704971311
1346,139600.0,-1.7262194156646729,-10.230423927307127,-1.1516109704971311
1347,139700.0,-0.4088099300861359,-9.5223388671875,-1.1180921792984009
1348,139800.0,4.455010890960693,-8.846575736999512,0.2908954918384552
1349,139900.0,4.455010890960693,-8.846575736999512,0.2908954918384552
1350,140000.0,-1.5921441316604614,-10.68711757659912,1.3796586990356443
1351,140100.0,-1.5921441316604614,-10.68711757659912,1.3796586990356443
1352,140200.0,0.0628477931022644,-9.948506355285645,0.3627215623855591
1353,140300.0,0.0628477931022644,-9.948506355285645,0.3627215623855591
1354,140400.0,1.6903064250946045,-9.307458877563477,-0.4908113479614258
1355,140500.0,1.6903064250946045,-9.307458877563477,-0.4908113479614258
1356,140600.0,-1.0247182846069336,-10.614094734191896,0.974440097808838
1357,140700.0,2.056020736694336,-10.627263069152832,0.4596867263317108
1358,140800.0,2.056020736694336,-10.627263069152832,0.4596867263317108
1359,140900.0,0.6931213736534119,-9.611522674560547,-0.5566518902778625
1360,141000.0,0.6931213736534119,-9.611522674560547,-0.5566518902778625
1361,141100.0,0.152031809091568,-9.676764488220217,0.5392939448356628
1362,141200.0,0.152031809091568,-9.676764488220217,0.5392939448356628
1363,141300.0,-0.2986766695976257,-9.88625717163086,0.4339490532875061
1364,141400.0,-0.2986766695976257,-9.88625717163086,0.4339490532875061
1365,141500.0,3.1142578125,-9.044096946716307,1.4760253429412842
1366,141600.0,-0.6087257862091064,-9.633668899536133,0.5009866952896118
1367,141700.0,-0.6087257862091064,-9.633668899536133,0.5009866952896118
1368,141800.0,1.6813281774520874,-9.17577838897705,1.3605051040649414
1369,141900.0,1.6813281774520874,-9.17577838897705,1.3605051040649414
1370,142000.0,-1.1899182796478271,-10.073603630065918,1.7399860620498655
1371,142100.0,-1.1899182796478271,-10.073603630065918,1.7399860620498655
1372,142200.0,1.1049240827560425,-9.544485092163086,0.8445546627044678
1373,142300.0,1.1049240827560425,-9.544485092163086,0.8445546627044678
1374,142400.0,2.823961019515991,-9.098565101623537,0.9612720012664796
1375,142500.0,2.823961019515991,-9.098565101623537,0.9612720012664796
1376,142600.0,0.4632780253887177,-9.768342971801758,1.5556325912475586
1377,142700.0,0.3166331648826599,-9.154230117797852,2.184110403060913
1378,142800.0,0.3166331648826599,-9.154230117797852,2.184110403060913
1379,142900.0,-1.2539631128311155,-9.874884605407717,0.20709845423698425
1380,143000.0,-1.2539631128311155,-9.874884605407717,0.20709845423698425
1381,143100.0,1.977012038230896,-10.51054573059082,1.5292962789535522
1382,143200.0,1.977012038230896,-10.51054573059082,1.5292962789535522
1383,143300.0,2.1356279850006104,-9.727043151855467,3.7385458946228023
1384,143400.0,2.1356279850006104,-9.727043151855467,3.7385458946228023
1385,143500.0,-1.548449993133545,-10.910975456237793,0.6997054219245911
1386,143600.0,1.348534107208252,-9.321824073791504,-0.5590460896492004
1387,143700.0,1.348534107208252,-9.321824073791504,-0.5590460896492004
1388,143800.0,-2.28287124633789,-10.32559299468994,-0.2585737705230713
1389,143900.0,-2.28287124633789,-10.32559299468994,-0.2585737705230713
1390,144000.0,-0.8080430626869202,-10.017938613891602,-0.16879121959209442
1391,144100.0,-0.8080430626869202,-10.017938613891602,-0.16879121959209442
1392,144200.0,0.8517372608184814,-10.264541625976564,-1.2042834758758545
1393,144300.0,0.8517372608184814,-10.264541625976564,-1.2042834758758545
1394,144400.0,0.2992752194404602,-9.55466079711914,-1.939303398132324
1395,144500.0,-3.5069069862365723,-11.068394660949707,-2.795829057693481
1396,144600.0,-3.5069069862365723,-11.068394660949707,-2.795829057693481
1397,144700.0,2.233790159225464,-9.48462963104248,-4.302380561828613
1398,144800.0,2.233790159225464,-9.48462963104248,-4.302380561828613
1399,144900.0,2.3349452018737797,-6.332663536071777,-0.05746084079146385
1400,145000.0,2.3349452018737797,-6.332663536071777,-0.05746084079146385
1401,145100.0,1.2228385210037231,-11.559206008911133,6.467936038970947
1402,145200.0,-0.424970805644989,-8.686761856079103,-1.8183962106704712
1403,145300.0,-0.424970805644989,-8.686761856079103,-1.8183962106704712
1404,145400.0,4.265270233154297,-9.920374870300293,1.7375918626785278
1405,145500.0,4.265270233154297,-9.920374870300293,1.7375918626785278
1406,145600.0,0.9917980432510376,-9.786299705505373,-1.6687586307525637
1407,145700.0,0.9917980432510376,-9.786299705505373,-1.6687586307525637
1408,145800.0,-1.7016788721084597,-9.014169692993164,-1.4083890914916992
1409,145900.0,-1.7016788721084597,-9.014169692993164,-1.4083890914916992
1410,146000.0,-0.6775590777397156,-9.972448348999023,-1.0295066833496094
1411,146100.0,-0.6775590777397156,-9.972448348999023,-1.0295066833496094
1412,146200.0,-1.866280198097229,-9.307458877563477,-0.8667010068893433
1413,146300.0,1.6921020746231081,-10.367491722106934,-2.962824583053589
1414,146400.0,1.6921020746231081,-10.367491722106934,-2.962824583053589
1415,146500.0,-0.2537853717803955,-9.647436141967773,-2.42472767829895
1416,146600.0,-0.2537853717803955,-9.647436141967773,-2.42472767829895
1417,146700.0,-2.8413188457489014,-14.90211009979248,5.6461262702941895
1418,146800.0,-2.8413188457489014,-14.90211009979248,5.6461262702941895
1419,146900.0,3.1220390796661377,-7.8942813873291025,-0.152031809091568
1420,147000.0,3.1220390796661377,-7.8942813873291025,-0.152031809091568
1421,147100.0,4.991910457611084,-7.10419511795044,0.8158242106437683
1422,147200.0,-1.1462240219116209,-9.601945877075195,-3.714005470275879
1423,147300.0,-1.1462240219116209,-9.601945877075195,-3.714005470275879
1424,147400.0,0.2082955539226532,-10.226832389831543,-0.8750807046890259
1425,147500.0,0.2082955539226532,-10.226832389831543,-0.8750807046890259
1426,147600.0,0.24600422382354736,-8.382699012756348,1.2515689134597778
1427,147700.0,0.24600422382354736,-8.382699012756348,1.2515689134597778
1428,147800.0,-1.3796586990356443,-8.64127254486084,-0.8661024570465088
1429,147900.0,-1.3796586990356443,-8.64127254486084,-0.8661024570465088
1430,148000.0,6.168062210083008,-10.721235275268556,0.1215057373046875
1431,148100.0,3.2136173248291016,-8.249820709228517,-1.7938556671142578
1432,148200.0,3.2136173248291016,-8.249820709228517,-1.7938556671142578
1433,148300.0,6.2823853492736825,-7.684190273284912,4.0300397872924805
1434,148400.0,6.2823853492736825,-7.684190273284912,4.0300397872924805
1435,148500.0,2.231395959854126,-10.393229484558104,7.026383399963379
1436,148600.0,2.231395959854126,-10.393229484558104,7.026383399963379
1437,148700.0,3.7014358043670654,-8.197746276855469,0.7044938206672668
1438,148800.0,3.7014358043670654,-8.197746276855469,0.7044938206672668
1439,148900.0,4.908113479614258,-8.756793022155763,4.729146957397461
1440,149000.0,4.883573055267334,-7.654263019561768,3.907337188720703
1441,149100.0,4.883573055267334,-7.654263019561768,3.907337188720703
1442,149200.0,2.287061214447021,-11.181520462036133,0.5380968451499939
1443,149300.0,2.287061214447021,-11.181520462036133,0.5380968451499939
1444,149400.0,0.7260416746139526,-10.62786102294922,-1.0791864395141602
1445,149500.0,0.7260416746139526,-10.62786102294922,-1.0791864395141602
1446,149600.0,-2.589927673339844,-10.157999038696287,-1.0660183429718018
1447,149700.0,-2.589927673339844,-10.157999038696287,-1.0660183429718018
1448,149800.0,1.6112977266311646,-10.353126525878906,5.2887916564941415
1449,149900.0,3.1070752143859863,-13.140576362609865,2.324769735336304
1450,150000.0,3.1070752143859863,-13.140576362609865,2.324769735336304
1451,150100.0,-1.1180921792984009,-5.6437320709228525,-0.059855043888092034
1452,150200.0,-1.1180921792984009,-5.6437320709228525,-0.059855043888092034
1453,150300.0,7.144298076629639,-19.47802734375,19.608510971069336
1454,150400.0,7.144298076629639,-19.47802734375,19.608510971069336
1455,150500.0,0.5087678432464601,-4.393360137939453,0.0041898530907928935
1456,150600.0,0.5087678432464601,-4.393360137939453,0.0041898530907928935
1457,150700.0,-3.049015760421753,-8.938153266906738,-1.7459715604782104
1458,150800.0,-0.24420857429504395,-7.60637903213501,-0.3896563351154328
1459,150900.0,-0.24420857429504395,-7.60637903213501,-0.3896563351154328
1460,151000.0,0.8481459617614746,-9.081207275390623,-0.889445960521698
1461,151100.0,0.8481459617614746,-9.081207275390623,-0.889445960521698
1462,151200.0,-3.7122097015380864,-10.972626686096193,-2.5683798789978027
1463,151300.0,-3.7122097015380864,-10.972626686096193,-2.5683798789978027
1464,151400.0,4.800972938537598,-15.043367385864258,-6.810905456542969
1465,151500.0,4.800972938537598,-15.043367385864258,-6.810905456542969
1466,151600.0,7.2005615234375,-4.748898983001709,6.934805393218994
1467,151700.0,5.7999534606933585,-8.67479133605957,-4.3191399574279785
1468,151800.0,5.7999534606933585,-8.67479133605957,-4.3191399574279785
1469,151900.0,0.7924807667732239,-5.877166748046875,-1.5843629837036133
1470,152000.0,0.7924807667732239,-5.877166748046875,-1.5843629837036133
1471,152100.0,1.6418237686157229,-7.544129371643066,-1.236605167388916
1472,152200.0,1.6418237686157229,-7.544129371643066,-1.236605167388916
1473,152300.0,1.2868833541870115,-5.455787181854248,-1.8112136125564573
1474,152400.0,1.2868833541870115,-5.455787181854248,-1.8112136125564573
1475,152500.0,-2.071583032608032,-9.441534042358398,0.05027823522686958
1476,152600.0,1.7627309560775757,-9.134477615356444,0.3345896899700165
1477,152700.0,1.7627309560775757,-9.134477615356444,0.3345896899700165
1478,152800.0,0.6811503767967224,-9.238027572631836,-2.673126220703125
1479,152900.0,0.6811503767967224,-9.238027572631836,-2.673126220703125
1480,153000.0,-0.8068459630012512,-10.274118423461914,-0.6302735805511475
1481,153100.0,-0.8068459630012512,-10.274118423461914,-0.6302735805511475
1482,153200.0,1.2282254695892334,-11.602899551391602,-0.3902548849582672
1483,153300.0,1.2282254695892334,-11.602899551391602,-0.3902548849582672
1484,153400.0,2.2158336639404297,-8.265382766723633,0.9911994934082032
1485,153500.0,5.063138008117676,-7.905055522918701,2.737769603729248
1486,153600.0,5.063138008117676,-7.905055522918701,2.737769603729248
1487,153700.0,0.3220201432704925,-8.520963668823242,1.301847219467163
1488,153800.0,0.3220201432704925,-8.520963668823242,1.301847219467163
1489,153900.0,4.419097900390625,-12.062586784362793,-0.959476351737976
1490,154000.0,4.419097900390625,-12.062586784362793,-0.959476351737976
1491,154100.0,0.9487023949623108,-10.612897872924805,-2.1080946922302246
1492,154200.0,0.9487023949623108,-10.612897872924805,-2.1080946922302246
1493,154300.0,-0.9822212457656859,-9.713874816894533,-1.3186066150665283
1494,154400.0,1.9309237003326416,-9.757569313049316,0.16579847037792206
1495,154500.0,1.9309237003326416,-9.757569313049316,0.16579847037792206
1496,154600.0,1.4053963422775269,-9.804854393005373,-1.158793568611145
1497,154700.0,1.4053963422775269,-9.804854393005373,-1.158793568611145
1498,154800.0,-0.0347159244120121,-9.808445930480957,-2.0578162670135502
1499,154900.0,-0.0347159244120121,-9.808445930480957,-2.0578162670135502
1500,155000.0,-0.14425064623355865,-9.84615421295166,-1.40180504322052
1501,155100.0,-0.14425064623355865,-9.84615421295166,-1.40180504322052
1502,155200.0,1.394023895263672,-9.269750595092773,-1.0342950820922852
1503,155300.0,-0.03711012750864029,-9.802460670471193,-1.7944542169570925
1504,155400.0,-0.03711012750864029,-9.802460670471193,-1.7944542169570925
1505,155500.0,1.8974047899246216,-9.685144424438477,-1.9937714338302608
1506,155600.0,1.8974047899246216,-9.685144424438477,-1.9937714338302608
1507,155700.0,0.8433575630187988,-10.022128105163574,0.020949264988303185
1508,155800.0,0.8433575630187988,-10.022128105163574,0.020949264988303185
1509,155900.0,0.12509703636169436,-8.697536468505861,0.2675520479679108
1510,156000.0,0.12509703636169436,-8.697536468505861,0.2675520479679108
1511,156100.0,5.337872505187988,-10.353126525878906,1.994369983673096
1512,156200.0,-0.27054479718208313,-9.201516151428224,0.4991910457611084
1513,156300.0,-0.27054479718208313,-9.201516151428224,0.4991910457611084
1514,156400.0,1.834557056427002,-8.735843658447267,-1.869871497154236
1515,156500.0,1.834557056427002,-8.735843658447267,-1.869871497154236
1516,156600.0,4.1455602645874015,-8.078036308288574,-0.669179379940033
1517,156700.0,4.1455602645874015,-8.078036308288574,-0.669179379940033
1518,156800.0,2.8119897842407227,-11.982380867004395,-1.2946646213531494
1519,156900.0,2.8119897842407227,-11.982380867004395,-1.2946646213531494
1520,157000.0,-3.8073792457580566,-10.602123260498047,-1.6633716821670532
1521,157100.0,-0.05147533491253853,-10.389039993286133,0.8373720645904541
1522,157200.0,-0.05147533491253853,-10.389039993286133,0.8373720645904541
1523,157300.0,-0.4357447028160095,-9.595361709594727,-1.1887211799621582
1524,157400.0,-0.4357447028160095,-9.595361709594727,-1.1887211799621582
1525,157500.0,8.44434928894043,-6.613383769989014,1.2330138683319092
1526,157600.0,8.44434928894043,-6.613383769989014,1.2330138683319092
1527,157700.0,1.711255669593811,-8.780735015869139,-0.2693476974964142
1528,157800.0,1.711255669593811,-8.780735015869139,-0.2693476974964142
1529,157900.0,3.192667961120605,-8.709506988525389,0.13407529890537262
1530,158000.0,6.115988254547119,-10.830171585083008,1.8112136125564573
1531,158100.0,6.115988254547119,-10.830171585083008,1.8112136125564573
1532,158200.0,0.2914940714836121,-11.185709953308104,-2.3744494915008545
1533,158300.0,0.2914940714836121,-11.185709953308104,-2.3744494915008545
1534,158400.0,-3.1729156970977783,-9.497200012207033,-1.7818846702575684
1535,158500.0,-3.1729156970977783,-9.497200012207033,-1.7818846702575684
1536,158600.0,-0.3681085109710693,-9.06863784790039,-1.675342679023743
1537,158700.0,-0.3681085109710693,-9.06863784790039,-1.675342679023743
1538,158800.0,-0.4459200799465179,-15.143924713134766,-3.1920695304870605
1539,158900.0,4.036623954772948,-7.525574684143066,-1.953668594360352
1540,159000.0,4.036623954772948,-7.525574684143066,-1.953668594360352
1541,159100.0,2.1487960815429688,-9.834183692932127,-1.6561890840530396
1542,159200.0,2.1487960815429688,-9.834183692932127,-1.6561890840530396
1543,159300.0,-0.9558850526809692,-10.742782592773438,5.7514710426330575
1544,159400.0,-0.9558850526809692,-10.742782592773438,5.7514710426330575
1545,159500.0,3.7888240814208975,-9.496601104736328,-3.046621561050415
1546,159600.0,3.7888240814208975,-9.496601104736328,-3.046621561050415
1547,159700.0,-1.3425486087799072,-10.30703830718994,-0.9032126069068908
1548,159800.0,3.839102506637573,-10.59075164794922,3.206434726715088
1549,159900.0,3.839102506637573,-10.59075164794922,3.206434726715088
1550,160000.0,2.7473464012146,-8.42699146270752,-0.5111620426177979
1551,160100.0,2.7473464012146,-8.42699146270752,-0.5111620426177979
1552,160200.0,3.4805707931518555,-8.290521621704103,-0.8403648138046265
1553,160300.0,3.4805707931518555,-8.290521621704103,-0.8403648138046265
1554,160400.0,6.904877662658691,-8.738836288452147,-1.6226701736450195
1555,160500.0,6.904877662658691,-8.738836288452147,-1.6226701736450195
1556,160600.0,3.225588321685791,-7.617751121520996,-1.9512743949890137
1557,160700.0,3.225588321685791,-7.617751121520996,-1.9512743949890137
1558,160800.0,4.958990097045898,-9.658209800720217,-0.18614917993545527
1559,160900.0,4.171896457672118,-9.21588134765625,-3.9552211761474614
1560,161000.0,4.171896457672118,-9.21588134765625,-3.9552211761474614
1561,161100.0,-1.148618221282959,-10.566210746765137,-1.2054805755615234
1562,161200.0,-1.148618221282959,-10.566210746765137,-1.2054805755615234
1563,161300.0,-1.9584569931030276,-9.84376049041748,-0.8571242094039917
1564,161400.0,-1.9584569931030276,-9.84376049041748,-0.8571242094039917
1565,161500.0,-0.6500257849693298,-10.139444351196287,-0.5428852438926697
1566,161600.0,-0.6500257849693298,-10.139444351196287,-0.5428852438926697
1567,161700.0,0.6518214344978333,-12.245144844055176,5.081094741821289
1568,161800.0,-0.15143325924873352,-7.284358501434326,-0.23942017555236814
1569,161900.0,-0.15143325924873352,-7.284358501434326,-0.23942017555236814
1570,162000.0,-0.5979518890380859,-9.43135929107666,-0.3148375153541565
1571,162100.0,-0.5979518890380859,-9.43135929107666,-0.3148375153541565
1572,162200.0,-1.5059528350830078,-8.086416244506836,-2.1553800106048584
1573,162300.0,-1.5059528350830078,-8.086416244506836,-2.1553800106048584
1574,162400.0,-0.19033902883529666,-9.37389850616455,-0.5452794432640076
1575,162500.0,0.7799112200737,-8.956110000610352,-0.2148796021938324
1576,162600.0,0.7799112200737,-8.956110000610352,-0.2148796021938324
1577,162700.0,-0.4016273319721222,-9.643245697021484,-0.6877344250679016
1578,162800.0,-0.4016273319721222,-9.643245697021484,-0.6877344250679016
1579,162900.0,0.8439561128616333,-9.965266227722168,-0.4926069974899292
1580,163000.0,0.8439561128616333,-9.965266227722168,-0.4926069974899292
1581,163100.0,-0.22206220030784607,-9.583989143371582,-1.3096283674240112
1582,163200.0,-0.22206220030784607,-9.583989143371582,-1.3096283674240112
1583,163300.0,0.29388827085494995,-9.801861763000488,-1.1037269830703735
1584,163400.0,0.29388827085494995,-9.801861763000488,-1.1037269830703735
1585,163500.0,5.294178485870361,-9.466673851013184,-1.8315643072128296
1586,163600.0,2.5498247146606445,-10.47044277191162,3.228580951690674
1587,163700.0,2.5498247146606445,-10.47044277191162,3.228580951690674
1588,163800.0,2.716820478439331,-8.819640159606934,-0.27653029561042786
1589,163900.0,2.716820478439331,-8.819640159606934,-0.27653029561042786
1590,164000.0,5.067926406860352,-7.687781810760497,1.6035165786743164
1591,164100.0,5.067926406860352,-7.687781810760497,1.6035165786743164
1592,164200.0,1.4532804489135742,-11.382035255432127,-2.321777105331421
1593,164300.0,0.5165489912033081,-8.536525726318361,0.15143325924873352
1594,164400.0,0.5165489912033081,-8.536525726318361,0.15143325924873352
1595,164500.0,1.4664485454559326,-9.821015357971193,-0.28311434388160706
1596,164600.0,1.4664485454559326,-9.821015357971193,-0.28311434388160706
1597,164700.0,3.1076738834381104,-10.055048942565918,2.321777105331421
1598,164800.0,3.1076738834381104,-10.055048942565918,2.321777105331421
1599,164900.0,2.8760347366333012,-7.48726749420166,-0.902015507221222
1600,165000.0,2.8760347366333012,-7.48726749420166,-0.902015507221222
1601,165100.0,6.341641902923584,-7.407061576843263,-0.33339259028434753
1602,165200.0,2.9676129817962646,-8.076240539550781,-0.557250440120697
1603,165300.0,2.9676129817962646,-8.076240539550781,-0.557250440120697
1604,165400.0,5.698798656463622,-8.816049575805664,-2.8628666400909424
1605,165500.0,5.698798656463622,-8.816049575805664,-2.8628666400909424
1606,165600.0,2.431910276412964,-9.211690902709961,-1.1976994276046753
1607,165700.0,2.431910276412964,-9.211690902709961,-1.1976994276046753
1608,165800.0,3.8953661918640137,-8.649053573608397,-0.9852139949798584
1609,165900.0,3.8953661918640137,-8.649053573608397,-0.9852139949798584
1610,166000.0,3.5158851146698,-8.65623664855957,-1.6412252187728882
1611,166100.0,3.5158851146698,-8.65623664855957,-1.6412252187728882
1612,166200.0,3.9360675811767583,-8.928576469421387,1.513733983039856
1613,166300.0,2.5576059818267822,-9.658807754516602,-0.3387795388698578
1614,166400.0,2.5576059818267822,-9.658807754516602,-0.3387795388698578
1615,166500.0,2.781463861465454,-9.242217063903807,0.4920084476470947
1616,166600.0,2.781463861465454,-9.242217063903807,0.4920084476470947
1617,166700.0,1.6639702320098877,-8.444948196411133,0.7457938194274902
1618,166800.0,1.6639702320098877,-8.444948196411133,0.7457938194274902
1619,166900.0,2.928108692169189,-15.055338859558105,-1.394023895263672
1620,167000.0,2.928108692169189,-15.055338859558105,-1.394023895263672
1621,167100.0,3.5859155654907227,-8.106766700744629,-0.6973112225532532
1622,167200.0,0.4770447015762329,-9.408614158630373,-1.9919757843017576
1623,167300.0,0.4770447015762329,-9.408614158630373,-1.9919757843017576
1624,167400.0,1.6927006244659424,-10.010157585144043,-2.4223334789276123
1625,167500.0,1.6927006244659424,-10.010157585144043,-2.4223334789276123
1626,167600.0,2.683900117874145,-7.346607685089111,-1.6196774244308472
1627,167700.0,2.683900117874145,-7.346607685089111,-1.6196774244308472
1628,167800.0,3.059789657592773,-6.231508255004883,1.5652093887329102
1629,167900.0,3.059789657592773,-6.231508255004883,1.5652093887329102
1630,168000.0,2.3517045974731445,-10.92534065246582,-2.985569477081299
1631,168100.0,0.3435679376125336,-9.487024307250977,-0.30286651849746704
1632,168200.0,0.3435679376125336,-9.487024307250977,-0.30286651849746704
1633,168300.0,1.895010590553284,-11.550826072692873,-0.8553285598754883
1634,168400.0,1.895010590553284,-11.550826072692873,-0.8553285598754883
1635,168500.0,0.6548141837120056,-9.28531265258789,-1.0456676483154297
1636,168600.0,0.6548141837120056,-9.28531265258789,-1.0456676483154297
1637,168700.0,0.5542576909065247,-10.055646896362305,0.2495955228805542
1638,168800.0,0.5542576909065247,-10.055646896362305,0.2495955228805542
1639,168900.0,0.35913026332855225,-9.28531265258789,-1.2395979166030884
1640,169000.0,-2.455852508544922,-9.75397777557373,-0.1125274822115898
1641,169100.0,-2.455852508544922,-9.75397777557373,-0.1125274822115898
1642,169200.0,1.9500772953033447,-9.799467086791992,-1.5406688451766968
1643,169300.0,1.9500772953033447,-9.799467086791992,-1.5406688451766968
1644,169400.0,2.806602954864502,-9.006388664245605,-1.874659895896912
1645,169500.0,2.806602954864502,-9.006388664245605,-1.874659895896912
1646,169600.0,2.11946702003479,-10.368090629577637,2.603694438934326
1647,169700.0,2.11946702003479,-10.368090629577637,2.603694438934326
1648,169800.0,3.9193081855773926,-8.627506256103517,0.6314706802368164
1649,169900.0,2.7102363109588623,-8.745420455932617,-1.7160440683364868
1650,170000.0,2.7102363109588623,-8.745420455932617,-1.7160440683364868
1651,170100.0,3.202843427658081,-8.984241485595703,-2.190694570541382
1652,170200.0,3.202843427658081,-8.984241485595703,-2.190694570541382
1653,170300.0,6.254253387451173,-7.4310035705566415,2.364872694015503
1654,170400.0,6.254253387451173,-7.4310035705566415,2.364872694015503
1655,170500.0,4.0354270935058585,-7.159860134124756,3.522469282150269
1656,170600.0,4.0354270935058585,-7.159860134124756,3.522469282150269
1657,170700.0,6.586448669433594,-11.423933029174805,-4.005499362945557
1658,170800.0,-1.2330138683319092,-12.54561710357666,-1.6178817749023438
1659,170900.0,-1.2330138683319092,-12.54561710357666,-1.6178817749023438
1660,171000.0,1.3718775510787964,-8.91540813446045,-1.4640543460845947
1661,171100.0,1.3718775510787964,-8.91540813446045,-1.4640543460845947
1662,171200.0,2.795829057693481,-8.320449829101562,-2.0949265956878658
1663,171300.0,2.795829057693481,-8.320449829101562,-2.0949265956878658
1664,171400.0,-0.9068039059638976,-11.961431503295898,-2.1894974708557133
1665,171500.0,-0.9068039059638976,-11.961431503295898,-2.1894974708557133
1666,171600.0,-1.5735890865325928,-8.81784439086914,-1.68970787525177
1667,171700.0,4.089296340942384,-8.298901557922362,1.183334231376648
1668,171800.0,4.089296340942384,-8.298901557922362,1.183334231376648
1669,171900.0,1.1186907291412354,-9.12071132659912,1.2389993667602541
1670,172000.0,1.1186907291412354,-9.12071132659912,1.2389993667602541
1671,172100.0,1.4820108413696291,-9.187748908996582,0.8457517623901367
1672,172200.0,1.4820108413696291,-9.187748908996582,0.8457517623901367
1673,172300.0,5.536591529846191,-12.16553783416748,-1.0863690376281738
1674,172400.0,5.536591529846191,-12.16553783416748,-1.0863690376281738
1675,172500.0,1.247977614402771,-7.2364745140075675,-0.7080851793289185
1676,172600.0,-1.7830817699432373,-9.546878814697266,-1.3581109046936035
1677,172700.0,-1.7830817699432373,-9.546878814697266,-1.3581109046936035
1678,172800.0,2.0961236953735347,-9.005789756774902,-1.0157400369644165
1679,172900.0,2.0961236953735347,-9.005789756774902,-1.0157400369644165
1680,173000.0,-0.812831461429596,-10.137648582458496,-3.1184477806091313
1681,173100.0,-0.812831461429596,-10.137648582458496,-3.1184477806091313
1682,173200.0,0.8379706144332886,-10.573392868041992,3.493738889694214
1683,173300.0,0.8379706144332886,-10.573392868041992,3.493738889694214
1684,173400.0,3.4847605228424072,-9.475052833557127,-2.1057004928588867
1685,173500.0,3.339911460876465,-8.718485832214355,-2.475006103515625
1686,173600.0,3.339911460876465,-8.718485832214355,-2.475006103515625
1687,173700.0,2.121262788772583,-9.391854286193848,1.7854759693145752
1688,173800.0,2.121262788772583,-9.391854286193848,1.7854759693145752
1689,173900.0,3.4332852363586426,-8.8878755569458,0.13287819921970367
1690,174000.0,3.4332852363586426,-8.8878755569458,0.13287819921970367
1691,174100.0,3.7936124801635738,-9.339181900024414,-2.1128830909729004
1692,174200.0,3.7936124801635738,-9.339181900024414,-2.1128830909729004
1693,174300.0,2.958036184310913,-9.111733436584473,-1.981800436973572
1694,174400.0,1.282094955444336,-10.76852035522461,0.5662286877632141
