timestamp,ax,ay,az
1477399889679,-1.7196353673934937,7.4333977699279785,5.805340766906738
1477399889828,-2.470816135406494,7.691372871398926,5.825092792510986
1477399890010,-2.5486276149749756,8.066065788269043,5.33547830581665
1477399890190,-7.215525150299072,3.2998085021972656,5.109825134277344
1477399890372,-5.383961200714111,4.971560001373291,5.9753289222717285
1477399890553,-6.818686485290527,1.7693150043487549,7.436988830566406
1477399890734,-2.8814218044281006,7.711723804473877,5.944802761077881
1477399890914,-6.633135795593262,-9.692925453186035,4.017470359802246
1477399891094,-6.601412773132324,-1.4419080018997192,7.431003570556641
1477399891271,-6.584054470062256,-0.04668693244457245,6.411073684692383
1477399891454,-6.514024257659912,-0.6009446382522583,6.75883150100708
1477399891648,-6.114790916442871,-0.4908113479614258,7.134721279144287
1477399891814,-6.599018573760986,-0.8421604633331299,7.3681559562683105
1477399891993,-6.7061591148376465,-1.2443863153457642,7.124545574188232
1477399892174,-5.6676740646362305,-0.31364041566848755,7.2334818840026855
1477399892352,-6.356007099151611,-0.4345476031303406,7.04673433303833
1477399892533,-6.3949127197265625,-0.5363011956214905,7.227496147155762
1477399892711,-5.962160587310791,-0.7547720670700073,7.333439826965332
1477399892894,-6.099827289581299,-0.5871779918670654,7.374141216278076
1477399893074,-6.004657745361328,-0.6530185341835022,7.286752700805664
1477399893252,-5.980715751647949,-0.7134721279144287,7.313088893890381
1477399893434,-5.959167957305908,-0.6853402256965637,7.350199222564697
1477399893615,-6.151302814483643,-0.6775590777397156,7.289146900177002
1477399893793,-5.991489887237549,-0.6374561786651611,7.094019412994385
1477399893976,-5.988496780395508,-0.6853402256965637,7.295731067657471
1477399894158,-6.129755020141602,-0.7230489253997803,7.253233909606934
1477399894333,-5.8622026443481445,-0.6572083830833435,7.416638374328613
1477399894518,-6.30752420425415,-0.6937199234962463,7.225700855255127
1477399894693,-5.947795391082764,-0.618302583694458,7.268796443939209
1477399894879,-6.086060523986816,-0.6673837304115295,7.282563209533691
1477399895059,-6.099228858947754,-0.6877344250679016,7.217320919036865
1477399895237,-5.950788497924805,-0.6021417379379272,7.31967306137085
1477399895419,-6.010045051574707,-0.7266402244567871,7.3220672607421875
1477399895599,-6.036979675292969,-0.669179379940033,7.315483093261719
1477399895775,-6.013636112213135,-0.679354727268219,7.360374450683594
1477399895959,-6.00226354598999,-0.6709750294685364,7.316680431365967
1477399896139,-6.013636112213135,-0.6506243348121643,7.350199222564697
1477399896315,-6.023212909698486,-0.6584054827690125,7.350199222564697
1477399896499,-5.978919982910156,-0.67815762758255,7.376535415649414
1477399896715,-6.0184245109558105,-0.6847416758537292,7.284957408905029
1477399896855,-6.015431880950928,-0.8271966576576233,7.3687543869018555
1477399897040,-6.035782337188721,-0.6865373253822327,7.3472065925598145
1477399897220,-6.02919864654541,-0.6991068720817566,7.380725383758545
1477399897401,-6.019621849060059,-0.6973112225532532,7.319074630737305
1477399897581,-6.008847713470459,-0.6805518269538879,7.361571788787842
1477399897760,-6.045359134674072,-0.767341673374176,7.404667377471924
1477399897941,-6.179434776306152,-0.5997475385665894,7.384915351867676
1477399898122,-6.003460884094238,-0.7523778676986694,7.401075839996338
1477399898297,-6.068104267120361,-0.6913257241249084,7.406463146209717
1477399898482,-5.998073577880859,-0.6775590777397156,7.389104843139648
1477399898660,-5.992686748504639,-0.6572083830833435,7.350199222564697
1477399898837,-6.04655647277832,-0.6667851805686951,7.395689010620117
1477399899022,-5.95677375793457,-0.45190557837486267,7.196371555328369
1477399899202,-6.051344871520996,-0.5662286877632141,7.3693528175354
1477399899382,-6.004657745361328,-0.6769605278968811,7.305906295776367
1477399899562,-6.057330131530762,-0.6643909811973572,7.3651628494262695
1477399899738,-5.996278285980225,-0.6230909824371338,7.3472065925598145
1477399899923,-6.030993938446045,-0.6374561786651611,7.350199222564697
1477399900103,-6.007051944732666,-0.6266822814941406,7.331045627593994
1477399900283,-5.9753289222717285,-0.629675030708313,7.364564418792725
1477399900463,-6.0411696434021,-0.6111199855804443,7.354987621307373
1477399900643,-5.980715751647949,-0.6590040326118469,7.360973358154297
1477399900823,-6.0184245109558105,-0.6075286865234375,7.363367557525635
1477399901003,-5.990890979766846,-0.6009446382522583,7.326855659484863
1477399901184,-5.9753289222717285,-0.6386532783508301,7.35319185256958
1477399901360,-6.012439250946045,-0.6853402256965637,7.322665691375732
1477399901544,-5.996278285980225,-0.5656301379203796,7.357980251312256
1477399901724,-5.999869346618652,-0.645237386226654,7.36396598815918
1477399901900,-5.964554786682129,-0.6254851818084717,7.3436150550842285
1477399902084,-5.960963726043701,-0.6560112833976746,7.331644058227539
1477399902265,-5.992686748504639,-0.6159083843231201,7.340023994445801
1477399902441,-6.004657745361328,-0.6093243360519409,7.342418193817139
1477399902625,-5.948992729187012,-0.6530185341835022,7.360973358154297
1477399902804,-5.987898349761963,-0.6476315855979919,7.346607685089111
1477399902985,-5.9956793785095215,-0.6087257862091064,7.350199222564697
1477399903166,-6.024410247802734,-0.639850378036499,7.350199222564697
1477399903342,-5.963956356048584,-0.6099228858947754,7.315483093261719
1477399903526,-5.9753289222717285,-0.586579442024231,7.303512096405029
1477399903706,-5.966948986053467,-0.6159083843231201,7.35319185256958
1477399903882,-6.037578105926514,-0.6769605278968811,7.335235595703125
1477399904067,-5.970540523529053,-0.5674257874488831,7.317877292633057
1477399904247,-5.8855462074279785,-0.6470330357551575,7.373542785644531
1477399904422,-6.028599739074707,-0.6446388363838196,7.269993305206299
1477399904608,-5.969942092895508,-0.6332663297653198,7.356184959411621
1477399904792,-5.965153694152832,-0.6260837316513062,7.3202714920043945
1477399904963,-6.009446144104004,-0.6356605291366577,7.362170219421387
1477399905148,-6.010643482208252,-0.6542156338691711,7.378929615020752
1477399905329,-6.0202202796936035,-0.6733692288398743,7.354987621307373
1477399905508,-5.903502941131592,-0.5758054852485657,7.364564418792725
1477399905687,-6.1082072257995605,-0.6602011322975159,7.3472065925598145
1477399905865,-5.894524574279785,-0.48602294921875,7.2340803146362305
1477399906049,-6.115389823913574,-0.7194576263427734,7.572859764099121
1477399906252,-6.388328552246094,-0.6356605291366577,7.491456985473633
1477399906403,-5.954977989196777,-0.6572083830833435,7.461529731750488
1477399906590,-5.919064998626709,-0.7104793787002563,7.418434143066406
1477399906765,-5.985504150390625,-0.6817489266395569,7.383718013763428
1477399906944,-5.954977989196777,-0.7092822790145874,7.405864238739014
1477399907130,-5.796960830688477,-0.6937199234962463,7.436988830566406
1477399907310,-5.938218593597412,-0.6727706789970398,7.399878978729248
1477399907488,-5.921459197998047,-0.6224924325942993,7.317278861999512
1477399907664,-5.969343185424805,-0.6560112833976746,7.360973358154297
1477399907850,-6.033987045288086,-0.7326257228851318,7.377133846282959
1477399908026,-5.977723121643066,-0.6961141228675842,7.310096263885498
1477399908210,-5.960365295410156,-0.6045359373092651,7.375936985015869
1477399908391,-5.966948986053467,-0.6362590789794922,7.4986395835876465
1477399908588,-5.975927352905273,-0.5758054852485657,7.364564418792725
1477399908751,-5.991489887237549,-0.7918822169303894,7.477690696716309
1477399908927,-6.09204626083374,-0.6177040338516235,7.328651428222656
1477399909167,-6.037578105926514,-0.6703764796257019,7.474099159240723
1477399909292,-5.938218593597412,-0.6027402877807617,7.375936985015869
1477399909467,-5.900510311126709,-0.5297171473503113,7.3920979499816895
1477399909650,-5.977723121643066,-0.6625953316688538,7.287351608276367
1477399909832,-5.9322333335876465,-0.646434485912323,7.305307865142822
1477399910010,-5.985504150390625,-0.6703764796257019,7.402871608734131
1477399910192,-5.950189590454102,-0.657806932926178,7.375338554382324
1477399910372,-5.980117321014404,-0.6338648796081543,7.389104843139648
1477399910553,-5.790376663208008,-0.45848962664604187,7.407061576843262
1477399910733,-6.124966621398926,-0.7164648771286011,7.400477409362793
1477399910910,-5.782595634460449,-0.6859387755393982,7.370550155639648
1477399911092,-6.142324447631836,-0.5716156363487244,7.187992095947266
1477399911273,-6.007051944732666,-0.6871358752250671,7.400477409362793
1477399911449,-5.950788497924805,-0.6422445774078369,7.448361396789551
1477399911632,-5.68084192276001,-0.619499683380127,7.650671482086182
1477399911809,-6.271012783050537,-0.67815762758255,7.30650520324707
1477399911990,-5.898116111755371,-0.6428431272506714,7.541136741638184
1477399912170,-5.7125654220581055,-0.6308721303939819,7.42561674118042
1477399912350,-5.898714542388916,-0.6320692300796509,7.402273178100586
1477399912530,-5.858013153076172,-0.6236895322799683,7.450755596160889
1477399912711,-5.878363609313965,-0.6326677799224854,7.443572998046875
1477399912891,-5.932831764221191,-0.6751648783683777,7.469909191131592
1477399913071,-5.826289653778076,-0.6356605291366577,7.417835235595703
1477399913251,-5.87896203994751,-0.6542156338691711,7.457938194274902
1477399913431,-5.84963321685791,-0.6500257849693298,7.457938194274902
1477399913611,-5.84843635559082,-0.6242880821228027,7.452551364898682
1477399913794,-5.880757808685303,-0.6362590789794922,7.416638374328613
1477399913971,-5.826289653778076,-0.67815762758255,7.462128162384033
1477399914156,-5.878363609313965,-0.6494272351264954,7.420828342437744
1477399914336,-5.845443248748779,-0.6308721303939819,7.468712329864502
1477399914512,-5.838260650634766,-0.7056909799575806,7.469310760498047
1477399914713,-5.8657941818237305,-0.6518214344978333,7.452551364898682
1477399914877,-5.868188381195068,-0.6260837316513062,7.415441036224365
1477399915057,-5.941810131072998,-0.7631517648696899,7.553107738494873
1477399915237,-5.71436071395874,-0.3842693865299225,7.277774810791016
1477399915414,-5.880757808685303,-0.5159504413604736,7.2586212158203125
1477399915598,-5.764040470123291,-0.6715735793113708,7.243657112121582
1477399915778,-5.400720596313477,-0.36332011222839355,7.684788703918457
1477399915953,-6.493074893951416,-0.7523778676986694,7.340622425079346
1477399916139,-5.343259811401367,-0.5285200476646423,8.117541313171387
1477399916316,-6.378153324127197,-0.9217676520347595,7.222707748413086
1477399916493,-5.681440830230713,-0.52552729845047,7.535749912261963
1477399916680,-6.01303768157959,-0.6446388363838196,7.3687543869018555
1477399916856,-5.755062103271484,-0.5626373887062073,7.372944355010986
1477399917039,-5.635950565338135,-0.4770447015762329,7.5632829666137695
1477399917219,-6.201581001281738,-0.5099649429321289,7.344213485717773
1477399917398,-5.893327713012695,-0.6985083222389221,7.577049732208252
1477399917579,-5.907692909240723,-0.5566518902778625,7.444770336151123
1477399917758,-5.949591159820557,-0.5315127968788147,7.437587738037109
1477399917938,-5.880159378051758,-0.669179379940033,7.466318130493164
1477399918146,-5.889736175537109,-0.5728127360343933,7.4316020011901855
1477399918300,-5.915473937988281,-0.6362590789794922,7.444770336151123
1477399918475,-5.93941593170166,-0.6488286852836609,7.423222541809082
1477399918659,-5.84963321685791,-0.5536591410636902,7.396287441253662
1477399918843,-6.0010666847229,-0.7296329736709595,7.720701694488525
1477399919016,-5.92325496673584,-0.6925228238105774,7.432799339294434
1477399919199,-5.826289653778076,-0.6799532771110535,7.466318130493164
1477399919381,-5.828085422515869,-0.6673837304115295,7.428010940551758
1477399919556,-5.8406548500061035,-0.7535749673843384,7.461529731750488
1477399919741,-5.880757808685303,-0.6925228238105774,7.424419403076172
1477399919918,-5.759252071380615,-0.6859387755393982,7.456142425537109
1477399920096,-5.864596843719482,-0.6554127335548401,7.440580368041992
1477399920282,-5.804741859436035,-0.7272387742996216,7.44297456741333
1477399920460,-5.78678560256958,-0.7098808288574219,7.458536624908447
1477399920642,-5.765237808227539,-0.6745663285255432,7.50582218170166
1477399920817,-5.8873419761657715,-0.7667431235313416,7.420828342437744
1477399920998,-5.836465358734131,-0.6338648796081543,7.4333977699279785
1477399921180,-5.8029465675354,-0.6757634282112122,7.463325023651123
1477399921363,-5.8622026443481445,-0.6314706802368164,7.46033239364624
1477399921538,-5.843049049377441,-0.6979097723960876,7.440580368041992
1477399921723,-5.768828868865967,-0.7206547260284424,7.457339763641357
1477399921903,-5.835866451263428,-0.6290764808654785,7.491456985473633
1477399922080,-5.859210014343262,-0.6883329749107361,7.452551364898682
1477399922263,-5.827486991882324,-0.7763199210166931,7.483077526092529
1477399922444,-5.917868137359619,-0.7182605266571045,7.378929615020752
1477399922624,-5.852625846862793,-0.568622887134552,7.413046836853027
1477399922804,-5.900510311126709,-0.6236895322799683,7.42681360244751
1477399922980,-5.8442463874816895,-0.6500257849693298,7.44297456741333
1477399923162,-5.950189590454102,-0.6997054219245911,7.450157165527344
1477399923344,-6.0220160484313965,-0.5500678420066833,7.517194747924805
1477399923520,-5.743690013885498,-0.657806932926178,7.648875713348389
1477399923705,-5.922656536102295,-0.6619967818260193,7.380126953125
1477399923903,-5.826888561248779,-0.6613982319831848,7.450755596160889
1477399924060,-5.874173641204834,-0.7110779285430908,7.4782891273498535
1477399924244,-5.799953460693359,-0.6841431260108948,7.450157165527344
1477399924425,-5.7975592613220215,-0.6727706789970398,7.506421089172363
1477399924605,-5.852625846862793,-0.6715735793113708,7.448361396789551
1477399924785,-5.835268020629883,-0.6548141837120056,7.466318130493164
1477399924966,-5.796960830688477,-0.6757634282112122,7.412448406219482
1477399925144,-5.8622026443481445,-0.5877765417098999,7.447762966156006
1477399925326,-5.8436479568481445,-0.6829460263252258,7.452551364898682
1477399925509,-5.789179801940918,-0.667982280254364,7.457339763641357
1477399925687,-5.9555768966674805,-0.7577648162841797,7.350797653198242
1477399925867,-5.948992729187012,-0.6189011335372925,7.39748477935791
1477399926042,-5.783792972564697,-0.6757634282112122,7.358579158782959
1477399926227,-5.792770862579346,-0.7230489253997803,7.438784599304199
1477399926408,-5.832873821258545,-0.6326677799224854,7.4752960205078125
1477399926583,-5.8885393142700195,-0.6200982332229614,7.417236804962158
1477399926768,-5.835268020629883,-0.6913257241249084,7.484274387359619
1477399926942,-5.781997203826904,-0.6931213736534119,7.46033239364624
1477399927126,-5.846640586853027,-0.6542156338691711,7.4567413330078125
1477399927307,-5.838260650634766,-0.6697779297828674,7.415441036224365
1477399927489,-5.817910194396973,-0.6613982319831848,7.472901821136475
1477399927669,-5.846640586853027,-0.6392518281936646,7.457938194274902
1477399927849,-5.81491756439209,-0.6871358752250671,7.464522361755371
1477399928025,-5.811924457550049,-0.6787561774253845,7.448361396789551
1477399928210,-5.832275390625,-0.6643909811973572,7.46033239364624
1477399928388,-5.84843635559082,-0.6637924313545227,7.454347133636475
1477399928565,-5.793369770050049,-0.656609833240509,7.4782891273498535
1477399928748,-5.829282760620117,-0.669179379940033,7.445368766784668
1477399928926,-5.78678560256958,-0.6859387755393982,7.4555439949035645
1477399929105,-5.826289653778076,-0.6901286244392395,7.471704959869385
1477399929290,-5.873575210571289,-0.6380547285079956,7.471704959869385
1477399929470,-5.796362400054932,-0.6811503767967224,7.441777229309082
1477399929649,-5.835866451263428,-0.6530185341835022,7.4351935386657715
1477399929829,-5.811326026916504,-0.7182605266571045,7.471704959869385
1477399930005,-5.846042156219482,-0.6925228238105774,7.4567413330078125
1477399930189,-5.853224754333496,-0.6326677799224854,7.456142425537109
1477399930371,-5.8209028244018555,-0.7116764783859253,7.495646953582764
1477399930547,-5.831676959991455,-0.6625953316688538,7.44297456741333
1477399930731,-5.837063789367676,-0.6739677786827087,7.484873294830322
1477399930910,-5.844844818115234,-0.6721721291542053,7.442376136779785
1477399931087,-5.847239017486572,-0.6805518269538879,7.459733963012695
1477399931270,-5.809530258178711,-0.6637924313545227,7.4555439949035645
1477399931452,-5.869984149932861,-0.6769605278968811,7.459733963012695
1477399931628,-5.858013153076172,-0.6799532771110535,7.4770917892456055
1477399931812,-5.826888561248779,-0.6590040326118469,7.452551364898682
1477399931992,-5.8657941818237305,-0.6739677786827087,7.421426773071289
1477399932173,-5.72633171081543,-0.6308721303939819,7.474099159240723
1477399932353,-5.863399982452393,-0.7817068696022034,7.482479095458984
1477399932530,-5.87896203994751,-0.7906851172447205,7.518392086029053
1477399932713,-5.707178115844727,-0.6165069341659546,7.258022308349609
1477399932893,-5.9537811279296875,-0.7032967209815979,7.331045627593994
1477399933069,-5.802347660064697,-0.5913678407669067,7.467514991760254
1477399933251,-5.605424880981445,-0.48243165016174316,7.3202714920043945
1477399933434,-5.836465358734131,-0.7571662664413452,7.290942668914795
1477399933609,-6.021417140960693,-0.6584054827690125,7.373542785644531
1477399933794,-5.728127479553223,-0.6506243348121643,7.487865924835205
1477399933974,-5.808931827545166,-0.6787561774253845,7.473500728607178
1477399934149,-5.786187171936035,-0.6745663285255432,7.5004353523254395
1477399934335,-5.8191070556640625,-0.7104793787002563,7.492654323577881
1477399934515,-5.771821975708008,-0.6619967818260193,7.507019519805908
1477399934695,-5.768828868865967,-0.6811503767967224,7.505223751068115
1477399934875,-5.784989833831787,-0.6757634282112122,7.497442722320557
1477399935055,-5.817910194396973,-0.7068880796432495,7.515997886657715
1477399935235,-5.7760114669799805,-0.7026981711387634,7.483077526092529
1477399935415,-5.786187171936035,-0.6811503767967224,7.473500728607178
1477399935595,-5.773018836975098,-0.7044938206672668,7.513603687286377
1477399935776,-5.819705963134766,-0.6811503767967224,7.508815288543701
1477399935953,-5.758055210113525,-0.6727706789970398,7.4764933586120605
1477399936130,-5.767632007598877,-0.6931213736534119,7.498041152954102
1477399936316,-5.805939197540283,-0.6404489278793335,7.478887557983398
1477399936497,-5.77062463760376,-0.690727174282074,7.5201873779296875
1477399936672,-5.827486991882324,-0.6428431272506714,7.557297706604004
1477399936859,-5.816712856292725,-0.6572083830833435,7.475894927978516
1477399937035,-5.7754130363464355,-0.639850378036499,7.472901821136475
1477399937215,-5.7305216789245605,-0.7284358739852905,7.486070156097412
1477399937398,-5.792172431945801,-0.6853402256965637,7.487865924835205
1477399937575,-5.789778232574463,-0.6147112846374512,7.51659631729126
1477399937759,-5.779603004455566,-0.6655880808830261,7.508216381072998
1477399937939,-5.805939197540283,-0.690727174282074,7.502829551696777
1477399938114,-5.772420406341553,-0.6865373253822327,7.5231804847717285
1477399938299,-5.78678560256958,-0.7080851793289185,7.536946773529053
1477399938479,-5.772420406341553,-0.6260837316513062,7.502231121063232
1477399938654,-5.790376663208008,-0.6841431260108948,7.51779317855835
1477399938839,-5.799953460693359,-0.7044938206672668,7.496844291687012
1477399939015,-5.771821975708008,-0.6787561774253845,7.522581577301025
1477399939194,-5.807136058807373,-0.6506243348121643,7.462128162384033
1477399939374,-5.673659324645996,-0.6841431260108948,7.457339763641357
1477399939555,-5.520430564880371,-0.6099228858947754,7.594407558441162
1477399939735,-6.158485412597656,-0.669179379940033,7.394492149353027
1477399939915,-5.787384033203125,-0.7667431235313416,7.666234016418457
1477399940094,-5.779603004455566,-0.6560112833976746,7.535151481628418
1477399940278,-5.813720226287842,-0.6787561774253845,7.565677165985107
1477399940460,-5.7089738845825195,-0.6482301354408264,7.4800848960876465
1477399940639,-5.796362400054932,-0.7032967209815979,7.5016326904296875
1477399940821,-5.7754130363464355,-0.6087257862091064,7.5016326904296875
1477399940996,-5.740098476409912,-0.6524199843406677,7.530363082885742
1477399941181,-5.850231647491455,-0.7146692276000977,7.478887557983398
1477399941361,-5.708375453948975,-0.6607996821403503,7.494450092315674
1477399941541,-5.813121795654297,-0.657806932926178,7.495646953582764
1477399941717,-5.8203043937683105,-0.6961141228675842,7.5417351722717285
1477399941900,-5.8005523681640625,-0.6757634282112122,7.4800848960876465
1477399942082,-5.773018836975098,-0.7146692276000977,7.503427982330322
1477399942256,-5.7772088050842285,-0.6416460275650024,7.50462532043457
1477399942442,-5.765237808227539,-0.6787561774253845,7.514202117919922
1477399942622,-5.789179801940918,-0.6685808300971985,7.515997886657715
1477399942802,-5.776610374450684,-0.67815762758255,7.484873294830322
1477399942982,-5.7526679039001465,-0.6111199855804443,7.534552574157715
1477399943161,-5.861005783081055,-0.7015010714530945,7.474697589874268
1477399943343,-5.740098476409912,-0.6356605291366577,7.502231121063232
1477399943523,-5.788581371307373,-0.6524199843406677,7.5435309410095215
1477399943699,-5.760449409484863,-0.6488286852836609,7.527968883514404
1477399943883,-5.780799865722656,-0.6727706789970398,7.524377346038818
1477399944061,-5.795165061950684,-0.6631938815116882,7.5213847160339355
1477399944239,-5.780799865722656,-0.6643909811973572,7.515997886657715
1477399944424,-5.762245178222656,-0.641047477722168,7.507019519805908
1477399944604,-5.838859558105469,-0.7110779285430908,7.498041152954102
1477399944780,-5.747879505157471,-0.6506243348121643,7.525574684143066
1477399944964,-5.738302707672119,-0.6961141228675842,7.504026889801025
1477399945144,-5.832873821258545,-0.6961141228675842,7.506421089172363
1477399945323,-5.7341132164001465,-0.6835445761680603,7.56208610534668
1477399945505,-5.792770862579346,-0.6590040326118469,7.528567314147949
1477399945683,-5.811326026916504,-0.545877993106842,7.492055892944336
1477399945865,-5.795165061950684,-0.646434485912323,7.638102054595947
1477399946045,-5.841253757476807,-0.6524199843406677,7.489661693572998
1477399946221,-5.78798246383667,-0.6332663297653198,7.524377346038818
1477399946406,-5.768230438232422,-0.6524199843406677,7.527968883514404
1477399946586,-5.8209028244018555,-0.6374561786651611,7.513004779815674
1477399946761,-5.784391403198242,-0.6165069341659546,7.530961513519287
1477399946945,-5.813720226287842,-0.6500257849693298,7.50582218170166
1477399947126,-5.724536418914795,-0.6260837316513062,7.4770917892456055
1477399947302,-5.780201435089111,-0.6554127335548401,7.501033782958984
1477399947487,-5.789179801940918,-0.6326677799224854,7.502231121063232
1477399947667,-5.743091106414795,-0.606930136680603,7.48846435546875
1477399947845,-5.759252071380615,-0.6697779297828674,7.497442722320557
1477399948025,-5.830479621887207,-0.6470330357551575,7.483077526092529
1477399948203,-5.78798246383667,-0.6242880821228027,7.545925140380859
1477399948388,-5.78798246383667,-0.6368576288223267,7.490260124206543
1477399948568,-5.777807235717773,-0.6308721303939819,7.507617950439453
1477399948744,-5.794566631317139,-0.6362590789794922,7.523778915405273
1477399948927,-5.783792972564697,-0.6302735805511475,7.503427982330322
1477399949107,-5.811326026916504,-0.6314706802368164,7.492654323577881
1477399949284,-5.750872611999512,-0.6476315855979919,7.511807918548584
1477399949469,-5.803544998168945,-0.6177040338516235,7.47230339050293
1477399949649,-5.785588264465332,-0.6003460884094238,7.477690696716309
1477399949824,-5.731719017028809,-0.6236895322799683,7.534552574157715
1477399950009,-5.847837448120117,-0.6350619792938232,7.5016326904296875
1477399950189,-5.778405666351318,-0.5734112858772278,7.513603687286377
1477399950369,-5.805939197540283,-0.6590040326118469,7.4986395835876465
1477399950549,-5.819705963134766,-0.6123170852661133,7.460930824279785
1477399950726,-5.794566631317139,-0.6494272351264954,7.459733963012695
1477399950910,-5.785588264465332,-0.6111199855804443,7.508216381072998
1477399951090,-5.81611442565918,-0.4531026780605316,7.387907981872559
1477399951267,-5.787384033203125,-0.4626794755458832,7.378929615020752
1477399951450,-5.685031890869141,-0.6356605291366577,7.492055892944336
1477399951631,-6.147711277008057,-0.6171054840087891,7.593210697174072
1477399951806,-5.045181751251221,-0.6697779297828674,7.494450092315674
1477399951991,-6.021417140960693,-0.6661866307258606,7.8978729248046875
1477399952171,-6.297348976135254,-0.5907692909240723,7.245452880859375
1477399952350,-5.421669960021973,-0.4411316514015198,7.590816497802734
1477399952530,-5.737105846405029,-0.5063736438751221,7.348403453826904
1477399952711,-5.75326681137085,-0.5752069354057312,7.562684535980225
1477399952892,-5.764639377593994,-0.5680243372917175,7.549516677856445
1477399953070,-5.6455278396606445,-0.49559974670410156,7.627327919006348
1477399953254,-5.6443305015563965,-0.6344634294509888,7.380126953125
1477399953432,-5.497685432434082,-0.5267243981361389,7.639298915863037
1477399953611,-5.856217384338379,-0.5518634915351868,7.4118499755859375
1477399953788,-5.756259441375732,-0.5327098965644836,7.398681640625
1477399953972,-5.837063789367676,-0.6051344871520996,7.528567314147949
1477399954148,-5.832275390625,-0.5560533404350281,7.474099159240723
1477399954333,-5.772420406341553,-0.5620388388633728,7.539939880371094
1477399954513,-5.814318656921387,-0.5656301379203796,7.4770917892456055
1477399954690,-5.783792972564697,-0.5518634915351868,7.486070156097412
1477399954869,-5.8005523681640625,-0.5452794432640076,7.537545680999756
1477399955054,-5.78798246383667,-0.5614402890205383,7.503427982330322
1477399955235,-5.772420406341553,-0.5081692934036255,7.478887557983398
1477399955414,-5.830479621887207,-0.5632359385490417,7.5213847160339355
1477399955594,-5.786187171936035,-0.5351040959358215,7.484274387359619
1477399955774,-5.787384033203125,-0.5596446394920349,7.527369976043701
1477399955954,-5.803544998168945,-0.5428852438926697,7.477690696716309
1477399956135,-5.787384033203125,-0.5482721924781799,7.51659631729126
1477399956310,-5.834669589996338,-0.5416881442070007,7.524377346038818
1477399956495,-5.78798246383667,-0.5596446394920349,7.498041152954102
1477399956675,-5.784989833831787,-0.536899745464325,7.513603687286377
1477399956851,-5.781997203826904,-0.5273229479789734,7.501033782958984
1477399957035,-5.781997203826904,-0.5674257874488831,7.527968883514404
1477399957215,-5.8215012550354,-0.52552729845047,7.507019519805908
1477399957392,-5.78798246383667,-0.5327098965644836,7.50462532043457
1477399957576,-5.808333396911621,-0.5267243981361389,7.4998369216918945
1477399957756,-5.813720226287842,-0.5752069354057312,7.47110652923584
1477399957936,-5.784391403198242,-0.5213374495506287,7.4998369216918945
1477399958115,-5.781398773193359,-0.5548562407493591,7.539939880371094
1477399958293,-5.828683853149414,-0.5422866940498352,7.485471725463867
1477399958477,-5.794566631317139,-0.5656301379203796,7.533355712890625
1477399958657,-5.80414342880249,-0.5327098965644836,7.510610580444336
1477399958833,-5.805340766906738,-0.5165489912033081,7.464522361755371
1477399959015,-5.76942777633667,-0.5422866940498352,7.50462532043457
1477399959192,-5.81611442565918,-0.5446808934211731,7.498041152954102
1477399959373,-5.803544998168945,-0.5410895943641663,7.508216381072998
1477399959558,-5.81491756439209,-0.5913678407669067,7.5453267097473145
1477399959739,-5.794566631317139,-0.5500678420066833,7.4986395835876465
1477399959919,-5.767033576965332,-0.5793967843055725,7.530961513519287
1477399960094,-5.794566631317139,-0.5578489899635315,7.507019519805908
1477399960279,-5.764040470123291,-0.547075092792511,7.507617950439453
1477399960453,-5.780799865722656,-0.5632359385490417,7.4998369216918945
1477399960639,-5.810727596282959,-0.5363011956214905,7.49923849105835
1477399960814,-5.745485305786133,-0.20290859043598175,7.581838130950928
1477399960996,-5.947795391082764,-0.47584760189056396,7.395689010620117
1477399961179,-5.757456302642822,-0.47884035110473633,7.463325023651123
1477399961355,-5.796362400054932,-0.5752069354057312,7.473500728607178
1477399961540,-5.787384033203125,-0.5716156363487244,7.494450092315674
1477399961720,-5.792770862579346,-0.5267243981361389,7.515398979187012
1477399961895,-5.78798246383667,-0.5680243372917175,7.508216381072998
1477399962080,-5.808931827545166,-0.5614402890205383,7.492654323577881
1477399962261,-5.798158168792725,-0.5279214978218079,7.5016326904296875
1477399962441,-5.781398773193359,-0.5596446394920349,7.519588947296143
1477399962621,-5.798158168792725,-0.5386953949928284,7.484873294830322
1477399962796,-5.728725910186768,-0.5776011347770691,7.575253963470459
1477399962981,-5.802347660064697,-0.5380968451499939,7.474099159240723
1477399963159,-5.75985050201416,-0.535702645778656,7.51779317855835
1477399963337,-5.7754130363464355,-0.5530605912208557,7.5016326904296875
1477399963520,-5.818508625030518,-0.557250440120697,7.523778915405273
1477399963701,-5.779603004455566,-0.5380968451499939,7.524975776672363
1477399963877,-5.760449409484863,-0.5476736426353455,7.481281757354736
1477399964062,-5.803544998168945,-0.5416881442070007,7.501033782958984
1477399964238,-5.761047840118408,-0.5758054852485657,7.526173114776611
1477399964419,-5.795763969421387,-0.52552729845047,7.492654323577881
1477399964601,-5.767033576965332,-0.5901707410812378,7.505223751068115
1477399964783,-5.810129165649414,-0.5291185975074768,7.489661693572998
1477399964963,-5.801150798797607,-0.5404910445213318,7.490858554840088
1477399965142,-5.786187171936035,-0.5135562419891357,7.518990516662598
1477399965320,-5.773617267608643,-0.5506663918495178,7.489661693572998
1477399965503,-5.78798246383667,-0.5410895943641663,7.525574684143066
1477399965683,-5.809530258178711,-0.5261258482933044,7.4752960205078125
1477399965859,-5.805340766906738,-0.5620388388633728,7.536946773529053
1477399966043,-5.807734966278076,-0.5554547905921936,7.494450092315674
1477399966223,-5.802347660064697,-0.5117605924606323,7.489661693572998
1477399966399,-5.7987565994262695,-0.5249287486076355,7.495646953582764
1477399966584,-5.776610374450684,-0.5590460896492004,7.515997886657715
1477399966763,-5.8005523681640625,-0.5560533404350281,7.479485988616943
1477399966947,-5.755062103271484,-0.6757634282112122,7.498041152954102
1477399967126,-5.809530258178711,-0.5554547905921936,7.522581577301025
1477399967305,-5.776610374450684,-0.5309142470359802,7.481281757354736
1477399967485,-5.545569896697998,-0.5081692934036255,7.5848307609558105
1477399967665,-5.957372188568115,-0.6362590789794922,7.310096263885498
1477399967848,-5.873575210571289,-0.5351040959358215,7.396287441253662
1477399968026,-5.329493045806885,-0.424970805644989,7.592612266540527
1477399968205,-6.162076473236084,-0.5267243981361389,7.462128162384033
1477399968381,-5.48272180557251,-0.5518634915351868,7.564480304718018
1477399968566,-5.739500045776367,-0.7529764175415039,7.412448406219482
1477399968746,-5.670068264007568,-0.5512649416923523,7.421426773071289
1477399968922,-5.650914669036865,-0.48243165016174316,7.259818077087402
1477399969107,-5.902904510498047,-0.5003881454467773,7.465719223022461
1477399969284,-5.613804340362549,-0.5213374495506287,7.614160060882568
1477399969462,-6.192004203796387,-0.5734112858772278,7.487865924835205
1477399969642,-5.801749229431152,-0.5476736426353455,7.693767070770264
1477399969825,-5.8209028244018555,-0.5488707423210144,7.577648162841797
1477399970008,-5.817910194396973,-0.5195417404174805,7.627926826477051
1477399970188,-6.178835868835449,-0.6153098344802856,7.67042350769043
1477399970368,-5.846042156219482,-0.5943605899810791,7.6530656814575195
1477399970549,-5.786187171936035,-0.547075092792511,7.219715118408203
1477399970729,-5.672462463378906,-0.48722004890441895,7.3472065925598145
1477399970904,-5.656899929046631,-0.49380409717559814,7.608773231506348
1477399971088,-6.3931169509887695,-0.5674257874488831,7.2783732414245605
1477399971268,-5.477334976196289,-0.5440823435783386,7.869740962982178
1477399971444,-6.333261966705322,-0.6045359373092651,7.618350028991699
1477399971627,-5.776610374450684,-0.5279214978218079,7.587823867797852
1477399971808,-5.768230438232422,-0.585382342338562,7.529165744781494
1477399971988,-5.8657941818237305,-0.558447539806366,7.512406349182129
1477399972168,-5.748478412628174,-0.606930136680603,7.542334079742432
1477399972350,-5.868786811828613,-0.5644330382347107,7.493851184844971
1477399972530,-5.838260650634766,-0.5003881454467773,7.4800848960876465
1477399972705,-5.786187171936035,-0.5512649416923523,7.492654323577881
1477399972886,-5.845443248748779,-0.5440823435783386,7.469310760498047
1477399973068,-5.823297023773193,-0.5452794432640076,7.486668586730957
1477399973250,-5.825092792510986,-0.5524620413780212,7.507617950439453
1477399973426,-5.828085422515869,-0.547075092792511,7.4770917892456055
1477399973611,-5.80414342880249,-0.5398924946784973,7.486070156097412
1477399973791,-5.8424506187438965,-0.547075092792511,7.507019519805908
1477399973966,-5.830479621887207,-0.5135562419891357,7.495048522949219
1477399974151,-5.815515995025635,-0.5398924946784973,7.501033782958984
1477399974333,-5.816712856292725,-0.5518634915351868,7.495646953582764
1477399974512,-5.826289653778076,-0.5123591423034668,7.472901821136475
1477399974692,-5.802347660064697,-0.558447539806366,7.470507621765137
1477399974871,-5.825691223144531,-0.5279214978218079,7.483675956726074
1477399975052,-5.780799865722656,-0.5596446394920349,7.485471725463867
1477399975226,-5.805340766906738,-0.5548562407493591,7.481880187988281
1477399975406,-5.796362400054932,-0.5410895943641663,7.510012149810791
1477399975587,-5.799953460693359,-0.557250440120697,7.469310760498047
1477399975767,-5.803544998168945,-0.5201402902603149,7.469310760498047
1477399975947,-5.779603004455566,-0.5662286877632141,7.493252754211426
1477399976133,-5.822698593139648,-0.5374982953071594,7.4998369216918945
1477399976313,-5.7975592613220215,-0.41539400815963745,7.4333977699279785
1477399976489,-5.992686748504639,-0.23044191300868988,7.066486358642578
1477399976673,-6.000467777252197,-0.5410895943641663,7.198167324066162
1477399976854,-6.134543418884277,-1.0863690376281738,7.814075946807861
1477399977034,-6.189011573791504,-0.3130418658256531,7.502829551696777
1477399977211,-5.913079738616943,-0.18914192914962769,7.268796443939209
1477399977394,-5.849034786224365,-0.27234044671058655,7.162852764129639
1477399977574,-5.711966514587402,-0.166995570063591,7.259219646453857
1477399977754,-5.976525783538818,-0.22744916379451752,7.307103633880615
1477399977930,-6.139930248260498,-0.2795230448246002,7.403470039367676
1477399978115,-5.787384033203125,-0.6751648783683777,7.875726699829102
1477399978294,-5.929240703582764,-0.5734112858772278,7.424419403076172
1477399978471,-5.724536418914795,-0.34416648745536804,7.044938564300537
1477399978655,-5.78678560256958,-0.5674257874488831,7.179612159729004
1477399978831,-6.078279495239258,-0.21966800093650818,7.296928405761719
1477399979011,-5.874772548675537,-0.5973533391952515,7.436988830566406
1477399979192,-5.897517204284668,-0.3196259140968323,7.304111003875732
1477399979376,-5.96874475479126,-0.43335050344467163,7.51779317855835
1477399979556,-5.771223068237305,-0.40462008118629456,7.577049732208252
1477399979735,-6.228515625,-0.4776432514190674,7.374141216278076
1477399979914,-5.808931827545166,-0.5781996846199036,7.642292022705078
1477399980091,-5.884947776794434,-0.6003460884094238,7.541136741638184
1477399980276,-5.846042156219482,-0.47644615173339844,7.4567413330078125
1477399980452,-5.780799865722656,-0.5273229479789734,7.522581577301025
1477399980638,-5.6634840965271,-0.46148237586021423,7.590816497802734
1477399980815,-6.1967926025390625,-0.5183446407318115,7.457339763641357
1477399980993,-5.8837504386901855,-0.5213374495506287,7.575852870941162
1477399981178,-5.778405666351318,-0.4345476031303406,7.538144111633301
1477399981359,-5.897517204284668,-0.46148237586021423,7.450157165527344
1477399981536,-5.856815814971924,-0.52552729845047,7.402273178100586
1477399981714,-5.789778232574463,-0.46507367491722107,7.422623634338379
1477399981899,-5.792172431945801,-0.5716156363487244,7.517194747924805
1477399982079,-5.838859558105469,-0.5542576909065247,7.481880187988281
1477399982256,-5.796960830688477,-0.6302735805511475,7.457938194274902
1477399982438,-5.871779441833496,-0.6033388376235962,7.484873294830322
1477399982619,-5.824494361877441,-0.4967968463897705,7.48846435546875
1477399982799,-5.806537628173828,-0.507570743560791,7.507019519805908
1477399982975,-5.908291339874268,-0.5129576921463013,7.381922245025635
1477399983159,-5.770026206970215,-0.4985924959182739,7.490858554840088
1477399983340,-5.914875507354736,-0.5165489912033081,7.432799339294434
1477399983515,-5.826289653778076,-0.48303020000457764,7.433996200561523
1477399983699,-5.817910194396973,-0.48303020000457764,7.443572998046875
1477399983879,-5.761047840118408,-0.535702645778656,7.3202714920043945
1477399984059,-5.349843502044678,-0.27234044671058655,7.578845500946045
1477399984239,-5.963357925415039,-0.4967968463897705,7.404068946838379
1477399984420,-5.817311763763428,-0.5117605924606323,7.48846435546875
1477399984601,-5.748478412628174,-0.46806642413139343,7.547122478485107
1477399984780,-5.8406548500061035,-0.47165772318840027,7.5219831466674805
1477399984957,-5.972336292266846,-0.5003881454467773,7.502231121063232
1477399985137,-5.862801551818848,-0.5638344883918762,7.536946773529053
1477399985321,-5.8209028244018555,-0.535702645778656,7.495646953582764
1477399985497,-5.8221001625061035,-0.5500678420066833,7.48726749420166
1477399985682,-5.8855462074279785,-0.5446808934211731,7.556100368499756
1477399985862,-5.65031623840332,-0.4902127981185913,7.67042350769043
1477399986038,-5.836465358734131,-0.5159504413604736,7.5447282791137695
1477399986225,-5.823895454406738,-0.5776011347770691,7.497442722320557
1477399986402,-5.644928932189941,-0.6512228846549988,7.531559944152832
1477399986583,-5.805340766906738,-0.5608417391777039,7.569268703460693
1477399986763,-5.834669589996338,-0.6871358752250671,7.501033782958984
1477399986941,-5.688024520874023,-0.7056909799575806,7.593210697174072
1477399987123,-5.7975592613220215,-0.6673837304115295,7.736862659454346
1477399987300,-6.199785232543945,-0.19153612852096558,7.29154109954834
1477399987479,-5.77062463760376,-0.5776011347770691,7.5668745040893555
1477399987664,-6.007051944732666,-1.1617863178253174,7.526173114776611
1477399987848,-6.935403823852539,-1.136048674583435,7.016806602478027
1477399988020,-5.48152494430542,-0.6224924325942993,6.5696892738342285
1477399988208,-6.48828649520874,-0.9888052940368652,7.8062944412231445
1477399988384,-5.694608688354492,-0.1562216579914093,6.4182562828063965
1477399988560,-6.113594055175781,-1.3862427473068237,7.717110633850098
1477399988745,-6.502053260803223,-1.1797429323196411,7.727285861968994
1477399988925,-5.711966514587402,-0.21966800093650818,6.784569263458252
1477399989105,-5.610811710357666,-0.01735796220600605,7.21791934967041
1477399989285,-6.124367713928223,-0.44412440061569214,7.511807918548584
1477399989463,-6.2632317543029785,-0.365115761756897,7.530363082885742
1477399989645,-6.074089527130127,-0.8301894664764404,7.6997528076171875
1477399989826,-5.404311656951904,-0.31783026456832886,7.869740962982178
1477399990001,-6.187215805053711,-0.961870551109314,7.668628215789795
1477399990185,-5.669469833374023,-0.3531447649002075,7.602787494659424
1477399990366,-5.495291233062744,-0.5345055460929871,7.531559944152832
1477399990542,-5.785588264465332,-0.6733692288398743,7.589619159698486
1477399990726,-5.701192855834961,-0.6584054827690125,7.708132266998291
1477399990901,-5.796362400054932,-0.5518634915351868,7.610568523406982
1477399991083,-5.720944881439209,-0.6027402877807617,7.589020729064941
1477399991265,-5.666476726531982,-0.5398924946784973,7.569867134094238
1477399991448,-5.788581371307373,-0.5386953949928284,7.564480304718018
1477399991628,-5.66887092590332,-0.5105634927749634,7.5884222984313965
1477399991807,-5.72513484954834,-0.5548562407493591,7.578845500946045
1477399991985,-5.704185485839844,-0.518943190574646,7.565677165985107
1477399992167,-5.720346450805664,-0.5111620426177979,7.56208610534668
1477399992349,-5.692812919616699,-0.5273229479789734,7.539939880371094
1477399992523,-5.722142219543457,-0.5596446394920349,7.539939880371094
1477399992709,-5.735908508300781,-0.5644330382347107,7.559093475341797
1477399992889,-5.678447723388672,-0.5327098965644836,7.57944393157959
1477399993064,-5.728127479553223,-0.5746083855628967,7.561487674713135
1477399993250,-5.722740650177002,-0.5560533404350281,7.561487674713135
1477399993430,-5.721543312072754,-0.739209771156311,7.733271598815918
1477399993604,-5.515642166137695,-0.3106476664543152,7.301117897033691
1477399993789,-5.632957935333252,-0.5943605899810791,7.624335289001465
1477399993968,-5.609015941619873,-0.7260416746139526,7.747636795043945
1477399994149,-5.801749229431152,-0.5961562395095825,7.321468830108643
1477399994330,-5.729923248291016,-0.5404910445213318,7.622539520263672
1477399994509,-5.868188381195068,-0.5416881442070007,7.511807918548584
1477399994690,-5.656301498413086,-0.49619829654693604,7.512406349182129
1477399994870,-5.7772088050842285,-0.5752069354057312,7.5650787353515625
1477399995046,-5.671265125274658,-0.6212953329086304,7.599195957183838
1477399995231,-5.7095723152160645,-0.5027823448181152,7.445967197418213
1477399995411,-5.643133640289307,-0.6853402256965637,7.592013359069824
1477399995586,-5.7095723152160645,-0.545877993106842,7.573458671569824
1477399995771,-5.761646270751953,-0.5895721912384033,7.682993412017822
1477399995951,-5.787384033203125,-0.6290764808654785,7.597999095916748
1477399996127,-5.6425347328186035,-0.5404910445213318,7.585429668426514
1477399996312,-5.837662220001221,-0.669179379940033,7.64109468460083
1477399996492,-5.913079738616943,-0.8080430626869202,7.862558364868164
1477399996672,-5.631761074066162,-0.44532153010368347,7.445967197418213
1477399996850,-5.931035995483398,-0.8684966564178467,7.583633899688721
1477399997035,-6.0633158683776855,-0.7948749661445618,7.633912086486816
1477399997210,-5.9088897705078125,-0.5566518902778625,7.423222541809082
1477399997392,-6.145317077636719,-0.9235633015632629,7.797914981842041
1477399997568,-5.823895454406738,-1.325789213180542,7.862558364868164
1477399997753,-6.124966621398926,-0.8535329103469849,7.729680061340332
1477399997933,-5.750273704528809,-0.3770867586135864,7.349001884460449
1477399998109,-5.877166748046875,-0.4076128304004669,7.4136457443237305
1477399998293,-5.740696907043457,-0.37229835987091064,7.444770336151123
1477399998474,-5.961562156677246,-0.7565677165985107,7.557896137237549
1477399998650,-5.866392612457275,-0.7583633661270142,7.48846435546875
1477399998834,-5.759252071380615,-0.6123170852661133,7.621342658996582
1477399999015,-5.826289653778076,-0.3064578175544739,7.196970462799072
1477399999190,-6.070498466491699,-0.16340427100658417,7.349001884460449
1477399999374,-5.787384033203125,-0.25737667083740234,7.201758861541748
1477399999555,-5.6634840965271,-0.5764040350914001,7.560290336608887
1477399999734,-5.813121795654297,-0.38127660751342773,7.295731067657471
1477399999915,-5.771821975708008,-0.6242880821228027,7.5650787353515625
1477400000090,-5.874173641204834,-0.5692214369773865,7.3920979499816895
1477400000272,-5.838859558105469,-0.6613982319831848,7.503427982330322
1477400000455,-5.892130374908447,-0.49320554733276367,7.399878978729248
1477400000631,-5.946598529815674,-0.6200982332229614,7.835623741149902
1477400000815,-5.771223068237305,-0.05386953800916672,6.933608055114746
1477400000992,-5.291784286499023,-0.6643909811973572,7.554903507232666
1477400001176,-5.421669960021973,-0.8289923667907715,7.437587738037109
1477400001356,-5.4893059730529785,-0.4794389009475708,7.289745807647705
1477400001536,-5.366004467010498,-0.08319851011037827,7.45913553237915
1477400001717,-5.992088317871094,-0.5847837924957275,7.794922351837158
1477400001897,-5.708375453948975,-0.5327098965644836,7.595006465911865
1477400002074,-5.594052314758301,-0.40222588181495667,7.537545680999756
1477400002254,-5.698798656463623,-0.5015852451324463,7.586028099060059
1477400002438,-5.6425347328186035,-0.4626794755458832,7.599794864654541
1477400002613,-5.6209869384765625,-0.5105634927749634,7.609371662139893
1477400002798,-5.646724700927734,-0.547075092792511,7.560290336608887
1477400002978,-5.597044944763184,-0.5476736426353455,7.619546890258789
1477400003153,-5.630563735961914,-0.3561375141143799,7.580641269683838
1477400003338,-5.615001678466797,-0.5069721937179565,7.594407558441162
1477400003519,-5.662885665893555,-0.5333084464073181,7.602189064025879
1477400003698,-5.587468147277832,-0.4902127981185913,7.609371662139893
1477400003879,-5.669469833374023,-0.5380968451499939,7.615955829620361
1477400004059,-5.628767967224121,-0.4794389009475708,7.597400665283203
1477400004235,-5.666476726531982,-0.5351040959358215,7.581838130950928
1477400004419,-5.619790077209473,-0.579995334148407,7.621941089630127
1477400004596,-5.585672378540039,-0.5123591423034668,7.625532627105713
1477400004779,-5.685031890869141,-0.48602294921875,7.592612266540527
1477400004959,-5.584475517272949,-0.5291185975074768,7.633912086486816
1477400005135,-5.6221842765808105,-0.6105214357376099,7.6111674308776855
1477400005317,-5.653308868408203,-0.5488707423210144,7.620744228363037
1477400005500,-5.630563735961914,-0.5015852451324463,7.640496253967285
1477400005676,-5.629965305328369,-0.5548562407493591,7.6081743240356445
1477400005860,-5.6461262702941895,-0.5536591410636902,7.608773231506348
1477400006041,-5.661089897155762,-0.5027823448181152,7.599794864654541
1477400006216,-5.612607479095459,-0.5321113467216492,7.626131057739258
1477400006399,-5.629965305328369,-0.5237316489219666,7.60637903213501
1477400006579,-5.654505729675293,-0.517746090888977,7.606977462768555
1477400006761,-5.681440830230713,-0.5596446394920349,7.638700485229492
1477400006941,-5.609015941619873,-0.518943190574646,7.62373685836792
1477400007117,-5.613205909729004,-0.547075092792511,7.615356922149658
1477400007301,-5.6233811378479,-0.5315127968788147,7.614758491516113
1477400007482,-5.594052314758301,-0.5536591410636902,7.599794864654541
1477400007658,-5.63535213470459,-0.5590460896492004,7.673416614532471
1477400007842,-5.6221842765808105,-0.524330198764801,7.619546890258789
1477400008022,-5.581482887268066,-0.5440823435783386,7.637503623962402
1477400008218,-5.610811710357666,-0.5638344883918762,7.621342658996582
1477400008383,-5.5575408935546875,-0.26096799969673157,7.6351094245910645
1477400008563,-5.8005523681640625,-0.32680854201316833,7.635707855224609
1477400008742,-5.803544998168945,-0.5764040350914001,7.741052627563477
1477400008923,-5.608417510986328,-0.8457517623901367,7.471704959869385
1477400009101,-5.759252071380615,-0.6733692288398743,7.707533836364746
1477400009280,-5.606621742248535,-0.35733461380004883,7.55131196975708
1477400009459,-5.629965305328369,-0.4537012279033661,7.57944393157959
1477400009640,-5.567117691040039,-0.6147112846374512,7.469909191131592
1477400009824,-5.592854976654053,-0.4710591733455658,7.593210697174072
1477400010004,-5.758055210113525,-0.4602852761745453,7.536348342895508
1477400010180,-5.6910176277160645,-0.45190557837486267,7.681197643280029
1477400010363,-5.564124584197998,-0.6919242739677429,7.668029308319092
1477400010545,-5.728127479553223,-0.6949170231819153,7.773972988128662
1477400010720,-5.640739440917969,-0.5327098965644836,7.5866265296936035
1477400010905,-5.905298709869385,-0.4920084476470947,7.583633899688721
1477400011085,-5.78798246383667,-0.6751648783683777,7.663839817047119
1477400011265,-5.756857872009277,-0.7158663272857666,7.760804653167725
1477400011441,-5.7754130363464355,-0.5530605912208557,7.572261333465576
1477400011622,-5.634753704071045,-0.4255693554878235,7.379528045654297
1477400011801,-5.711368083953857,-0.06224924325942993,7.431003570556641
1477400011986,-5.829282760620117,-0.22266076505184174,7.593809127807617
1477400012162,-5.447407245635986,-0.5398924946784973,7.699153900146484
1477400012347,-5.598840713500977,-0.48482584953308105,7.529764175415039
1477400012526,-5.691616058349609,-0.5309142470359802,7.666832447052002
1477400012702,-5.586869716644287,-0.17238251864910126,7.627327919006348
1477400012886,-5.589263916015625,-0.8236053586006165,7.798513412475586
1477400013067,-5.697601318359375,-0.7775170207023621,7.600991725921631
1477400013244,-5.370194435119629,-0.7757213711738586,7.590816497802734
1477400013428,-6.228515625,-1.1408370733261108,8.224681854248047
1477400013608,-5.647323131561279,-0.48303020000457764,7.580042362213135
1477400013788,-5.552752494812012,-0.36092591285705566,7.570465564727783
1477400013968,-5.826888561248779,-0.5129576921463013,7.625532627105713
1477400014147,-5.5976433753967285,-0.7511807680130005,7.5632829666137695
1477400014328,-5.575497150421143,-0.41778820753097534,7.668628215789795
1477400014509,-5.376778602600098,-0.4291606545448303,7.416638374328613
1477400014684,-4.990114688873291,-0.4076128304004669,7.699153900146484
1477400014863,-5.51504373550415,-0.38965633511543274,7.2334818840026855
1477400015049,-5.486911773681641,-0.5536591410636902,7.405864238739014
1477400015228,-5.4695539474487305,-0.35733461380004883,7.640496253967285
1477400015409,-6.309319972991943,-0.6637924313545227,7.707533836364746
1477400015589,-5.631162166595459,-0.6147112846374512,7.902062892913818
1477400015765,-5.767632007598877,-0.569819986820221,7.639298915863037
1477400015950,-5.822698593139648,-0.5195417404174805,7.542334079742432
1477400016130,-6.2620344161987305,-0.30047231912612915,7.020398139953613
1477400016307,-5.295974254608154,-0.5476736426353455,7.907449722290039
1477400016490,-6.129156112670898,-0.49978959560394287,7.593809127807617
1477400016671,-5.558139324188232,-0.5614402890205383,7.600393295288086
1477400016847,-5.609614372253418,-0.4770447015762329,7.615356922149658
1477400017029,-5.7544636726379395,-0.5303156971931458,7.539939880371094
1477400017206,-5.6425347328186035,-0.4878185987472534,7.6075758934021
1477400017389,-5.680243492126465,-0.5165489912033081,7.56208610534668
1477400017571,-5.676053524017334,-0.5015852451324463,7.578845500946045
1477400017747,-5.683236122131348,-0.507570743560791,7.578845500946045
1477400017931,-5.670068264007568,-0.5063736438751221,7.6111674308776855
1477400018112,-5.763442039489746,-0.5410895943641663,7.458536624908447
1477400018288,-5.617395877838135,-0.4866214990615845,7.618948459625244
1477400018472,-5.766434669494629,-0.5602431893348694,7.549516677856445
1477400018652,-5.6227827072143555,-0.5147533416748047,7.548319339752197
1477400018832,-5.677849292755127,-0.5985504388809204,7.606977462768555
1477400019013,-5.658695697784424,-0.596754789352417,7.600393295288086
1477400019192,-5.673060894012451,-0.5901707410812378,7.6548614501953125
1477400019369,-5.694010257720947,-0.5746083855628967,7.565677165985107
1477400019549,-5.6425347328186035,-0.5261258482933044,7.565677165985107
1477400019729,-5.701791286468506,-0.5482721924781799,7.550713539123535
1477400019913,-5.716754913330078,-0.5333084464073181,7.563881874084473
1477400020093,-5.635950565338135,-0.5345055460929871,7.621342658996582
1477400020270,-5.7556610107421875,-0.5518634915351868,7.531559944152832
1477400020452,-5.628767967224121,-0.4944026470184326,7.573458671569824
1477400020634,-5.717353820800781,-0.5105634927749634,7.600393295288086
1477400020813,-5.71316385269165,-0.5183446407318115,7.5884222984313965
1477400020994,-5.688623428344727,-0.547075092792511,7.5968017578125
1477400021174,-5.738901615142822,-0.4854243993759155,7.590816497802734
1477400021354,-5.715558052062988,-0.5614402890205383,7.561487674713135
1477400021534,-5.750872611999512,-0.569819986820221,7.562684535980225
1477400021714,-5.618592739105225,-0.5434837937355042,7.594407558441162
1477400021895,-5.750872611999512,-0.5267243981361389,7.538742542266846
1477400022075,-5.649118900299072,-0.4710591733455658,7.5435309410095215
1477400022251,-5.624578475952148,-0.5620388388633728,7.6117658615112305
1477400022435,-5.685031890869141,-0.497395396232605,7.580042362213135
1477400022616,-5.778405666351318,-0.45669397711753845,7.451952934265137
1477400022791,-5.647323131561279,-0.49320554733276367,7.762001991271973
1477400022976,-5.778405666351318,-0.5195417404174805,7.757812023162842
1477400023156,-5.682039260864258,-0.6715735793113708,7.7183074951171875
1477400023335,-5.762843608856201,-0.47644615173339844,7.741052627563477
1477400023517,-5.776610374450684,-0.7374141216278076,7.370550155639648
1477400023695,-5.464166641235352,-0.4429273009300232,7.571064472198486
1477400023877,-5.694608688354492,-0.47225627303123474,7.445368766784668
1477400024058,-5.5114521980285645,-0.46327802538871765,7.745242595672607
1477400024233,-5.7538652420043945,-0.3687070608139038,7.506421089172363
1477400024416,-5.9106855392456055,-0.5728127360343933,7.367557048797607
1477400024593,-5.084087371826172,-0.3926490843296051,7.681197643280029
1477400024773,-5.200804710388184,-0.7583633661270142,7.3418192863464355
1477400024959,-5.191227912902832,-0.3770867586135864,7.3232645988464355
1477400025139,-5.584475517272949,-0.4165911078453064,7.4100542068481445
1477400025314,-5.58986234664917,-0.5303156971931458,7.490260124206543
1477400025499,-5.672462463378906,-0.5201402902603149,7.5662760734558105
1477400025677,-5.700594425201416,-0.5452794432640076,7.578845500946045
1477400025859,-5.6676740646362305,-0.5464765429496765,7.620145320892334
1477400026040,-5.67964506149292,-0.5398924946784973,7.584232330322266
1477400026215,-5.656899929046631,-0.5380968451499939,7.600991725921631
1477400026399,-5.6640825271606445,-0.5291185975074768,7.605181694030762
1477400026579,-5.660491466522217,-0.5512649416923523,7.580641269683838
1477400026756,-5.681440830230713,-0.5105634927749634,7.582436561584473
1477400026939,-5.6461262702941895,-0.5237316489219666,7.572859764099121
1477400027120,-5.652710437774658,-0.5081692934036255,7.604583263397217
1477400027295,-5.68084192276001,-0.5482721924781799,7.568670272827148
1477400027479,-5.660491466522217,-0.5147533416748047,7.593809127807617
1477400027658,-5.676652431488037,-0.5518634915351868,7.577049732208252
1477400027836,-5.6634840965271,-0.5309142470359802,7.601590633392334
1477400028021,-5.6856303215026855,-0.5925649404525757,7.622539520263672
1477400028201,-5.666476726531982,-0.5997475385665894,7.594407558441162
1477400028377,-5.710171222686768,-0.5758054852485657,7.552509307861328
1477400028561,-5.656899929046631,-0.5123591423034668,7.546523571014404
1477400028740,-5.670666694641113,-0.6823474764823914,7.622539520263672
1477400028922,-5.8029465675354,-0.5321113467216492,7.586028099060059
1477400029102,-5.705382823944092,-0.7182605266571045,7.454347133636475
1477400029278,-5.40910005569458,-0.5111620426177979,7.465719223022461
1477400029458,-5.706579685211182,-0.5117605924606323,7.523778915405273
1477400029642,-5.583877086639404,-0.5141547918319702,7.5632829666137695
1477400029818,-5.717353820800781,-0.5279214978218079,7.577648162841797
1477400030002,-5.699397087097168,-0.5536591410636902,7.586028099060059
1477400030183,-5.669469833374023,-0.52552729845047,7.605780124664307
1477400030359,-5.6856303215026855,-0.5805938839912415,7.559691905975342
1477400030543,-5.66887092590332,-0.4106055796146393,7.5435309410095215
1477400030723,-5.609015941619873,-0.5476736426353455,7.602189064025879
1477400030904,-5.762843608856201,-0.5105634927749634,7.532158374786377
1477400031084,-5.513846397399902,-0.3770867586135864,7.449558734893799
1477400031261,-5.77062463760376,-0.4734533727169037,7.581838130950928
1477400031443,-5.674258232116699,-0.4429273009300232,7.502829551696777
1477400031624,-5.686229228973389,-0.5410895943641663,7.591414928436279
1477400031801,-5.6640825271606445,-0.5117605924606323,7.5453267097473145
1477400031980,-5.652710437774658,-0.4920084476470947,7.569268703460693
1477400032164,-5.783792972564697,-0.45848962664604187,7.467514991760254
1477400032340,-5.510255336761475,-0.46327802538871765,7.6099700927734375
1477400032524,-5.80414342880249,-0.4644751250743866,7.42681360244751
1477400032705,-5.7341132164001465,-0.6769605278968811,7.819462776184082
1477400032880,-5.972336292266846,-1.0073603391647339,8.086416244506836
1477400033064,-4.96737003326416,-0.4207809567451477,8.02656078338623
1477400033245,-6.27400541305542,-0.44412440061569214,7.467514991760254
1477400033421,-5.626373767852783,-0.585382342338562,7.592612266540527
1477400033606,-5.853224754333496,-0.7308300733566284,7.572261333465576
1477400033786,-5.613804340362549,-0.5111620426177979,7.690774440765381
1477400033964,-5.751471042633057,-0.6009446382522583,7.6111674308776855
1477400034146,-5.684433460235596,-0.5662286877632141,7.556100368499756
1477400034323,-5.571906089782715,-0.45190557837486267,7.461529731750488
1477400034507,-5.661688327789307,-0.9139865040779114,7.892486095428467
1477400034687,-5.523423194885254,-0.27653029561042786,7.367557048797607
1477400034862,-5.638344764709473,-0.49619829654693604,7.460930824279785
1477400035046,-5.604825973510742,-0.41718965768814087,7.621941089630127
1477400035228,-5.796362400054932,-0.5883750915527344,7.556100368499756
1477400035403,-5.479729175567627,-0.5351040959358215,7.645284652709961
1477400035588,-5.752069473266602,-0.595557689666748,7.587823867797852
1477400035769,-5.653308868408203,-0.4991910457611084,7.626729488372803
1477400035949,-5.6455278396606445,-0.6105214357376099,7.601590633392334
1477400036129,-5.66228723526001,-0.517746090888977,7.544129371643066
1477400036307,-6.096236228942871,-1.1929110288619995,8.297704696655273
1477400036485,-5.826289653778076,-1.247977614402771,8.683769226074219
1477400036669,-5.781398773193359,-0.7721300721168518,7.899069786071777
1477400036844,-5.669469833374023,-0.46327802538871765,7.574655532836914
1477400037029,-5.518036365509033,-0.41718965768814087,7.586028099060059
1477400037209,-5.582081317901611,-0.5392939448356628,7.617751121520996
1477400037385,-5.698200225830078,-0.43514615297317505,7.682394504547119
1477400037571,-5.539584159851074,-0.4387374520301819,7.819462776184082
1477400037750,-6.248267650604248,-0.4225766062736511,7.491456985473633
1477400037928,-5.749076843261719,-0.5069721937179565,7.632116317749023
1477400038110,-5.720944881439209,-0.5279214978218079,7.575253963470459
1477400038290,-5.702389717102051,-0.5500678420066833,7.594407558441162
1477400038470,-5.711368083953857,-0.46567222476005554,7.583035469055176
1477400038651,-5.783792972564697,-0.6236895322799683,7.56208610534668
1477400038826,-5.701192855834961,-0.4357447028160095,7.575253963470459
1477400039009,-5.506065368652344,-0.46567222476005554,7.648277282714844
1477400039191,-5.607819080352783,-0.5267243981361389,7.589020729064941
1477400039367,-5.7095723152160645,-0.5488707423210144,7.553706169128418
1477400039548,-5.720346450805664,-0.3776853084564209,7.522581577301025
1477400039731,-5.691616058349609,-0.46627077460289,7.462726593017578
1477400039908,-5.66228723526001,-0.3555389642715454,7.600393295288086
1477400040086,-5.656301498413086,-0.3932476341724396,7.562684535980225
1477400040266,-5.688024520874023,-0.5392939448356628,7.550713539123535
1477400040446,-5.607819080352783,-0.5027823448181152,7.568670272827148
1477400040630,-5.771821975708008,-0.507570743560791,7.575852870941162
1477400040812,-5.657498836517334,-0.4668693244457245,7.534552574157715
1477400040993,-5.657498836517334,-0.4884171485900879,7.56208610534668
1477400041199,-5.662885665893555,-0.4686649739742279,7.538742542266846
1477400041348,-5.768230438232422,-0.5003881454467773,7.526771545410156
1477400041538,-5.583278179168701,-0.5213374495506287,7.572261333465576
1477400041708,-5.720346450805664,-0.47644615173339844,7.568670272827148
1477400041888,-5.7538652420043945,-0.45010992884635925,7.648277282714844
1477400042068,-5.809530258178711,-0.5129576921463013,7.674015045166016
1477400042248,-5.780799865722656,-0.5668272376060486,7.659649848937988
1477400042428,-5.792770862579346,-0.5321113467216492,7.747636795043945
1477400042609,-5.681440830230713,-0.45250412821769714,7.6351094245910645
1477400042795,-5.66228723526001,-0.4531026780605316,7.587823867797852
1477400042975,-5.677250862121582,-0.5147533416748047,7.584232330322266
1477400043155,-5.727529048919678,-0.5039794445037842,7.572859764099121
1477400043333,-5.6455278396606445,-0.5129576921463013,7.591414928436279
1477400043512,-5.756259441375732,-0.568622887134552,7.571064472198486
1477400043696,-5.117007732391357,-0.3519476354122162,7.749432563781738
1477400043871,-6.141726016998291,-0.3082534670829773,7.3454108238220215
1477400044055,-5.565321922302246,-0.497395396232605,7.630919456481934
1477400044236,-5.749076843261719,-0.5428852438926697,7.576451301574707
1477400044410,-5.790376663208008,-0.4991910457611084,7.583035469055176
1477400044594,-5.684433460235596,-0.4513070285320282,7.638700485229492
1477400044773,-5.6341552734375,-0.43035775423049927,7.539340972900391
1477400044950,-5.702389717102051,-0.43095630407333374,7.471704959869385
1477400045134,-5.67964506149292,-0.43035775423049927,7.5632829666137695
1477400045311,-5.636549472808838,-0.47225627303123474,7.55131196975708
1477400045491,-5.673060894012451,-0.47644615173339844,7.524377346038818
1477400045673,-5.683835029602051,-0.4513070285320282,7.565677165985107
1477400045854,-5.708375453948975,-0.497395396232605,7.559093475341797
1477400046038,-5.676652431488037,-0.4644751250743866,7.570465564727783
1477400046218,-5.674856662750244,-0.46327802538871765,7.556100368499756
1477400046392,-5.688024520874023,-0.48961424827575684,7.547720909118652
1477400046574,-5.7089738845825195,-0.4800374507904053,7.575852870941162
1477400046759,-5.680243492126465,-0.47884035110473633,7.556100368499756
1477400046933,-5.702389717102051,-0.47225627303123474,7.570465564727783
1477400047119,-5.665279865264893,-0.4991910457611084,7.59560489654541
1477400047298,-5.706579685211182,-0.4884171485900879,7.575253963470459
1477400047478,-5.705382823944092,-0.46806642413139343,7.5632829666137695
1477400047656,-5.683835029602051,-0.4812345504760742,7.526771545410156
1477400047837,-5.692812919616699,-0.4471171796321869,7.564480304718018
1477400048019,-5.659294128417969,-0.4297592043876648,7.559691905975342
1477400048199,-5.638344764709473,-0.5488707423210144,7.526173114776611
1477400048382,-5.632957935333252,-0.49559974670410156,7.5453267097473145
1477400048560,-5.735908508300781,-0.45489832758903503,7.532158374786377
1477400048740,-5.747281074523926,-0.5003881454467773,7.562684535980225
1477400048916,-5.683835029602051,-0.44592007994651794,7.5650787353515625
1477400049100,-5.631761074066162,-0.5201402902603149,7.619546890258789
1477400049279,-5.789179801940918,-0.47884035110473633,7.549516677856445
1477400049456,-5.616198539733887,-0.4602852761745453,7.577648162841797
1477400049641,-5.726930618286133,-0.4752490520477295,7.536348342895508
1477400049819,-5.6443305015563965,-0.4776432514190674,7.539939880371094
1477400049999,-5.5790886878967285,-0.38486793637275696,7.531559944152832
1477400050181,-5.77062463760376,-0.6350619792938232,7.794922351837158
1477400050360,-5.846042156219482,-0.6673837304115295,7.439383029937744
1477400050538,-5.613205909729004,-0.4572925269603729,7.5231804847717285
1477400050722,-5.708375453948975,-0.48243165016174316,7.55131196975708
1477400050899,-5.75326681137085,-0.5392939448356628,7.5231804847717285
1477400051080,-5.647922039031982,-0.49799394607543945,7.548917770385742
1477400051261,-5.717353820800781,-0.5380968451499939,7.538742542266846
1477400051440,-5.699397087097168,-0.5111620426177979,7.559691905975342
1477400051622,-5.722740650177002,-0.5003881454467773,7.5201873779296875
1477400051802,-5.6910176277160645,-0.375291109085083,7.554305076599121
1477400051979,-5.6461262702941895,-0.5351040959358215,7.610568523406982
1477400052163,-5.768828868865967,-0.48602294921875,7.354389190673828
1477400052343,-5.662885665893555,-0.3196259140968323,7.539340972900391
1477400052523,-5.8442463874816895,-0.4620809257030487,7.454347133636475
1477400052703,-5.779603004455566,-0.38546648621559143,7.359177589416504
1477400052882,-5.464166641235352,-0.5835866928100586,7.638700485229492
1477400053062,-5.859210014343262,-0.5327098965644836,7.529165744781494
1477400053244,-5.61799430847168,-0.46806642413139343,7.547122478485107
1477400053420,-5.785588264465332,-0.5494692921638489,7.504026889801025
1477400053604,-5.743091106414795,-0.5321113467216492,7.495048522949219
1477400053784,-5.7526679039001465,-0.5135562419891357,7.538742542266846
1477400053960,-5.795165061950684,-0.5961562395095825,7.571662902832031
1477400054142,-5.743091106414795,-0.6189011335372925,7.514202117919922
1477400054325,-6.005256175994873,-0.7260416746139526,7.680599212646484
1477400054500,-5.960963726043701,-0.40940847992897034,7.45913553237915
1477400054685,-5.796362400054932,-0.36750996112823486,7.3903021812438965
1477400054863,-6.682217121124268,-0.5045779943466187,7.292738437652588
1477400055044,-5.218760967254639,-0.7841010689735413,8.732851028442383
1477400055226,-5.393537998199463,0.507570743560791,5.801150798797607
1477400055404,-5.929240703582764,-0.28730419278144836,6.914454460144043
1477400055584,-5.523423194885254,-0.7242460250854492,8.144475936889648
1477400055766,-5.7305216789245605,-0.5764040350914001,7.468712329864502
1477400055942,-5.711368083953857,-0.5817909836769104,7.517194747924805
1477400056127,-5.288791656494141,-0.4465186297893524,7.964910507202148
1477400056302,-6.305728912353516,-0.5434837937355042,7.473500728607178
1477400056482,-5.538985729217529,-0.557250440120697,7.707533836364746
1477400056667,-5.776610374450684,-0.48303020000457764,7.590816497802734
1477400056844,-5.641337871551514,-0.48482584953308105,7.484274387359619
1477400057023,-5.916072368621826,-0.47884035110473633,7.64109468460083
1477400057205,-5.707178115844727,-0.497395396232605,7.511807918548584
1477400057385,-5.677849292755127,-0.46507367491722107,7.51659631729126
1477400057566,-5.801749229431152,-0.5656301379203796,7.5632829666137695
1477400057750,-5.825691223144531,-0.47405192255973816,7.51659631729126
1477400057925,-5.69580602645874,-0.535702645778656,7.577049732208252
1477400058107,-5.981913089752197,-0.5069721937179565,7.596203327178955
1477400058288,-5.896320343017578,-0.6386532783508301,7.412448406219482
1477400058465,-5.594650745391846,-0.40940847992897034,7.614160060882568
1477400058650,-5.834071159362793,-0.5494692921638489,7.5213847160339355
1477400058829,-5.596446514129639,-0.5339069962501526,7.662044048309326
1477400059005,-5.987898349761963,-0.4800374507904053,7.637503623962402
1477400059190,-6.642712593078613,-0.0071826050989329815,7.885901927947998
1477400059379,-6.1752448081970215,-0.5895721912384033,7.504026889801025
1477400059545,-6.101024627685547,-0.3321954905986786,7.393893241882324
1477400059730,-5.8005523681640625,-0.5919663906097412,7.769783020019531
1477400059908,-5.980715751647949,-0.9493009448051453,7.513603687286377
1477400060090,-5.859210014343262,-0.5985504388809204,7.539340972900391
1477400060269,-5.822698593139648,-0.5518634915351868,7.594407558441162
1477400060449,-5.920860767364502,-0.5626373887062073,7.505223751068115
1477400060631,-5.897517204284668,-0.21966800093650818,6.930016994476318
1477400060807,-5.101445198059082,-0.48602294921875,7.486070156097412
1477400060987,-6.0639142990112305,-0.7529764175415039,7.336432456970215
1477400061171,-5.795763969421387,-0.5548562407493591,7.5632829666137695
1477400061351,-5.722740650177002,-0.42197805643081665,7.393893241882324
1477400061527,-6.005855083465576,-0.4315548539161682,7.238270282745361
1477400061712,-5.337274074554443,-0.2902969419956207,7.575852870941162
1477400061892,-5.857414245605469,-0.4554968774318695,7.517194747924805
1477400062068,-5.674258232116699,-0.48961424827575684,7.5004353523254395
1477400062252,-5.781398773193359,-0.48063600063323975,7.524975776672363
1477400062432,-5.8873419761657715,-0.46986207365989685,7.597400665283203
1477400062612,-5.959167957305908,-0.5961562395095825,7.620744228363037
1477400062790,-5.758055210113525,-0.46806642413139343,7.7631988525390625
1477400062971,-6.045359134674072,-0.5746083855628967,7.690774440765381
1477400063150,-5.861005783081055,-0.5410895943641663,7.805097579956055
1477400063333,-5.819705963134766,-0.5111620426177979,7.578845500946045
1477400063509,-5.823895454406738,-0.4944026470184326,7.546523571014404
1477400063694,-5.4875102043151855,-0.46327802538871765,7.677007675170898
1477400063869,-6.263830184936523,-0.5704185366630554,7.554903507232666
1477400064049,-5.7323174476623535,-0.5392939448356628,7.711723804473877
1477400064232,-5.793968200683594,-0.6775590777397156,7.517194747924805
1477400064414,-5.552752494812012,-0.4291606545448303,7.461529731750488
1477400064590,-5.81491756439209,-0.40222588181495667,7.574655532836914
1477400064774,-5.805340766906738,-0.6841431260108948,7.329249858856201
1477400064955,-5.683236122131348,-0.49978959560394287,7.366360187530518
1477400065135,-5.54317569732666,-0.45010992884635925,7.561487674713135
1477400065315,-6.096834659576416,-0.5129576921463013,7.4764933586120605
1477400065492,-5.756857872009277,-0.5907692909240723,7.718906402587891
1477400065675,-5.722740650177002,-0.49140989780426025,7.575852870941162
1477400065854,-5.817311763763428,-0.5135562419891357,7.511807918548584
1477400066031,-5.672462463378906,-0.5225345492362976,7.55011510848999
1477400066216,-5.796362400054932,-0.5291185975074768,7.527968883514404
1477400066395,-5.771821975708008,-0.47405192255973816,7.526173114776611
1477400066572,-5.747281074523926,-0.5249287486076355,7.553706169128418
1477400066756,-5.761047840118408,-0.5063736438751221,7.518990516662598
1477400066935,-5.787384033203125,-0.5171475410461426,7.557896137237549
1477400067115,-5.746682643890381,-0.5183446407318115,7.518392086029053
1477400067295,-5.750273704528809,-0.5099649429321289,7.511807918548584
1477400067477,-5.744288444519043,-0.5093663930892944,7.529165744781494
1477400067655,-5.774814605712891,-0.5009866952896118,7.541136741638184
1477400067836,-5.772420406341553,-0.4800374507904053,7.530363082885742
1477400068015,-5.737105846405029,-0.5117605924606323,7.535749912261963
1477400068199,-5.87776517868042,-0.48063600063323975,7.605780124664307
1477400068377,-6.048352241516113,-0.6637924313545227,7.528567314147949
1477400068554,-5.58866548538208,-0.5057750940322876,7.623138427734375
1477400068739,-5.613205909729004,-0.4225766062736511,7.416039943695068
1477400068916,-5.445611953735352,-0.44771572947502136,7.152079105377197
1477400069094,-5.3564276695251465,-0.5141547918319702,7.232883453369141
1477400069278,-5.697601318359375,-0.5345055460929871,7.390900611877441
1477400069460,-5.666476726531982,-0.45010992884635925,7.560290336608887
1477400069636,-5.7544636726379395,-0.5716156363487244,7.463923931121826
1477400069819,-5.759252071380615,-0.4818331003189087,7.515997886657715
1477400069998,-6.0190229415893555,-0.5147533416748047,7.362170219421387
1477400070178,-5.6634840965271,-0.4728548228740692,7.551910877227783
1477400070360,-5.735908508300781,-0.5536591410636902,7.47230339050293
1477400070539,-5.811326026916504,-0.5327098965644836,7.482479095458984
1477400070720,-5.688623428344727,-0.5207388401031494,7.529165744781494
1477400070900,-5.807734966278076,-0.5153518915176392,7.533355712890625
1477400071076,-5.773018836975098,-0.48722004890441895,7.48846435546875
1477400071260,-5.682637691497803,-0.518943190574646,7.557297706604004
1477400071442,-5.777807235717773,-0.5524620413780212,7.5231804847717285
1477400071616,-5.903502941131592,-0.5434837937355042,7.392696380615234
1477400071801,-5.700594425201416,-0.5303156971931458,7.599794864654541
1477400071981,-5.752069473266602,-0.507570743560791,7.578845500946045
1477400072159,-5.767033576965332,-0.5213374495506287,7.552509307861328
1477400072339,-5.658695697784424,-0.47225627303123474,7.595006465911865
1477400072520,-5.601833343505859,-0.45010992884635925,7.647678852081299
1477400072702,-5.882553577423096,-0.3818751573562622,7.47110652923584
1477400072882,-5.707178115844727,-0.578798234462738,7.55011510848999
1477400073059,-5.789179801940918,-0.5578489899635315,7.592013359069824
1477400073241,-5.810129165649414,-0.5488707423210144,7.601590633392334
1477400073422,-5.679046630859375,-0.4315548539161682,7.546523571014404
1477400073599,-5.8657941818237305,-0.5321113467216492,7.487865924835205
1477400073783,-5.723937511444092,-0.507570743560791,7.539939880371094
1477400073959,-5.7754130363464355,-0.4704606235027313,7.55131196975708
1477400074139,-5.749675273895264,-0.5656301379203796,7.5213847160339355
1477400074323,-5.718550682067871,-0.49140989780426025,7.503427982330322
1477400074503,-5.791574001312256,-0.5153518915176392,7.534552574157715
1477400074683,-5.762843608856201,-0.5303156971931458,7.574057102203369
1477400074864,-5.832873821258545,-0.47584760189056396,7.511807918548584
1477400075040,-5.729324817657471,-0.5398924946784973,7.452551364898682
1477400075224,-5.805340766906738,-0.4794389009475708,7.510012149810791
1477400075404,-5.796960830688477,-0.5273229479789734,7.468113422393799
1477400075581,-5.762245178222656,-0.4728548228740692,7.489062786102295
1477400075765,-5.770026206970215,-0.4812345504760742,7.505223751068115
1477400075945,-5.7341132164001465,-0.5650315880775452,7.599195957183838
1477400076119,-5.87896203994751,-0.42616790533065796,7.378929615020752
1477400076305,-5.758055210113525,-0.49799394607543945,7.535151481628418
1477400076485,-5.8209028244018555,-0.46327802538871765,7.474099159240723
1477400076661,-5.757456302642822,-0.4967968463897705,7.5201873779296875
1477400076845,-5.795165061950684,-0.5165489912033081,7.5201873779296875
1477400077026,-5.724536418914795,-0.517746090888977,7.493851184844971
1477400077206,-5.744886875152588,-0.48602294921875,7.481880187988281
1477400077385,-5.798158168792725,-0.4836287498474121,7.554903507232666
1477400077564,-5.74129581451416,-0.4991910457611084,7.483077526092529
1477400077747,-5.855618953704834,-0.5279214978218079,7.336432456970215
1477400077926,-5.339668273925781,-0.44831427931785583,7.562684535980225
1477400078103,-5.553949356079102,-0.46327802538871765,7.491456985473633
1477400078284,-5.683835029602051,-0.3998316824436188,7.477690696716309
1477400078465,-5.686229228973389,-0.5716156363487244,7.709928035736084
1477400078643,-6.403891086578369,-0.4423287510871887,7.5884222984313965
1477400078828,-5.978321552276611,-0.5829881429672241,7.33583402633667
1477400079005,-5.0685248374938965,-0.4231751561164856,7.581838130950928
1477400079183,-5.562927722930908,-0.40043023228645325,7.446565628051758
1477400079367,-5.699397087097168,-0.3447650372982025,7.375338554382324
1477400079549,-5.495291233062744,-0.49799394607543945,7.431003570556641
1477400079728,-5.705382823944092,-0.5015852451324463,7.490858554840088
1477400079908,-5.872378349304199,-0.46806642413139343,7.4782891273498535
1477400080085,-5.70777702331543,-0.46627077460289,7.531559944152832
1477400080267,-5.822698593139648,-0.48243165016174316,7.462726593017578
1477400080449,-5.75865364074707,-0.5398924946784973,7.51659631729126
1477400080625,-5.700594425201416,-0.4626794755458832,7.535749912261963
1477400080808,-5.790376663208008,-0.5171475410461426,7.407061576843262
1477400080989,-5.612008571624756,-0.5333084464073181,7.451354026794434
1477400081165,-5.69580602645874,-0.5003881454467773,7.45913553237915
1477400081349,-5.758055210113525,-0.45669397711753845,7.452551364898682
1477400081530,-5.933430194854736,-0.47405192255973816,7.431003570556641
1477400081706,-5.5563435554504395,-0.45250412821769714,7.596203327178955
1477400081890,-6.055534839630127,-0.49799394607543945,7.390900611877441
1477400082070,-5.9537811279296875,-0.43993455171585083,7.580042362213135
1477400082249,-5.992088317871094,-0.5440823435783386,7.5435309410095215
1477400082431,-5.750872611999512,-0.4644751250743866,7.715314865112305
1477400082608,-6.060921669006348,-0.6380547285079956,7.586028099060059
1477400082791,-5.877166748046875,-0.5530605912208557,7.780557155609131
1477400082971,-5.810129165649414,-0.46327802538871765,7.618350028991699
1477400083147,-5.905298709869385,-0.5195417404174805,7.50582218170166
1477400083331,-5.83347225189209,-0.4489128291606903,7.448361396789551
1477400083512,-5.74249267578125,-0.4985924959182739,7.514800548553467
1477400083687,-5.87896203994751,-0.44532153010368347,7.310694694519043
1477400083870,-5.6191911697387695,-0.38127660751342773,7.3693528175354
1477400084051,-5.866392612457275,-0.45250412821769714,7.372345447540283
1477400084228,-5.773617267608643,-0.5111620426177979,7.429207801818848
1477400084412,-5.817311763763428,-0.48303020000457764,7.539939880371094
1477400084593,-5.749076843261719,-0.444722980260849,7.517194747924805
1477400084773,-5.845443248748779,-0.40222588181495667,7.465719223022461
1477400084953,-5.93941593170166,-0.5416881442070007,7.510012149810791
1477400085132,-5.8436479568481445,-0.5333084464073181,7.614160060882568
1477400085313,-5.841852188110352,-0.42197805643081665,7.518990516662598
1477400085494,-5.717952251434326,-0.43754035234451294,7.478887557983398
1477400085669,-5.644928932189941,-0.375291109085083,7.448361396789551
1477400085854,-5.790376663208008,-0.4465186297893524,7.425017833709717
1477400086034,-5.852027416229248,-0.43035775423049927,7.377133846282959
1477400086210,-5.983708381652832,-0.4686649739742279,7.382521152496338
1477400086390,-5.762245178222656,-0.5291185975074768,7.460930824279785
1477400086575,-5.771223068237305,-0.4058171808719635,7.55131196975708
1477400086750,-5.977723121643066,-0.42197805643081665,7.36396598815918
1477400086935,-5.638344764709473,-0.45669397711753845,7.547122478485107
1477400087115,-5.806537628173828,-0.4686649739742279,7.468712329864502
1477400087294,-5.977723121643066,-0.31184476613998413,7.465719223022461
1477400087475,-5.875969409942627,-0.46627077460289,7.480683326721191
1477400087655,-5.9537811279296875,-0.49320554733276367,7.461529731750488
1477400087836,-5.846640586853027,-0.456095427274704,7.505223751068115
1477400088014,-5.801749229431152,-0.5039794445037842,7.45913553237915
1477400088191,-5.8651957511901855,-0.5099649429321289,7.44417142868042
1477400088376,-5.6209869384765625,-0.48063600063323975,7.498041152954102
1477400088556,-5.811326026916504,-0.4752490520477295,7.435791969299316
1477400088732,-5.869984149932861,-0.42676645517349243,7.515997886657715
1477400088917,-5.802347660064697,-0.5141547918319702,7.536348342895508
1477400089093,-5.900510311126709,-0.4638765752315521,7.495646953582764
1477400089274,-5.806537628173828,-0.5039794445037842,7.5782470703125
1477400089452,-5.846042156219482,-0.4507084786891937,7.550713539123535
1477400089637,-5.809530258178711,-0.47644615173339844,7.512406349182129
1477400089816,-5.972934722900391,-0.4944026470184326,7.4322004318237305
1477400089998,-5.731719017028809,-0.456095427274704,7.645883083343506
1477400090182,-5.777807235717773,-0.497395396232605,7.681796073913574
1477400090357,-6.36498498916626,-0.497395396232605,7.597999095916748
1477400090539,-5.914276599884033,-0.5267243981361389,7.812280178070068
1477400090714,-5.8436479568481445,-0.47824180126190186,7.646481513977051
1477400090899,-5.911882400512695,-0.4626794755458832,7.532158374786377
1477400091079,-5.740696907043457,-0.47405192255973816,7.557896137237549
1477400091262,-5.7544636726379395,-0.4920084476470947,7.508216381072998
1477400091437,-6.035782337188721,-0.42676645517349243,7.464522361755371
1477400091619,-5.711966514587402,-0.5626373887062073,7.733870029449463
1477400091798,-5.721543312072754,-0.690727174282074,7.373542785644531
1477400091979,-5.61799430847168,-0.3603273630142212,7.448959827423096
1477400092160,-5.768230438232422,-0.47584760189056396,7.375338554382324
1477400092339,-5.805340766906738,-0.48303020000457764,7.4333977699279785
1477400092520,-5.729923248291016,-0.5279214978218079,7.436390399932861
1477400092696,-5.5760955810546875,-0.40521863102912903,7.501033782958984
1477400092880,-5.84843635559082,-0.3932476341724396,7.424419403076172
1477400093061,-5.719748020172119,-0.4058171808719635,7.435791969299316
1477400093236,-5.881955146789551,-0.42676645517349243,7.280767440795898
1477400093420,-5.702988624572754,-0.34177228808403015,7.395090579986572
1477400093601,-5.8191070556640625,-0.4638765752315521,7.439383029937744
1477400093777,-5.811326026916504,-0.4321534037590027,7.399280548095703
1477400093961,-5.656899929046631,-0.395043283700943,7.433996200561523
1477400094142,-5.987299919128418,-0.6260837316513062,7.649474620819092
1477400094317,-5.787384033203125,-0.49619829654693604,7.535151481628418
1477400094502,-5.768828868865967,-0.5428852438926697,7.514202117919922
1477400094681,-5.766434669494629,-0.5063736438751221,7.496844291687012
1477400094862,-5.781997203826904,-0.5237316489219666,7.49923849105835
1477400095042,-5.787384033203125,-0.4967968463897705,7.501033782958984
1477400095218,-5.766434669494629,-0.5267243981361389,7.495646953582764
1477400095403,-5.823895454406738,-0.5195417404174805,7.492654323577881
1477400095583,-5.698798656463623,-0.5542576909065247,7.531559944152832
1477400095759,-5.852027416229248,-0.4926069974899292,7.4752960205078125
1477400095943,-5.783792972564697,-0.5596446394920349,7.5453267097473145
1477400096123,-5.7760114669799805,-0.5327098965644836,7.513004779815674
1477400096300,-5.805340766906738,-0.5195417404174805,7.498041152954102
1477400096483,-5.576694488525391,-0.47644615173339844,7.542334079742432
1477400096664,-5.558737754821777,-0.5033808946609497,7.526173114776611
1477400096844,-5.676053524017334,-0.4770447015762329,7.480683326721191
1477400097024,-5.812523365020752,-0.5542576909065247,7.6075758934021
1477400097204,-5.708375453948975,-0.5093663930892944,7.583035469055176
1477400097384,-5.839457988739014,-0.5668272376060486,7.531559944152832
1477400097564,-5.6227827072143555,-0.48243165016174316,7.5632829666137695
1477400097743,-5.866392612457275,-0.5662286877632141,7.492654323577881
1477400097925,-5.940014362335205,-0.5518634915351868,7.555501937866211
1477400098105,-6.1530985832214355,-0.5614402890205383,7.469310760498047
1477400098299,-5.643732070922852,-0.4668693244457245,7.572261333465576
1477400098466,-5.711368083953857,-0.4908113479614258,7.4800848960876465
1477400098646,-5.896320343017578,-0.5261258482933044,7.538742542266846
1477400098821,-5.7993550300598145,-0.45190557837486267,7.738059997558594
1477400099006,-6.0184245109558105,-0.48303020000457764,7.135319709777832
1477400099186,-5.457582950592041,-0.3776853084564209,7.3436150550842285
1477400099365,-5.525817394256592,-0.3477577865123749,7.281964302062988
1477400099546,-6.024410247802734,-0.5650315880775452,7.773972988128662
1477400099722,-6.325480937957764,-0.641047477722168,7.383718013763428
1477400099907,-6.1315507888793945,-0.6697779297828674,7.415441036224365
1477400100081,-5.9070940017700195,-0.5195417404174805,7.365761756896973
1477400100262,-6.387131690979004,-0.595557689666748,7.454347133636475
1477400100444,-6.142324447631836,-0.7200561761856079,7.542334079742432
1477400100628,-6.005855083465576,-0.6536170840263367,7.405265808105469
1477400100803,-6.027402877807617,-0.6123170852661133,7.378929615020752
1477400100989,-5.986701488494873,-0.641047477722168,7.299322605133057
1477400101166,-6.023212909698486,-0.50876784324646,7.338228225708008
1477400101344,-6.051344871520996,-0.6613982319831848,7.314286231994629
1477400101529,-6.000467777252197,-0.5123591423034668,7.344213485717773
1477400101709,-6.022614479064941,-0.6009446382522583,7.269993305206299
1477400101889,-5.98490571975708,-0.6021417379379272,7.384915351867676
1477400102070,-6.044760704040527,-0.6015431880950928,7.365761756896973
1477400102247,-6.028599739074707,-0.6075286865234375,7.31847620010376
1477400102429,-5.890933513641357,-0.5578489899635315,7.372345447540283
1477400102609,-6.064512729644775,-0.6506243348121643,7.305906295776367
1477400102787,-5.943006992340088,-0.6123170852661133,7.382521152496338
1477400102970,-6.023212909698486,-0.618302583694458,7.316680431365967
1477400103148,-5.974730491638184,-0.629675030708313,7.359776020050049
1477400103325,-5.976525783538818,-0.6248866319656372,7.322665691375732
1477400103510,-5.964554786682129,-0.6105214357376099,7.360374450683594
1477400103690,-5.98490571975708,-0.608127236366272,7.33583402633667
1477400103869,-5.9735331535339355,-0.6171054840087891,7.334038257598877
1477400104051,-5.969942092895508,-0.6159083843231201,7.375936985015869
1477400104231,-5.995080947875977,-0.5746083855628967,7.3454108238220215
1477400104411,-5.972934722900391,-0.6272808313369751,7.3681559562683105
1477400104591,-5.985504150390625,-0.6045359373092651,7.349001884460449
1477400104775,-5.974730491638184,-0.6212953329086304,7.351396083831787
1477400104952,-5.941211700439453,-0.6099228858947754,7.360374450683594
1477400105133,-5.996278285980225,-0.6326677799224854,7.338228225708008
1477400105307,-5.959167957305908,-0.6218938827514648,7.357980251312256
1477400105490,-6.002861976623535,-0.6368576288223267,7.360973358154297
1477400105672,-5.980117321014404,-0.608127236366272,7.389104843139648
1477400105848,-5.953182697296143,-0.6518214344978333,7.342418193817139
1477400106032,-5.959766387939453,-0.619499683380127,7.347805023193359
1477400106213,-6.004059314727783,-0.5973533391952515,7.362170219421387
1477400106389,-5.913079738616943,-0.6386532783508301,7.354389190673828
1477400106572,-6.016030311584473,-0.6111199855804443,7.3436150550842285
1477400106756,-5.882553577423096,-0.67815762758255,7.4118499755859375
1477400106930,-5.701791286468506,-0.5321113467216492,7.462726593017578
1477400107113,-5.773617267608643,-0.6440402865409851,7.164050102233887
1477400107291,-5.851428985595703,-0.568622887134552,7.281964302062988
1477400107474,-5.993285179138184,-0.5488707423210144,7.225700855255127
1477400107654,-5.941211700439453,-0.629675030708313,7.320870399475098
1477400107846,-5.948992729187012,-0.6212953329086304,7.32505989074707
1477400108014,-5.946000099182129,-0.6099228858947754,7.335235595703125
1477400108194,-5.954977989196777,-0.6272808313369751,7.364564418792725
1477400108370,-6.008847713470459,-0.6159083843231201,7.359177589416504
1477400108555,-5.9735331535339355,-0.6727706789970398,7.369951248168945
1477400108735,-5.990292549133301,-0.6374561786651611,7.367557048797607
1477400108911,-5.9735331535339355,-0.6416460275650024,7.336432456970215
1477400109095,-5.964554786682129,-0.629675030708313,7.341220855712891
1477400109274,-5.953182697296143,-0.6368576288223267,7.354987621307373
1477400109456,-6.050746440887451,-0.6392518281936646,7.389703750610352
1477400109635,-5.947196960449219,-0.6368576288223267,7.357381820678711
1477400109816,-5.969343185424805,-0.6009446382522583,7.358579158782959
1477400109996,-5.93941593170166,-0.6320692300796509,7.376535415649414
1477400110176,-6.042964935302734,-0.6266822814941406,7.350797653198242
1477400110352,-5.925649166107178,-0.6123170852661133,7.334038257598877
1477400110537,-5.954977989196777,-0.6356605291366577,7.351396083831787
1477400110715,-5.986701488494873,-0.5883750915527344,7.35319185256958
1477400110893,-5.980715751647949,-0.5883750915527344,7.363367557525635
1477400111077,-6.006453514099121,-0.5901707410812378,7.356184959411621
1477400111258,-5.979518890380859,-0.629675030708313,7.334636688232422
1477400111435,-5.977723121643066,-0.6099228858947754,7.356783390045166
1477400111618,-5.966350555419922,-0.5991489887237549,7.354987621307373
1477400111795,-6.033987045288086,-0.5877765417098999,7.325658798217773
1477400111973,-6.142922878265381,-0.6979097723960876,7.359776020050049
1477400112158,-5.880757808685303,-0.5446808934211731,7.314286231994629
1477400112335,-6.037578105926514,-0.5386953949928284,7.328052997589111
1477400112521,-5.928043365478516,-0.5506663918495178,7.329848289489746
1477400112699,-6.2392897605896,-0.5985504388809204,7.407061576843262
1477400112874,-5.917868137359619,-0.4866214990615845,7.445967197418213
1477400113059,-5.873575210571289,-0.5985504388809204,7.47230339050293
1477400113239,-5.870582580566406,-0.5446808934211731,7.429806232452393
1477400113415,-5.84843635559082,-0.5219359993934631,7.421426773071289
1477400113599,-6.081871032714844,-0.49140989780426025,7.467514991760254
1477400113780,-6.412270545959473,-0.67815762758255,7.380126953125
1477400113960,-5.98610258102417,-0.690727174282074,7.396287441253662
1477400114138,-6.068104267120361,-0.6368576288223267,7.350199222564697
1477400114320,-6.001665115356445,-0.5841852426528931,7.3232645988464355
1477400114499,-6.04775333404541,-0.6248866319656372,7.360374450683594
1477400114680,-6.081871032714844,-0.5937620401382446,7.3436150550842285
1477400114860,-6.052541732788086,-0.6111199855804443,7.294534206390381
1477400115039,-6.016628742218018,-0.608127236366272,7.308899402618408
1477400115221,-6.031592845916748,-0.5859808921813965,7.281365871429443
1477400115396,-6.12137508392334,-0.5560533404350281,7.221510887145996
1477400115581,-5.919064998626709,-0.5590460896492004,7.4106526374816895
1477400115761,-6.211756229400635,-0.6428431272506714,7.198765754699707
1477400115937,-6.068702697753906,-0.5973533391952515,7.251438617706299
1477400116122,-5.621585369110107,-0.5823895931243896,7.486070156097412
1477400116302,-5.938817501068115,-0.518943190574646,7.438784599304199
1477400116480,-6.630741596221924,-0.6129156351089478,7.236474514007568
1477400116662,-5.9286417961120605,-0.6380547285079956,7.541136741638184
1477400116841,-6.147112846374512,-0.6434416770935059,7.349600791931152
1477400117023,-6.036381244659424,-0.5692214369773865,7.277774810791016
1477400117203,-5.954379558563232,-0.6087257862091064,7.346009254455566
1477400117380,-6.059125900268555,-0.6434416770935059,7.299322605133057
1477400117562,-6.008847713470459,-0.5973533391952515,7.331045627593994
1477400117739,-5.978919982910156,-0.6212953329086304,7.3005194664001465
1477400117935,-6.071695327758789,-0.6171054840087891,7.281365871429443
1477400118100,-5.978321552276611,-0.595557689666748,7.336432456970215
1477400118284,-6.068702697753906,-0.7260416746139526,7.311293601989746
1477400118459,-6.048352241516113,-0.6087257862091064,7.339425086975098
1477400118642,-6.017826080322266,-0.6141127347946167,7.305307865142822
1477400118823,-6.049549102783203,-0.6045359373092651,7.302913665771484
1477400119000,-6.080673694610596,-0.6422445774078369,7.260416507720947
1477400119180,-6.044162273406982,-0.595557689666748,7.246650218963623
1477400119363,-5.963956356048584,-0.5883750915527344,7.349600791931152
1477400119543,-5.919064998626709,-0.6494272351264954,7.316680431365967
1477400119725,-6.082469463348389,-0.6362590789794922,7.2298903465271
1477400119901,-6.142324447631836,-0.6649895310401917,7.281365871429443
1477400120081,-6.034585475921631,-0.6482301354408264,7.356184959411621
1477400120266,-6.01303768157959,-0.6901286244392395,7.3232645988464355
1477400120441,-6.052541732788086,-0.6177040338516235,7.293935298919678
1477400120626,-5.98490571975708,-0.6177040338516235,7.27418327331543
1477400120806,-6.078877925872803,-0.6536170840263367,7.311892032623291
1477400120982,-6.035782337188721,-0.5380968451499939,7.328052997589111
1477400121166,-6.051344871520996,-0.6637924313545227,7.295132637023926
1477400121347,-6.023811340332031,-0.5578489899635315,7.275380611419678
1477400121525,-6.0836663246154785,-0.6248866319656372,7.262810707092285
1477400121704,-6.163872241973877,-0.4776432514190674,7.331045627593994
1477400121883,-6.008847713470459,-0.596754789352417,7.255029678344727
1477400122068,-5.8424506187438965,-0.579995334148407,7.44417142868042
1477400122248,-6.049549102783203,-0.5835866928100586,7.353790283203125
1477400122422,-5.92205810546875,-0.5913678407669067,7.344812393188477
1477400122608,-6.0405707359313965,-0.5315127968788147,7.508815288543701
1477400122789,-6.511031627655029,-0.7152677774429321,7.326855659484863
1477400122963,-6.017227649688721,-0.5991489887237549,7.445368766784668
1477400123149,-6.119579315185547,-0.6099228858947754,7.332242488861084
1477400123329,-6.084863662719727,-0.5937620401382446,7.310694694519043
1477400123504,-6.099827289581299,-0.5602431893348694,7.302913665771484
1477400123689,-6.101024627685547,-0.5590460896492004,7.31847620010376
1477400123865,-6.056731700897217,-0.596754789352417,7.424419403076172
1477400124049,-6.22731876373291,-0.718859076499939,7.224503517150879
1477400124229,-6.032191276550293,-0.6147112846374512,7.3669586181640625
1477400124407,-6.215946197509766,-0.7386112213134766,7.399878978729248
1477400124590,-6.008847713470459,-0.6159083843231201,7.265803813934326
1477400124767,-6.121973514556885,-0.5374982953071594,7.147889137268066
1477400124945,-6.078279495239258,-0.6033388376235962,7.24605131149292
1477400125130,-6.31829833984375,-0.7032967209815979,7.5231804847717285
1477400125310,-6.0597243309021,-0.6290764808654785,7.310694694519043
1477400125486,-6.088454723358154,-0.6404489278793335,7.3023152351379395
1477400125670,-6.021417140960693,-0.6332663297653198,7.317877292633057
1477400125852,-6.098031520843506,-0.21966800093650818,6.660070419311523
1477400126029,-6.007650852203369,-0.22206220030784607,6.953360080718994
1477400126211,-5.989095687866211,-0.4902127981185913,7.033565998077393
1477400126391,-5.980117321014404,-0.36332011222839355,6.962936878204346
1477400126571,-6.036979675292969,-0.5650315880775452,7.2556281089782715
1477400126751,-5.901108741760254,-0.11432313174009323,7.115567684173584
1477400126933,-6.34643030166626,-0.6506243348121643,7.038354396820068
1477400127110,-5.880159378051758,-0.5291185975074768,7.244256019592285
1477400127290,-6.017227649688721,-0.6422445774078369,7.184999465942383
1477400127468,-6.073491096496582,-0.5734112858772278,7.094019412994385
1477400127652,-5.9771246910095215,-0.6350619792938232,7.231087684631348
1477400127832,-6.174047470092773,-0.4100070297718048,7.2137298583984375
1477400128008,-6.221931457519531,-0.6386532783508301,7.159261703491211
1477400128189,-5.918466567993164,-0.5949591398239136,7.369951248168945
1477400128373,-6.084265232086182,-0.7535749673843384,7.31847620010376
1477400128550,-6.048352241516113,-0.6147112846374512,7.259219646453857
1477400128733,-6.039972305297852,-0.579995334148407,7.3023152351379395
1477400128912,-6.209362030029297,-0.6278793811798096,7.270592212677002
1477400129093,-6.034585475921631,-0.6835445761680603,7.35319185256958
1477400129269,-6.039373874664307,-0.5943605899810791,7.24485445022583
1477400129453,-6.110002517700195,-0.568622887134552,7.209539890289307
1477400129634,-6.1052141189575195,-0.6763619780540466,7.3238630294799805
1477400129814,-6.168062210083008,-0.547075092792511,7.245452880859375
1477400129990,-6.0597243309021,-0.5494692921638489,7.304111003875732
1477400130175,-6.034585475921631,-0.6488286852836609,7.27298641204834
1477400130355,-6.186018466949463,-0.6494272351264954,7.222109317779541
1477400130530,-6.061520099639893,-0.5835866928100586,7.289146900177002
1477400130715,-6.010045051574707,-0.5123591423034668,7.007828235626221
1477400130898,-6.077082633972168,-0.6033388376235962,7.230489253997803
1477400131075,-6.127360820770264,-0.5907692909240723,7.241861820220947
1477400131256,-6.1088056564331055,-0.6374561786651611,7.287351608276367
1477400131436,-6.104615688323975,-0.6434416770935059,7.1903862953186035
1477400131616,-6.183624267578125,-0.7038952708244324,7.160458564758301
1477400131796,-6.114790916442871,-0.49140989780426025,7.186794757843018
1477400131979,-6.420650482177734,-0.3513490855693817,7.102997779846191
1477400132157,-6.264428615570068,-0.3489548861980438,7.064690589904785
1477400132337,-6.035782337188721,-0.7380126714706421,7.076661586761475
1477400132513,-6.157288074493408,-0.6745663285255432,7.2586212158203125
1477400132697,-6.0836663246154785,-0.6117185354232788,7.100005149841309
1477400132878,-5.941211700439453,-0.5644330382347107,7.1490864753723145
1477400133053,-6.203376770019531,-0.3627215623855591,6.9276227951049805
1477400133238,-6.139331817626953,-0.7308300733566284,7.444770336151123
1477400133418,-6.301538944244385,-0.4537012279033661,7.050923824310303
1477400133599,-5.9974751472473145,-0.38067805767059326,7.038952827453613
1477400133779,-6.039972305297852,-0.1975216418504715,6.937798023223877
1477400133956,-5.5563435554504395,-0.46088382601737976,7.155670166015625
1477400134139,-6.3518171310424805,-0.8547300100326538,7.29154109954834
1477400134314,-6.129156112670898,-0.8373720645904541,7.608773231506348
1477400134495,-5.950788497924805,-0.7368155717849731,7.496245384216309
1477400134680,-6.168062210083008,-0.7374141216278076,7.563881874084473
1477400134859,-6.0190229415893555,-0.707486629486084,7.626729488372803
1477400135035,-5.993285179138184,-0.568622887134552,7.379528045654297
1477400135219,-5.938817501068115,-0.5321113467216492,7.353790283203125
1477400135399,-5.9753289222717285,-0.5871779918670654,7.356783390045166
1477400135575,-5.927444934844971,-0.5632359385490417,7.378331184387207
1477400135760,-5.931035995483398,-0.586579442024231,7.358579158782959
1477400135938,-5.919064998626709,-0.5734112858772278,7.391499042510986
1477400136120,-5.898714542388916,-0.6009446382522583,7.376535415649414
1477400136300,-5.981913089752197,-0.6230909824371338,7.407660007476807
1477400136479,-5.980715751647949,-0.6548141837120056,7.400477409362793
1477400136661,-5.920860767364502,-0.5883750915527344,7.369951248168945
1477400136837,-5.892130374908447,-0.6159083843231201,7.371747016906738
1477400137017,-5.8891377449035645,-0.5811924338340759,7.387309551239014
1477400137200,-5.926846504211426,-0.5949591398239136,7.412448406219482
1477400137381,-6.031592845916748,-0.5871779918670654,7.372944355010986
1477400137557,-5.936423301696777,-0.6123170852661133,7.400477409362793
1477400137742,-5.989694118499756,-0.6021417379379272,7.371148586273193
1477400137922,-5.914276599884033,-0.6045359373092651,7.374739646911621
1477400138098,-5.946000099182129,-0.5889736413955688,7.362170219421387
1477400138280,-5.914276599884033,-0.6153098344802856,7.371148586273193
1477400138462,-5.926846504211426,-0.6111199855804443,7.408258438110352
1477400138642,-5.938817501068115,-0.6003460884094238,7.394492149353027
1477400138822,-5.938817501068115,-0.6057330369949341,7.39748477935791
1477400138999,-5.972336292266846,-0.7912836670875549,7.417236804962158
1477400139182,-5.903502941131592,-0.558447539806366,7.456142425537109
1477400139360,-5.999869346618652,-0.6362590789794922,7.3651628494262695
1477400139540,-5.926846504211426,-0.5991489887237549,7.369951248168945
1477400139723,-5.87896203994751,-0.6596025824546814,7.408857345581055
1477400139900,-5.978919982910156,-0.5578489899635315,7.3436150550842285
1477400140079,-5.954379558563232,-0.569819986820221,7.344213485717773
1477400140263,-5.908291339874268,-0.6236895322799683,7.3903021812438965
1477400140444,-5.953182697296143,-0.5961562395095825,7.389703750610352
1477400140624,-5.9555768966674805,-0.5979518890380859,7.395090579986572
1477400140805,-5.959167957305908,-0.5871779918670654,7.390900611877441
1477400140985,-5.916072368621826,-0.5883750915527344,7.393893241882324
1477400141165,-5.946598529815674,-0.6039373874664307,7.374141216278076
1477400141345,-5.944802761077881,-0.6105214357376099,7.379528045654297
1477400141530,-5.950788497924805,-0.6027402877807617,7.398083209991455
1477400141705,-5.947795391082764,-0.6392518281936646,7.398681640625
1477400141885,-5.944204330444336,-0.618302583694458,7.376535415649414
1477400142062,-5.938218593597412,-0.5877765417098999,7.367557048797607
1477400142246,-5.9100871086120605,-0.6129156351089478,7.405864238739014
1477400142426,-5.964554786682129,-0.6422445774078369,7.389104843139648
1477400142602,-5.9322333335876465,-0.5578489899635315,7.395689010620117
1477400142786,-5.914276599884033,-0.6123170852661133,7.371148586273193
1477400142967,-5.975927352905273,-0.608127236366272,7.389703750610352
1477400143143,-5.9340291023254395,-0.5811924338340759,7.382521152496338
1477400143327,-5.9106855392456055,-0.6159083843231201,7.375338554382324
1477400143506,-5.872976779937744,-0.6189011335372925,7.361571788787842
1477400143688,-5.941810131072998,-0.5770025849342346,7.38132381439209
1477400143868,-5.917868137359619,-0.6009446382522583,7.396886348724365
1477400144046,-5.948394298553467,-0.5925649404525757,7.371148586273193
1477400144229,-5.931035995483398,-0.7164648771286011,7.401674747467041
1477400144403,-5.8209028244018555,-0.20290859043598175,6.82048225402832
1477400144583,-5.90589714050293,-0.6380547285079956,7.132327079772949
1477400144769,-6.229712963104248,-1.05105459690094,7.4782891273498535
1477400144949,-5.871779441833496,-0.25498247146606445,6.92343282699585
1477400145124,-6.0220160484313965,-0.7601590156555176,7.0156097412109375
1477400145309,-5.890933513641357,-0.3280056416988373,6.963535785675049
1477400145489,-5.537189960479736,-0.26575639843940735,7.060500621795654
1477400145668,-5.548562526702881,-0.07242459803819656,6.592434406280518
1477400145849,-5.6670756340026855,-0.08499415963888168,6.631340026855469
1477400146028,-5.774216175079346,-0.5398924946784973,7.206547260284424
1477400146209,-6.019621849060059,-0.8463503122329712,7.179013729095459
1477400146390,-5.784989833831787,-0.8553285598754883,7.41484260559082
1477400146566,-6.016030311584473,-0.5494692921638489,7.42561674118042
1477400146750,-5.974730491638184,-0.5518634915351868,7.387309551239014
1477400146930,-5.958569526672363,-0.6272808313369751,7.350199222564697
1477400147106,-5.927444934844971,-0.6206967830657959,7.363367557525635
1477400147289,-6.008249282836914,-0.6159083843231201,7.319074630737305
1477400147471,-5.942408561706543,-0.5776011347770691,7.356783390045166
1477400147646,-5.925649166107178,-0.6314706802368164,7.3693528175354
1477400147831,-5.990292549133301,-0.6033388376235962,7.375936985015869
1477400148010,-5.95138692855835,-0.6356605291366577,7.398681640625
1477400148189,-5.957971096038818,-0.6057330369949341,7.360973358154297
1477400148369,-5.9555768966674805,-0.6177040338516235,7.382521152496338
1477400148552,-6.011840343475342,-0.6356605291366577,7.3885064125061035
1477400148732,-5.936423301696777,-0.6218938827514648,7.354987621307373
1477400148912,-5.9525837898254395,-0.6057330369949341,7.375338554382324
1477400149093,-5.949591159820557,-0.6141127347946167,7.348403453826904
1477400149271,-6.016628742218018,-0.6392518281936646,7.3885064125061035
1477400149453,-5.95677375793457,-0.6272808313369751,7.380126953125
1477400149627,-5.93941593170166,-0.595557689666748,7.357381820678711
1477400149813,-5.957372188568115,-0.6248866319656372,7.370550155639648
1477400149993,-5.923853397369385,-0.6386532783508301,7.3885064125061035
1477400150169,-5.916670799255371,-0.606930136680603,7.377732753753662
1477400150353,-5.963357925415039,-0.5895721912384033,7.35199499130249
1477400150533,-5.938817501068115,-0.6266822814941406,7.376535415649414
1477400150714,-5.971138954162598,-0.5566518902778625,7.402871608734131
1477400150894,-5.948992729187012,-0.6039373874664307,7.369951248168945
1477400151073,-5.969343185424805,-0.5871779918670654,7.378331184387207
1477400151254,-5.966350555419922,-0.579995334148407,7.366360187530518
1477400151434,-5.990292549133301,-0.6506243348121643,7.375338554382324
1477400151612,-5.94061279296875,-0.6350619792938232,7.3681559562683105
1477400151795,-5.963357925415039,-0.645237386226654,7.369951248168945
1477400151975,-5.958569526672363,-0.5925649404525757,7.354389190673828
1477400152150,-5.950788497924805,-0.6272808313369751,7.401075839996338
1477400152332,-5.980715751647949,-0.586579442024231,7.373542785644531
1477400152515,-5.965153694152832,-0.5805938839912415,7.378331184387207
1477400152691,-5.903502941131592,-0.5997475385665894,7.3920979499816895
1477400152875,-5.849034786224365,-0.6613982319831848,7.269394874572754
1477400153056,-5.799953460693359,-0.8367735147476196,7.448959827423096
1477400153236,-6.048352241516113,-0.5147533416748047,7.344812393188477
1477400153416,-5.981314182281494,-0.788889467716217,7.335235595703125
1477400153594,-6.007051944732666,-0.656609833240509,7.447762966156006
1477400153776,-5.912481307983398,-0.5201402902603149,7.287950038909912
1477400153956,-5.959167957305908,-0.5859808921813965,7.451354026794434
1477400154133,-5.895721912384033,-0.6123170852661133,7.328052997589111
1477400154318,-5.78798246383667,-0.5734112858772278,7.458536624908447
1477400154497,-6.049549102783203,-0.7811083197593689,7.5004353523254395
1477400154673,-6.099827289581299,-0.9199720025062561,7.351396083831787
1477400154859,-5.783194065093994,-0.5422866940498352,7.394492149353027
1477400155034,-5.971737384796143,-0.628477931022644,7.3867106437683105
1477400155213,-5.793369770050049,-0.5530605912208557,7.46033239364624
1477400155396,-5.874772548675537,-0.5997475385665894,7.41484260559082
1477400155579,-6.002861976623535,-0.5410895943641663,7.413046836853027
1477400155758,-5.995080947875977,-0.6709750294685364,7.435791969299316
1477400155939,-5.950788497924805,-0.6057330369949341,7.408857345581055
1477400156115,-5.926247596740723,-0.6560112833976746,7.383119583129883
1477400156299,-5.8873419761657715,-0.6344634294509888,7.3693528175354
1477400156480,-5.881955146789551,-0.639850378036499,7.384915351867676
1477400156655,-5.901108741760254,-0.5590460896492004,7.362768650054932
1477400156839,-5.892728805541992,-0.6697779297828674,7.406463146209717
1477400157019,-5.949591159820557,-0.5943605899810791,7.401674747467041
1477400157195,-5.966948986053467,-0.6117185354232788,7.383718013763428
1477400157379,-5.919663906097412,-0.6045359373092651,7.405864238739014
1477400157560,-5.8885393142700195,-0.5937620401382446,7.420828342437744
1477400157735,-5.94061279296875,-0.618302583694458,7.373542785644531
1477400157920,-5.918466567993164,-0.6434416770935059,7.4118499755859375
1477400158099,-5.901108741760254,-0.6117185354232788,7.405864238739014
1477400158280,-5.913079738616943,-0.6428431272506714,7.402871608734131
1477400158461,-5.902305603027344,-0.6165069341659546,7.398083209991455
1477400158638,-5.896918773651123,-0.6230909824371338,7.405265808105469
1477400158821,-5.9100871086120605,-0.6380547285079956,7.398083209991455
1477400159001,-5.896320343017578,-0.6404489278793335,7.392696380615234
1477400159178,-5.919663906097412,-0.6356605291366577,7.4094557762146
1477400159360,-5.917868137359619,-0.641047477722168,7.401075839996338
1477400159542,-5.905298709869385,-0.6518214344978333,7.39748477935791
1477400159717,-5.9070940017700195,-0.6494272351264954,7.408258438110352
1477400159902,-5.904101371765137,-0.5817909836769104,7.414244174957275
1477400160079,-5.874772548675537,-0.6254851818084717,7.398681640625
1477400160264,-5.916072368621826,-0.6218938827514648,7.385513782501221
1477400160444,-5.90589714050293,-0.5847837924957275,7.426215171813965
1477400160619,-5.881955146789551,-0.6727706789970398,7.4118499755859375
1477400160803,-5.920262336730957,-0.6428431272506714,7.4106526374816895
1477400160983,-5.9070940017700195,-0.6314706802368164,7.404068946838379
1477400161164,-5.889736175537109,-0.6075286865234375,7.422025203704834
1477400161343,-5.904101371765137,-0.6338648796081543,7.38132381439209
1477400161523,-5.916670799255371,-0.6189011335372925,7.411251544952393
1477400161699,-5.880757808685303,-0.6554127335548401,7.402871608734131
1477400161884,-5.9100871086120605,-0.6434416770935059,7.401674747467041
1477400162064,-5.868188381195068,-0.6356605291366577,7.387907981872559
1477400162240,-5.920860767364502,-0.646434485912323,7.42561674118042
1477400162424,-5.907692909240723,-0.6302735805511475,7.405265808105469
1477400162601,-5.867589950561523,-0.6446388363838196,7.404068946838379
1477400162785,-5.914276599884033,-0.6422445774078369,7.406463146209717
1477400162965,-5.879560947418213,-0.6733692288398743,7.429207801818848
1477400163145,-5.9100871086120605,-0.6548141837120056,7.428609371185303
1477400163325,-5.900510311126709,-0.618302583694458,7.384915351867676
1477400163505,-5.8873419761657715,-0.6613982319831848,7.416638374328613
1477400163683,-5.907692909240723,-0.6548141837120056,7.39748477935791
1477400163865,-5.9537811279296875,-0.6643909811973572,7.428609371185303
1477400164045,-5.880159378051758,-0.6715735793113708,7.42681360244751
1477400164226,-5.935824394226074,-0.6326677799224854,7.374141216278076
1477400164406,-5.897517204284668,-0.6416460275650024,7.403470039367676
1477400164583,-5.906495571136475,-0.6404489278793335,7.427412033081055
1477400164762,-5.892728805541992,-0.6009446382522583,7.403470039367676
1477400164947,-5.896320343017578,-0.6673837304115295,7.395689010620117
1477400165122,-5.904699802398682,-0.6362590789794922,7.423222541809082
1477400165305,-5.909488201141357,-0.618302583694458,7.401075839996338
1477400165488,-5.8651957511901855,-0.6655880808830261,7.402871608734131
1477400165668,-5.937620162963867,-0.6362590789794922,7.39748477935791
1477400165846,-5.902904510498047,-0.5991489887237549,7.422623634338379
1477400166027,-5.868188381195068,-0.6434416770935059,7.41484260559082
1477400166206,-5.899911403656006,-0.6440402865409851,7.377732753753662
1477400166388,-5.891531944274902,-0.5805938839912415,7.407061576843262
1477400166568,-5.868188381195068,-0.657806932926178,7.400477409362793
1477400166744,-5.911882400512695,-0.6572083830833435,7.395090579986572
1477400166929,-5.891531944274902,-0.6200982332229614,7.4094557762146
1477400167108,-5.864596843719482,-0.639850378036499,7.401674747467041
1477400167286,-5.937021732330322,-0.6434416770935059,7.429207801818848
1477400167469,-5.920262336730957,-0.6159083843231201,7.394492149353027
1477400167649,-5.841253757476807,-0.6667851805686951,7.418434143066406
1477400167828,-5.899911403656006,-0.6332663297653198,7.399280548095703
1477400168009,-5.9106855392456055,-0.6625953316688538,7.445368766784668
1477400168190,-5.89512300491333,-0.6518214344978333,7.398681640625
1477400168371,-5.902904510498047,-0.6165069341659546,7.376535415649414
1477400168550,-5.829282760620117,-0.6212953329086304,7.42681360244751
1477400168730,-5.920262336730957,-0.6506243348121643,7.385513782501221
1477400168910,-5.893327713012695,-0.6470330357551575,7.4316020011901855
1477400169090,-5.881955146789551,-0.6458359360694885,7.399878978729248
1477400169266,-5.901108741760254,-0.6290764808654785,7.387907981872559
1477400169451,-5.874772548675537,-0.6350619792938232,7.420229434967041
1477400169631,-5.898714542388916,-0.645237386226654,7.417835235595703
1477400169807,-5.894524574279785,-0.6314706802368164,7.4094557762146
1477400169992,-5.876567840576172,-0.6422445774078369,7.407660007476807
1477400170171,-5.9088897705078125,-0.639850378036499,7.4136457443237305
1477400170350,-5.890933513641357,-0.6236895322799683,7.4106526374816895
1477400170531,-5.880159378051758,-0.6494272351264954,7.408857345581055
1477400170711,-5.894524574279785,-0.6272808313369751,7.4136457443237305
1477400170892,-5.871779441833496,-0.645237386226654,7.411251544952393
1477400171072,-5.914276599884033,-0.6470330357551575,7.396886348724365
1477400171248,-5.873575210571289,-0.6129156351089478,7.441777229309082
1477400171433,-5.924452304840088,-0.6572083830833435,7.4100542068481445
1477400171612,-5.925050735473633,-0.6428431272506714,7.45913553237915
1477400171788,-5.878363609313965,-0.6278793811798096,7.404667377471924
1477400171973,-5.89512300491333,-0.6302735805511475,7.390900611877441
1477400172153,-5.892728805541992,-0.6302735805511475,7.4322004318237305
1477400172330,-5.90589714050293,-0.629675030708313,7.41484260559082
1477400172514,-5.911882400512695,-0.6380547285079956,7.45913553237915
1477400172691,-5.896320343017578,-0.6590040326118469,7.416039943695068
1477400172872,-5.878363609313965,-0.6242880821228027,7.417835235595703
1477400173054,-5.878363609313965,-0.6386532783508301,7.400477409362793
1477400173234,-5.9100871086120605,-0.6356605291366577,7.417236804962158
1477400173414,-5.925649166107178,-0.6548141837120056,7.4351935386657715
1477400173594,-5.871181011199951,-0.6344634294509888,7.429806232452393
1477400173771,-5.856217384338379,-0.5859808921813965,7.408258438110352
1477400173953,-5.8622026443481445,-0.6332663297653198,7.419631004333496
1477400174134,-5.896320343017578,-0.639850378036499,7.41484260559082
1477400174311,-5.92205810546875,-0.639850378036499,7.422025203704834
1477400174495,-5.8891377449035645,-0.6362590789794922,7.402273178100586
1477400174673,-5.886145114898682,-0.6254851818084717,7.407061576843262
1477400174851,-5.850830554962158,-0.628477931022644,7.420229434967041
1477400175036,-5.901108741760254,-0.6476315855979919,7.387907981872559
1477400175216,-5.892130374908447,-0.6314706802368164,7.448959827423096
1477400175396,-5.871181011199951,-0.6224924325942993,7.399280548095703
1477400175576,-5.901108741760254,-0.6248866319656372,7.402871608734131
1477400175752,-5.8657941818237305,-0.6350619792938232,7.4322004318237305
1477400175937,-5.877166748046875,-0.6230909824371338,7.400477409362793
1477400176116,-5.872976779937744,-0.6200982332229614,7.396886348724365
1477400176294,-5.841253757476807,-0.6542156338691711,7.365761756896973
1477400176477,-5.899312973022461,-0.6308721303939819,7.411251544952393
1477400176653,-5.884947776794434,-0.6135141849517822,7.421426773071289
1477400176833,-5.8891377449035645,-0.6326677799224854,7.44417142868042
1477400177019,-5.894524574279785,-0.5883750915527344,7.416039943695068
1477400177196,-5.846640586853027,-0.639850378036499,7.4136457443237305
1477400177373,-5.899911403656006,-0.6206967830657959,7.401075839996338
1477400177559,-5.891531944274902,-0.6200982332229614,7.419032573699951
1477400177739,-5.881356239318848,-0.6027402877807617,7.42681360244751
1477400177920,-5.899911403656006,-0.628477931022644,7.378331184387207
1477400178099,-5.852027416229248,-0.596754789352417,7.414244174957275
1477400178280,-5.895721912384033,-0.629675030708313,7.416039943695068
1477400178459,-5.901707172393799,-0.6212953329086304,7.387907981872559
1477400178638,-5.841253757476807,-0.641047477722168,7.405864238739014
1477400178815,-5.8855462074279785,-0.6356605291366577,7.411251544952393
1477400179000,-5.908291339874268,-0.5979518890380859,7.418434143066406
1477400179178,-5.858611583709717,-0.6326677799224854,7.4316020011901855
1477400179355,-5.835866451263428,-0.5913678407669067,7.379528045654297
1477400179540,-5.924452304840088,-0.6428431272506714,7.44417142868042
1477400179720,-5.880159378051758,-0.6350619792938232,7.436390399932861
1477400179896,-5.898116111755371,-0.6302735805511475,7.406463146209717
1477400180080,-5.8616042137146,-0.5949591398239136,7.400477409362793
1477400180267,-5.89392614364624,-0.6350619792938232,7.434594631195068
1477400180441,-5.872378349304199,-0.5901707410812378,7.433996200561523
1477400180620,-5.796362400054932,-0.6075286865234375,7.35319185256958
1477400180799,-5.886145114898682,-0.618302583694458,7.396287441253662
1477400180981,-5.869385242462158,-0.6404489278793335,7.42681360244751
1477400181162,-5.898714542388916,-0.6530185341835022,7.463325023651123
1477400181337,-5.884349346160889,-0.6009446382522583,7.42561674118042
1477400181522,-5.884947776794434,-0.6607996821403503,7.419631004333496
1477400181702,-5.898714542388916,-0.6619967818260193,7.4118499755859375
1477400181878,-5.893327713012695,-0.6308721303939819,7.389703750610352
1477400182062,-5.869984149932861,-0.6386532783508301,7.408258438110352
1477400182243,-5.914875507354736,-0.6458359360694885,7.401674747467041
1477400182419,-5.905298709869385,-0.5985504388809204,7.438784599304199
1477400182603,-5.873575210571289,-0.6649895310401917,7.416039943695068
1477400182783,-5.906495571136475,-0.6344634294509888,7.421426773071289
1477400182963,-5.869385242462158,-0.6506243348121643,7.398083209991455
1477400183143,-5.89512300491333,-0.6368576288223267,7.422025203704834
1477400183322,-5.892728805541992,-0.6003460884094238,7.403470039367676
1477400183504,-5.853224754333496,-0.6362590789794922,7.423222541809082
1477400183684,-5.912481307983398,-0.639850378036499,7.4094557762146
1477400183861,-5.917269706726074,-0.6506243348121643,7.441178798675537
1477400184044,-5.881955146789551,-0.6332663297653198,7.416638374328613
1477400184225,-5.859808444976807,-0.5063736438751221,7.377732753753662
1477400184400,-5.884349346160889,-0.6997054219245911,7.38132381439209
1477400184585,-5.892728805541992,-0.5943605899810791,7.449558734893799
1477400184764,-5.896320343017578,-0.6242880821228027,7.416039943695068
1477400184941,-5.8891377449035645,-0.646434485912323,7.4106526374816895
1477400185123,-5.897517204284668,-0.6350619792938232,7.404667377471924
1477400185305,-5.874173641204834,-0.6200982332229614,7.432799339294434
1477400185485,-5.896320343017578,-0.619499683380127,7.41484260559082
1477400185665,-5.9100871086120605,-0.5997475385665894,7.404667377471924
1477400185842,-5.890933513641357,-0.657806932926178,7.435791969299316
1477400186026,-5.896320343017578,-0.6165069341659546,7.407061576843262
1477400186206,-5.882553577423096,-0.6224924325942993,7.417835235595703
1477400186383,-5.868188381195068,-0.6416460275650024,7.404068946838379
1477400186566,-5.89512300491333,-0.6374561786651611,7.425017833709717
1477400186747,-5.898116111755371,-0.6123170852661133,7.396287441253662
1477400186922,-5.871779441833496,-0.6446388363838196,7.413046836853027
1477400187107,-5.896320343017578,-0.6254851818084717,7.4118499755859375
1477400187285,-5.850830554962158,-0.6584054827690125,7.4100542068481445
1477400187464,-5.9070940017700195,-0.6392518281936646,7.408857345581055
1477400187645,-5.896918773651123,-0.608127236366272,7.429207801818848
1477400187828,-5.880757808685303,-0.629675030708313,7.431003570556641
1477400188009,-5.901707172393799,-0.6422445774078369,7.431003570556641
1477400188189,-5.855618953704834,-0.5835866928100586,7.429806232452393
1477400188389,-5.8657941818237305,-0.6290764808654785,7.438186168670654
1477400188549,-5.899911403656006,-0.639850378036499,7.408857345581055
1477400188729,-5.896320343017578,-0.6667851805686951,7.390900611877441
1477400188904,-5.838859558105469,-0.5985504388809204,7.403470039367676
1477400189090,-5.937620162963867,-0.6380547285079956,7.420828342437744
1477400189268,-5.892130374908447,-0.6290764808654785,7.395689010620117
1477400189444,-5.901108741760254,-0.6434416770935059,7.427412033081055
1477400189625,-5.901707172393799,-0.6266822814941406,7.396287441253662
1477400189810,-5.871779441833496,-0.6416460275650024,7.4100542068481445
1477400189988,-5.89512300491333,-0.6153098344802856,7.405864238739014
1477400190170,-5.908291339874268,-0.6548141837120056,7.396287441253662
1477400190350,-5.901108741760254,-0.6542156338691711,7.416638374328613
1477400190530,-5.884349346160889,-0.6392518281936646,7.414244174957275
1477400190706,-5.8855462074279785,-0.6374561786651611,7.417236804962158
1477400190888,-5.84843635559082,-0.6440402865409851,7.405864238739014
1477400191071,-5.898116111755371,-0.6362590789794922,7.426215171813965
1477400191250,-5.880757808685303,-0.586579442024231,7.425017833709717
1477400191427,-5.8657941818237305,-0.6524199843406677,7.407660007476807
1477400191608,-5.912481307983398,-0.645237386226654,7.402871608734131
1477400191791,-5.834669589996338,-0.6171054840087891,7.416638374328613
1477400191967,-5.901108741760254,-0.6506243348121643,7.4100542068481445
1477400192152,-5.917269706726074,-0.5895721912384033,7.422025203704834
1477400192332,-5.854421615600586,-0.6087257862091064,7.448361396789551
1477400192508,-5.902904510498047,-0.606930136680603,7.444770336151123
1477400192692,-5.924452304840088,-0.6548141837120056,7.447762966156006
1477400192872,-5.902904510498047,-0.6476315855979919,7.420828342437744
1477400193052,-5.86699104309082,-0.6027402877807617,7.418434143066406
1477400193233,-5.875969409942627,-0.6272808313369751,7.417236804962158
1477400193423,-5.898116111755371,-0.6350619792938232,7.4100542068481445
1477400193593,-5.899312973022461,-0.5961562395095825,7.445368766784668
1477400193773,-5.856815814971924,-0.6440402865409851,7.421426773071289
