,timestamp,ax,ay,az
0,7000.0,-1.4021940231323242,8.149953842163086,-4.871786594390869
1,7100.0,-1.4021940231323242,8.149953842163086,-4.871786594390869
2,7200.0,-1.4021940231323242,8.149953842163086,-4.871786594390869
3,7300.0,-1.4021940231323242,8.149953842163086,-4.871786594390869
4,7400.0,-1.4021940231323242,8.149953842163086,-4.871786594390869
5,7500.0,1.8233308792114256,10.870593070983887,-4.505684852600098
6,7600.0,1.8233308792114256,10.870593070983887,-4.505684852600098
7,7700.0,0.9667003750801086,2.3976082801818848,-8.633303642272951
8,7800.0,0.9667003750801086,2.3976082801818848,-8.633303642272951
9,7900.0,0.9667003750801086,2.3976082801818848,-8.633303642272951
10,8000.0,0.15314064919948578,-1.1270195245742798,-10.540384292602539
11,8100.0,0.15314064919948578,-1.1270195245742798,-10.540384292602539
12,8200.0,-0.6125625967979431,-1.2083754539489746,-9.745966911315918
13,8300.0,-0.6125625967979431,-1.2083754539489746,-9.745966911315918
14,8400.0,0.4546363055706024,2.612962245941162,-8.504091262817383
15,8500.0,0.4546363055706024,2.612962245941162,-8.504091262817383
16,8600.0,0.4546363055706024,2.612962245941162,-8.504091262817383
17,8700.0,0.5264209508895874,6.556333541870117,-7.257431030273437
18,8800.0,0.5264209508895874,6.556333541870117,-7.257431030273437
19,8900.0,0.7226324081420898,7.350750923156737,-8.71466064453125
20,8000.0,0.15314064919948578,-1.1270195245742798,-10.540384292602539
21,8100.0,0.15314064919948578,-1.1270195245742798,-10.540384292602539
22,8200.0,-0.6125625967979431,-1.2083754539489746,-9.745966911315918
23,8300.0,-0.6125625967979431,-1.2083754539489746,-9.745966911315918
24,8400.0,0.4546363055706024,2.612962245941162,-8.504091262817383
25,8500.0,0.4546363055706024,2.612962245941162,-8.504091262817383
26,8600.0,0.4546363055706024,2.612962245941162,-8.504091262817383
27,8700.0,0.5264209508895874,6.556333541870117,-7.257431030273437
28,8800.0,0.5264209508895874,6.556333541870117,-7.257431030273437
29,8900.0,0.7226324081420898,7.350750923156737,-8.71466064453125
30,9000.0,0.7226324081420898,7.350750923156737,-8.71466064453125
31,9100.0,0.7226324081420898,7.350750923156737,-8.71466064453125
32,9200.0,0.8039883971214294,6.9511494636535645,-2.8713872432708736
33,9300.0,0.8039883971214294,6.9511494636535645,-2.8713872432708736
34,9400.0,-1.1581261157989502,3.2973096370697017,-12.1866455078125
35,9500.0,-1.1581261157989502,3.2973096370697017,-12.1866455078125
36,9600.0,0.1627119481563568,6.941578388214111,-2.65842604637146
37,9700.0,0.1627119481563568,6.941578388214111,-2.65842604637146
38,9800.0,0.1627119481563568,6.941578388214111,-2.65842604637146
39,9900.0,0.12921242415905002,6.482156753540039,-7.46799898147583
40,9000.0,0.7226324081420898,7.350750923156737,-8.71466064453125
41,9100.0,0.7226324081420898,7.350750923156737,-8.71466064453125
42,9200.0,0.8039883971214294,6.9511494636535645,-2.8713872432708736
43,9300.0,0.8039883971214294,6.9511494636535645,-2.8713872432708736
44,9400.0,-1.1581261157989502,3.2973096370697017,-12.1866455078125
45,9500.0,-1.1581261157989502,3.2973096370697017,-12.1866455078125
46,9600.0,0.1627119481563568,6.941578388214111,-2.65842604637146
47,9700.0,0.1627119481563568,6.941578388214111,-2.65842604637146
48,9800.0,0.1627119481563568,6.941578388214111,-2.65842604637146
49,9900.0,0.12921242415905002,6.482156753540039,-7.46799898147583
50,10000.0,0.12921242415905002,6.482156753540039,-7.46799898147583
51,10100.0,-1.3830513954162598,10.439885139465332,1.832902193069458
52,10200.0,-1.3830513954162598,10.439885139465332,1.832902193069458
53,10300.0,-1.3830513954162598,10.439885139465332,1.832902193069458
54,10400.0,-0.8949156999588013,7.123432636260986,-5.814558982849121
55,10500.0,-0.8949156999588013,7.123432636260986,-5.814558982849121
56,10600.0,-1.4835500717163086,7.668996810913086,6.422336101531982
57,10700.0,-1.4835500717163086,7.668996810913086,6.422336101531982
58,10800.0,-0.35413774847984314,9.765109062194824,2.2779672145843506
59,10900.0,-0.35413774847984314,9.765109062194824,2.2779672145843506
60,10000.0,0.12921242415905002,6.482156753540039,-7.46799898147583
61,10100.0,-1.3830513954162598,10.439885139465332,1.832902193069458
62,10200.0,-1.3830513954162598,10.439885139465332,1.832902193069458
63,10300.0,-1.3830513954162598,10.439885139465332,1.832902193069458
64,10400.0,-0.8949156999588013,7.123432636260986,-5.814558982849121
65,10500.0,-0.8949156999588013,7.123432636260986,-5.814558982849121
66,10600.0,-1.4835500717163086,7.668996810913086,6.422336101531982
67,10700.0,-1.4835500717163086,7.668996810913086,6.422336101531982
68,10800.0,-0.35413774847984314,9.765109062194824,2.2779672145843506
69,10900.0,-0.35413774847984314,9.765109062194824,2.2779672145843506
70,11000.0,-1.22033953666687,7.8652076721191415,-4.0079779624938965
71,11100.0,-1.22033953666687,7.8652076721191415,-4.0079779624938965
72,11200.0,-1.22033953666687,7.8652076721191415,-4.0079779624938965
73,11300.0,-1.804188132286072,11.203195571899414,3.242274522781372
74,11400.0,-1.804188132286072,11.203195571899414,3.242274522781372
75,11500.0,-1.7371891736984253,7.472784996032715,-3.4672000408172607
76,11600.0,-1.7371891736984253,7.472784996032715,-3.4672000408172607
77,11700.0,-0.0047856452874839315,9.107083320617676,3.079562902450561
78,11800.0,-0.0047856452874839315,9.107083320617676,3.079562902450561
79,11900.0,-0.0047856452874839315,9.107083320617676,3.079562902450561
80,11000.0,-1.22033953666687,7.8652076721191415,-4.0079779624938965
81,11100.0,-1.22033953666687,7.8652076721191415,-4.0079779624938965
82,11200.0,-1.22033953666687,7.8652076721191415,-4.0079779624938965
83,11300.0,-1.804188132286072,11.203195571899414,3.242274522781372
84,11400.0,-1.804188132286072,11.203195571899414,3.242274522781372
85,11500.0,-1.7371891736984253,7.472784996032715,-3.4672000408172607
86,11600.0,-1.7371891736984253,7.472784996032715,-3.4672000408172607
87,11700.0,-0.0047856452874839315,9.107083320617676,3.079562902450561
88,11800.0,-0.0047856452874839315,9.107083320617676,3.079562902450561
89,11900.0,-0.0047856452874839315,9.107083320617676,3.079562902450561
90,12000.0,-0.3493521213531494,10.250852584838867,1.9477576017379759
91,12100.0,-0.3493521213531494,10.250852584838867,1.9477576017379759
92,12200.0,-0.0526420958340168,5.206782341003418,-8.183453559875487
93,12300.0,-0.0526420958340168,5.206782341003418,-8.183453559875487
94,12400.0,0.16749757528305054,10.542776107788086,-1.146162033081055
95,12500.0,0.16749757528305054,10.542776107788086,-1.146162033081055
96,12600.0,-0.6029912829399109,9.1716890335083,4.292723655700684
97,12700.0,-0.6029912829399109,9.1716890335083,4.292723655700684
98,12800.0,-0.7704889178276062,4.421936511993408,-7.628318786621094
99,12900.0,-0.7704889178276062,4.421936511993408,-7.628318786621094
100,12000.0,-0.3493521213531494,10.250852584838867,1.9477576017379759
101,12100.0,-0.3493521213531494,10.250852584838867,1.9477576017379759
102,12200.0,-0.0526420958340168,5.206782341003418,-8.183453559875487
103,12300.0,-0.0526420958340168,5.206782341003418,-8.183453559875487
104,12400.0,0.16749757528305054,10.542776107788086,-1.146162033081055
105,12500.0,0.16749757528305054,10.542776107788086,-1.146162033081055
106,12600.0,-0.6029912829399109,9.1716890335083,4.292723655700684
107,12700.0,-0.6029912829399109,9.1716890335083,4.292723655700684
108,12800.0,-0.7704889178276062,4.421936511993408,-7.628318786621094
109,12900.0,-0.7704889178276062,4.421936511993408,-7.628318786621094
110,13000.0,-0.7704889178276062,4.421936511993408,-7.628318786621094
111,13100.0,-0.27278175950050354,10.234102249145508,0.7441678047180176
112,13200.0,-0.27278175950050354,10.234102249145508,0.7441678047180176
113,13300.0,-0.784845769405365,11.672188758850098,-0.3302095234394073
114,13400.0,-0.784845769405365,11.672188758850098,-0.3302095234394073
115,13500.0,-0.784845769405365,11.672188758850098,-0.3302095234394073
116,13600.0,-0.4594219326972962,6.702296257019043,-6.128018856048584
117,13700.0,-0.4594219326972962,6.702296257019043,-6.128018856048584
118,13800.0,-0.8374879360198975,9.860822677612305,0.9188438653945924
119,13900.0,-0.8374879360198975,9.860822677612305,0.9188438653945924
120,13000.0,-0.7704889178276062,4.421936511993408,-7.628318786621094
121,13100.0,-0.27278175950050354,10.234102249145508,0.7441678047180176
122,13200.0,-0.27278175950050354,10.234102249145508,0.7441678047180176
123,13300.0,-0.784845769405365,11.672188758850098,-0.3302095234394073
124,13400.0,-0.784845769405365,11.672188758850098,-0.3302095234394073
125,13500.0,-0.784845769405365,11.672188758850098,-0.3302095234394073
126,13600.0,-0.4594219326972962,6.702296257019043,-6.128018856048584
127,13700.0,-0.4594219326972962,6.702296257019043,-6.128018856048584
128,13800.0,-0.8374879360198975,9.860822677612305,0.9188438653945924
129,13900.0,-0.8374879360198975,9.860822677612305,0.9188438653945924
130,14000.0,0.04785645008087158,10.750951766967773,-2.6847469806671143
131,14100.0,0.04785645008087158,10.750951766967773,-2.6847469806671143
132,14200.0,0.04785645008087158,10.750951766967773,-2.6847469806671143
133,14300.0,-2.9383859634399414,6.254837989807129,-7.135397434234619
134,14400.0,-2.9383859634399414,6.254837989807129,-7.135397434234619
135,14500.0,-3.426522016525269,0.705882728099823,-9.174081802368164
136,14600.0,-3.426522016525269,0.705882728099823,-9.174081802368164
137,14700.0,-3.426522016525269,0.705882728099823,-9.174081802368164
138,14800.0,-1.8951154947280884,4.8574299812316895,-7.6833534240722665
139,14900.0,-1.8951154947280884,4.8574299812316895,-7.6833534240722665
140,14000.0,0.04785645008087158,10.750951766967773,-2.6847469806671143
141,14100.0,0.04785645008087158,10.750951766967773,-2.6847469806671143
142,14200.0,0.04785645008087158,10.750951766967773,-2.6847469806671143
143,14300.0,-2.9383859634399414,6.254837989807129,-7.135397434234619
144,14400.0,-2.9383859634399414,6.254837989807129,-7.135397434234619
145,14500.0,-3.426522016525269,0.705882728099823,-9.174081802368164
146,14600.0,-3.426522016525269,0.705882728099823,-9.174081802368164
147,14700.0,-3.426522016525269,0.705882728099823,-9.174081802368164
148,14800.0,-1.8951154947280884,4.8574299812316895,-7.6833534240722665
149,14900.0,-1.8951154947280884,4.8574299812316895,-7.6833534240722665
150,15000.0,0.01914258114993572,9.011369705200195,-5.43170690536499
151,15100.0,0.01914258114993572,9.011369705200195,-5.43170690536499
152,15200.0,-0.5551348924636841,7.637890338897705,-6.874579429626465
153,15300.0,-0.5551348924636841,7.637890338897705,-6.874579429626465
154,15400.0,-0.5551348924636841,7.637890338897705,-6.874579429626465
155,15500.0,-1.832902193069458,1.4213367700576782,-9.681360244750977
156,15600.0,-1.832902193069458,1.4213367700576782,-9.681360244750977
157,15700.0,-2.4358932971954346,2.2372891902923584,-10.382457733154297
158,15800.0,-2.4358932971954346,2.2372891902923584,-10.382457733154297
159,15900.0,-2.4358932971954346,2.2372891902923584,-10.382457733154297
160,15000.0,0.01914258114993572,9.011369705200195,-5.43170690536499
161,15100.0,0.01914258114993572,9.011369705200195,-5.43170690536499
162,15200.0,-0.5551348924636841,7.637890338897705,-6.874579429626465
163,15300.0,-0.5551348924636841,7.637890338897705,-6.874579429626465
164,15400.0,-0.5551348924636841,7.637890338897705,-6.874579429626465
165,15500.0,-1.832902193069458,1.4213367700576782,-9.681360244750977
166,15600.0,-1.832902193069458,1.4213367700576782,-9.681360244750977
167,15700.0,-2.4358932971954346,2.2372891902923584,-10.382457733154297
168,15800.0,-2.4358932971954346,2.2372891902923584,-10.382457733154297
169,15900.0,-2.4358932971954346,2.2372891902923584,-10.382457733154297
170,16000.0,-1.6319050788879397,3.996013641357422,-8.870193481445312
171,16100.0,-1.6319050788879397,3.996013641357422,-8.870193481445312
172,16200.0,-0.6364907622337341,9.05683422088623,-4.019941806793213
173,16300.0,-0.6364907622337341,9.05683422088623,-4.019941806793213
174,16400.0,-1.56969153881073,8.099704742431639,-5.936593055725098
175,16500.0,-1.56969153881073,8.099704742431639,-5.936593055725098
176,16600.0,-1.56969153881073,8.099704742431639,-5.936593055725098
177,16700.0,-1.6031911373138428,7.688138484954834,-4.070191383361816
178,16800.0,-1.6031911373138428,7.688138484954834,-4.070191383361816
179,16900.0,-1.5553346872329712,8.709875106811522,-3.869194030761719
180,16000.0,-1.6319050788879397,3.996013641357422,-8.870193481445312
181,16100.0,-1.6319050788879397,3.996013641357422,-8.870193481445312
182,16200.0,-0.6364907622337341,9.05683422088623,-4.019941806793213
183,16300.0,-0.6364907622337341,9.05683422088623,-4.019941806793213
184,16400.0,-1.56969153881073,8.099704742431639,-5.936593055725098
185,16500.0,-1.56969153881073,8.099704742431639,-5.936593055725098
186,16600.0,-1.56969153881073,8.099704742431639,-5.936593055725098
187,16700.0,-1.6031911373138428,7.688138484954834,-4.070191383361816
188,16800.0,-1.6031911373138428,7.688138484954834,-4.070191383361816
189,16900.0,-1.5553346872329712,8.709875106811522,-3.869194030761719
190,17000.0,-1.5553346872329712,8.709875106811522,-3.869194030761719
191,17100.0,-0.3062812983989716,3.192025184631348,-9.523433685302734
192,17200.0,-0.3062812983989716,3.192025184631348,-9.523433685302734
193,17300.0,-0.3062812983989716,3.192025184631348,-9.523433685302734
194,17400.0,-1.105484127998352,9.241080284118652,-4.261617183685304
195,17500.0,-1.105484127998352,9.241080284118652,-4.261617183685304
196,17600.0,0.7704889178276062,9.38943576812744,-5.405385971069336
197,17700.0,0.7704889178276062,9.38943576812744,-5.405385971069336
198,17800.0,0.7704889178276062,9.38943576812744,-5.405385971069336
199,17900.0,-3.1202406883239746,3.888336658477783,-8.528019905090332
200,17000.0,-1.5553346872329712,8.709875106811522,-3.869194030761719
201,17100.0,-0.3062812983989716,3.192025184631348,-9.523433685302734
202,17200.0,-0.3062812983989716,3.192025184631348,-9.523433685302734
203,17300.0,-0.3062812983989716,3.192025184631348,-9.523433685302734
204,17400.0,-1.105484127998352,9.241080284118652,-4.261617183685304
205,17500.0,-1.105484127998352,9.241080284118652,-4.261617183685304
206,17600.0,0.7704889178276062,9.38943576812744,-5.405385971069336
207,17700.0,0.7704889178276062,9.38943576812744,-5.405385971069336
208,17800.0,0.7704889178276062,9.38943576812744,-5.405385971069336
209,17900.0,-3.1202406883239746,3.888336658477783,-8.528019905090332
210,18000.0,-3.1202406883239746,3.888336658477783,-8.528019905090332
211,18100.0,0.4450649619102478,9.121439933776855,-5.1804609298706055
212,18200.0,0.4450649619102478,9.121439933776855,-5.1804609298706055
213,18300.0,0.3397807776927948,6.034698486328125,-7.774280071258545
214,18400.0,0.3397807776927948,6.034698486328125,-7.774280071258545
215,18500.0,0.3397807776927948,6.034698486328125,-7.774280071258545
216,18600.0,-2.100898265838623,8.872586250305176,-3.5198421478271484
217,18700.0,-2.100898265838623,8.872586250305176,-3.5198421478271484
218,18800.0,-1.6271194219589231,10.829915046691896,-0.9810572862625122
219,18900.0,-1.6271194219589231,10.829915046691896,-0.9810572862625122
220,18000.0,-3.1202406883239746,3.888336658477783,-8.528019905090332
221,18100.0,0.4450649619102478,9.121439933776855,-5.1804609298706055
222,18200.0,0.4450649619102478,9.121439933776855,-5.1804609298706055
223,18300.0,0.3397807776927948,6.034698486328125,-7.774280071258545
224,18400.0,0.3397807776927948,6.034698486328125,-7.774280071258545
225,18500.0,0.3397807776927948,6.034698486328125,-7.774280071258545
226,18600.0,-2.100898265838623,8.872586250305176,-3.5198421478271484
227,18700.0,-2.100898265838623,8.872586250305176,-3.5198421478271484
228,18800.0,-1.6271194219589231,10.829915046691896,-0.9810572862625122
229,18900.0,-1.6271194219589231,10.829915046691896,-0.9810572862625122
230,19000.0,0.014356935396790503,7.6737823486328125,-6.068198204040527
231,19100.0,0.014356935396790503,7.6737823486328125,-6.068198204040527
232,19200.0,0.014356935396790503,7.6737823486328125,-6.068198204040527
233,19300.0,-0.4259224236011505,6.826723098754883,-7.1641106605529785
234,19400.0,-0.4259224236011505,6.826723098754883,-7.1641106605529785
235,19500.0,-2.8187451362609863,-0.04307081177830696,-8.688338279724121
236,19600.0,-2.8187451362609863,-0.04307081177830696,-8.688338279724121
237,19700.0,-1.674975872039795,4.287938117980957,-5.886343479156494
238,19800.0,-1.674975872039795,4.287938117980957,-5.886343479156494
239,19900.0,-0.06699903309345245,8.00638484954834,-7.822136878967285
240,19000.0,0.014356935396790503,7.6737823486328125,-6.068198204040527
241,19100.0,0.014356935396790503,7.6737823486328125,-6.068198204040527
242,19200.0,0.014356935396790503,7.6737823486328125,-6.068198204040527
243,19300.0,-0.4259224236011505,6.826723098754883,-7.1641106605529785
244,19400.0,-0.4259224236011505,6.826723098754883,-7.1641106605529785
245,19500.0,-2.8187451362609863,-0.04307081177830696,-8.688338279724121
246,19600.0,-2.8187451362609863,-0.04307081177830696,-8.688338279724121
247,19700.0,-1.674975872039795,4.287938117980957,-5.886343479156494
248,19800.0,-1.674975872039795,4.287938117980957,-5.886343479156494
249,19900.0,-0.06699903309345245,8.00638484954834,-7.822136878967285
250,20000.0,-0.06699903309345245,8.00638484954834,-7.822136878967285
251,20100.0,-1.6079767942428589,1.2538390159606934,-9.494720458984377
252,20200.0,-1.6079767942428589,1.2538390159606934,-9.494720458984377
253,20300.0,-1.6079767942428589,1.2538390159606934,-9.494720458984377
254,20400.0,-0.5694918036460876,3.708875179290772,-8.93240737915039
255,20500.0,-0.5694918036460876,3.708875179290772,-8.93240737915039
256,20600.0,0.82791668176651,7.661818027496338,-6.434299945831299
257,20700.0,0.82791668176651,7.661818027496338,-6.434299945831299
258,20800.0,0.82791668176651,7.661818027496338,-6.434299945831299
259,20900.0,0.4163511395454407,7.671389579772949,-7.685746192932129
260,20000.0,-0.06699903309345245,8.00638484954834,-7.822136878967285
261,20100.0,-1.6079767942428589,1.2538390159606934,-9.494720458984377
262,20200.0,-1.6079767942428589,1.2538390159606934,-9.494720458984377
263,20300.0,-1.6079767942428589,1.2538390159606934,-9.494720458984377
264,20400.0,-0.5694918036460876,3.708875179290772,-8.93240737915039
265,20500.0,-0.5694918036460876,3.708875179290772,-8.93240737915039
266,20600.0,0.82791668176651,7.661818027496338,-6.434299945831299
267,20700.0,0.82791668176651,7.661818027496338,-6.434299945831299
268,20800.0,0.82791668176651,7.661818027496338,-6.434299945831299
269,20900.0,0.4163511395454407,7.671389579772949,-7.685746192932129
270,21000.0,0.4163511395454407,7.671389579772949,-7.685746192932129
271,21100.0,0.10049854964017868,1.3016955852508545,-10.334601402282717
272,21200.0,0.10049854964017868,1.3016955852508545,-10.334601402282717
273,21300.0,-1.9573287963867188,1.2370892763137815,-9.367900848388672
274,21400.0,-1.9573287963867188,1.2370892763137815,-9.367900848388672
275,21500.0,-1.9573287963867188,1.2370892763137815,-9.367900848388672
276,21600.0,-0.4498506784439087,3.5030922889709477,-10.535597801208496
277,21700.0,-0.4498506784439087,3.5030922889709477,-10.535597801208496
278,21800.0,-0.09571290016174316,7.6115684509277335,-0.8757730722427368
279,21900.0,-0.09571290016174316,7.6115684509277335,-0.8757730722427368
280,21000.0,0.4163511395454407,7.671389579772949,-7.685746192932129
281,21100.0,0.10049854964017868,1.3016955852508545,-10.334601402282717
282,21200.0,0.10049854964017868,1.3016955852508545,-10.334601402282717
283,21300.0,-1.9573287963867188,1.2370892763137815,-9.367900848388672
284,21400.0,-1.9573287963867188,1.2370892763137815,-9.367900848388672
285,21500.0,-1.9573287963867188,1.2370892763137815,-9.367900848388672
286,21600.0,-0.4498506784439087,3.5030922889709477,-10.535597801208496
287,21700.0,-0.4498506784439087,3.5030922889709477,-10.535597801208496
288,21800.0,-0.09571290016174316,7.6115684509277335,-0.8757730722427368
289,21900.0,-0.09571290016174316,7.6115684509277335,-0.8757730722427368
290,22000.0,1.0911270380020142,5.670989990234375,-9.55214786529541
291,22100.0,1.0911270380020142,5.670989990234375,-9.55214786529541
292,22200.0,1.0911270380020142,5.670989990234375,-9.55214786529541
293,22300.0,0.2488535493612289,7.4608211517333975,-7.70249605178833
294,22400.0,0.2488535493612289,7.4608211517333975,-7.70249605178833
295,22500.0,-1.7850456237792969,1.5720844268798828,-10.16231918334961
296,22600.0,-1.7850456237792969,1.5720844268798828,-10.16231918334961
297,22700.0,-2.335394859313965,4.194617748260498,-8.956335067749023
298,22800.0,-2.335394859313965,4.194617748260498,-8.956335067749023
299,22900.0,-2.335394859313965,4.194617748260498,-8.956335067749023
300,22000.0,1.0911270380020142,5.670989990234375,-9.55214786529541
301,22100.0,1.0911270380020142,5.670989990234375,-9.55214786529541
302,22200.0,1.0911270380020142,5.670989990234375,-9.55214786529541
303,22300.0,0.2488535493612289,7.4608211517333975,-7.70249605178833
304,22400.0,0.2488535493612289,7.4608211517333975,-7.70249605178833
305,22500.0,-1.7850456237792969,1.5720844268798828,-10.16231918334961
306,22600.0,-1.7850456237792969,1.5720844268798828,-10.16231918334961
307,22700.0,-2.335394859313965,4.194617748260498,-8.956335067749023
308,22800.0,-2.335394859313965,4.194617748260498,-8.956335067749023
309,22900.0,-2.335394859313965,4.194617748260498,-8.956335067749023
310,23000.0,1.2299107313156128,10.109675407409668,-5.417350769042969
311,23100.0,1.2299107313156128,10.109675407409668,-5.417350769042969
312,23200.0,-1.4883356094360352,1.3016955852508545,-9.906286239624023
313,23300.0,-1.4883356094360352,1.3016955852508545,-9.906286239624023
314,23400.0,0.3493521213531494,8.927621841430664,-6.195017814636231
315,23500.0,0.3493521213531494,8.927621841430664,-6.195017814636231
316,23600.0,0.3493521213531494,8.927621841430664,-6.195017814636231
317,23700.0,-0.3302095234394073,3.3714869022369385,-8.776873588562013
318,23800.0,-0.3302095234394073,3.3714869022369385,-8.776873588562013
319,23900.0,-1.124626636505127,7.243074417114258,-6.587440490722656
320,23000.0,1.2299107313156128,10.109675407409668,-5.417350769042969
321,23100.0,1.2299107313156128,10.109675407409668,-5.417350769042969
322,23200.0,-1.4883356094360352,1.3016955852508545,-9.906286239624023
323,23300.0,-1.4883356094360352,1.3016955852508545,-9.906286239624023
324,23400.0,0.3493521213531494,8.927621841430664,-6.195017814636231
325,23500.0,0.3493521213531494,8.927621841430664,-6.195017814636231
326,23600.0,0.3493521213531494,8.927621841430664,-6.195017814636231
327,23700.0,-0.3302095234394073,3.3714869022369385,-8.776873588562013
328,23800.0,-0.3302095234394073,3.3714869022369385,-8.776873588562013
329,23900.0,-1.124626636505127,7.243074417114258,-6.587440490722656
330,24000.0,-1.124626636505127,7.243074417114258,-6.587440490722656
331,24100.0,-1.124626636505127,7.243074417114258,-6.587440490722656
332,24200.0,-0.4067798554897308,7.29810905456543,-7.188039302825928
333,24300.0,-0.4067798554897308,7.29810905456543,-7.188039302825928
334,24400.0,-0.9379864931106568,8.439485549926758,-3.488735675811768
335,24500.0,-0.9379864931106568,8.439485549926758,-3.488735675811768
336,24600.0,-0.7896314859390259,6.26440954208374,-8.283952713012695
337,24700.0,-0.7896314859390259,6.26440954208374,-8.283952713012695
338,24800.0,-0.7896314859390259,6.26440954208374,-8.283952713012695
339,24900.0,-0.3924228847026825,2.4023938179016118,-10.813164710998537
340,24000.0,-1.124626636505127,7.243074417114258,-6.587440490722656
341,24100.0,-1.124626636505127,7.243074417114258,-6.587440490722656
342,24200.0,-0.4067798554897308,7.29810905456543,-7.188039302825928
343,24300.0,-0.4067798554897308,7.29810905456543,-7.188039302825928
344,24400.0,-0.9379864931106568,8.439485549926758,-3.488735675811768
345,24500.0,-0.9379864931106568,8.439485549926758,-3.488735675811768
346,24600.0,-0.7896314859390259,6.26440954208374,-8.283952713012695
347,24700.0,-0.7896314859390259,6.26440954208374,-8.283952713012695
348,24800.0,-0.7896314859390259,6.26440954208374,-8.283952713012695
349,24900.0,-0.3924228847026825,2.4023938179016118,-10.813164710998537
350,25000.0,-0.3924228847026825,2.4023938179016118,-10.813164710998537
351,25100.0,-0.14835500717163086,8.664410591125487,-6.4869422912597665
352,25200.0,-0.14835500717163086,8.664410591125487,-6.4869422912597665
353,25300.0,0.02392822504043579,0.5575276613235474,-10.571491241455078
354,25400.0,0.02392822504043579,0.5575276613235474,-10.571491241455078
355,25500.0,0.02392822504043579,0.5575276613235474,-10.571491241455078
356,25600.0,-2.038684844970703,1.8951154947280884,-8.848658561706543
357,25700.0,-2.038684844970703,1.8951154947280884,-8.848658561706543
358,25800.0,0.28235307335853577,5.170889854431152,-8.446663856506348
359,25900.0,0.28235307335853577,5.170889854431152,-8.446663856506348
360,25000.0,-0.3924228847026825,2.4023938179016118,-10.813164710998537
361,25100.0,-0.14835500717163086,8.664410591125487,-6.4869422912597665
362,25200.0,-0.14835500717163086,8.664410591125487,-6.4869422912597665
363,25300.0,0.02392822504043579,0.5575276613235474,-10.571491241455078
364,25400.0,0.02392822504043579,0.5575276613235474,-10.571491241455078
365,25500.0,0.02392822504043579,0.5575276613235474,-10.571491241455078
366,25600.0,-2.038684844970703,1.8951154947280884,-8.848658561706543
367,25700.0,-2.038684844970703,1.8951154947280884,-8.848658561706543
368,25800.0,0.28235307335853577,5.170889854431152,-8.446663856506348
369,25900.0,0.28235307335853577,5.170889854431152,-8.446663856506348
370,26000.0,0.033499516546726234,8.671588897705076,-5.235496044158936
371,26100.0,0.033499516546726234,8.671588897705076,-5.235496044158936
372,26200.0,0.033499516546726234,8.671588897705076,-5.235496044158936
373,26300.0,-0.27278175950050354,2.3234307765960693,-9.920641899108887
374,26400.0,-0.27278175950050354,2.3234307765960693,-9.920641899108887
375,26500.0,-0.5120640397071838,3.79262375831604,-9.425328254699707
376,26600.0,-0.5120640397071838,3.79262375831604,-9.425328254699707
377,26700.0,0.41156551241874695,9.592825889587402,-4.9914283752441415
378,26800.0,0.41156551241874695,9.592825889587402,-4.9914283752441415
379,26900.0,0.41156551241874695,9.592825889587402,-4.9914283752441415
380,26000.0,0.033499516546726234,8.671588897705076,-5.235496044158936
381,26100.0,0.033499516546726234,8.671588897705076,-5.235496044158936
382,26200.0,0.033499516546726234,8.671588897705076,-5.235496044158936
383,26300.0,-0.27278175950050354,2.3234307765960693,-9.920641899108887
384,26400.0,-0.27278175950050354,2.3234307765960693,-9.920641899108887
385,26500.0,-0.5120640397071838,3.79262375831604,-9.425328254699707
386,26600.0,-0.5120640397071838,3.79262375831604,-9.425328254699707
387,26700.0,0.41156551241874695,9.592825889587402,-4.9914283752441415
388,26800.0,0.41156551241874695,9.592825889587402,-4.9914283752441415
389,26900.0,0.41156551241874695,9.592825889587402,-4.9914283752441415
390,27000.0,-1.2538390159606934,10.423135757446287,1.8209381103515625
391,27100.0,-1.2538390159606934,10.423135757446287,1.8209381103515625
392,27200.0,-0.6173481941223145,0.9619146585464478,-8.286344528198242
393,27300.0,-0.6173481941223145,0.9619146585464478,-8.286344528198242
394,27400.0,0.1339980661869049,-0.5790630578994751,-10.303494453430176
395,27500.0,0.1339980661869049,-0.5790630578994751,-10.303494453430176
396,27600.0,0.1339980661869049,-0.5790630578994751,-10.303494453430176
397,27700.0,0.5647061467170715,8.824729919433594,-2.610569477081299
398,27800.0,0.5647061467170715,8.824729919433594,-2.610569477081299
399,27900.0,0.7034898400306702,7.401000499725343,-5.819344997406006
400,27000.0,-1.2538390159606934,10.423135757446287,1.8209381103515625
401,27100.0,-1.2538390159606934,10.423135757446287,1.8209381103515625
402,27200.0,-0.6173481941223145,0.9619146585464478,-8.286344528198242
403,27300.0,-0.6173481941223145,0.9619146585464478,-8.286344528198242
404,27400.0,0.1339980661869049,-0.5790630578994751,-10.303494453430176
405,27500.0,0.1339980661869049,-0.5790630578994751,-10.303494453430176
406,27600.0,0.1339980661869049,-0.5790630578994751,-10.303494453430176
407,27700.0,0.5647061467170715,8.824729919433594,-2.610569477081299
408,27800.0,0.5647061467170715,8.824729919433594,-2.610569477081299
409,27900.0,0.7034898400306702,7.401000499725343,-5.819344997406006
410,28000.0,0.7034898400306702,7.401000499725343,-5.819344997406006
411,28100.0,0.7034898400306702,7.401000499725343,-5.819344997406006
412,28200.0,0.4354937374591827,-1.1629117727279663,-9.324830055236816
413,28300.0,0.4354937374591827,-1.1629117727279663,-9.324830055236816
414,28400.0,1.1772687435150146,7.671389579772949,-4.697111129760742
415,28500.0,1.1772687435150146,7.671389579772949,-4.697111129760742
416,28600.0,3.192025184631348,9.509077072143556,3.31166672706604
417,28700.0,3.192025184631348,9.509077072143556,3.31166672706604
418,28800.0,3.192025184631348,9.509077072143556,3.31166672706604
419,28900.0,3.5748770236968994,5.099104881286621,5.979663372039795
420,28000.0,0.7034898400306702,7.401000499725343,-5.819344997406006
421,28100.0,0.7034898400306702,7.401000499725343,-5.819344997406006
422,28200.0,0.4354937374591827,-1.1629117727279663,-9.324830055236816
423,28300.0,0.4354937374591827,-1.1629117727279663,-9.324830055236816
424,28400.0,1.1772687435150146,7.671389579772949,-4.697111129760742
425,28500.0,1.1772687435150146,7.671389579772949,-4.697111129760742
426,28600.0,3.192025184631348,9.509077072143556,3.31166672706604
427,28700.0,3.192025184631348,9.509077072143556,3.31166672706604
428,28800.0,3.192025184631348,9.509077072143556,3.31166672706604
429,28900.0,3.5748770236968994,5.099104881286621,5.979663372039795
430,29000.0,3.5748770236968994,5.099104881286621,5.979663372039795
431,29100.0,3.431307554244995,7.508677005767822,8.61894702911377
432,29200.0,3.431307554244995,7.508677005767822,8.61894702911377
433,29300.0,3.431307554244995,7.508677005767822,8.61894702911377
434,29400.0,3.4743783473968506,5.362315654754639,8.592625617980957
435,29500.0,3.4743783473968506,5.362315654754639,8.592625617980957
436,29600.0,0.9810572862625122,3.747160196304321,7.7694945335388175
437,29700.0,0.9810572862625122,3.747160196304321,7.7694945335388175
438,29800.0,4.19701099395752,4.5104708671569815,10.191031455993652
439,29900.0,4.19701099395752,4.5104708671569815,10.191031455993652
440,29000.0,3.5748770236968994,5.099104881286621,5.979663372039795
441,29100.0,3.431307554244995,7.508677005767822,8.61894702911377
442,29200.0,3.431307554244995,7.508677005767822,8.61894702911377
443,29300.0,3.431307554244995,7.508677005767822,8.61894702911377
444,29400.0,3.4743783473968506,5.362315654754639,8.592625617980957
445,29500.0,3.4743783473968506,5.362315654754639,8.592625617980957
446,29600.0,0.9810572862625122,3.747160196304321,7.7694945335388175
447,29700.0,0.9810572862625122,3.747160196304321,7.7694945335388175
448,29800.0,4.19701099395752,4.5104708671569815,10.191031455993652
449,29900.0,4.19701099395752,4.5104708671569815,10.191031455993652
450,30000.0,4.19701099395752,4.5104708671569815,10.191031455993652
451,30100.0,2.9671001434326167,4.448256969451903,8.539983749389647
452,30200.0,2.9671001434326167,4.448256969451903,8.539983749389647
453,30300.0,-0.5503491759300232,4.589433670043945,6.62333345413208
454,30400.0,-0.5503491759300232,4.589433670043945,6.62333345413208
455,30500.0,-0.5503491759300232,4.589433670043945,6.62333345413208
456,30600.0,2.44067907333374,3.5557346343994136,8.255237579345701
457,30700.0,2.44067907333374,3.5557346343994136,8.255237579345701
458,30800.0,5.513063907623291,4.689932346343994,11.217552185058594
459,30900.0,5.513063907623291,4.689932346343994,11.217552185058594
460,30000.0,4.19701099395752,4.5104708671569815,10.191031455993652
461,30100.0,2.9671001434326167,4.448256969451903,8.539983749389647
462,30200.0,2.9671001434326167,4.448256969451903,8.539983749389647
463,30300.0,-0.5503491759300232,4.589433670043945,6.62333345413208
464,30400.0,-0.5503491759300232,4.589433670043945,6.62333345413208
465,30500.0,-0.5503491759300232,4.589433670043945,6.62333345413208
466,30600.0,2.44067907333374,3.5557346343994136,8.255237579345701
467,30700.0,2.44067907333374,3.5557346343994136,8.255237579345701
468,30800.0,5.513063907623291,4.689932346343994,11.217552185058594
469,30900.0,5.513063907623291,4.689932346343994,11.217552185058594
470,31000.0,1.6941183805465698,4.716253280639648,5.860023021697997
471,31100.0,1.6941183805465698,4.716253280639648,5.860023021697997
472,31200.0,1.6941183805465698,4.716253280639648,5.860023021697997
473,31300.0,0.4929214715957642,4.6301116943359375,7.396214485168457
474,31400.0,0.4929214715957642,4.6301116943359375,7.396214485168457
475,31500.0,3.957728624343872,4.967499732971191,12.241680145263672
476,31600.0,3.957728624343872,4.967499732971191,12.241680145263672
477,31700.0,3.957728624343872,4.967499732971191,12.241680145263672
478,31800.0,2.249253273010254,3.9792640209198,9.877571105957033
479,31900.0,2.249253273010254,3.9792640209198,9.877571105957033
480,31000.0,1.6941183805465698,4.716253280639648,5.860023021697997
481,31100.0,1.6941183805465698,4.716253280639648,5.860023021697997
482,31200.0,1.6941183805465698,4.716253280639648,5.860023021697997
483,31300.0,0.4929214715957642,4.6301116943359375,7.396214485168457
484,31400.0,0.4929214715957642,4.6301116943359375,7.396214485168457
485,31500.0,3.957728624343872,4.967499732971191,12.241680145263672
486,31600.0,3.957728624343872,4.967499732971191,12.241680145263672
487,31700.0,3.957728624343872,4.967499732971191,12.241680145263672
488,31800.0,2.249253273010254,3.9792640209198,9.877571105957033
489,31900.0,2.249253273010254,3.9792640209198,9.877571105957033
490,32000.0,1.636690616607666,5.149354457855225,6.821937084197997
491,32100.0,1.636690616607666,5.149354457855225,6.821937084197997
492,32200.0,2.4023938179016118,4.065405368804932,9.236295700073242
493,32300.0,2.4023938179016118,4.065405368804932,9.236295700073242
494,32400.0,2.8953151702880864,6.702296257019043,8.97787094116211
495,32500.0,2.8953151702880864,6.702296257019043,8.97787094116211
496,32600.0,2.8953151702880864,6.702296257019043,8.97787094116211
497,32700.0,1.4069796800613403,8.322237014770508,1.8592231273651123
498,32800.0,1.4069796800613403,8.322237014770508,1.8592231273651123
499,32900.0,2.038684844970703,4.230510234832764,-7.58524751663208
500,32000.0,1.636690616607666,5.149354457855225,6.821937084197997
501,32100.0,1.636690616607666,5.149354457855225,6.821937084197997
502,32200.0,2.4023938179016118,4.065405368804932,9.236295700073242
503,32300.0,2.4023938179016118,4.065405368804932,9.236295700073242
504,32400.0,2.8953151702880864,6.702296257019043,8.97787094116211
505,32500.0,2.8953151702880864,6.702296257019043,8.97787094116211
506,32600.0,2.8953151702880864,6.702296257019043,8.97787094116211
507,32700.0,1.4069796800613403,8.322237014770508,1.8592231273651123
508,32800.0,1.4069796800613403,8.322237014770508,1.8592231273651123
509,32900.0,2.038684844970703,4.230510234832764,-7.58524751663208
510,33000.0,2.038684844970703,4.230510234832764,-7.58524751663208
511,33100.0,2.038684844970703,4.230510234832764,-7.58524751663208
512,33200.0,2.091326951980591,13.280166625976562,1.361515998840332
513,33300.0,2.091326951980591,13.280166625976562,1.361515998840332
514,33400.0,2.502892255783081,6.1399827003479,-7.869993209838867
515,33500.0,2.502892255783081,6.1399827003479,-7.869993209838867
516,33600.0,-0.5551348924636841,-4.220939159393311,-9.987641334533693
517,33700.0,-0.5551348924636841,-4.220939159393311,-9.987641334533693
518,33800.0,-0.5551348924636841,-4.220939159393311,-9.987641334533693
519,33900.0,1.7132610082626345,0.2512463629245758,-8.204988479614258
520,33000.0,2.038684844970703,4.230510234832764,-7.58524751663208
521,33100.0,2.038684844970703,4.230510234832764,-7.58524751663208
522,33200.0,2.091326951980591,13.280166625976562,1.361515998840332
523,33300.0,2.091326951980591,13.280166625976562,1.361515998840332
524,33400.0,2.502892255783081,6.1399827003479,-7.869993209838867
525,33500.0,2.502892255783081,6.1399827003479,-7.869993209838867
526,33600.0,-0.5551348924636841,-4.220939159393311,-9.987641334533693
527,33700.0,-0.5551348924636841,-4.220939159393311,-9.987641334533693
528,33800.0,-0.5551348924636841,-4.220939159393311,-9.987641334533693
529,33900.0,1.7132610082626345,0.2512463629245758,-8.204988479614258
530,34000.0,1.7132610082626345,0.2512463629245758,-8.204988479614258
531,34100.0,2.2827527523040767,3.32602334022522,-8.915657043457031
532,34200.0,2.2827527523040767,3.32602334022522,-8.915657043457031
533,34300.0,2.2827527523040767,3.32602334022522,-8.915657043457031
534,34400.0,4.115654945373535,7.494320392608643,-7.496713638305664
535,34500.0,4.115654945373535,7.494320392608643,-7.496713638305664
536,34600.0,3.905086755752564,8.269595146179201,-5.627918720245361
537,34700.0,3.905086755752564,8.269595146179201,-5.627918720245361
538,34800.0,3.129812002182007,2.75174617767334,-8.207381248474121
539,34900.0,3.129812002182007,2.75174617767334,-8.207381248474121
540,34000.0,1.7132610082626345,0.2512463629245758,-8.204988479614258
541,34100.0,2.2827527523040767,3.32602334022522,-8.915657043457031
542,34200.0,2.2827527523040767,3.32602334022522,-8.915657043457031
543,34300.0,2.2827527523040767,3.32602334022522,-8.915657043457031
544,34400.0,4.115654945373535,7.494320392608643,-7.496713638305664
545,34500.0,4.115654945373535,7.494320392608643,-7.496713638305664
546,34600.0,3.905086755752564,8.269595146179201,-5.627918720245361
547,34700.0,3.905086755752564,8.269595146179201,-5.627918720245361
548,34800.0,3.129812002182007,2.75174617767334,-8.207381248474121
549,34900.0,3.129812002182007,2.75174617767334,-8.207381248474121
550,35000.0,3.129812002182007,2.75174617767334,-8.207381248474121
551,35100.0,2.636890411376953,-1.2035897970199585,-9.468399047851562
552,35200.0,2.636890411376953,-1.2035897970199585,-9.468399047851562
553,35300.0,1.5122638940811155,-0.07896314561367035,-9.042476654052734
554,35400.0,1.5122638940811155,-0.07896314561367035,-9.042476654052734
555,35500.0,1.5122638940811155,-0.07896314561367035,-9.042476654052734
556,35600.0,4.3405799865722665,9.724431037902832,-7.597211837768555
557,35700.0,4.3405799865722665,9.724431037902832,-7.597211837768555
558,35800.0,5.7954163551330575,11.925827980041506,-5.044069766998291
559,35900.0,5.7954163551330575,11.925827980041506,-5.044069766998291
560,35000.0,3.129812002182007,2.75174617767334,-8.207381248474121
561,35100.0,2.636890411376953,-1.2035897970199585,-9.468399047851562
562,35200.0,2.636890411376953,-1.2035897970199585,-9.468399047851562
563,35300.0,1.5122638940811155,-0.07896314561367035,-9.042476654052734
564,35400.0,1.5122638940811155,-0.07896314561367035,-9.042476654052734
565,35500.0,1.5122638940811155,-0.07896314561367035,-9.042476654052734
566,35600.0,4.3405799865722665,9.724431037902832,-7.597211837768555
567,35700.0,4.3405799865722665,9.724431037902832,-7.597211837768555
568,35800.0,5.7954163551330575,11.925827980041506,-5.044069766998291
569,35900.0,5.7954163551330575,11.925827980041506,-5.044069766998291
570,36000.0,10.992627143859863,20.70270156860352,-2.124826431274414
571,36100.0,10.992627143859863,20.70270156860352,-2.124826431274414
572,36200.0,10.992627143859863,20.70270156860352,-2.124826431274414
573,36300.0,9.059226989746094,12.564711570739744,-8.575876235961914
574,36400.0,9.059226989746094,12.564711570739744,-8.575876235961914
575,36500.0,3.058027505874634,-0.3900300860404968,-8.671588897705076
576,36600.0,3.058027505874634,-0.3900300860404968,-8.671588897705076
577,36700.0,5.929414749145508,11.614761352539062,-7.243074417114258
578,36800.0,5.929414749145508,11.614761352539062,-7.243074417114258
579,36900.0,7.125825881958008,14.153545379638672,-4.8574299812316895
580,36000.0,10.992627143859863,20.70270156860352,-2.124826431274414
581,36100.0,10.992627143859863,20.70270156860352,-2.124826431274414
582,36200.0,10.992627143859863,20.70270156860352,-2.124826431274414
583,36300.0,9.059226989746094,12.564711570739744,-8.575876235961914
584,36400.0,9.059226989746094,12.564711570739744,-8.575876235961914
585,36500.0,3.058027505874634,-0.3900300860404968,-8.671588897705076
586,36600.0,3.058027505874634,-0.3900300860404968,-8.671588897705076
587,36700.0,5.929414749145508,11.614761352539062,-7.243074417114258
588,36800.0,5.929414749145508,11.614761352539062,-7.243074417114258
589,36900.0,7.125825881958008,14.153545379638672,-4.8574299812316895
590,37000.0,7.125825881958008,14.153545379638672,-4.8574299812316895
591,37100.0,7.125825881958008,14.153545379638672,-4.8574299812316895
592,37200.0,7.020541667938232,11.057233810424805,-5.008177757263184
593,37300.0,7.020541667938232,11.057233810424805,-5.008177757263184
594,37400.0,3.6131620407104488,5.343173027038574,-7.582855224609375
595,37500.0,3.6131620407104488,5.343173027038574,-7.582855224609375
596,37600.0,2.9718859195709233,1.7371891736984253,-9.066404342651367
597,37700.0,2.9718859195709233,1.7371891736984253,-9.066404342651367
598,37800.0,6.106483459472656,6.664010524749756,-8.848658561706543
599,37900.0,6.106483459472656,6.664010524749756,-8.848658561706543
600,37000.0,7.125825881958008,14.153545379638672,-4.8574299812316895
601,37100.0,7.125825881958008,14.153545379638672,-4.8574299812316895
602,37200.0,7.020541667938232,11.057233810424805,-5.008177757263184
603,37300.0,7.020541667938232,11.057233810424805,-5.008177757263184
604,37400.0,3.6131620407104488,5.343173027038574,-7.582855224609375
605,37500.0,3.6131620407104488,5.343173027038574,-7.582855224609375
606,37600.0,2.9718859195709233,1.7371891736984253,-9.066404342651367
607,37700.0,2.9718859195709233,1.7371891736984253,-9.066404342651367
608,37800.0,6.106483459472656,6.664010524749756,-8.848658561706543
609,37900.0,6.106483459472656,6.664010524749756,-8.848658561706543
610,38000.0,3.230310440063477,5.785844802856445,-6.376872539520264
611,38100.0,3.230310440063477,5.785844802856445,-6.376872539520264
612,38200.0,3.230310440063477,5.785844802856445,-6.376872539520264
613,38300.0,1.5026925802230835,2.950350284576416,-8.415557861328125
614,38400.0,1.5026925802230835,2.950350284576416,-8.415557861328125
615,38500.0,3.0149567127227783,6.132804393768311,-7.6115684509277335
616,38600.0,3.0149567127227783,6.132804393768311,-7.6115684509277335
617,38700.0,1.4021940231323242,1.0528419017791748,-9.540184020996094
618,38800.0,1.4021940231323242,1.0528419017791748,-9.540184020996094
619,38900.0,1.4021940231323242,1.0528419017791748,-9.540184020996094
620,38000.0,3.230310440063477,5.785844802856445,-6.376872539520264
621,38100.0,3.230310440063477,5.785844802856445,-6.376872539520264
622,38200.0,3.230310440063477,5.785844802856445,-6.376872539520264
623,38300.0,1.5026925802230835,2.950350284576416,-8.415557861328125
624,38400.0,1.5026925802230835,2.950350284576416,-8.415557861328125
625,38500.0,3.0149567127227783,6.132804393768311,-7.6115684509277335
626,38600.0,3.0149567127227783,6.132804393768311,-7.6115684509277335
627,38700.0,1.4021940231323242,1.0528419017791748,-9.540184020996094
628,38800.0,1.4021940231323242,1.0528419017791748,-9.540184020996094
629,38900.0,1.4021940231323242,1.0528419017791748,-9.540184020996094
630,39000.0,1.1150553226470947,6.915257453918457,-7.99681282043457
631,39100.0,1.1150553226470947,6.915257453918457,-7.99681282043457
632,39200.0,-0.9236294627189636,0.8255237936973572,-6.87697172164917
633,39300.0,-0.9236294627189636,0.8255237936973572,-6.87697172164917
634,39400.0,-0.9236294627189636,0.8255237936973572,-6.87697172164917
635,39500.0,-0.9475577473640442,6.027520179748535,-8.123632431030272
636,39600.0,-0.9475577473640442,6.027520179748535,-8.123632431030272
637,39700.0,6.422336101531982,5.12303352355957,-6.893722057342528
638,39800.0,6.422336101531982,5.12303352355957,-6.893722057342528
639,39900.0,-2.943171739578247,3.1202406883239746,-9.913464546203613
640,39000.0,1.1150553226470947,6.915257453918457,-7.99681282043457
641,39100.0,1.1150553226470947,6.915257453918457,-7.99681282043457
642,39200.0,-0.9236294627189636,0.8255237936973572,-6.87697172164917
643,39300.0,-0.9236294627189636,0.8255237936973572,-6.87697172164917
644,39400.0,-0.9236294627189636,0.8255237936973572,-6.87697172164917
645,39500.0,-0.9475577473640442,6.027520179748535,-8.123632431030272
646,39600.0,-0.9475577473640442,6.027520179748535,-8.123632431030272
647,39700.0,6.422336101531982,5.12303352355957,-6.893722057342528
648,39800.0,6.422336101531982,5.12303352355957,-6.893722057342528
649,39900.0,-2.943171739578247,3.1202406883239746,-9.913464546203613
650,40000.0,-2.943171739578247,3.1202406883239746,-9.913464546203613
651,40100.0,-2.943171739578247,3.1202406883239746,-9.913464546203613
652,40200.0,4.541577339172363,4.455435752868652,-6.491727352142334
653,40300.0,4.541577339172363,4.455435752868652,-6.491727352142334
654,40400.0,-1.9669002294540403,4.871786594390869,-9.138189315795898
655,40500.0,-1.9669002294540403,4.871786594390869,-9.138189315795898
656,40600.0,4.59421968460083,5.958127975463867,-4.800002098083496
657,40700.0,4.59421968460083,5.958127975463867,-4.800002098083496
658,40800.0,-4.742574691772461,5.42692232131958,-10.351350784301758
659,40900.0,-4.742574691772461,5.42692232131958,-10.351350784301758
660,40000.0,-2.943171739578247,3.1202406883239746,-9.913464546203613
661,40100.0,-2.943171739578247,3.1202406883239746,-9.913464546203613
662,40200.0,4.541577339172363,4.455435752868652,-6.491727352142334
663,40300.0,4.541577339172363,4.455435752868652,-6.491727352142334
664,40400.0,-1.9669002294540403,4.871786594390869,-9.138189315795898
665,40500.0,-1.9669002294540403,4.871786594390869,-9.138189315795898
666,40600.0,4.59421968460083,5.958127975463867,-4.800002098083496
667,40700.0,4.59421968460083,5.958127975463867,-4.800002098083496
668,40800.0,-4.742574691772461,5.42692232131958,-10.351350784301758
669,40900.0,-4.742574691772461,5.42692232131958,-10.351350784301758
670,41000.0,-4.742574691772461,5.42692232131958,-10.351350784301758
671,41100.0,3.9720854759216313,4.644468784332275,-5.685347080230713
672,41200.0,3.9720854759216313,4.644468784332275,-5.685347080230713
673,41300.0,-2.5507488250732417,2.8594231605529785,-11.49272632598877
674,41400.0,-2.5507488250732417,2.8594231605529785,-11.49272632598877
675,41500.0,6.680760860443115,3.7663028240203857,-7.17368221282959
676,41600.0,6.680760860443115,3.7663028240203857,-7.17368221282959
677,41700.0,6.680760860443115,3.7663028240203857,-7.17368221282959
678,41800.0,-2.541177749633789,0.1459621787071228,-10.86580753326416
679,41900.0,-2.541177749633789,0.1459621787071228,-10.86580753326416
680,41000.0,-4.742574691772461,5.42692232131958,-10.351350784301758
681,41100.0,3.9720854759216313,4.644468784332275,-5.685347080230713
682,41200.0,3.9720854759216313,4.644468784332275,-5.685347080230713
683,41300.0,-2.5507488250732417,2.8594231605529785,-11.49272632598877
684,41400.0,-2.5507488250732417,2.8594231605529785,-11.49272632598877
685,41500.0,6.680760860443115,3.7663028240203857,-7.17368221282959
686,41600.0,6.680760860443115,3.7663028240203857,-7.17368221282959
687,41700.0,6.680760860443115,3.7663028240203857,-7.17368221282959
688,41800.0,-2.541177749633789,0.1459621787071228,-10.86580753326416
689,41900.0,-2.541177749633789,0.1459621787071228,-10.86580753326416
690,42000.0,5.536991596221924,6.742973804473878,-4.9363932609558105
691,42100.0,5.536991596221924,6.742973804473878,-4.9363932609558105
692,42200.0,5.536991596221924,6.742973804473878,-4.9363932609558105
693,42300.0,-1.215553879737854,-0.9212367534637452,-10.322636604309082
694,42400.0,-1.215553879737854,-0.9212367534637452,-10.322636604309082
695,42500.0,2.5986053943634038,8.343771934509277,-5.402993679046631
696,42600.0,2.5986053943634038,8.343771934509277,-5.402993679046631
697,42700.0,1.7802598476409912,5.484349250793457,-8.697910308837889
698,42800.0,1.7802598476409912,5.484349250793457,-8.697910308837889
699,42900.0,1.7802598476409912,5.484349250793457,-8.697910308837889
700,42000.0,5.536991596221924,6.742973804473878,-4.9363932609558105
701,42100.0,5.536991596221924,6.742973804473878,-4.9363932609558105
702,42200.0,5.536991596221924,6.742973804473878,-4.9363932609558105
703,42300.0,-1.215553879737854,-0.9212367534637452,-10.322636604309082
704,42400.0,-1.215553879737854,-0.9212367534637452,-10.322636604309082
705,42500.0,2.5986053943634038,8.343771934509277,-5.402993679046631
706,42600.0,2.5986053943634038,8.343771934509277,-5.402993679046631
707,42700.0,1.7802598476409912,5.484349250793457,-8.697910308837889
708,42800.0,1.7802598476409912,5.484349250793457,-8.697910308837889
709,42900.0,1.7802598476409912,5.484349250793457,-8.697910308837889
710,43000.0,1.550549030303955,6.750153064727782,-4.945964336395264
711,43100.0,1.550549030303955,6.750153064727782,-4.945964336395264
712,43200.0,-0.5503491759300232,4.412364959716797,-8.176274299621582
713,43300.0,-0.5503491759300232,4.412364959716797,-8.176274299621582
714,43400.0,1.3112668991088867,9.619147300720217,-5.2905311584472665
715,43500.0,1.3112668991088867,9.619147300720217,-5.2905311584472665
716,43600.0,1.3112668991088867,9.619147300720217,-5.2905311584472665
717,43700.0,1.5218352079391482,-0.2321037948131561,-10.829915046691896
718,43800.0,1.5218352079391482,-0.2321037948131561,-10.829915046691896
719,43900.0,1.7994027137756348,8.312665939331055,-7.381857395172119
720,43000.0,1.550549030303955,6.750153064727782,-4.945964336395264
721,43100.0,1.550549030303955,6.750153064727782,-4.945964336395264
722,43200.0,-0.5503491759300232,4.412364959716797,-8.176274299621582
723,43300.0,-0.5503491759300232,4.412364959716797,-8.176274299621582
724,43400.0,1.3112668991088867,9.619147300720217,-5.2905311584472665
725,43500.0,1.3112668991088867,9.619147300720217,-5.2905311584472665
726,43600.0,1.3112668991088867,9.619147300720217,-5.2905311584472665
727,43700.0,1.5218352079391482,-0.2321037948131561,-10.829915046691896
728,43800.0,1.5218352079391482,-0.2321037948131561,-10.829915046691896
729,43900.0,1.7994027137756348,8.312665939331055,-7.381857395172119
730,44000.0,1.7994027137756348,8.312665939331055,-7.381857395172119
731,44100.0,2.1726830005645748,-0.4809573292732239,-10.420742988586426
732,44200.0,2.1726830005645748,-0.4809573292732239,-10.420742988586426
733,44300.0,2.1726830005645748,-0.4809573292732239,-10.420742988586426
734,44400.0,-2.47896409034729,5.350350856781006,-10.00439167022705
735,44500.0,-2.47896409034729,5.350350856781006,-10.00439167022705
736,44600.0,5.637490272521973,4.737788677215576,-6.247659683227539
737,44700.0,5.637490272521973,4.737788677215576,-6.247659683227539
738,44800.0,-3.713660717010498,-0.6843472719192505,-10.368099212646484
739,44900.0,-3.713660717010498,-0.6843472719192505,-10.368099212646484
740,44000.0,1.7994027137756348,8.312665939331055,-7.381857395172119
741,44100.0,2.1726830005645748,-0.4809573292732239,-10.420742988586426
742,44200.0,2.1726830005645748,-0.4809573292732239,-10.420742988586426
743,44300.0,2.1726830005645748,-0.4809573292732239,-10.420742988586426
744,44400.0,-2.47896409034729,5.350350856781006,-10.00439167022705
745,44500.0,-2.47896409034729,5.350350856781006,-10.00439167022705
746,44600.0,5.637490272521973,4.737788677215576,-6.247659683227539
747,44700.0,5.637490272521973,4.737788677215576,-6.247659683227539
748,44800.0,-3.713660717010498,-0.6843472719192505,-10.368099212646484
749,44900.0,-3.713660717010498,-0.6843472719192505,-10.368099212646484
750,45000.0,-3.713660717010498,-0.6843472719192505,-10.368099212646484
751,45100.0,3.0149567127227783,7.499105930328369,-6.613761901855469
752,45200.0,3.0149567127227783,7.499105930328369,-6.613761901855469
753,45300.0,2.1391832828521733,-0.062213387340307236,-11.956934928894045
754,45400.0,2.1391832828521733,-0.062213387340307236,-11.956934928894045
755,45500.0,2.1391832828521733,-0.062213387340307236,-11.956934928894045
756,45600.0,-1.3543376922607422,7.601996898651122,-6.857830047607423
757,45700.0,-1.3543376922607422,7.601996898651122,-6.857830047607423
758,45800.0,5.206782341003418,1.131805181503296,-8.906085968017578
759,45900.0,5.206782341003418,1.131805181503296,-8.906085968017578
760,45000.0,-3.713660717010498,-0.6843472719192505,-10.368099212646484
761,45100.0,3.0149567127227783,7.499105930328369,-6.613761901855469
762,45200.0,3.0149567127227783,7.499105930328369,-6.613761901855469
763,45300.0,2.1391832828521733,-0.062213387340307236,-11.956934928894045
764,45400.0,2.1391832828521733,-0.062213387340307236,-11.956934928894045
765,45500.0,2.1391832828521733,-0.062213387340307236,-11.956934928894045
766,45600.0,-1.3543376922607422,7.601996898651122,-6.857830047607423
767,45700.0,-1.3543376922607422,7.601996898651122,-6.857830047607423
768,45800.0,5.206782341003418,1.131805181503296,-8.906085968017578
769,45900.0,5.206782341003418,1.131805181503296,-8.906085968017578
770,46000.0,-3.957728624343872,2.7038896083831787,-10.810771942138672
771,46100.0,-3.957728624343872,2.7038896083831787,-10.810771942138672
772,46200.0,-3.957728624343872,2.7038896083831787,-10.810771942138672
773,46300.0,4.398008346557616,4.54636287689209,-6.898508071899414
774,46400.0,4.398008346557616,4.54636287689209,-6.898508071899414
775,46500.0,-1.588834285736084,-0.9930213689804076,-10.456634521484377
776,46600.0,-1.588834285736084,-0.9930213689804076,-10.456634521484377
777,46700.0,-1.588834285736084,-0.9930213689804076,-10.456634521484377
778,46800.0,1.3878371715545654,8.145168304443361,-6.726224899291992
779,46900.0,1.3878371715545654,8.145168304443361,-6.726224899291992
780,46000.0,-3.957728624343872,2.7038896083831787,-10.810771942138672
781,46100.0,-3.957728624343872,2.7038896083831787,-10.810771942138672
782,46200.0,-3.957728624343872,2.7038896083831787,-10.810771942138672
783,46300.0,4.398008346557616,4.54636287689209,-6.898508071899414
784,46400.0,4.398008346557616,4.54636287689209,-6.898508071899414
785,46500.0,-1.588834285736084,-0.9930213689804076,-10.456634521484377
786,46600.0,-1.588834285736084,-0.9930213689804076,-10.456634521484377
787,46700.0,-1.588834285736084,-0.9930213689804076,-10.456634521484377
788,46800.0,1.3878371715545654,8.145168304443361,-6.726224899291992
789,46900.0,1.3878371715545654,8.145168304443361,-6.726224899291992
790,47000.0,2.9766712188720703,-0.6747759580612183,-11.822936058044435
791,47100.0,2.9766712188720703,-0.6747759580612183,-11.822936058044435
792,47200.0,-0.30149564146995544,7.7048888206481925,-7.740781307220459
793,47300.0,-0.30149564146995544,7.7048888206481925,-7.740781307220459
794,47400.0,-0.30149564146995544,7.7048888206481925,-7.740781307220459
795,47500.0,8.796016693115233,5.656632423400879,-12.818350791931152
796,47600.0,8.796016693115233,5.656632423400879,-12.818350791931152
797,47700.0,-4.264009952545166,5.7547383308410645,-10.784451484680176
798,47800.0,-4.264009952545166,5.7547383308410645,-10.784451484680176
799,47900.0,-4.264009952545166,5.7547383308410645,-10.784451484680176
800,47000.0,2.9766712188720703,-0.6747759580612183,-11.822936058044435
801,47100.0,2.9766712188720703,-0.6747759580612183,-11.822936058044435
802,47200.0,-0.30149564146995544,7.7048888206481925,-7.740781307220459
803,47300.0,-0.30149564146995544,7.7048888206481925,-7.740781307220459
804,47400.0,-0.30149564146995544,7.7048888206481925,-7.740781307220459
805,47500.0,8.796016693115233,5.656632423400879,-12.818350791931152
806,47600.0,8.796016693115233,5.656632423400879,-12.818350791931152
807,47700.0,-4.264009952545166,5.7547383308410645,-10.784451484680176
808,47800.0,-4.264009952545166,5.7547383308410645,-10.784451484680176
809,47900.0,-4.264009952545166,5.7547383308410645,-10.784451484680176
810,48000.0,6.336194515228272,5.367101192474365,-6.199803352355957
811,48100.0,6.336194515228272,5.367101192474365,-6.199803352355957
812,48200.0,-3.608376264572144,3.996013641357422,-10.329815864562988
813,48300.0,-3.608376264572144,3.996013641357422,-10.329815864562988
814,48400.0,4.8095736503601065,4.527220726013184,-6.386443614959718
815,48500.0,4.8095736503601065,4.527220726013184,-6.386443614959718
816,48600.0,-3.4743783473968506,3.510270833969116,-12.117253303527832
817,48700.0,-3.4743783473968506,3.510270833969116,-12.117253303527832
818,48800.0,6.168696403503418,1.6534404754638672,-7.829315185546875
819,48900.0,6.168696403503418,1.6534404754638672,-7.829315185546875
820,48000.0,6.336194515228272,5.367101192474365,-6.199803352355957
821,48100.0,6.336194515228272,5.367101192474365,-6.199803352355957
822,48200.0,-3.608376264572144,3.996013641357422,-10.329815864562988
823,48300.0,-3.608376264572144,3.996013641357422,-10.329815864562988
824,48400.0,4.8095736503601065,4.527220726013184,-6.386443614959718
825,48500.0,4.8095736503601065,4.527220726013184,-6.386443614959718
826,48600.0,-3.4743783473968506,3.510270833969116,-12.117253303527832
827,48700.0,-3.4743783473968506,3.510270833969116,-12.117253303527832
828,48800.0,6.168696403503418,1.6534404754638672,-7.829315185546875
829,48900.0,6.168696403503418,1.6534404754638672,-7.829315185546875
830,49000.0,-1.4548362493515017,3.1202406883239746,-11.408977508544922
831,49100.0,-1.4548362493515017,3.1202406883239746,-11.408977508544922
832,49200.0,-1.4548362493515017,3.1202406883239746,-11.408977508544922
833,49300.0,3.7328033447265625,11.045268058776855,-4.642076015472412
834,49400.0,3.7328033447265625,11.045268058776855,-4.642076015472412
835,49500.0,-1.043270707130432,7.3531436920166025,-13.45962619781494
836,49600.0,-1.043270707130432,7.3531436920166025,-13.45962619781494
837,49700.0,-1.043270707130432,7.3531436920166025,-13.45962619781494
838,49800.0,-0.07657032459974289,9.32004451751709,1.031306505203247
839,49900.0,-0.07657032459974289,9.32004451751709,1.031306505203247
840,49000.0,-1.4548362493515017,3.1202406883239746,-11.408977508544922
841,49100.0,-1.4548362493515017,3.1202406883239746,-11.408977508544922
842,49200.0,-1.4548362493515017,3.1202406883239746,-11.408977508544922
843,49300.0,3.7328033447265625,11.045268058776855,-4.642076015472412
844,49400.0,3.7328033447265625,11.045268058776855,-4.642076015472412
845,49500.0,-1.043270707130432,7.3531436920166025,-13.45962619781494
846,49600.0,-1.043270707130432,7.3531436920166025,-13.45962619781494
847,49700.0,-1.043270707130432,7.3531436920166025,-13.45962619781494
848,49800.0,-0.07657032459974289,9.32004451751709,1.031306505203247
849,49900.0,-0.07657032459974289,9.32004451751709,1.031306505203247
850,50000.0,-0.97148597240448,6.67836856842041,10.181459426879883
851,50100.0,-0.97148597240448,6.67836856842041,10.181459426879883
852,50200.0,-1.8855443000793457,7.436892509460449,-2.617748022079468
853,50300.0,-1.8855443000793457,7.436892509460449,-2.617748022079468
854,50400.0,-1.8855443000793457,7.436892509460449,-2.617748022079468
855,50500.0,-0.1579262912273407,8.286344528198242,-3.926621913909912
856,50600.0,-0.1579262912273407,8.286344528198242,-3.926621913909912
857,50700.0,-1.4883356094360352,11.38026523590088,1.5385849475860596
858,50800.0,-1.4883356094360352,11.38026523590088,1.5385849475860596
859,50900.0,-1.4883356094360352,11.38026523590088,1.5385849475860596
860,50000.0,-0.97148597240448,6.67836856842041,10.181459426879883
861,50100.0,-0.97148597240448,6.67836856842041,10.181459426879883
862,50200.0,-1.8855443000793457,7.436892509460449,-2.617748022079468
863,50300.0,-1.8855443000793457,7.436892509460449,-2.617748022079468
864,50400.0,-1.8855443000793457,7.436892509460449,-2.617748022079468
865,50500.0,-0.1579262912273407,8.286344528198242,-3.926621913909912
866,50600.0,-0.1579262912273407,8.286344528198242,-3.926621913909912
867,50700.0,-1.4883356094360352,11.38026523590088,1.5385849475860596
868,50800.0,-1.4883356094360352,11.38026523590088,1.5385849475860596
869,50900.0,-1.4883356094360352,11.38026523590088,1.5385849475860596
870,51000.0,-1.8999011516571045,8.111669540405272,-3.2997026443481445
871,51100.0,-1.8999011516571045,8.111669540405272,-3.2997026443481445
872,51200.0,-3.73758864402771,8.441878318786621,11.207980155944824
873,51300.0,-3.73758864402771,8.441878318786621,11.207980155944824
874,51400.0,-1.56969153881073,4.2041893005371085,-6.230910301208496
875,51500.0,-1.56969153881073,4.2041893005371085,-6.230910301208496
876,51600.0,-2.517249345779419,8.051848411560059,-5.4077792167663565
877,51700.0,-2.517249345779419,8.051848411560059,-5.4077792167663565
878,51800.0,-3.680161237716675,13.703696250915527,10.724631309509276
879,51900.0,-3.680161237716675,13.703696250915527,10.724631309509276
880,51000.0,-1.8999011516571045,8.111669540405272,-3.2997026443481445
881,51100.0,-1.8999011516571045,8.111669540405272,-3.2997026443481445
882,51200.0,-3.73758864402771,8.441878318786621,11.207980155944824
883,51300.0,-3.73758864402771,8.441878318786621,11.207980155944824
884,51400.0,-1.56969153881073,4.2041893005371085,-6.230910301208496
885,51500.0,-1.56969153881073,4.2041893005371085,-6.230910301208496
886,51600.0,-2.517249345779419,8.051848411560059,-5.4077792167663565
887,51700.0,-2.517249345779419,8.051848411560059,-5.4077792167663565
888,51800.0,-3.680161237716675,13.703696250915527,10.724631309509276
889,51900.0,-3.680161237716675,13.703696250915527,10.724631309509276
890,52000.0,-3.680161237716675,13.703696250915527,10.724631309509276
891,52100.0,-0.82791668176651,5.350350856781006,-10.65523910522461
892,52200.0,-0.82791668176651,5.350350856781006,-10.65523910522461
893,52300.0,-0.17706887423992154,6.556333541870117,-5.852844715118407
894,52400.0,-0.17706887423992154,6.556333541870117,-5.852844715118407
895,52500.0,-0.9810572862625122,9.011369705200195,4.922036170959473
896,52600.0,-0.9810572862625122,9.011369705200195,4.922036170959473
897,52700.0,-2.569891452789306,9.152545928955078,-2.9862425327301025
898,52800.0,-2.569891452789306,9.152545928955078,-2.9862425327301025
899,52900.0,-2.569891452789306,9.152545928955078,-2.9862425327301025
900,52000.0,-3.680161237716675,13.703696250915527,10.724631309509276
901,52100.0,-0.82791668176651,5.350350856781006,-10.65523910522461
902,52200.0,-0.82791668176651,5.350350856781006,-10.65523910522461
903,52300.0,-0.17706887423992154,6.556333541870117,-5.852844715118407
904,52400.0,-0.17706887423992154,6.556333541870117,-5.852844715118407
905,52500.0,-0.9810572862625122,9.011369705200195,4.922036170959473
906,52600.0,-0.9810572862625122,9.011369705200195,4.922036170959473
907,52700.0,-2.569891452789306,9.152545928955078,-2.9862425327301025
908,52800.0,-2.569891452789306,9.152545928955078,-2.9862425327301025
909,52900.0,-2.569891452789306,9.152545928955078,-2.9862425327301025
910,53000.0,-0.8709874749183655,6.553941249847412,-5.395814895629883
911,53100.0,-0.8709874749183655,6.553941249847412,-5.395814895629883
912,53200.0,-1.1341978311538696,9.82971477508545,2.4646072387695312
913,53300.0,-1.1341978311538696,9.82971477508545,2.4646072387695312
914,53400.0,-2.25403904914856,7.814958095550537,-1.8759729862213133
915,53500.0,-2.25403904914856,7.814958095550537,-1.8759729862213133
916,53600.0,-2.25403904914856,7.814958095550537,-1.8759729862213133
917,53700.0,-0.5455635190010071,9.82971477508545,-1.026520848274231
918,53800.0,-0.5455635190010071,9.82971477508545,-1.026520848274231
919,53900.0,-2.622533798217773,9.456435203552246,4.185047149658203
920,53000.0,-0.8709874749183655,6.553941249847412,-5.395814895629883
921,53100.0,-0.8709874749183655,6.553941249847412,-5.395814895629883
922,53200.0,-1.1341978311538696,9.82971477508545,2.4646072387695312
923,53300.0,-1.1341978311538696,9.82971477508545,2.4646072387695312
924,53400.0,-2.25403904914856,7.814958095550537,-1.8759729862213133
925,53500.0,-2.25403904914856,7.814958095550537,-1.8759729862213133
926,53600.0,-2.25403904914856,7.814958095550537,-1.8759729862213133
927,53700.0,-0.5455635190010071,9.82971477508545,-1.026520848274231
928,53800.0,-0.5455635190010071,9.82971477508545,-1.026520848274231
929,53900.0,-2.622533798217773,9.456435203552246,4.185047149658203
930,54000.0,-2.622533798217773,9.456435203552246,4.185047149658203
931,54100.0,-0.5790630578994751,9.236295700073242,-3.6323046684265137
932,54200.0,-0.5790630578994751,9.236295700073242,-3.6323046684265137
933,54300.0,-1.0959126949310305,7.93699312210083,0.5168496966362001
934,54400.0,-1.0959126949310305,7.93699312210083,0.5168496966362001
935,54500.0,-1.0959126949310305,7.93699312210083,0.5168496966362001
936,54600.0,-1.4548362493515017,9.858428955078123,5.630311965942383
937,54700.0,-1.4548362493515017,9.858428955078123,5.630311965942383
938,54800.0,-1.1533405780792236,8.499305725097656,-3.4241292476654053
939,54900.0,-1.1533405780792236,8.499305725097656,-3.4241292476654053
940,54000.0,-2.622533798217773,9.456435203552246,4.185047149658203
941,54100.0,-0.5790630578994751,9.236295700073242,-3.6323046684265137
942,54200.0,-0.5790630578994751,9.236295700073242,-3.6323046684265137
943,54300.0,-1.0959126949310305,7.93699312210083,0.5168496966362001
944,54400.0,-1.0959126949310305,7.93699312210083,0.5168496966362001
945,54500.0,-1.0959126949310305,7.93699312210083,0.5168496966362001
946,54600.0,-1.4548362493515017,9.858428955078123,5.630311965942383
947,54700.0,-1.4548362493515017,9.858428955078123,5.630311965942383
948,54800.0,-1.1533405780792236,8.499305725097656,-3.4241292476654053
949,54900.0,-1.1533405780792236,8.499305725097656,-3.4241292476654053
950,55000.0,-1.641476273536682,8.22413158416748,0.7345964908599854
951,55100.0,-1.641476273536682,8.22413158416748,0.7345964908599854
952,55200.0,-1.641476273536682,8.22413158416748,0.7345964908599854
953,55300.0,-2.71346116065979,8.214560508728027,5.9198431968688965
954,55400.0,-2.71346116065979,8.214560508728027,5.9198431968688965
955,55500.0,-1.9286150932312007,8.635696411132812,0.3661018908023834
956,55600.0,-1.9286150932312007,8.635696411132812,0.3661018908023834
957,55700.0,-1.6079767942428589,8.437092781066895,6.86261510848999
958,55800.0,-1.6079767942428589,8.437092781066895,6.86261510848999
959,55900.0,-1.4021940231323242,7.4057860374450675,8.193024635314941
960,55000.0,-1.641476273536682,8.22413158416748,0.7345964908599854
961,55100.0,-1.641476273536682,8.22413158416748,0.7345964908599854
962,55200.0,-1.641476273536682,8.22413158416748,0.7345964908599854
963,55300.0,-2.71346116065979,8.214560508728027,5.9198431968688965
964,55400.0,-2.71346116065979,8.214560508728027,5.9198431968688965
965,55500.0,-1.9286150932312007,8.635696411132812,0.3661018908023834
966,55600.0,-1.9286150932312007,8.635696411132812,0.3661018908023834
967,55700.0,-1.6079767942428589,8.437092781066895,6.86261510848999
968,55800.0,-1.6079767942428589,8.437092781066895,6.86261510848999
969,55900.0,-1.4021940231323242,7.4057860374450675,8.193024635314941
970,56000.0,-1.4021940231323242,7.4057860374450675,8.193024635314941
971,56100.0,-1.4021940231323242,7.4057860374450675,8.193024635314941
972,56200.0,-1.4787644147872925,8.499305725097656,3.3212375640869136
973,56300.0,-1.4787644147872925,8.499305725097656,3.3212375640869136
974,56400.0,-1.325623631477356,7.975277900695801,2.2133607864379883
975,56500.0,-1.325623631477356,7.975277900695801,2.2133607864379883
976,56600.0,-1.325623631477356,7.975277900695801,2.2133607864379883
977,56700.0,-1.3591231107711792,7.1712894439697275,5.766702175140381
978,56800.0,-1.3591231107711792,7.1712894439697275,5.766702175140381
979,56900.0,-0.7752745151519775,7.197610855102539,6.072984218597412
980,56000.0,-1.4021940231323242,7.4057860374450675,8.193024635314941
981,56100.0,-1.4021940231323242,7.4057860374450675,8.193024635314941
982,56200.0,-1.4787644147872925,8.499305725097656,3.3212375640869136
983,56300.0,-1.4787644147872925,8.499305725097656,3.3212375640869136
984,56400.0,-1.325623631477356,7.975277900695801,2.2133607864379883
985,56500.0,-1.325623631477356,7.975277900695801,2.2133607864379883
986,56600.0,-1.325623631477356,7.975277900695801,2.2133607864379883
987,56700.0,-1.3591231107711792,7.1712894439697275,5.766702175140381
988,56800.0,-1.3591231107711792,7.1712894439697275,5.766702175140381
989,56900.0,-0.7752745151519775,7.197610855102539,6.072984218597412
990,57000.0,-0.7752745151519775,7.197610855102539,6.072984218597412
991,57100.0,-1.5457634925842283,8.97787094116211,5.92223596572876
992,57200.0,-1.5457634925842283,8.97787094116211,5.92223596572876
993,57300.0,-1.5457634925842283,8.97787094116211,5.92223596572876
994,57400.0,-0.784845769405365,8.71944522857666,6.97986364364624
995,57500.0,-0.784845769405365,8.71944522857666,6.97986364364624
996,57600.0,-1.4500504732131958,7.307680606842041,5.254639148712158
997,57700.0,-1.4500504732131958,7.307680606842041,5.254639148712158
998,57800.0,-1.4500504732131958,7.307680606842041,5.254639148712158
999,57900.0,-1.1724830865859983,8.01356315612793,3.146562099456787
1000,57000.0,-0.7752745151519775,7.197610855102539,6.072984218597412
1001,57100.0,-1.5457634925842283,8.97787094116211,5.92223596572876
1002,57200.0,-1.5457634925842283,8.97787094116211,5.92223596572876
1003,57300.0,-1.5457634925842283,8.97787094116211,5.92223596572876
1004,57400.0,-0.784845769405365,8.71944522857666,6.97986364364624
1005,57500.0,-0.784845769405365,8.71944522857666,6.97986364364624
1006,57600.0,-1.4500504732131958,7.307680606842041,5.254639148712158
1007,57700.0,-1.4500504732131958,7.307680606842041,5.254639148712158
1008,57800.0,-1.4500504732131958,7.307680606842041,5.254639148712158
1009,57900.0,-1.1724830865859983,8.01356315612793,3.146562099456787
1010,58000.0,-1.1724830865859983,8.01356315612793,3.146562099456787
1011,58100.0,-0.818345308303833,8.25284481048584,5.6925249099731445
1012,58200.0,-0.818345308303833,8.25284481048584,5.6925249099731445
1013,58300.0,-1.9764715433120728,8.343771934509277,7.149754047393799
1014,58400.0,-1.9764715433120728,8.343771934509277,7.149754047393799
1015,58500.0,-1.9764715433120728,8.343771934509277,7.149754047393799
1016,58600.0,-0.9284151792526244,8.023134231567383,5.118247985839844
1017,58700.0,-0.9284151792526244,8.023134231567383,5.118247985839844
1018,58800.0,-0.6029912829399109,7.590033531188965,5.285745620727539
1019,58900.0,-0.6029912829399109,7.590033531188965,5.285745620727539
1020,58000.0,-1.1724830865859983,8.01356315612793,3.146562099456787
1021,58100.0,-0.818345308303833,8.25284481048584,5.6925249099731445
1022,58200.0,-0.818345308303833,8.25284481048584,5.6925249099731445
1023,58300.0,-1.9764715433120728,8.343771934509277,7.149754047393799
1024,58400.0,-1.9764715433120728,8.343771934509277,7.149754047393799
1025,58500.0,-1.9764715433120728,8.343771934509277,7.149754047393799
1026,58600.0,-0.9284151792526244,8.023134231567383,5.118247985839844
1027,58700.0,-0.9284151792526244,8.023134231567383,5.118247985839844
1028,58800.0,-0.6029912829399109,7.590033531188965,5.285745620727539
1029,58900.0,-0.6029912829399109,7.590033531188965,5.285745620727539
1030,59000.0,-1.3112668991088867,8.556733131408691,6.077769756317139
1031,59100.0,-1.3112668991088867,8.556733131408691,6.077769756317139
1032,59200.0,-1.3112668991088867,8.556733131408691,6.077769756317139
1033,59300.0,-1.1198409795761108,7.786244869232178,5.010570526123047
1034,59400.0,-1.1198409795761108,7.786244869232178,5.010570526123047
1035,59500.0,-0.6652047038078308,8.202595710754395,5.493920803070068
1036,59600.0,-0.6652047038078308,8.202595710754395,5.493920803070068
1037,59700.0,-1.0336993932724001,8.659625053405763,5.66620397567749
1038,59800.0,-1.0336993932724001,8.659625053405763,5.66620397567749
1039,59900.0,-1.0336993932724001,8.659625053405763,5.66620397567749
1040,59000.0,-1.3112668991088867,8.556733131408691,6.077769756317139
1041,59100.0,-1.3112668991088867,8.556733131408691,6.077769756317139
1042,59200.0,-1.3112668991088867,8.556733131408691,6.077769756317139
1043,59300.0,-1.1198409795761108,7.786244869232178,5.010570526123047
1044,59400.0,-1.1198409795761108,7.786244869232178,5.010570526123047
1045,59500.0,-0.6652047038078308,8.202595710754395,5.493920803070068
1046,59600.0,-0.6652047038078308,8.202595710754395,5.493920803070068
1047,59700.0,-1.0336993932724001,8.659625053405763,5.66620397567749
1048,59800.0,-1.0336993932724001,8.659625053405763,5.66620397567749
1049,59900.0,-1.0336993932724001,8.659625053405763,5.66620397567749
1050,60000.0,-1.1724830865859983,7.5254268646240225,4.371686935424806
1051,60100.0,-1.1724830865859983,7.5254268646240225,4.371686935424806
1052,60200.0,-1.8376877307891848,7.7599239349365225,6.946363925933838
1053,60300.0,-1.8376877307891848,7.7599239349365225,6.946363925933838
1054,60400.0,-1.8376877307891848,7.7599239349365225,6.946363925933838
1055,60500.0,-0.861416220664978,7.494320392608643,7.7599239349365225
1056,60600.0,-0.861416220664978,7.494320392608643,7.7599239349365225
1057,60700.0,-1.1581261157989502,9.65503978729248,5.840879917144775
1058,60800.0,-1.1581261157989502,9.65503978729248,5.840879917144775
1059,60900.0,-2.3880369663238525,9.722038269042967,0.26081767678260803
1060,60000.0,-1.1724830865859983,7.5254268646240225,4.371686935424806
1061,60100.0,-1.1724830865859983,7.5254268646240225,4.371686935424806
1062,60200.0,-1.8376877307891848,7.7599239349365225,6.946363925933838
1063,60300.0,-1.8376877307891848,7.7599239349365225,6.946363925933838
1064,60400.0,-1.8376877307891848,7.7599239349365225,6.946363925933838
1065,60500.0,-0.861416220664978,7.494320392608643,7.7599239349365225
1066,60600.0,-0.861416220664978,7.494320392608643,7.7599239349365225
1067,60700.0,-1.1581261157989502,9.65503978729248,5.840879917144775
1068,60800.0,-1.1581261157989502,9.65503978729248,5.840879917144775
1069,60900.0,-2.3880369663238525,9.722038269042967,0.26081767678260803
1070,61000.0,-2.3880369663238525,9.722038269042967,0.26081767678260803
1071,61100.0,-0.4594219326972962,1.921436548233032,-9.736394882202148
1072,61200.0,-0.4594219326972962,1.921436548233032,-9.736394882202148
1073,61300.0,-0.4594219326972962,1.921436548233032,-9.736394882202148
1074,61400.0,-0.7369893789291382,5.505885124206543,-8.271987915039062
1075,61500.0,-0.7369893789291382,5.505885124206543,-8.271987915039062
1076,61600.0,0.2871387302875519,11.145767211914062,0.028713870793581012
1077,61700.0,0.2871387302875519,11.145767211914062,0.028713870793581012
1078,61800.0,-0.11485548317432405,0.4713860750198364,-10.16710376739502
1079,61900.0,-0.11485548317432405,0.4713860750198364,-10.16710376739502
1080,61000.0,-2.3880369663238525,9.722038269042967,0.26081767678260803
1081,61100.0,-0.4594219326972962,1.921436548233032,-9.736394882202148
1082,61200.0,-0.4594219326972962,1.921436548233032,-9.736394882202148
1083,61300.0,-0.4594219326972962,1.921436548233032,-9.736394882202148
1084,61400.0,-0.7369893789291382,5.505885124206543,-8.271987915039062
1085,61500.0,-0.7369893789291382,5.505885124206543,-8.271987915039062
1086,61600.0,0.2871387302875519,11.145767211914062,0.028713870793581012
1087,61700.0,0.2871387302875519,11.145767211914062,0.028713870793581012
1088,61800.0,-0.11485548317432405,0.4713860750198364,-10.16710376739502
1089,61900.0,-0.11485548317432405,0.4713860750198364,-10.16710376739502
1090,62000.0,-0.11485548317432405,0.4713860750198364,-10.16710376739502
1091,62100.0,-0.13878372311592102,7.520641803741455,-4.125226020812988
1092,62200.0,-0.13878372311592102,7.520641803741455,-4.125226020812988
1093,62300.0,0.5216353535652161,9.174081802368164,-4.072584152221681
1094,62400.0,0.5216353535652161,9.174081802368164,-4.072584152221681
1095,62500.0,-0.09092726558446884,8.135597229003906,-4.29750919342041
1096,62600.0,-0.09092726558446884,8.135597229003906,-4.29750919342041
1097,62700.0,-0.6699903011322021,7.075576305389403,-7.310072898864746
1098,62800.0,-0.6699903011322021,7.075576305389403,-7.310072898864746
1099,62900.0,-0.6939185857772827,9.619147300720217,-1.978864312171936
1100,62000.0,-0.11485548317432405,0.4713860750198364,-10.16710376739502
1101,62100.0,-0.13878372311592102,7.520641803741455,-4.125226020812988
1102,62200.0,-0.13878372311592102,7.520641803741455,-4.125226020812988
1103,62300.0,0.5216353535652161,9.174081802368164,-4.072584152221681
1104,62400.0,0.5216353535652161,9.174081802368164,-4.072584152221681
1105,62500.0,-0.09092726558446884,8.135597229003906,-4.29750919342041
1106,62600.0,-0.09092726558446884,8.135597229003906,-4.29750919342041
1107,62700.0,-0.6699903011322021,7.075576305389403,-7.310072898864746
1108,62800.0,-0.6699903011322021,7.075576305389403,-7.310072898864746
1109,62900.0,-0.6939185857772827,9.619147300720217,-1.978864312171936
1110,63000.0,-0.6939185857772827,9.619147300720217,-1.978864312171936
1111,63100.0,0.5886343717575073,10.815558433532717,-0.6388836503028871
1112,63200.0,0.5886343717575073,10.815558433532717,-0.6388836503028871
1113,63300.0,0.5886343717575073,10.815558433532717,-0.6388836503028871
1114,63400.0,-1.0863415002822876,8.298308372497559,-3.7328033447265625
1115,63500.0,-1.0863415002822876,8.298308372497559,-3.7328033447265625
1116,63600.0,-0.7896314859390259,8.987441062927246,-2.6943180561065674
1117,63700.0,-0.7896314859390259,8.987441062927246,-2.6943180561065674
1118,63800.0,0.9140582084655762,11.858829498291016,-0.7082754969596863
1119,63900.0,0.9140582084655762,11.858829498291016,-0.7082754969596863
1120,63000.0,-0.6939185857772827,9.619147300720217,-1.978864312171936
1121,63100.0,0.5886343717575073,10.815558433532717,-0.6388836503028871
1122,63200.0,0.5886343717575073,10.815558433532717,-0.6388836503028871
1123,63300.0,0.5886343717575073,10.815558433532717,-0.6388836503028871
1124,63400.0,-1.0863415002822876,8.298308372497559,-3.7328033447265625
1125,63500.0,-1.0863415002822876,8.298308372497559,-3.7328033447265625
1126,63600.0,-0.7896314859390259,8.987441062927246,-2.6943180561065674
1127,63700.0,-0.7896314859390259,8.987441062927246,-2.6943180561065674
1128,63800.0,0.9140582084655762,11.858829498291016,-0.7082754969596863
1129,63900.0,0.9140582084655762,11.858829498291016,-0.7082754969596863
1130,64000.0,-2.6847469806671143,9.757929801940918,-1.239482045173645
1131,64100.0,-2.6847469806671143,9.757929801940918,-1.239482045173645
1132,64200.0,-2.4693927764892583,9.080761909484863,1.6773687601089478
1133,64300.0,-2.4693927764892583,9.080761909484863,1.6773687601089478
1134,64400.0,-2.4693927764892583,9.080761909484863,1.6773687601089478
1135,64500.0,-0.06699903309345245,9.525827407836914,3.4480574131011963
1136,64600.0,-0.06699903309345245,9.525827407836914,3.4480574131011963
1137,64700.0,-1.4213367700576782,7.001399040222168,5.149354457855225
1138,64800.0,-1.4213367700576782,7.001399040222168,5.149354457855225
1139,64900.0,-2.3736801147460938,8.606983184814451,6.168696403503418
1140,64000.0,-2.6847469806671143,9.757929801940918,-1.239482045173645
1141,64100.0,-2.6847469806671143,9.757929801940918,-1.239482045173645
1142,64200.0,-2.4693927764892583,9.080761909484863,1.6773687601089478
1143,64300.0,-2.4693927764892583,9.080761909484863,1.6773687601089478
1144,64400.0,-2.4693927764892583,9.080761909484863,1.6773687601089478
1145,64500.0,-0.06699903309345245,9.525827407836914,3.4480574131011963
1146,64600.0,-0.06699903309345245,9.525827407836914,3.4480574131011963
1147,64700.0,-1.4213367700576782,7.001399040222168,5.149354457855225
1148,64800.0,-1.4213367700576782,7.001399040222168,5.149354457855225
1149,64900.0,-2.3736801147460938,8.606983184814451,6.168696403503418
1150,65000.0,-2.3736801147460938,8.606983184814451,6.168696403503418
1151,65100.0,-2.3736801147460938,8.606983184814451,6.168696403503418
1152,65200.0,-2.344966173171997,7.2502522468566895,4.364508152008057
1153,65300.0,-2.344966173171997,7.2502522468566895,4.364508152008057
1154,65400.0,-0.2919243574142456,9.329615592956543,2.579463005065918
1155,65500.0,-0.2919243574142456,9.329615592956543,2.579463005065918
1156,65600.0,-0.2919243574142456,9.329615592956543,2.579463005065918
1157,65700.0,-0.4067798554897308,9.11426067352295,1.804188132286072
1158,65800.0,-0.4067798554897308,9.11426067352295,1.804188132286072
1159,65900.0,-2.3258235454559326,8.999405860900879,2.5124638080596924
1160,65000.0,-2.3736801147460938,8.606983184814451,6.168696403503418
1161,65100.0,-2.3736801147460938,8.606983184814451,6.168696403503418
1162,65200.0,-2.344966173171997,7.2502522468566895,4.364508152008057
1163,65300.0,-2.344966173171997,7.2502522468566895,4.364508152008057
1164,65400.0,-0.2919243574142456,9.329615592956543,2.579463005065918
1165,65500.0,-0.2919243574142456,9.329615592956543,2.579463005065918
1166,65600.0,-0.2919243574142456,9.329615592956543,2.579463005065918
1167,65700.0,-0.4067798554897308,9.11426067352295,1.804188132286072
1168,65800.0,-0.4067798554897308,9.11426067352295,1.804188132286072
1169,65900.0,-2.3258235454559326,8.999405860900879,2.5124638080596924
1170,66000.0,-2.3258235454559326,8.999405860900879,2.5124638080596924
1171,66100.0,-1.2011969089508057,9.74835968017578,5.161318302154541
1172,66200.0,-1.2011969089508057,9.74835968017578,5.161318302154541
1173,66300.0,-1.2011969089508057,9.74835968017578,5.161318302154541
1174,66400.0,-1.4069796800613403,7.939385414123535,4.709074974060059
1175,66500.0,-1.4069796800613403,7.939385414123535,4.709074974060059
1176,66600.0,-0.4737788736820221,8.614161491394043,4.847858428955078
1177,66700.0,-0.4737788736820221,8.614161491394043,4.847858428955078
1178,66800.0,-0.4737788736820221,8.614161491394043,4.847858428955078
1179,66900.0,-1.22033953666687,8.358129501342772,6.343372344970702
1180,66000.0,-2.3258235454559326,8.999405860900879,2.5124638080596924
1181,66100.0,-1.2011969089508057,9.74835968017578,5.161318302154541
1182,66200.0,-1.2011969089508057,9.74835968017578,5.161318302154541
1183,66300.0,-1.2011969089508057,9.74835968017578,5.161318302154541
1184,66400.0,-1.4069796800613403,7.939385414123535,4.709074974060059
1185,66500.0,-1.4069796800613403,7.939385414123535,4.709074974060059
1186,66600.0,-0.4737788736820221,8.614161491394043,4.847858428955078
1187,66700.0,-0.4737788736820221,8.614161491394043,4.847858428955078
1188,66800.0,-0.4737788736820221,8.614161491394043,4.847858428955078
1189,66900.0,-1.22033953666687,8.358129501342772,6.343372344970702
1190,67000.0,-1.22033953666687,8.358129501342772,6.343372344970702
1191,67100.0,-1.9142580032348635,6.553941249847412,6.879364967346191
1192,67200.0,-1.9142580032348635,6.553941249847412,6.879364967346191
1193,67300.0,-1.813759446144104,8.262415885925293,7.551748275756836
1194,67400.0,-1.813759446144104,8.262415885925293,7.551748275756836
1195,67500.0,-1.813759446144104,8.262415885925293,7.551748275756836
1196,67600.0,-0.23449662327766416,9.549755096435547,3.8237307071685787
1197,67700.0,-0.23449662327766416,9.549755096435547,3.8237307071685787
1198,67800.0,-1.0767701864242554,6.7453670501708975,2.232503652572632
1199,67900.0,-1.0767701864242554,6.7453670501708975,2.232503652572632
1200,67000.0,-1.22033953666687,8.358129501342772,6.343372344970702
1201,67100.0,-1.9142580032348635,6.553941249847412,6.879364967346191
1202,67200.0,-1.9142580032348635,6.553941249847412,6.879364967346191
1203,67300.0,-1.813759446144104,8.262415885925293,7.551748275756836
1204,67400.0,-1.813759446144104,8.262415885925293,7.551748275756836
1205,67500.0,-1.813759446144104,8.262415885925293,7.551748275756836
1206,67600.0,-0.23449662327766416,9.549755096435547,3.8237307071685787
1207,67700.0,-0.23449662327766416,9.549755096435547,3.8237307071685787
1208,67800.0,-1.0767701864242554,6.7453670501708975,2.232503652572632
1209,67900.0,-1.0767701864242554,6.7453670501708975,2.232503652572632
1210,68000.0,-0.3397807776927948,7.695317268371582,4.895715236663818
1211,68100.0,-0.3397807776927948,7.695317268371582,4.895715236663818
1212,68200.0,-0.3397807776927948,7.695317268371582,4.895715236663818
1213,68300.0,-1.0384850502014158,6.4869422912597665,10.753345489501953
1214,68400.0,-1.0384850502014158,6.4869422912597665,10.753345489501953
1215,68500.0,-2.6847469806671143,6.56829833984375,10.533205032348633
1216,68600.0,-2.6847469806671143,6.56829833984375,10.533205032348633
1217,68700.0,-2.6847469806671143,6.56829833984375,10.533205032348633
1218,68800.0,-0.4785645008087158,8.824729919433594,5.685347080230713
1219,68900.0,-0.4785645008087158,8.824729919433594,5.685347080230713
1220,68000.0,-0.3397807776927948,7.695317268371582,4.895715236663818
1221,68100.0,-0.3397807776927948,7.695317268371582,4.895715236663818
1222,68200.0,-0.3397807776927948,7.695317268371582,4.895715236663818
1223,68300.0,-1.0384850502014158,6.4869422912597665,10.753345489501953
1224,68400.0,-1.0384850502014158,6.4869422912597665,10.753345489501953
1225,68500.0,-2.6847469806671143,6.56829833984375,10.533205032348633
1226,68600.0,-2.6847469806671143,6.56829833984375,10.533205032348633
1227,68700.0,-2.6847469806671143,6.56829833984375,10.533205032348633
1228,68800.0,-0.4785645008087158,8.824729919433594,5.685347080230713
1229,68900.0,-0.4785645008087158,8.824729919433594,5.685347080230713
1230,69000.0,-2.2827527523040767,8.317451477050781,7.458428382873535
1231,69100.0,-2.2827527523040767,8.317451477050781,7.458428382873535
1232,69200.0,-0.3445664942264557,7.357929229736327,4.328616142272948
1233,69300.0,-0.3445664942264557,7.357929229736327,4.328616142272948
1234,69400.0,-0.5312066078186035,8.769694328308105,2.8953151702880864
1235,69500.0,-0.5312066078186035,8.769694328308105,2.8953151702880864
1236,69600.0,-1.5361920595169067,10.076176643371582,4.431507587432861
1237,69700.0,-1.5361920595169067,10.076176643371582,4.431507587432861
1238,69800.0,-1.5361920595169067,10.076176643371582,4.431507587432861
1239,69900.0,-1.3591231107711792,5.07517671585083,-5.553741931915283
1240,69000.0,-2.2827527523040767,8.317451477050781,7.458428382873535
1241,69100.0,-2.2827527523040767,8.317451477050781,7.458428382873535
1242,69200.0,-0.3445664942264557,7.357929229736327,4.328616142272948
1243,69300.0,-0.3445664942264557,7.357929229736327,4.328616142272948
1244,69400.0,-0.5312066078186035,8.769694328308105,2.8953151702880864
1245,69500.0,-0.5312066078186035,8.769694328308105,2.8953151702880864
1246,69600.0,-1.5361920595169067,10.076176643371582,4.431507587432861
1247,69700.0,-1.5361920595169067,10.076176643371582,4.431507587432861
1248,69800.0,-1.5361920595169067,10.076176643371582,4.431507587432861
1249,69900.0,-1.3591231107711792,5.07517671585083,-5.553741931915283
1250,70000.0,-1.3591231107711792,5.07517671585083,-5.553741931915283
1251,70100.0,-0.8662018179893494,5.5968122482299805,-8.721837997436522
1252,70200.0,-0.8662018179893494,5.5968122482299805,-8.721837997436522
1253,70300.0,-1.8664016723632808,1.8257235288619995,-9.600004196166992
1254,70400.0,-1.8664016723632808,1.8257235288619995,-9.600004196166992
1255,70500.0,-1.8664016723632808,1.8257235288619995,-9.600004196166992
1256,70600.0,0.6747759580612183,7.073184013366699,-7.113861560821532
1257,70700.0,0.6747759580612183,7.073184013366699,-7.113861560821532
1258,70800.0,-2.517249345779419,8.23130989074707,-0.6149553656578064
1259,70900.0,-2.517249345779419,8.23130989074707,-0.6149553656578064
1260,70000.0,-1.3591231107711792,5.07517671585083,-5.553741931915283
1261,70100.0,-0.8662018179893494,5.5968122482299805,-8.721837997436522
1262,70200.0,-0.8662018179893494,5.5968122482299805,-8.721837997436522
1263,70300.0,-1.8664016723632808,1.8257235288619995,-9.600004196166992
1264,70400.0,-1.8664016723632808,1.8257235288619995,-9.600004196166992
1265,70500.0,-1.8664016723632808,1.8257235288619995,-9.600004196166992
1266,70600.0,0.6747759580612183,7.073184013366699,-7.113861560821532
1267,70700.0,0.6747759580612183,7.073184013366699,-7.113861560821532
1268,70800.0,-2.517249345779419,8.23130989074707,-0.6149553656578064
1269,70900.0,-2.517249345779419,8.23130989074707,-0.6149553656578064
1270,71000.0,-0.9475577473640442,8.626125335693361,-4.431507587432861
1271,71100.0,-0.9475577473640442,8.626125335693361,-4.431507587432861
1272,71200.0,-0.9475577473640442,8.626125335693361,-4.431507587432861
1273,71300.0,1.215553879737854,11.803793907165527,1.1485549211502075
1274,71400.0,1.215553879737854,11.803793907165527,1.1485549211502075
1275,71500.0,-2.9862425327301025,8.350951194763184,-4.187439441680908
1276,71600.0,-2.9862425327301025,8.350951194763184,-4.187439441680908
1277,71700.0,-2.9862425327301025,8.350951194763184,-4.187439441680908
1278,71800.0,-1.9908283948898315,7.7455668449401855,-2.447857618331909
1279,71900.0,-1.9908283948898315,7.7455668449401855,-2.447857618331909
1280,71000.0,-0.9475577473640442,8.626125335693361,-4.431507587432861
1281,71100.0,-0.9475577473640442,8.626125335693361,-4.431507587432861
1282,71200.0,-0.9475577473640442,8.626125335693361,-4.431507587432861
1283,71300.0,1.215553879737854,11.803793907165527,1.1485549211502075
1284,71400.0,1.215553879737854,11.803793907165527,1.1485549211502075
1285,71500.0,-2.9862425327301025,8.350951194763184,-4.187439441680908
1286,71600.0,-2.9862425327301025,8.350951194763184,-4.187439441680908
1287,71700.0,-2.9862425327301025,8.350951194763184,-4.187439441680908
1288,71800.0,-1.9908283948898315,7.7455668449401855,-2.447857618331909
1289,71900.0,-1.9908283948898315,7.7455668449401855,-2.447857618331909
1290,72000.0,-1.5936198234558103,10.210174560546877,3.7710886001586914
1291,72100.0,-1.5936198234558103,10.210174560546877,3.7710886001586914
1292,72200.0,-2.6703903675079346,10.277173042297363,0.1938186287879944
1293,72300.0,-2.6703903675079346,10.277173042297363,0.1938186287879944
1294,72400.0,-2.6703903675079346,10.277173042297363,0.1938186287879944
1295,72500.0,-1.1006983518600464,10.669595718383787,-1.5361920595169067
1296,72600.0,-1.1006983518600464,10.669595718383787,-1.5361920595169067
1297,72700.0,-2.364108800888061,8.920442581176758,1.4691929817199707
1298,72800.0,-2.364108800888061,8.920442581176758,1.4691929817199707
1299,72900.0,-2.8953151702880864,9.078369140625,-5.9030938148498535
1300,72000.0,-1.5936198234558103,10.210174560546877,3.7710886001586914
1301,72100.0,-1.5936198234558103,10.210174560546877,3.7710886001586914
1302,72200.0,-2.6703903675079346,10.277173042297363,0.1938186287879944
1303,72300.0,-2.6703903675079346,10.277173042297363,0.1938186287879944
1304,72400.0,-2.6703903675079346,10.277173042297363,0.1938186287879944
1305,72500.0,-1.1006983518600464,10.669595718383787,-1.5361920595169067
1306,72600.0,-1.1006983518600464,10.669595718383787,-1.5361920595169067
1307,72700.0,-2.364108800888061,8.920442581176758,1.4691929817199707
1308,72800.0,-2.364108800888061,8.920442581176758,1.4691929817199707
1309,72900.0,-2.8953151702880864,9.078369140625,-5.9030938148498535
1310,73000.0,-2.8953151702880864,9.078369140625,-5.9030938148498535
1311,73100.0,-2.8953151702880864,9.078369140625,-5.9030938148498535
1312,73200.0,-1.1676974296569824,9.722038269042967,-2.8977081775665283
1313,73300.0,-1.1676974296569824,9.722038269042967,-2.8977081775665283
1314,73400.0,-2.033899307250977,9.69332504272461,2.687139749526977
1315,73500.0,-2.033899307250977,9.69332504272461,2.687139749526977
1316,73600.0,-2.033899307250977,9.69332504272461,2.687139749526977
1317,73700.0,-2.799602746963501,9.300901412963867,1.1509476900100708
1318,73800.0,-2.799602746963501,9.300901412963867,1.1509476900100708
1319,73900.0,-2.861815929412842,10.401599884033203,-4.089334011077882
1320,73000.0,-2.8953151702880864,9.078369140625,-5.9030938148498535
1321,73100.0,-2.8953151702880864,9.078369140625,-5.9030938148498535
1322,73200.0,-1.1676974296569824,9.722038269042967,-2.8977081775665283
1323,73300.0,-1.1676974296569824,9.722038269042967,-2.8977081775665283
1324,73400.0,-2.033899307250977,9.69332504272461,2.687139749526977
1325,73500.0,-2.033899307250977,9.69332504272461,2.687139749526977
1326,73600.0,-2.033899307250977,9.69332504272461,2.687139749526977
1327,73700.0,-2.799602746963501,9.300901412963867,1.1509476900100708
1328,73800.0,-2.799602746963501,9.300901412963867,1.1509476900100708
1329,73900.0,-2.861815929412842,10.401599884033203,-4.089334011077882
1330,74000.0,-2.861815929412842,10.401599884033203,-4.089334011077882
1331,74100.0,-0.9619146585464478,8.346165657043457,-3.31884503364563
1332,74200.0,-0.9619146585464478,8.346165657043457,-3.31884503364563
1333,74300.0,-2.1966111660003658,11.026127815246582,-0.23449662327766416
1334,74400.0,-2.1966111660003658,11.026127815246582,-0.23449662327766416
1335,74500.0,-2.1966111660003658,11.026127815246582,-0.23449662327766416
1336,74600.0,-3.493520975112915,6.915257453918457,-2.4358932971954346
1337,74700.0,-3.493520975112915,6.915257453918457,-2.4358932971954346
1338,74800.0,-0.9954141974449158,7.645068168640138,-5.314458847045898
1339,74900.0,-0.9954141974449158,7.645068168640138,-5.314458847045898
1340,74000.0,-2.861815929412842,10.401599884033203,-4.089334011077882
1341,74100.0,-0.9619146585464478,8.346165657043457,-3.31884503364563
1342,74200.0,-0.9619146585464478,8.346165657043457,-3.31884503364563
1343,74300.0,-2.1966111660003658,11.026127815246582,-0.23449662327766416
1344,74400.0,-2.1966111660003658,11.026127815246582,-0.23449662327766416
1345,74500.0,-2.1966111660003658,11.026127815246582,-0.23449662327766416
1346,74600.0,-3.493520975112915,6.915257453918457,-2.4358932971954346
1347,74700.0,-3.493520975112915,6.915257453918457,-2.4358932971954346
1348,74800.0,-0.9954141974449158,7.645068168640138,-5.314458847045898
1349,74900.0,-0.9954141974449158,7.645068168640138,-5.314458847045898
1350,75000.0,-2.426322221755981,9.705288887023926,1.4883356094360352
1351,75100.0,-2.426322221755981,9.705288887023926,1.4883356094360352
1352,75200.0,-2.914458036422729,9.11426067352295,0.5670989155769348
1353,75300.0,-2.914458036422729,9.11426067352295,0.5670989155769348
1354,75400.0,-2.914458036422729,9.11426067352295,0.5670989155769348
1355,75500.0,-1.0241280794143677,9.037691116333008,-1.9812570810317995
1356,75600.0,-1.0241280794143677,9.037691116333008,-1.9812570810317995
1357,75700.0,-1.210768222808838,10.415956497192383,1.9621145725250244
1358,75800.0,-1.210768222808838,10.415956497192383,1.9621145725250244
1359,75900.0,-0.7896314859390259,7.965706348419189,-5.682953834533691
1360,75000.0,-2.426322221755981,9.705288887023926,1.4883356094360352
1361,75100.0,-2.426322221755981,9.705288887023926,1.4883356094360352
1362,75200.0,-2.914458036422729,9.11426067352295,0.5670989155769348
1363,75300.0,-2.914458036422729,9.11426067352295,0.5670989155769348
1364,75400.0,-2.914458036422729,9.11426067352295,0.5670989155769348
1365,75500.0,-1.0241280794143677,9.037691116333008,-1.9812570810317995
1366,75600.0,-1.0241280794143677,9.037691116333008,-1.9812570810317995
1367,75700.0,-1.210768222808838,10.415956497192383,1.9621145725250244
1368,75800.0,-1.210768222808838,10.415956497192383,1.9621145725250244
1369,75900.0,-0.7896314859390259,7.965706348419189,-5.682953834533691
1370,76000.0,-0.7896314859390259,7.965706348419189,-5.682953834533691
1371,76100.0,-0.7896314859390259,7.965706348419189,-5.682953834533691
1372,76200.0,-0.8327022790908813,9.595218658447266,-6.0945191383361825
1373,76300.0,-0.8327022790908813,9.595218658447266,-6.0945191383361825
1374,76400.0,-1.8951154947280884,1.1868400573730469,-10.916057586669922
1375,76500.0,-1.8951154947280884,1.1868400573730469,-10.916057586669922
1376,76600.0,-1.8951154947280884,1.1868400573730469,-10.916057586669922
1377,76700.0,0.4594219326972962,6.51326322555542,-5.501099109649658
1378,76800.0,0.4594219326972962,6.51326322555542,-5.501099109649658
1379,76900.0,-1.7850456237792969,9.834501266479492,-1.8640089035034182
1380,76000.0,-0.7896314859390259,7.965706348419189,-5.682953834533691
1381,76100.0,-0.7896314859390259,7.965706348419189,-5.682953834533691
1382,76200.0,-0.8327022790908813,9.595218658447266,-6.0945191383361825
1383,76300.0,-0.8327022790908813,9.595218658447266,-6.0945191383361825
1384,76400.0,-1.8951154947280884,1.1868400573730469,-10.916057586669922
1385,76500.0,-1.8951154947280884,1.1868400573730469,-10.916057586669922
1386,76600.0,-1.8951154947280884,1.1868400573730469,-10.916057586669922
1387,76700.0,0.4594219326972962,6.51326322555542,-5.501099109649658
1388,76800.0,0.4594219326972962,6.51326322555542,-5.501099109649658
1389,76900.0,-1.7850456237792969,9.834501266479492,-1.8640089035034182
1390,77000.0,-1.7850456237792969,9.834501266479492,-1.8640089035034182
1391,77100.0,-0.8853443264961243,2.395215511322021,-8.513663291931152
1392,77200.0,-0.8853443264961243,2.395215511322021,-8.513663291931152
1393,77300.0,-0.8853443264961243,2.395215511322021,-8.513663291931152
1394,77400.0,1.3639088869094849,7.984848976135254,-6.0538411140441895
1395,77500.0,1.3639088869094849,7.984848976135254,-6.0538411140441895
1396,77600.0,-1.043270707130432,9.212367057800293,-6.142375946044923
1397,77700.0,-1.043270707130432,9.212367057800293,-6.142375946044923
1398,77800.0,-1.5457634925842283,5.254639148712158,-7.34357213973999
1399,77900.0,-1.5457634925842283,5.254639148712158,-7.34357213973999
1400,77000.0,-1.7850456237792969,9.834501266479492,-1.8640089035034182
1401,77100.0,-0.8853443264961243,2.395215511322021,-8.513663291931152
1402,77200.0,-0.8853443264961243,2.395215511322021,-8.513663291931152
1403,77300.0,-0.8853443264961243,2.395215511322021,-8.513663291931152
1404,77400.0,1.3639088869094849,7.984848976135254,-6.0538411140441895
1405,77500.0,1.3639088869094849,7.984848976135254,-6.0538411140441895
1406,77600.0,-1.043270707130432,9.212367057800293,-6.142375946044923
1407,77700.0,-1.043270707130432,9.212367057800293,-6.142375946044923
1408,77800.0,-1.5457634925842283,5.254639148712158,-7.34357213973999
1409,77900.0,-1.5457634925842283,5.254639148712158,-7.34357213973999
1410,78000.0,-1.5457634925842283,5.254639148712158,-7.34357213973999
1411,78100.0,-0.8327022790908813,7.080362319946289,-6.240481376647949
1412,78200.0,-0.8327022790908813,7.080362319946289,-6.240481376647949
1413,78300.0,-0.6843472719192505,10.813164710998537,-0.8973084688186646
1414,78400.0,-0.6843472719192505,10.813164710998537,-0.8973084688186646
1415,78500.0,-1.56969153881073,9.09511947631836,-2.9048867225646973
1416,78600.0,-1.56969153881073,9.09511947631836,-2.9048867225646973
1417,78700.0,-0.7034898400306702,3.864408254623413,-9.863215446472168
1418,78800.0,-0.7034898400306702,3.864408254623413,-9.863215446472168
1419,78900.0,-0.5024927258491516,7.917850017547607,-5.134997367858887
1420,78000.0,-1.5457634925842283,5.254639148712158,-7.34357213973999
1421,78100.0,-0.8327022790908813,7.080362319946289,-6.240481376647949
1422,78200.0,-0.8327022790908813,7.080362319946289,-6.240481376647949
1423,78300.0,-0.6843472719192505,10.813164710998537,-0.8973084688186646
1424,78400.0,-0.6843472719192505,10.813164710998537,-0.8973084688186646
1425,78500.0,-1.56969153881073,9.09511947631836,-2.9048867225646973
1426,78600.0,-1.56969153881073,9.09511947631836,-2.9048867225646973
1427,78700.0,-0.7034898400306702,3.864408254623413,-9.863215446472168
1428,78800.0,-0.7034898400306702,3.864408254623413,-9.863215446472168
1429,78900.0,-0.5024927258491516,7.917850017547607,-5.134997367858887
1430,79000.0,-0.5024927258491516,7.917850017547607,-5.134997367858887
1431,79100.0,-0.5024927258491516,7.917850017547607,-5.134997367858887
1432,79200.0,-1.6175479888916016,11.1433744430542,-0.7680960297584534
1433,79300.0,-1.6175479888916016,11.1433744430542,-0.7680960297584534
1434,79400.0,-1.2490534782409668,2.7972097396850586,-8.666803359985353
1435,79500.0,-1.2490534782409668,2.7972097396850586,-8.666803359985353
1436,79600.0,-1.2490534782409668,2.7972097396850586,-8.666803359985353
1437,79700.0,-0.11964112520217896,7.814958095550537,-6.269195556640625
1438,79800.0,-0.11964112520217896,7.814958095550537,-6.269195556640625
1439,79900.0,-0.16749757528305054,7.913064479827881,-3.5509488582611084
1440,79000.0,-0.5024927258491516,7.917850017547607,-5.134997367858887
1441,79100.0,-0.5024927258491516,7.917850017547607,-5.134997367858887
1442,79200.0,-1.6175479888916016,11.1433744430542,-0.7680960297584534
1443,79300.0,-1.6175479888916016,11.1433744430542,-0.7680960297584534
1444,79400.0,-1.2490534782409668,2.7972097396850586,-8.666803359985353
1445,79500.0,-1.2490534782409668,2.7972097396850586,-8.666803359985353
1446,79600.0,-1.2490534782409668,2.7972097396850586,-8.666803359985353
1447,79700.0,-0.11964112520217896,7.814958095550537,-6.269195556640625
1448,79800.0,-0.11964112520217896,7.814958095550537,-6.269195556640625
1449,79900.0,-0.16749757528305054,7.913064479827881,-3.5509488582611084
1450,80000.0,-0.16749757528305054,7.913064479827881,-3.5509488582611084
1451,80100.0,-1.4644075632095337,10.277173042297363,-0.11485548317432405
1452,80200.0,-1.4644075632095337,10.277173042297363,-0.11485548317432405
1453,80300.0,-1.4644075632095337,10.277173042297363,-0.11485548317432405
1454,80400.0,-1.5744771957397459,6.955935001373291,-5.254639148712158
1455,80500.0,-1.5744771957397459,6.955935001373291,-5.254639148712158
1456,80600.0,-0.8757730722427368,7.680960178375244,-6.448657035827638
1457,80700.0,-0.8757730722427368,7.680960178375244,-6.448657035827638
1458,80800.0,-0.8757730722427368,7.680960178375244,-6.448657035827638
1459,80900.0,-0.5886343717575073,8.776873588562013,-4.3405799865722665
1460,80000.0,-0.16749757528305054,7.913064479827881,-3.5509488582611084
1461,80100.0,-1.4644075632095337,10.277173042297363,-0.11485548317432405
1462,80200.0,-1.4644075632095337,10.277173042297363,-0.11485548317432405
1463,80300.0,-1.4644075632095337,10.277173042297363,-0.11485548317432405
1464,80400.0,-1.5744771957397459,6.955935001373291,-5.254639148712158
1465,80500.0,-1.5744771957397459,6.955935001373291,-5.254639148712158
1466,80600.0,-0.8757730722427368,7.680960178375244,-6.448657035827638
1467,80700.0,-0.8757730722427368,7.680960178375244,-6.448657035827638
1468,80800.0,-0.8757730722427368,7.680960178375244,-6.448657035827638
1469,80900.0,-0.5886343717575073,8.776873588562013,-4.3405799865722665
1470,81000.0,-0.5886343717575073,8.776873588562013,-4.3405799865722665
1471,81100.0,-1.5553346872329712,9.363115310668944,-2.67278265953064
1472,81200.0,-1.5553346872329712,9.363115310668944,-2.67278265953064
1473,81300.0,-1.0815558433532717,8.047062873840332,-5.328815937042236
1474,81400.0,-1.0815558433532717,8.047062873840332,-5.328815937042236
1475,81500.0,-1.0815558433532717,8.047062873840332,-5.328815937042236
1476,81600.0,-1.8664016723632808,8.236095428466799,-4.481756687164307
1477,81700.0,-1.8664016723632808,8.236095428466799,-4.481756687164307
1478,81800.0,-1.5792629718780518,8.267202377319336,-4.90528678894043
1479,81900.0,-1.5792629718780518,8.267202377319336,-4.90528678894043
1480,81000.0,-0.5886343717575073,8.776873588562013,-4.3405799865722665
1481,81100.0,-1.5553346872329712,9.363115310668944,-2.67278265953064
1482,81200.0,-1.5553346872329712,9.363115310668944,-2.67278265953064
1483,81300.0,-1.0815558433532717,8.047062873840332,-5.328815937042236
1484,81400.0,-1.0815558433532717,8.047062873840332,-5.328815937042236
1485,81500.0,-1.0815558433532717,8.047062873840332,-5.328815937042236
1486,81600.0,-1.8664016723632808,8.236095428466799,-4.481756687164307
1487,81700.0,-1.8664016723632808,8.236095428466799,-4.481756687164307
1488,81800.0,-1.5792629718780518,8.267202377319336,-4.90528678894043
1489,81900.0,-1.5792629718780518,8.267202377319336,-4.90528678894043
1490,82000.0,-1.5792629718780518,8.267202377319336,-4.90528678894043
1491,82100.0,-2.4598214626312256,8.58305549621582,-5.1637115478515625
1492,82200.0,-2.4598214626312256,8.58305549621582,-5.1637115478515625
1493,82300.0,-2.1104695796966557,7.211967468261719,-5.61116886138916
1494,82400.0,-2.1104695796966557,7.211967468261719,-5.61116886138916
1495,82500.0,-2.0195422172546387,10.901700019836426,0.6843472719192505
1496,82600.0,-2.0195422172546387,10.901700019836426,0.6843472719192505
1497,82700.0,-2.0195422172546387,10.901700019836426,0.6843472719192505
1498,82800.0,-1.1389836072921753,8.949156761169434,0.03589234128594398
1499,82900.0,-1.1389836072921753,8.949156761169434,0.03589234128594398
1500,82000.0,-1.5792629718780518,8.267202377319336,-4.90528678894043
1501,82100.0,-2.4598214626312256,8.58305549621582,-5.1637115478515625
1502,82200.0,-2.4598214626312256,8.58305549621582,-5.1637115478515625
1503,82300.0,-2.1104695796966557,7.211967468261719,-5.61116886138916
1504,82400.0,-2.1104695796966557,7.211967468261719,-5.61116886138916
1505,82500.0,-2.0195422172546387,10.901700019836426,0.6843472719192505
1506,82600.0,-2.0195422172546387,10.901700019836426,0.6843472719192505
1507,82700.0,-2.0195422172546387,10.901700019836426,0.6843472719192505
1508,82800.0,-1.1389836072921753,8.949156761169434,0.03589234128594398
1509,82900.0,-1.1389836072921753,8.949156761169434,0.03589234128594398
1510,83000.0,-0.4642075896263122,9.81535816192627,-1.0145567655563354
1511,83100.0,-0.4642075896263122,9.81535816192627,-1.0145567655563354
1512,83200.0,-0.784845769405365,7.357929229736327,-4.6372904777526855
1513,83300.0,-0.784845769405365,7.357929229736327,-4.6372904777526855
1514,83400.0,-0.784845769405365,7.357929229736327,-4.6372904777526855
1515,83500.0,-1.0911270380020142,7.898707389831543,-4.177868366241455
1516,83600.0,-1.0911270380020142,7.898707389831543,-4.177868366241455
1517,83700.0,-1.4644075632095337,4.350151538848877,6.9894347190856925
1518,83800.0,-1.4644075632095337,4.350151538848877,6.9894347190856925
1519,83900.0,-0.9762716889381408,4.845465660095215,-5.790630340576173
1520,83000.0,-0.4642075896263122,9.81535816192627,-1.0145567655563354
1521,83100.0,-0.4642075896263122,9.81535816192627,-1.0145567655563354
1522,83200.0,-0.784845769405365,7.357929229736327,-4.6372904777526855
1523,83300.0,-0.784845769405365,7.357929229736327,-4.6372904777526855
1524,83400.0,-0.784845769405365,7.357929229736327,-4.6372904777526855
1525,83500.0,-1.0911270380020142,7.898707389831543,-4.177868366241455
1526,83600.0,-1.0911270380020142,7.898707389831543,-4.177868366241455
1527,83700.0,-1.4644075632095337,4.350151538848877,6.9894347190856925
1528,83800.0,-1.4644075632095337,4.350151538848877,6.9894347190856925
1529,83900.0,-0.9762716889381408,4.845465660095215,-5.790630340576173
1530,84000.0,-0.9762716889381408,4.845465660095215,-5.790630340576173
1531,84100.0,-0.9762716889381408,4.845465660095215,-5.790630340576173
1532,84200.0,0.41156551241874695,6.879364967346191,-0.8662018179893494
1533,84300.0,0.41156551241874695,6.879364967346191,-0.8662018179893494
1534,84400.0,-1.7371891736984253,9.028119087219238,9.097511291503906
1535,84500.0,-1.7371891736984253,9.028119087219238,9.097511291503906
1536,84600.0,0.09571290016174316,-3.7950167655944815,-11.181660652160645
1537,84700.0,0.09571290016174316,-3.7950167655944815,-11.181660652160645
1538,84800.0,0.794417142868042,9.327221870422363,-1.00259268283844
1539,84900.0,0.794417142868042,9.327221870422363,-1.00259268283844
1540,84000.0,-0.9762716889381408,4.845465660095215,-5.790630340576173
1541,84100.0,-0.9762716889381408,4.845465660095215,-5.790630340576173
1542,84200.0,0.41156551241874695,6.879364967346191,-0.8662018179893494
1543,84300.0,0.41156551241874695,6.879364967346191,-0.8662018179893494
1544,84400.0,-1.7371891736984253,9.028119087219238,9.097511291503906
1545,84500.0,-1.7371891736984253,9.028119087219238,9.097511291503906
1546,84600.0,0.09571290016174316,-3.7950167655944815,-11.181660652160645
1547,84700.0,0.09571290016174316,-3.7950167655944815,-11.181660652160645
1548,84800.0,0.794417142868042,9.327221870422363,-1.00259268283844
1549,84900.0,0.794417142868042,9.327221870422363,-1.00259268283844
1550,85000.0,0.794417142868042,9.327221870422363,-1.00259268283844
1551,85100.0,-1.7754744291305542,12.165109634399414,7.712067127227782
1552,85200.0,-1.7754744291305542,12.165109634399414,7.712067127227782
1553,85300.0,-0.8805587291717529,0.5359922647476196,-9.561718940734863
1554,85400.0,-0.8805587291717529,0.5359922647476196,-9.561718940734863
1555,85500.0,-0.8805587291717529,0.5359922647476196,-9.561718940734863
1556,85600.0,2.1439690589904785,11.119447708129883,-6.111269474029541
1557,85700.0,2.1439690589904785,11.119447708129883,-6.111269474029541
1558,85800.0,-0.5599204897880554,-7.192824840545653,-11.787044525146484
1559,85900.0,-0.5599204897880554,-7.192824840545653,-11.787044525146484
1560,85000.0,0.794417142868042,9.327221870422363,-1.00259268283844
1561,85100.0,-1.7754744291305542,12.165109634399414,7.712067127227782
1562,85200.0,-1.7754744291305542,12.165109634399414,7.712067127227782
1563,85300.0,-0.8805587291717529,0.5359922647476196,-9.561718940734863
1564,85400.0,-0.8805587291717529,0.5359922647476196,-9.561718940734863
1565,85500.0,-0.8805587291717529,0.5359922647476196,-9.561718940734863
1566,85600.0,2.1439690589904785,11.119447708129883,-6.111269474029541
1567,85700.0,2.1439690589904785,11.119447708129883,-6.111269474029541
1568,85800.0,-0.5599204897880554,-7.192824840545653,-11.787044525146484
1569,85900.0,-0.5599204897880554,-7.192824840545653,-11.787044525146484
1570,86000.0,-0.5599204897880554,-7.192824840545653,-11.787044525146484
1571,86100.0,-0.01914258114993572,-0.3445664942264557,-7.714460372924805
1572,86200.0,-0.01914258114993572,-0.3445664942264557,-7.714460372924805
1573,86300.0,0.1627119481563568,5.364708423614502,-8.520841598510742
1574,86400.0,0.1627119481563568,5.364708423614502,-8.520841598510742
1575,86500.0,3.206382274627685,7.862814903259277,-5.907878875732423
1576,86600.0,3.206382274627685,7.862814903259277,-5.907878875732423
1577,86700.0,3.206382274627685,7.862814903259277,-5.907878875732423
1578,86800.0,4.886143684387207,10.475777626037598,-7.056434154510497
1579,86900.0,4.886143684387207,10.475777626037598,-7.056434154510497
1580,86000.0,-0.5599204897880554,-7.192824840545653,-11.787044525146484
1581,86100.0,-0.01914258114993572,-0.3445664942264557,-7.714460372924805
1582,86200.0,-0.01914258114993572,-0.3445664942264557,-7.714460372924805
1583,86300.0,0.1627119481563568,5.364708423614502,-8.520841598510742
1584,86400.0,0.1627119481563568,5.364708423614502,-8.520841598510742
1585,86500.0,3.206382274627685,7.862814903259277,-5.907878875732423
1586,86600.0,3.206382274627685,7.862814903259277,-5.907878875732423
1587,86700.0,3.206382274627685,7.862814903259277,-5.907878875732423
1588,86800.0,4.886143684387207,10.475777626037598,-7.056434154510497
1589,86900.0,4.886143684387207,10.475777626037598,-7.056434154510497
1590,87000.0,2.3545374870300293,4.326223373413087,-9.999605178833008
1591,87100.0,2.3545374870300293,4.326223373413087,-9.999605178833008
1592,87200.0,2.3545374870300293,4.326223373413087,-9.999605178833008
1593,87300.0,2.0817556381225586,-7.714460372924805,-11.791830062866213
1594,87400.0,2.0817556381225586,-7.714460372924805,-11.791830062866213
1595,87500.0,0.02392822504043579,-6.759723663330077,-10.380064964294434
1596,87600.0,0.02392822504043579,-6.759723663330077,-10.380064964294434
1597,87700.0,-0.7322037816047668,-2.048256158828736,-9.265008926391602
1598,87800.0,-0.7322037816047668,-2.048256158828736,-9.265008926391602
1599,87900.0,-0.7322037816047668,-2.048256158828736,-9.265008926391602
1600,87000.0,2.3545374870300293,4.326223373413087,-9.999605178833008
1601,87100.0,2.3545374870300293,4.326223373413087,-9.999605178833008
1602,87200.0,2.3545374870300293,4.326223373413087,-9.999605178833008
1603,87300.0,2.0817556381225586,-7.714460372924805,-11.791830062866213
1604,87400.0,2.0817556381225586,-7.714460372924805,-11.791830062866213
1605,87500.0,0.02392822504043579,-6.759723663330077,-10.380064964294434
1606,87600.0,0.02392822504043579,-6.759723663330077,-10.380064964294434
1607,87700.0,-0.7322037816047668,-2.048256158828736,-9.265008926391602
1608,87800.0,-0.7322037816047668,-2.048256158828736,-9.265008926391602
1609,87900.0,-0.7322037816047668,-2.048256158828736,-9.265008926391602
1610,88000.0,0.7465606331825256,2.352144718170166,-9.42054271697998
1611,88100.0,0.7465606331825256,2.352144718170166,-9.42054271697998
1612,88200.0,1.0289137363433838,9.731609344482422,-7.659425258636475
1613,88300.0,1.0289137363433838,9.731609344482422,-7.659425258636475
1614,88400.0,1.7994027137756348,3.713660717010498,-9.958927154541016
1615,88500.0,1.7994027137756348,3.713660717010498,-9.958927154541016
1616,88600.0,-0.3780659735202789,-4.230510234832764,-10.03549861907959
1617,88700.0,-0.3780659735202789,-4.230510234832764,-10.03549861907959
1618,88800.0,-0.3780659735202789,-4.230510234832764,-10.03549861907959
1619,88900.0,-0.2153540551662445,-7.195217609405518,-9.422935485839844
1620,88000.0,0.7465606331825256,2.352144718170166,-9.42054271697998
1621,88100.0,0.7465606331825256,2.352144718170166,-9.42054271697998
1622,88200.0,1.0289137363433838,9.731609344482422,-7.659425258636475
1623,88300.0,1.0289137363433838,9.731609344482422,-7.659425258636475
1624,88400.0,1.7994027137756348,3.713660717010498,-9.958927154541016
1625,88500.0,1.7994027137756348,3.713660717010498,-9.958927154541016
1626,88600.0,-0.3780659735202789,-4.230510234832764,-10.03549861907959
1627,88700.0,-0.3780659735202789,-4.230510234832764,-10.03549861907959
1628,88800.0,-0.3780659735202789,-4.230510234832764,-10.03549861907959
1629,88900.0,-0.2153540551662445,-7.195217609405518,-9.422935485839844
1630,89000.0,-0.2153540551662445,-7.195217609405518,-9.422935485839844
1631,89100.0,1.057627558708191,1.983649969100952,-8.956335067749023
1632,89200.0,1.057627558708191,1.983649969100952,-8.956335067749023
1633,89300.0,1.6175479888916016,10.683953285217283,-8.02074146270752
1634,89400.0,1.6175479888916016,10.683953285217283,-8.02074146270752
1635,89500.0,1.1341978311538696,2.4191436767578125,-10.076176643371582
1636,89600.0,1.1341978311538696,2.4191436767578125,-10.076176643371582
1637,89700.0,1.1341978311538696,2.4191436767578125,-10.076176643371582
1638,89800.0,0.17228324711322784,-5.247459888458252,-10.662418365478516
1639,89900.0,0.17228324711322784,-5.247459888458252,-10.662418365478516
1640,89000.0,-0.2153540551662445,-7.195217609405518,-9.422935485839844
1641,89100.0,1.057627558708191,1.983649969100952,-8.956335067749023
1642,89200.0,1.057627558708191,1.983649969100952,-8.956335067749023
1643,89300.0,1.6175479888916016,10.683953285217283,-8.02074146270752
1644,89400.0,1.6175479888916016,10.683953285217283,-8.02074146270752
1645,89500.0,1.1341978311538696,2.4191436767578125,-10.076176643371582
1646,89600.0,1.1341978311538696,2.4191436767578125,-10.076176643371582
1647,89700.0,1.1341978311538696,2.4191436767578125,-10.076176643371582
1648,89800.0,0.17228324711322784,-5.247459888458252,-10.662418365478516
1649,89900.0,0.17228324711322784,-5.247459888458252,-10.662418365478516
1650,90000.0,-0.4833501875400543,-5.687739372253418,-9.42054271697998
1651,90100.0,-0.4833501875400543,-5.687739372253418,-9.42054271697998
1652,90200.0,1.3878371715545654,3.091526985168457,-9.525827407836914
1653,90300.0,1.3878371715545654,3.091526985168457,-9.525827407836914
1654,90400.0,2.12961220741272,7.245467185974121,-8.992227554321289
1655,90500.0,2.12961220741272,7.245467185974121,-8.992227554321289
1656,90600.0,1.3016955852508545,-0.3684946894645691,-9.8871431350708
1657,90700.0,1.3016955852508545,-0.3684946894645691,-9.8871431350708
1658,90800.0,1.3016955852508545,-0.3684946894645691,-9.8871431350708
1659,90900.0,0.01914258114993572,-6.915257453918457,-10.193424224853516
1660,90000.0,-0.4833501875400543,-5.687739372253418,-9.42054271697998
1661,90100.0,-0.4833501875400543,-5.687739372253418,-9.42054271697998
1662,90200.0,1.3878371715545654,3.091526985168457,-9.525827407836914
1663,90300.0,1.3878371715545654,3.091526985168457,-9.525827407836914
1664,90400.0,2.12961220741272,7.245467185974121,-8.992227554321289
1665,90500.0,2.12961220741272,7.245467185974121,-8.992227554321289
1666,90600.0,1.3016955852508545,-0.3684946894645691,-9.8871431350708
1667,90700.0,1.3016955852508545,-0.3684946894645691,-9.8871431350708
1668,90800.0,1.3016955852508545,-0.3684946894645691,-9.8871431350708
1669,90900.0,0.01914258114993572,-6.915257453918457,-10.193424224853516
1670,91000.0,0.01914258114993572,-6.915257453918457,-10.193424224853516
1671,91100.0,-0.3206382095813751,-4.615755081176758,-9.12383270263672
1672,91200.0,-0.3206382095813751,-4.615755081176758,-9.12383270263672
1673,91300.0,-0.3206382095813751,-4.615755081176758,-9.12383270263672
1674,91400.0,1.0767701864242554,1.5337992906570437,-9.162117958068848
1675,91500.0,1.0767701864242554,1.5337992906570437,-9.162117958068848
1676,91600.0,0.8231310248374939,6.594619274139403,-6.4151573181152335
1677,91700.0,0.8231310248374939,6.594619274139403,-6.4151573181152335
1678,91800.0,-1.9525433778762815,6.3529438972473145,10.157532691955566
1679,91900.0,-1.9525433778762815,6.3529438972473145,10.157532691955566
1680,91000.0,0.01914258114993572,-6.915257453918457,-10.193424224853516
1681,91100.0,-0.3206382095813751,-4.615755081176758,-9.12383270263672
1682,91200.0,-0.3206382095813751,-4.615755081176758,-9.12383270263672
1683,91300.0,-0.3206382095813751,-4.615755081176758,-9.12383270263672
1684,91400.0,1.0767701864242554,1.5337992906570437,-9.162117958068848
1685,91500.0,1.0767701864242554,1.5337992906570437,-9.162117958068848
1686,91600.0,0.8231310248374939,6.594619274139403,-6.4151573181152335
1687,91700.0,0.8231310248374939,6.594619274139403,-6.4151573181152335
1688,91800.0,-1.9525433778762815,6.3529438972473145,10.157532691955566
1689,91900.0,-1.9525433778762815,6.3529438972473145,10.157532691955566
1690,92000.0,-1.0049854516983032,7.310072898864746,7.39860725402832
1691,92100.0,-1.0049854516983032,7.310072898864746,7.39860725402832
1692,92200.0,-1.0049854516983032,7.310072898864746,7.39860725402832
1693,92300.0,-1.674975872039795,5.190032482147217,-4.481756687164307
1694,92400.0,-1.674975872039795,5.190032482147217,-4.481756687164307
1695,92500.0,-2.0673987865448002,-1.8903299570083616,-10.794021606445312
1696,92600.0,-2.0673987865448002,-1.8903299570083616,-10.794021606445312
1697,92700.0,-1.0289137363433838,6.367300987243652,8.429913520812987
1698,92800.0,-1.0289137363433838,6.367300987243652,8.429913520812987
1699,92900.0,-1.0289137363433838,6.367300987243652,8.429913520812987
1700,92000.0,-1.0049854516983032,7.310072898864746,7.39860725402832
1701,92100.0,-1.0049854516983032,7.310072898864746,7.39860725402832
1702,92200.0,-1.0049854516983032,7.310072898864746,7.39860725402832
1703,92300.0,-1.674975872039795,5.190032482147217,-4.481756687164307
1704,92400.0,-1.674975872039795,5.190032482147217,-4.481756687164307
1705,92500.0,-2.0673987865448002,-1.8903299570083616,-10.794021606445312
1706,92600.0,-2.0673987865448002,-1.8903299570083616,-10.794021606445312
1707,92700.0,-1.0289137363433838,6.367300987243652,8.429913520812987
1708,92800.0,-1.0289137363433838,6.367300987243652,8.429913520812987
1709,92900.0,-1.0289137363433838,6.367300987243652,8.429913520812987
1710,93000.0,0.2153540551662445,6.15673303604126,9.882357597351074
1711,93100.0,0.2153540551662445,6.15673303604126,9.882357597351074
1712,93200.0,-0.6891329884529114,7.841279983520508,0.27278175950050354
1713,93300.0,-0.6891329884529114,7.841279983520508,0.27278175950050354
1714,93400.0,-0.2632104754447937,-4.998606204986572,-8.750552177429201
1715,93500.0,-0.2632104754447937,-4.998606204986572,-8.750552177429201
1716,93600.0,-0.2632104754447937,-4.998606204986572,-8.750552177429201
1717,93700.0,-0.0526420958340168,2.577069997787476,-7.731209754943848
1718,93800.0,-0.0526420958340168,2.577069997787476,-7.731209754943848
1719,93900.0,2.723031997680664,10.482955932617188,4.962714195251465
1720,93000.0,0.2153540551662445,6.15673303604126,9.882357597351074
1721,93100.0,0.2153540551662445,6.15673303604126,9.882357597351074
1722,93200.0,-0.6891329884529114,7.841279983520508,0.27278175950050354
1723,93300.0,-0.6891329884529114,7.841279983520508,0.27278175950050354
1724,93400.0,-0.2632104754447937,-4.998606204986572,-8.750552177429201
1725,93500.0,-0.2632104754447937,-4.998606204986572,-8.750552177429201
1726,93600.0,-0.2632104754447937,-4.998606204986572,-8.750552177429201
1727,93700.0,-0.0526420958340168,2.577069997787476,-7.731209754943848
1728,93800.0,-0.0526420958340168,2.577069997787476,-7.731209754943848
1729,93900.0,2.723031997680664,10.482955932617188,4.962714195251465
1730,94000.0,2.723031997680664,10.482955932617188,4.962714195251465
1731,94100.0,2.167897224426269,7.561319828033447,5.496313571929932
1732,94200.0,2.167897224426269,7.561319828033447,5.496313571929932
1733,94300.0,2.167897224426269,7.561319828033447,5.496313571929932
1734,94400.0,-0.4211367666721344,9.77946662902832,3.646661758422852
1735,94500.0,-0.4211367666721344,9.77946662902832,3.646661758422852
1736,94600.0,0.4067798554897308,9.343972206115724,-2.833101987838745
1737,94700.0,0.4067798554897308,9.343972206115724,-2.833101987838745
