,timestamp,ax,ay,az
0,7000.0,-0.16819266974925995,-9.702502250671387,0.4914098978042602
1,7100.0,-0.16819266974925995,-9.702502250671387,0.4914098978042602
2,7200.0,-0.16819266974925995,-9.702502250671387,0.4914098978042602
3,7300.0,-0.6548141837120056,-9.62409210205078,0.38367083668708796
4,7400.0,-0.3758896589279175,-9.655217170715332,0.4734533727169037
5,7500.0,-0.3758896589279175,-9.655217170715332,0.4734533727169037
6,7600.0,-0.8433575630187988,-9.534908294677734,0.4495113790035248
7,7700.0,-0.8433575630187988,-9.534908294677734,0.4495113790035248
8,7800.0,-0.22385786473751068,-9.640253067016602,0.4734533727169037
9,7900.0,-0.22385786473751068,-9.640253067016602,0.4734533727169037
10,8000.0,-0.4513070285320282,-9.630077362060547,0.1412578970193863
11,8100.0,-0.4513070285320282,-9.630077362060547,0.1412578970193863
12,8200.0,-0.34596213698387146,-9.601945877075195,0.3184288144111633
13,8300.0,-0.323815792798996,-9.710882186889648,0.4764461517333984
14,8400.0,-0.323815792798996,-9.710882186889648,0.4764461517333984
15,8500.0,-0.8589198589324951,-9.610325813293457,0.4201824069023132
16,8600.0,-0.8589198589324951,-9.610325813293457,0.4201824069023132
17,8700.0,-0.2340332120656967,-9.628880500793457,0.5883750915527344
18,8800.0,-0.2340332120656967,-9.628880500793457,0.5883750915527344
19,8900.0,-0.517746090888977,-9.66299819946289,0.5327098965644836
20,9000.0,-0.517746090888977,-9.66299819946289,0.5327098965644836
21,9100.0,-0.2873041927814484,-9.689932823181152,0.5674257874488831
22,9200.0,-0.6440402865409851,-9.688735961914064,0.5991489887237549
23,9300.0,-0.6440402865409851,-9.688735961914064,0.5991489887237549
24,9400.0,-0.29568392038345337,-9.636063575744627,0.3058592677116394
25,9500.0,-0.29568392038345337,-9.636063575744627,0.3058592677116394
26,9600.0,-0.934935748577118,-9.59835433959961,0.41120412945747375
27,9700.0,-0.934935748577118,-9.59835433959961,0.41120412945747375
28,9800.0,-0.1586158573627472,-9.709086418151855,0.3303998410701752
29,9900.0,-0.1586158573627472,-9.709086418151855,0.3303998410701752
30,8500.0,-0.8589198589324951,-9.610325813293457,0.4201824069023132
31,8600.0,-0.8589198589324951,-9.610325813293457,0.4201824069023132
32,8700.0,-0.2340332120656967,-9.628880500793457,0.5883750915527344
33,8800.0,-0.2340332120656967,-9.628880500793457,0.5883750915527344
34,8900.0,-0.517746090888977,-9.66299819946289,0.5327098965644836
35,9000.0,-0.517746090888977,-9.66299819946289,0.5327098965644836
36,9100.0,-0.2873041927814484,-9.689932823181152,0.5674257874488831
37,9200.0,-0.6440402865409851,-9.688735961914064,0.5991489887237549
38,9300.0,-0.6440402865409851,-9.688735961914064,0.5991489887237549
39,9400.0,-0.29568392038345337,-9.636063575744627,0.3058592677116394
40,9500.0,-0.29568392038345337,-9.636063575744627,0.3058592677116394
41,9600.0,-0.934935748577118,-9.59835433959961,0.41120412945747375
42,9700.0,-0.934935748577118,-9.59835433959961,0.41120412945747375
43,9800.0,-0.1586158573627472,-9.709086418151855,0.3303998410701752
44,9900.0,-0.1586158573627472,-9.709086418151855,0.3303998410701752
45,10000.0,-0.2914940714836121,-9.642647743225098,0.3842693865299225
46,10100.0,-0.9151836037635804,-9.546878814697266,0.5488707423210144
47,10200.0,-0.9151836037635804,-9.546878814697266,0.5488707423210144
48,10300.0,-0.16998831927776334,-9.673771858215332,0.5931634902954102
49,10400.0,-0.16998831927776334,-9.673771858215332,0.5931634902954102
50,10500.0,-0.6314706802368164,-9.549273490905762,0.3974374830722809
51,10600.0,-0.6314706802368164,-9.549273490905762,0.3974374830722809
52,10700.0,-0.4991910457611084,-9.620500564575195,0.3585317134857178
53,10800.0,-0.4991910457611084,-9.620500564575195,0.3585317134857178
54,10900.0,-0.304063618183136,-9.668983459472656,0.2974795699119568
55,11000.0,-0.6189011335372925,-9.61870574951172,0.3387795388698578
56,11100.0,-0.6189011335372925,-9.61870574951172,0.3387795388698578
57,11200.0,-0.3854664862155914,-9.668983459472656,0.04967968538403511
58,11300.0,-0.3854664862155914,-9.668983459472656,0.04967968538403511
59,11400.0,-0.12868833541870114,-9.606734275817873,0.15562310814857486
60,10000.0,-0.2914940714836121,-9.642647743225098,0.3842693865299225
61,10100.0,-0.9151836037635804,-9.546878814697266,0.5488707423210144
62,10200.0,-0.9151836037635804,-9.546878814697266,0.5488707423210144
63,10300.0,-0.16998831927776334,-9.673771858215332,0.5931634902954102
64,10400.0,-0.16998831927776334,-9.673771858215332,0.5931634902954102
65,10500.0,-0.6314706802368164,-9.549273490905762,0.3974374830722809
66,10600.0,-0.6314706802368164,-9.549273490905762,0.3974374830722809
67,10700.0,-0.4991910457611084,-9.620500564575195,0.3585317134857178
68,10800.0,-0.4991910457611084,-9.620500564575195,0.3585317134857178
69,10900.0,-0.304063618183136,-9.668983459472656,0.2974795699119568
70,11000.0,-0.6189011335372925,-9.61870574951172,0.3387795388698578
71,11100.0,-0.6189011335372925,-9.61870574951172,0.3387795388698578
72,11200.0,-0.3854664862155914,-9.668983459472656,0.04967968538403511
73,11300.0,-0.3854664862155914,-9.668983459472656,0.04967968538403511
74,11400.0,-0.12868833541870114,-9.606734275817873,0.15562310814857486
75,11500.0,-0.12868833541870114,-9.606734275817873,0.15562310814857486
76,11600.0,-2.3475148677825928,-9.459490776062012,-0.4159925580024719
77,11700.0,-2.3475148677825928,-9.459490776062012,-0.4159925580024719
78,11800.0,1.083974838256836,-9.845556259155273,-0.20530278980731964
79,11900.0,0.2232593148946762,-9.672574996948242,-0.6356605291366577
80,12000.0,0.2232593148946762,-9.672574996948242,-0.6356605291366577
81,12100.0,0.05386953800916672,-9.782109260559082,-0.2735375463962555
82,12200.0,0.05386953800916672,-9.782109260559082,-0.2735375463962555
83,12300.0,0.27413609623909,-9.62409210205078,-0.2352303117513657
84,12400.0,0.27413609623909,-9.62409210205078,-0.2352303117513657
85,12500.0,0.0933738648891449,-9.638457298278807,-0.15322890877723694
86,12600.0,0.0933738648891449,-9.638457298278807,-0.15322890877723694
87,12700.0,0.5309142470359802,-9.62947940826416,-0.15741875767707825
88,12800.0,0.7152677774429321,-9.63067626953125,-0.19572599232196808
89,12900.0,0.7152677774429321,-9.63067626953125,-0.19572599232196808
90,11500.0,-0.12868833541870114,-9.606734275817873,0.15562310814857486
91,11600.0,-2.3475148677825928,-9.459490776062012,-0.4159925580024719
92,11700.0,-2.3475148677825928,-9.459490776062012,-0.4159925580024719
93,11800.0,1.083974838256836,-9.845556259155273,-0.20530278980731964
94,11900.0,0.2232593148946762,-9.672574996948242,-0.6356605291366577
95,12000.0,0.2232593148946762,-9.672574996948242,-0.6356605291366577
96,12100.0,0.05386953800916672,-9.782109260559082,-0.2735375463962555
97,12200.0,0.05386953800916672,-9.782109260559082,-0.2735375463962555
98,12300.0,0.27413609623909,-9.62409210205078,-0.2352303117513657
99,12400.0,0.27413609623909,-9.62409210205078,-0.2352303117513657
100,12500.0,0.0933738648891449,-9.638457298278807,-0.15322890877723694
101,12600.0,0.0933738648891449,-9.638457298278807,-0.15322890877723694
102,12700.0,0.5309142470359802,-9.62947940826416,-0.15741875767707825
103,12800.0,0.7152677774429321,-9.63067626953125,-0.19572599232196808
104,12900.0,0.7152677774429321,-9.63067626953125,-0.19572599232196808
105,13000.0,0.06344634294509888,-9.636063575744627,-0.2621650993824005
106,13100.0,0.06344634294509888,-9.636063575744627,-0.2621650993824005
107,13200.0,0.22266076505184174,-9.63067626953125,-0.4525041282176971
108,13300.0,0.22266076505184174,-9.63067626953125,-0.4525041282176971
109,13400.0,0.32620999217033386,-9.640851974487305,-0.2944868206977844
110,13500.0,0.32620999217033386,-9.640851974487305,-0.2944868206977844
111,13600.0,0.13347674906253815,-9.640851974487305,-0.396240383386612
112,13700.0,0.2849099934101105,-9.654618263244627,-0.3501519858837128
113,13800.0,0.2849099934101105,-9.654618263244627,-0.3501519858837128
114,13900.0,0.3603273630142212,-9.625288963317873,-0.4495113790035248
115,14000.0,0.3603273630142212,-9.625288963317873,-0.4495113790035248
116,14100.0,0.4411316514015198,-9.68155288696289,-0.2717418968677521
117,14200.0,0.4411316514015198,-9.68155288696289,-0.2717418968677521
118,14300.0,0.5327098965644836,-9.640253067016602,-0.4938040971755981
119,14400.0,0.5327098965644836,-9.640253067016602,-0.4938040971755981
120,13000.0,0.06344634294509888,-9.636063575744627,-0.2621650993824005
121,13100.0,0.06344634294509888,-9.636063575744627,-0.2621650993824005
122,13200.0,0.22266076505184174,-9.63067626953125,-0.4525041282176971
123,13300.0,0.22266076505184174,-9.63067626953125,-0.4525041282176971
124,13400.0,0.32620999217033386,-9.640851974487305,-0.2944868206977844
125,13500.0,0.32620999217033386,-9.640851974487305,-0.2944868206977844
126,13600.0,0.13347674906253815,-9.640851974487305,-0.396240383386612
127,13700.0,0.2849099934101105,-9.654618263244627,-0.3501519858837128
128,13800.0,0.2849099934101105,-9.654618263244627,-0.3501519858837128
129,13900.0,0.3603273630142212,-9.625288963317873,-0.4495113790035248
130,14000.0,0.3603273630142212,-9.625288963317873,-0.4495113790035248
131,14100.0,0.4411316514015198,-9.68155288696289,-0.2717418968677521
132,14200.0,0.4411316514015198,-9.68155288696289,-0.2717418968677521
133,14300.0,0.5327098965644836,-9.640253067016602,-0.4938040971755981
134,14400.0,0.5327098965644836,-9.640253067016602,-0.4938040971755981
135,14500.0,0.395043283700943,-9.627084732055664,-0.4770447015762329
136,14600.0,0.2986766695976257,-9.656414031982422,-0.3872621357440949
137,14700.0,0.2986766695976257,-9.656414031982422,-0.3872621357440949
138,14800.0,0.4812345504760742,-9.64923095703125,-0.4710591733455658
139,14900.0,0.4812345504760742,-9.64923095703125,-0.4710591733455658
140,15000.0,0.7924807667732239,-9.674370765686037,-0.3471592366695404
141,15100.0,0.7924807667732239,-9.674370765686037,-0.3471592366695404
142,15200.0,0.044292733073234565,-9.657012939453123,-0.292691171169281
143,15300.0,0.044292733073234565,-9.657012939453123,-0.292691171169281
144,15400.0,0.5081692934036255,-9.652822494506836,-0.3250128924846649
145,15500.0,0.2885012924671173,-9.676166534423828,-0.5093663930892944
146,15600.0,0.2885012924671173,-9.676166534423828,-0.5093663930892944
147,15700.0,0.4285621047019959,-9.620500564575195,-0.4584896266460418
148,15800.0,0.4285621047019959,-9.620500564575195,-0.4584896266460418
149,15900.0,0.3190273642539978,-9.640253067016602,-0.3669114112854004
150,14500.0,0.395043283700943,-9.627084732055664,-0.4770447015762329
151,14600.0,0.2986766695976257,-9.656414031982422,-0.3872621357440949
152,14700.0,0.2986766695976257,-9.656414031982422,-0.3872621357440949
153,14800.0,0.4812345504760742,-9.64923095703125,-0.4710591733455658
154,14900.0,0.4812345504760742,-9.64923095703125,-0.4710591733455658
155,15000.0,0.7924807667732239,-9.674370765686037,-0.3471592366695404
156,15100.0,0.7924807667732239,-9.674370765686037,-0.3471592366695404
157,15200.0,0.044292733073234565,-9.657012939453123,-0.292691171169281
158,15300.0,0.044292733073234565,-9.657012939453123,-0.292691171169281
159,15400.0,0.5081692934036255,-9.652822494506836,-0.3250128924846649
160,15500.0,0.2885012924671173,-9.676166534423828,-0.5093663930892944
161,15600.0,0.2885012924671173,-9.676166534423828,-0.5093663930892944
162,15700.0,0.4285621047019959,-9.620500564575195,-0.4584896266460418
163,15800.0,0.4285621047019959,-9.620500564575195,-0.4584896266460418
164,15900.0,0.3190273642539978,-9.640253067016602,-0.3669114112854004
165,16000.0,0.3190273642539978,-9.640253067016602,-0.3669114112854004
166,16100.0,0.4620809257030487,-9.641449928283693,-0.4495113790035248
167,16200.0,0.4620809257030487,-9.641449928283693,-0.4495113790035248
168,16300.0,0.4357447028160095,-9.641449928283693,-0.3190273642539978
169,16400.0,0.3178302645683289,-9.63726043701172,-0.32620999217033386
170,16500.0,0.3178302645683289,-9.63726043701172,-0.32620999217033386
171,16600.0,-0.12749123573303225,-9.724050521850586,-0.27054479718208313
172,16700.0,-0.12749123573303225,-9.724050521850586,-0.27054479718208313
173,16800.0,0.414795458316803,-9.660005569458008,-0.5656301379203796
174,16900.0,0.414795458316803,-9.660005569458008,-0.5656301379203796
175,17000.0,0.37529110908508295,-9.643844604492188,-0.40462008118629456
176,17100.0,0.37529110908508295,-9.643844604492188,-0.40462008118629456
177,17200.0,0.5752069354057312,-9.633070945739746,-0.4010287821292877
178,17300.0,0.5752069354057312,-9.633070945739746,-0.4010287821292877
179,17400.0,0.3633201122283936,-9.660603523254396,-0.5805938839912415
180,16000.0,0.3190273642539978,-9.640253067016602,-0.3669114112854004
181,16100.0,0.4620809257030487,-9.641449928283693,-0.4495113790035248
182,16200.0,0.4620809257030487,-9.641449928283693,-0.4495113790035248
183,16300.0,0.4357447028160095,-9.641449928283693,-0.3190273642539978
184,16400.0,0.3178302645683289,-9.63726043701172,-0.32620999217033386
185,16500.0,0.3178302645683289,-9.63726043701172,-0.32620999217033386
186,16600.0,-0.12749123573303225,-9.724050521850586,-0.27054479718208313
187,16700.0,-0.12749123573303225,-9.724050521850586,-0.27054479718208313
188,16800.0,0.414795458316803,-9.660005569458008,-0.5656301379203796
189,16900.0,0.414795458316803,-9.660005569458008,-0.5656301379203796
190,17000.0,0.37529110908508295,-9.643844604492188,-0.40462008118629456
191,17100.0,0.37529110908508295,-9.643844604492188,-0.40462008118629456
192,17200.0,0.5752069354057312,-9.633070945739746,-0.4010287821292877
193,17300.0,0.5752069354057312,-9.633070945739746,-0.4010287821292877
194,17400.0,0.3633201122283936,-9.660603523254396,-0.5805938839912415
195,17500.0,0.2322375625371933,-9.704896926879883,-0.2322375625371933
196,17600.0,0.2322375625371933,-9.704896926879883,-0.2322375625371933
197,17700.0,0.3579331636428833,-9.685144424438477,-0.3812766075134277
198,17800.0,0.3579331636428833,-9.685144424438477,-0.3812766075134277
199,17900.0,0.34416648745536804,-9.606135368347168,-0.4997895956039429
200,18000.0,0.34416648745536804,-9.606135368347168,-0.4997895956039429
201,18100.0,0.6177040338516235,-9.625288963317873,-0.3699041604995728
202,18200.0,0.6177040338516235,-9.625288963317873,-0.3699041604995728
203,18300.0,-0.05147533491253853,-9.62947940826416,-0.3531447649002075
204,18400.0,0.262763649225235,-9.646238327026367,-0.3758896589279175
205,18500.0,0.262763649225235,-9.646238327026367,-0.3758896589279175
206,18600.0,0.5847837924957275,-9.70429801940918,-0.13766659796237946
207,18700.0,0.5847837924957275,-9.70429801940918,-0.13766659796237946
208,18800.0,0.2759317457675934,-9.627084732055664,-0.3064578175544739
209,18900.0,0.2759317457675934,-9.627084732055664,-0.3064578175544739
210,17500.0,0.2322375625371933,-9.704896926879883,-0.2322375625371933
211,17600.0,0.2322375625371933,-9.704896926879883,-0.2322375625371933
212,17700.0,0.3579331636428833,-9.685144424438477,-0.3812766075134277
213,17800.0,0.3579331636428833,-9.685144424438477,-0.3812766075134277
214,17900.0,0.34416648745536804,-9.606135368347168,-0.4997895956039429
215,18000.0,0.34416648745536804,-9.606135368347168,-0.4997895956039429
216,18100.0,0.6177040338516235,-9.625288963317873,-0.3699041604995728
217,18200.0,0.6177040338516235,-9.625288963317873,-0.3699041604995728
218,18300.0,-0.05147533491253853,-9.62947940826416,-0.3531447649002075
219,18400.0,0.262763649225235,-9.646238327026367,-0.3758896589279175
220,18500.0,0.262763649225235,-9.646238327026367,-0.3758896589279175
221,18600.0,0.5847837924957275,-9.70429801940918,-0.13766659796237946
222,18700.0,0.5847837924957275,-9.70429801940918,-0.13766659796237946
223,18800.0,0.2759317457675934,-9.627084732055664,-0.3064578175544739
224,18900.0,0.2759317457675934,-9.627084732055664,-0.3064578175544739
225,19000.0,0.4189853072166443,-9.651625633239746,-0.2998737692832947
226,19100.0,0.4189853072166443,-9.651625633239746,-0.2998737692832947
227,19200.0,0.35374331474304205,-9.592967987060547,-0.39145198464393616
228,19300.0,0.5135562419891357,-9.633668899536133,-0.4519055783748626
229,19400.0,0.5135562419891357,-9.633668899536133,-0.4519055783748626
230,19500.0,0.284311443567276,-9.651026725769043,-0.3621230125427246
231,19600.0,0.284311443567276,-9.651026725769043,-0.3621230125427246
232,19700.0,0.5943605899810791,-9.642647743225098,-0.3926490843296051
233,19800.0,0.5943605899810791,-9.642647743225098,-0.3926490843296051
234,19900.0,0.6159083843231201,-9.640851974487305,-0.2352303117513657
235,20000.0,0.6159083843231201,-9.640851974487305,-0.2352303117513657
236,20100.0,0.29628247022628784,-9.657610893249512,-0.22385786473751068
237,20200.0,0.24600422382354736,-9.654618263244627,-0.3184288144111633
238,20300.0,0.24600422382354736,-9.654618263244627,-0.3184288144111633
239,20400.0,0.3543418645858765,-9.67077922821045,-0.3627215623855591
240,19000.0,0.4189853072166443,-9.651625633239746,-0.2998737692832947
241,19100.0,0.4189853072166443,-9.651625633239746,-0.2998737692832947
242,19200.0,0.35374331474304205,-9.592967987060547,-0.39145198464393616
243,19300.0,0.5135562419891357,-9.633668899536133,-0.4519055783748626
244,19400.0,0.5135562419891357,-9.633668899536133,-0.4519055783748626
245,19500.0,0.284311443567276,-9.651026725769043,-0.3621230125427246
246,19600.0,0.284311443567276,-9.651026725769043,-0.3621230125427246
247,19700.0,0.5943605899810791,-9.642647743225098,-0.3926490843296051
248,19800.0,0.5943605899810791,-9.642647743225098,-0.3926490843296051
249,19900.0,0.6159083843231201,-9.640851974487305,-0.2352303117513657
250,20000.0,0.6159083843231201,-9.640851974487305,-0.2352303117513657
251,20100.0,0.29628247022628784,-9.657610893249512,-0.22385786473751068
252,20200.0,0.24600422382354736,-9.654618263244627,-0.3184288144111633
253,20300.0,0.24600422382354736,-9.654618263244627,-0.3184288144111633
254,20400.0,0.3543418645858765,-9.67077922821045,-0.3627215623855591
255,20500.0,0.3543418645858765,-9.67077922821045,-0.3627215623855591
256,20600.0,0.3842693865299225,-9.634267807006836,-0.4231751561164856
257,20700.0,0.3842693865299225,-9.634267807006836,-0.4231751561164856
258,20800.0,0.3519476354122162,-9.671378135681152,-0.9900023937225342
259,20900.0,0.3519476354122162,-9.671378135681152,-0.9900023937225342
260,21000.0,-0.02454056777060032,-9.666589736938477,-1.0175356864929201
261,21100.0,0.5781996846199036,-9.59057331085205,-0.4752490520477295
262,21200.0,0.5781996846199036,-9.59057331085205,-0.4752490520477295
263,21300.0,0.33279404044151306,-9.651026725769043,-0.5847837924957275
264,21400.0,0.33279404044151306,-9.651026725769043,-0.5847837924957275
265,21500.0,0.3076549172401428,-9.665990829467773,-0.6027402877807617
266,21600.0,0.3076549172401428,-9.665990829467773,-0.6027402877807617
267,21700.0,0.5716156363487244,-9.662399291992188,-0.5680243372917175
268,21800.0,0.5716156363487244,-9.662399291992188,-0.5680243372917175
269,21900.0,0.4794389009475708,-9.620500564575195,-0.4734533727169037
270,20500.0,0.3543418645858765,-9.67077922821045,-0.3627215623855591
271,20600.0,0.3842693865299225,-9.634267807006836,-0.4231751561164856
272,20700.0,0.3842693865299225,-9.634267807006836,-0.4231751561164856
273,20800.0,0.3519476354122162,-9.671378135681152,-0.9900023937225342
274,20900.0,0.3519476354122162,-9.671378135681152,-0.9900023937225342
275,21000.0,-0.02454056777060032,-9.666589736938477,-1.0175356864929201
276,21100.0,0.5781996846199036,-9.59057331085205,-0.4752490520477295
277,21200.0,0.5781996846199036,-9.59057331085205,-0.4752490520477295
278,21300.0,0.33279404044151306,-9.651026725769043,-0.5847837924957275
279,21400.0,0.33279404044151306,-9.651026725769043,-0.5847837924957275
280,21500.0,0.3076549172401428,-9.665990829467773,-0.6027402877807617
281,21600.0,0.3076549172401428,-9.665990829467773,-0.6027402877807617
282,21700.0,0.5716156363487244,-9.662399291992188,-0.5680243372917175
283,21800.0,0.5716156363487244,-9.662399291992188,-0.5680243372917175
284,21900.0,0.4794389009475708,-9.620500564575195,-0.4734533727169037
285,22000.0,0.3471592366695404,-9.730035781860352,-0.20111294090747836
286,22100.0,0.3471592366695404,-9.730035781860352,-0.20111294090747836
287,22200.0,0.558447539806366,-9.604938507080078,-0.41120412945747375
288,22300.0,0.558447539806366,-9.604938507080078,-0.41120412945747375
289,22400.0,0.4985924959182739,-9.663596153259276,-0.5829881429672241
290,22500.0,0.4985924959182739,-9.663596153259276,-0.5829881429672241
291,22600.0,0.4225766062736511,-9.64923095703125,-0.5410895943641663
292,22700.0,0.4225766062736511,-9.64923095703125,-0.5410895943641663
293,22800.0,0.3513490855693817,-9.711481094360352,-0.09636662155389786
294,22900.0,0.3052607178688049,-9.59835433959961,-0.4722562730312347
295,23000.0,0.3052607178688049,-9.59835433959961,-0.4722562730312347
296,23100.0,0.4608838260173798,-9.604938507080078,-0.5273229479789734
297,23200.0,0.4608838260173798,-9.604938507080078,-0.5273229479789734
298,23300.0,0.6117185354232788,-9.627683639526367,-0.4369418025016785
299,23400.0,0.6117185354232788,-9.627683639526367,-0.4369418025016785
300,22000.0,0.3471592366695404,-9.730035781860352,-0.20111294090747836
301,22100.0,0.3471592366695404,-9.730035781860352,-0.20111294090747836
302,22200.0,0.558447539806366,-9.604938507080078,-0.41120412945747375
303,22300.0,0.558447539806366,-9.604938507080078,-0.41120412945747375
304,22400.0,0.4985924959182739,-9.663596153259276,-0.5829881429672241
305,22500.0,0.4985924959182739,-9.663596153259276,-0.5829881429672241
306,22600.0,0.4225766062736511,-9.64923095703125,-0.5410895943641663
307,22700.0,0.4225766062736511,-9.64923095703125,-0.5410895943641663
308,22800.0,0.3513490855693817,-9.711481094360352,-0.09636662155389786
309,22900.0,0.3052607178688049,-9.59835433959961,-0.4722562730312347
310,23000.0,0.3052607178688049,-9.59835433959961,-0.4722562730312347
311,23100.0,0.4608838260173798,-9.604938507080078,-0.5273229479789734
312,23200.0,0.4608838260173798,-9.604938507080078,-0.5273229479789734
313,23300.0,0.6117185354232788,-9.627683639526367,-0.4369418025016785
314,23400.0,0.6117185354232788,-9.627683639526367,-0.4369418025016785
315,23500.0,0.44771572947502136,-9.668983459472656,-0.1256955862045288
316,23600.0,0.44771572947502136,-9.668983459472656,-0.1256955862045288
317,23700.0,0.507570743560791,-9.640851974487305,-0.2693476974964142
318,23800.0,0.4716577231884002,-9.643844604492188,-0.3776853084564209
319,23900.0,0.4716577231884002,-9.643844604492188,-0.3776853084564209
320,24000.0,0.606930136680603,-9.632472038269043,-0.46627077460289
321,24100.0,0.606930136680603,-9.632472038269043,-0.46627077460289
322,24200.0,0.6572083830833435,-9.659406661987305,-0.4572925269603729
323,24300.0,0.6572083830833435,-9.659406661987305,-0.4572925269603729
324,24400.0,0.3381809890270233,-9.654019355773926,-0.3818751573562622
325,24500.0,0.3381809890270233,-9.654019355773926,-0.3818751573562622
326,24600.0,0.4219780564308167,-9.601945877075195,-0.4118026793003082
327,24700.0,0.6649895310401917,-9.638457298278807,-0.376488208770752
328,24800.0,0.6649895310401917,-9.638457298278807,-0.376488208770752
329,24900.0,0.3357867896556854,-9.655217170715332,-0.3531447649002075
330,23500.0,0.44771572947502136,-9.668983459472656,-0.1256955862045288
331,23600.0,0.44771572947502136,-9.668983459472656,-0.1256955862045288
332,23700.0,0.507570743560791,-9.640851974487305,-0.2693476974964142
333,23800.0,0.4716577231884002,-9.643844604492188,-0.3776853084564209
334,23900.0,0.4716577231884002,-9.643844604492188,-0.3776853084564209
335,24000.0,0.606930136680603,-9.632472038269043,-0.46627077460289
336,24100.0,0.606930136680603,-9.632472038269043,-0.46627077460289
337,24200.0,0.6572083830833435,-9.659406661987305,-0.4572925269603729
338,24300.0,0.6572083830833435,-9.659406661987305,-0.4572925269603729
339,24400.0,0.3381809890270233,-9.654019355773926,-0.3818751573562622
340,24500.0,0.3381809890270233,-9.654019355773926,-0.3818751573562622
341,24600.0,0.4219780564308167,-9.601945877075195,-0.4118026793003082
342,24700.0,0.6649895310401917,-9.638457298278807,-0.376488208770752
343,24800.0,0.6649895310401917,-9.638457298278807,-0.376488208770752
344,24900.0,0.3357867896556854,-9.655217170715332,-0.3531447649002075
345,25000.0,0.3357867896556854,-9.655217170715332,-0.3531447649002075
346,25100.0,0.5901707410812378,-9.640851974487305,-0.27473464608192444
347,25200.0,0.5901707410812378,-9.640851974487305,-0.27473464608192444
348,25300.0,0.4878185987472534,-9.603142738342283,-0.3543418645858765
349,25400.0,0.4878185987472534,-9.603142738342283,-0.3543418645858765
350,25500.0,0.4614823758602142,-9.636661529541016,-0.25737667083740234
351,25600.0,0.5524620413780212,-9.654019355773926,-0.3806780576705933
352,25700.0,0.5524620413780212,-9.654019355773926,-0.3806780576705933
353,25800.0,0.2124854028224945,-9.657610893249512,-0.2346317619085312
354,25900.0,0.2124854028224945,-9.657610893249512,-0.2346317619085312
355,26000.0,0.3932476341724396,-9.597756385803224,-0.3196259140968323
356,26100.0,0.3932476341724396,-9.597756385803224,-0.3196259140968323
357,26200.0,0.497395396232605,-9.634865760803224,-0.3429693877696991
358,26300.0,0.497395396232605,-9.634865760803224,-0.3429693877696991
359,26400.0,0.5111620426177979,-9.607931137084961,-0.2908954918384552
360,25000.0,0.3357867896556854,-9.655217170715332,-0.3531447649002075
361,25100.0,0.5901707410812378,-9.640851974487305,-0.27473464608192444
362,25200.0,0.5901707410812378,-9.640851974487305,-0.27473464608192444
363,25300.0,0.4878185987472534,-9.603142738342283,-0.3543418645858765
364,25400.0,0.4878185987472534,-9.603142738342283,-0.3543418645858765
365,25500.0,0.4614823758602142,-9.636661529541016,-0.25737667083740234
366,25600.0,0.5524620413780212,-9.654019355773926,-0.3806780576705933
367,25700.0,0.5524620413780212,-9.654019355773926,-0.3806780576705933
368,25800.0,0.2124854028224945,-9.657610893249512,-0.2346317619085312
369,25900.0,0.2124854028224945,-9.657610893249512,-0.2346317619085312
370,26000.0,0.3932476341724396,-9.597756385803224,-0.3196259140968323
371,26100.0,0.3932476341724396,-9.597756385803224,-0.3196259140968323
372,26200.0,0.497395396232605,-9.634865760803224,-0.3429693877696991
373,26300.0,0.497395396232605,-9.634865760803224,-0.3429693877696991
374,26400.0,0.5111620426177979,-9.607931137084961,-0.2908954918384552
375,26500.0,0.4614823758602142,-9.642647743225098,-0.19213469326496124
376,26600.0,0.4614823758602142,-9.642647743225098,-0.19213469326496124
377,26700.0,0.323815792798996,-9.684545516967773,-0.3699041604995728
378,26800.0,0.323815792798996,-9.684545516967773,-0.3699041604995728
379,26900.0,0.4584896266460418,-9.666589736938477,-0.19033902883529666
380,27000.0,0.4584896266460418,-9.666589736938477,-0.19033902883529666
381,27100.0,0.3872621357440949,-9.662399291992188,-0.27413609623909
382,27200.0,0.3872621357440949,-9.662399291992188,-0.27413609623909
383,27300.0,0.406415730714798,-9.62947940826416,-0.1933317929506302
384,27400.0,0.6703764796257019,-9.675567626953123,-0.17477671802043915
385,27500.0,0.6703764796257019,-9.675567626953123,-0.17477671802043915
386,27600.0,0.3549404144287109,-9.65222454071045,-0.243011474609375
387,27700.0,0.3549404144287109,-9.65222454071045,-0.243011474609375
388,27800.0,0.406415730714798,-9.643245697021484,-0.30047231912612915
389,27900.0,0.406415730714798,-9.643245697021484,-0.30047231912612915
390,26500.0,0.4614823758602142,-9.642647743225098,-0.19213469326496124
391,26600.0,0.4614823758602142,-9.642647743225098,-0.19213469326496124
392,26700.0,0.323815792798996,-9.684545516967773,-0.3699041604995728
393,26800.0,0.323815792798996,-9.684545516967773,-0.3699041604995728
394,26900.0,0.4584896266460418,-9.666589736938477,-0.19033902883529666
395,27000.0,0.4584896266460418,-9.666589736938477,-0.19033902883529666
396,27100.0,0.3872621357440949,-9.662399291992188,-0.27413609623909
397,27200.0,0.3872621357440949,-9.662399291992188,-0.27413609623909
398,27300.0,0.406415730714798,-9.62947940826416,-0.1933317929506302
399,27400.0,0.6703764796257019,-9.675567626953123,-0.17477671802043915
400,27500.0,0.6703764796257019,-9.675567626953123,-0.17477671802043915
401,27600.0,0.3549404144287109,-9.65222454071045,-0.243011474609375
402,27700.0,0.3549404144287109,-9.65222454071045,-0.243011474609375
403,27800.0,0.406415730714798,-9.643245697021484,-0.30047231912612915
404,27900.0,0.406415730714798,-9.643245697021484,-0.30047231912612915
405,28000.0,0.3549404144287109,-9.694721221923828,-0.2190694510936737
406,28100.0,0.3549404144287109,-9.694721221923828,-0.2190694510936737
407,28200.0,0.5003881454467773,-9.616909980773926,-0.4022258818149567
408,28300.0,0.3998316824436188,-9.636661529541016,-0.4926069974899292
409,28400.0,0.3998316824436188,-9.636661529541016,-0.4926069974899292
410,28500.0,0.2603694200515747,-9.61451530456543,-0.3770867586135864
411,28600.0,0.2603694200515747,-9.61451530456543,-0.3770867586135864
412,28700.0,0.568622887134552,-9.622895240783693,-0.2849099934101105
413,28800.0,0.568622887134552,-9.622895240783693,-0.2849099934101105
414,28900.0,0.4034229815006256,-9.63187313079834,-0.5530605912208557
415,29000.0,0.4034229815006256,-9.63187313079834,-0.5530605912208557
416,29100.0,0.5506663918495178,-9.631275177001953,-0.5345055460929871
417,29200.0,0.4501099288463593,-9.654019355773926,-0.26336219906806946
418,29300.0,0.4501099288463593,-9.654019355773926,-0.26336219906806946
419,29400.0,0.28371289372444153,-9.667786598205566,-0.3513490855693817
420,28000.0,0.3549404144287109,-9.694721221923828,-0.2190694510936737
421,28100.0,0.3549404144287109,-9.694721221923828,-0.2190694510936737
422,28200.0,0.5003881454467773,-9.616909980773926,-0.4022258818149567
423,28300.0,0.3998316824436188,-9.636661529541016,-0.4926069974899292
424,28400.0,0.3998316824436188,-9.636661529541016,-0.4926069974899292
425,28500.0,0.2603694200515747,-9.61451530456543,-0.3770867586135864
426,28600.0,0.2603694200515747,-9.61451530456543,-0.3770867586135864
427,28700.0,0.568622887134552,-9.622895240783693,-0.2849099934101105
428,28800.0,0.568622887134552,-9.622895240783693,-0.2849099934101105
429,28900.0,0.4034229815006256,-9.63187313079834,-0.5530605912208557
430,29000.0,0.4034229815006256,-9.63187313079834,-0.5530605912208557
431,29100.0,0.5506663918495178,-9.631275177001953,-0.5345055460929871
432,29200.0,0.4501099288463593,-9.654019355773926,-0.26336219906806946
433,29300.0,0.4501099288463593,-9.654019355773926,-0.26336219906806946
434,29400.0,0.28371289372444153,-9.667786598205566,-0.3513490855693817
435,29500.0,0.28371289372444153,-9.667786598205566,-0.3513490855693817
436,29600.0,0.657806932926178,-9.606734275817873,-0.28131869435310364
437,29700.0,0.657806932926178,-9.606734275817873,-0.28131869435310364
438,29800.0,0.2968810200691223,-9.618106842041016,-0.3250128924846649
439,29900.0,0.2968810200691223,-9.618106842041016,-0.3250128924846649
440,30000.0,0.33937808871269226,-9.62828254699707,-0.2370259612798691
441,30100.0,0.5608417391777039,-9.618106842041016,-0.2992752194404602
442,30200.0,0.5608417391777039,-9.618106842041016,-0.2992752194404602
443,30300.0,0.4088099300861359,-9.651625633239746,-0.3681085109710693
444,30400.0,0.4088099300861359,-9.651625633239746,-0.3681085109710693
445,30500.0,0.3058592677116394,-9.792284965515137,-0.4830302000045776
446,30600.0,0.3058592677116394,-9.792284965515137,-0.4830302000045776
447,30700.0,0.4501099288463593,-9.61571216583252,-0.4938040971755981
448,30800.0,0.4501099288463593,-9.61571216583252,-0.4938040971755981
449,30900.0,0.5871779918670654,-9.619902610778807,-0.5321113467216492
450,29500.0,0.28371289372444153,-9.667786598205566,-0.3513490855693817
451,29600.0,0.657806932926178,-9.606734275817873,-0.28131869435310364
452,29700.0,0.657806932926178,-9.606734275817873,-0.28131869435310364
453,29800.0,0.2968810200691223,-9.618106842041016,-0.3250128924846649
454,29900.0,0.2968810200691223,-9.618106842041016,-0.3250128924846649
455,30000.0,0.33937808871269226,-9.62828254699707,-0.2370259612798691
456,30100.0,0.5608417391777039,-9.618106842041016,-0.2992752194404602
457,30200.0,0.5608417391777039,-9.618106842041016,-0.2992752194404602
458,30300.0,0.4088099300861359,-9.651625633239746,-0.3681085109710693
459,30400.0,0.4088099300861359,-9.651625633239746,-0.3681085109710693
460,30500.0,0.3058592677116394,-9.792284965515137,-0.4830302000045776
461,30600.0,0.3058592677116394,-9.792284965515137,-0.4830302000045776
462,30700.0,0.4501099288463593,-9.61571216583252,-0.4938040971755981
463,30800.0,0.4501099288463593,-9.61571216583252,-0.4938040971755981
464,30900.0,0.5871779918670654,-9.619902610778807,-0.5321113467216492
465,31000.0,0.3699041604995728,-9.654019355773926,-0.4082113802433014
466,31100.0,0.3699041604995728,-9.654019355773926,-0.4082113802433014
467,31200.0,0.4938040971755981,-9.609726905822754,-0.3016694188117981
468,31300.0,0.4938040971755981,-9.609726905822754,-0.3016694188117981
469,31400.0,0.284311443567276,-9.643844604492188,-0.21607670187950132
470,31500.0,0.284311443567276,-9.643844604492188,-0.21607670187950132
471,31600.0,0.42437225580215454,-9.636063575744627,-0.424970805644989
472,31700.0,0.42437225580215454,-9.636063575744627,-0.424970805644989
473,31800.0,0.5021837949752808,-9.627683639526367,-0.2867056429386139
474,31900.0,0.52552729845047,-9.619303703308104,-0.3178302645683289
475,32000.0,0.52552729845047,-9.619303703308104,-0.3178302645683289
476,32100.0,0.3609259128570557,-9.649829864501953,-0.3483563363552093
477,32200.0,0.3609259128570557,-9.649829864501953,-0.3483563363552093
478,32300.0,0.8259995579719543,-9.623494148254396,-0.37529110908508295
479,32400.0,0.8259995579719543,-9.623494148254396,-0.37529110908508295
480,31000.0,0.3699041604995728,-9.654019355773926,-0.4082113802433014
481,31100.0,0.3699041604995728,-9.654019355773926,-0.4082113802433014
482,31200.0,0.4938040971755981,-9.609726905822754,-0.3016694188117981
483,31300.0,0.4938040971755981,-9.609726905822754,-0.3016694188117981
484,31400.0,0.284311443567276,-9.643844604492188,-0.21607670187950132
485,31500.0,0.284311443567276,-9.643844604492188,-0.21607670187950132
486,31600.0,0.42437225580215454,-9.636063575744627,-0.424970805644989
487,31700.0,0.42437225580215454,-9.636063575744627,-0.424970805644989
488,31800.0,0.5021837949752808,-9.627683639526367,-0.2867056429386139
489,31900.0,0.52552729845047,-9.619303703308104,-0.3178302645683289
490,32000.0,0.52552729845047,-9.619303703308104,-0.3178302645683289
491,32100.0,0.3609259128570557,-9.649829864501953,-0.3483563363552093
492,32200.0,0.3609259128570557,-9.649829864501953,-0.3483563363552093
493,32300.0,0.8259995579719543,-9.623494148254396,-0.37529110908508295
494,32400.0,0.8259995579719543,-9.623494148254396,-0.37529110908508295
495,32500.0,0.5428852438926697,-9.615114212036133,-0.3549404144287109
496,32600.0,0.5428852438926697,-9.615114212036133,-0.3549404144287109
497,32700.0,0.33758243918418884,-9.651026725769043,-0.20231004059314728
498,32800.0,0.5991489887237549,-9.656414031982422,-0.3693056106567383
499,32900.0,0.5991489887237549,-9.656414031982422,-0.3693056106567383
500,33000.0,0.5297171473503113,-9.64564037322998,-0.28311434388160706
501,33100.0,0.5297171473503113,-9.64564037322998,-0.28311434388160706
502,33200.0,0.5476736426353455,-9.612719535827637,-0.5452794432640076
503,33300.0,0.5476736426353455,-9.612719535827637,-0.5452794432640076
504,33400.0,0.5327098965644836,-9.597756385803224,-0.5422866940498352
505,33500.0,0.5327098965644836,-9.597756385803224,-0.5422866940498352
506,33600.0,0.5291185975074768,-9.643245697021484,-0.5476736426353455
507,33700.0,0.5291185975074768,-9.643245697021484,-0.5476736426353455
508,33800.0,0.487220048904419,-9.612719535827637,-0.5201402902603149
509,33900.0,0.535702645778656,-9.620500564575195,-0.30047231912612915
510,32500.0,0.5428852438926697,-9.615114212036133,-0.3549404144287109
511,32600.0,0.5428852438926697,-9.615114212036133,-0.3549404144287109
512,32700.0,0.33758243918418884,-9.651026725769043,-0.20231004059314728
513,32800.0,0.5991489887237549,-9.656414031982422,-0.3693056106567383
514,32900.0,0.5991489887237549,-9.656414031982422,-0.3693056106567383
515,33000.0,0.5297171473503113,-9.64564037322998,-0.28311434388160706
516,33100.0,0.5297171473503113,-9.64564037322998,-0.28311434388160706
517,33200.0,0.5476736426353455,-9.612719535827637,-0.5452794432640076
518,33300.0,0.5476736426353455,-9.612719535827637,-0.5452794432640076
519,33400.0,0.5327098965644836,-9.597756385803224,-0.5422866940498352
520,33500.0,0.5327098965644836,-9.597756385803224,-0.5422866940498352
521,33600.0,0.5291185975074768,-9.643245697021484,-0.5476736426353455
522,33700.0,0.5291185975074768,-9.643245697021484,-0.5476736426353455
523,33800.0,0.487220048904419,-9.612719535827637,-0.5201402902603149
524,33900.0,0.535702645778656,-9.620500564575195,-0.30047231912612915
525,34000.0,0.535702645778656,-9.620500564575195,-0.30047231912612915
526,34100.0,0.6015431880950928,-9.641449928283693,-0.4722562730312347
527,34200.0,0.6015431880950928,-9.641449928283693,-0.4722562730312347
528,34300.0,0.467467874288559,-9.622296333312988,-0.5740098357200623
529,34400.0,0.467467874288559,-9.622296333312988,-0.5740098357200623
530,34500.0,0.5979518890380859,-9.684545516967773,-0.3633201122283936
531,34600.0,0.40462008118629456,-9.637859344482422,-0.41120412945747375
532,34700.0,0.40462008118629456,-9.637859344482422,-0.41120412945747375
533,34800.0,0.6685808300971985,-9.585784912109377,-0.4710591733455658
534,34900.0,0.6685808300971985,-9.585784912109377,-0.4710591733455658
535,35000.0,0.5273229479789734,-9.607333183288574,-0.5003881454467773
536,35100.0,0.5273229479789734,-9.607333183288574,-0.5003881454467773
537,35200.0,0.629675030708313,-9.632472038269043,-0.4854243993759155
538,35300.0,0.629675030708313,-9.632472038269043,-0.4854243993759155
539,35400.0,0.5524620413780212,-9.61212158203125,-0.3609259128570557
540,34000.0,0.535702645778656,-9.620500564575195,-0.30047231912612915
541,34100.0,0.6015431880950928,-9.641449928283693,-0.4722562730312347
542,34200.0,0.6015431880950928,-9.641449928283693,-0.4722562730312347
543,34300.0,0.467467874288559,-9.622296333312988,-0.5740098357200623
544,34400.0,0.467467874288559,-9.622296333312988,-0.5740098357200623
545,34500.0,0.5979518890380859,-9.684545516967773,-0.3633201122283936
546,34600.0,0.40462008118629456,-9.637859344482422,-0.41120412945747375
547,34700.0,0.40462008118629456,-9.637859344482422,-0.41120412945747375
548,34800.0,0.6685808300971985,-9.585784912109377,-0.4710591733455658
549,34900.0,0.6685808300971985,-9.585784912109377,-0.4710591733455658
550,35000.0,0.5273229479789734,-9.607333183288574,-0.5003881454467773
551,35100.0,0.5273229479789734,-9.607333183288574,-0.5003881454467773
552,35200.0,0.629675030708313,-9.632472038269043,-0.4854243993759155
553,35300.0,0.629675030708313,-9.632472038269043,-0.4854243993759155
554,35400.0,0.5524620413780212,-9.61212158203125,-0.3609259128570557
555,35500.0,0.17417816817760468,-9.699509620666504,-0.4034229815006256
556,35600.0,0.17417816817760468,-9.699509620666504,-0.4034229815006256
557,35700.0,0.7565677165985107,-9.603142738342283,-0.33279404044151306
558,35800.0,0.7565677165985107,-9.603142738342283,-0.33279404044151306
559,35900.0,0.5740098357200623,-9.619902610778807,-0.4124012291431427
560,36000.0,0.5740098357200623,-9.619902610778807,-0.4124012291431427
561,36100.0,0.4991910457611084,-9.695918083190918,-0.4471171796321869
562,36200.0,0.4991910457611084,-9.695918083190918,-0.4471171796321869
563,36300.0,0.4752490520477295,-9.620500564575195,-0.444722980260849
564,36400.0,0.4267664551734924,-9.654019355773926,-0.5201402902603149
565,36500.0,0.4267664551734924,-9.654019355773926,-0.5201402902603149
566,36600.0,0.4596867263317108,-9.625288963317873,-0.5973533391952515
567,36700.0,0.4596867263317108,-9.625288963317873,-0.5973533391952515
568,36800.0,0.4746504724025726,-9.636661529541016,-0.5291185975074768
569,36900.0,0.4746504724025726,-9.636661529541016,-0.5291185975074768
570,35500.0,0.17417816817760468,-9.699509620666504,-0.4034229815006256
571,35600.0,0.17417816817760468,-9.699509620666504,-0.4034229815006256
572,35700.0,0.7565677165985107,-9.603142738342283,-0.33279404044151306
573,35800.0,0.7565677165985107,-9.603142738342283,-0.33279404044151306
574,35900.0,0.5740098357200623,-9.619902610778807,-0.4124012291431427
575,36000.0,0.5740098357200623,-9.619902610778807,-0.4124012291431427
576,36100.0,0.4991910457611084,-9.695918083190918,-0.4471171796321869
577,36200.0,0.4991910457611084,-9.695918083190918,-0.4471171796321869
578,36300.0,0.4752490520477295,-9.620500564575195,-0.444722980260849
579,36400.0,0.4267664551734924,-9.654019355773926,-0.5201402902603149
580,36500.0,0.4267664551734924,-9.654019355773926,-0.5201402902603149
581,36600.0,0.4596867263317108,-9.625288963317873,-0.5973533391952515
582,36700.0,0.4596867263317108,-9.625288963317873,-0.5973533391952515
583,36800.0,0.4746504724025726,-9.636661529541016,-0.5291185975074768
584,36900.0,0.4746504724025726,-9.636661529541016,-0.5291185975074768
585,37000.0,0.6997054219245911,-9.651026725769043,-0.3196259140968323
586,37100.0,0.6997054219245911,-9.651026725769043,-0.3196259140968323
587,37200.0,0.6434416770935059,-9.625288963317873,-0.4315548539161682
588,37300.0,0.6434416770935059,-9.625288963317873,-0.4315548539161682
589,37400.0,0.5488707423210144,-9.63726043701172,-0.4088099300861359
590,37500.0,0.5057750940322876,-9.63187313079834,-0.4237737059593201
591,37600.0,0.5057750940322876,-9.63187313079834,-0.4237737059593201
592,37700.0,0.5524620413780212,-9.666589736938477,-0.4489128291606903
593,37800.0,0.5524620413780212,-9.666589736938477,-0.4489128291606903
594,37900.0,0.5315127968788147,-9.6618013381958,-0.25438392162323004
595,38000.0,0.5315127968788147,-9.6618013381958,-0.25438392162323004
596,38100.0,0.6290764808654785,-9.625887870788574,-0.37828385829925537
597,38200.0,0.6290764808654785,-9.625887870788574,-0.37828385829925537
598,38300.0,0.38367083668708796,-9.674968719482422,-0.3734954595565796
599,38400.0,0.4566939771175385,-9.61451530456543,-0.2519897222518921
600,37000.0,0.6997054219245911,-9.651026725769043,-0.3196259140968323
601,37100.0,0.6997054219245911,-9.651026725769043,-0.3196259140968323
602,37200.0,0.6434416770935059,-9.625288963317873,-0.4315548539161682
603,37300.0,0.6434416770935059,-9.625288963317873,-0.4315548539161682
604,37400.0,0.5488707423210144,-9.63726043701172,-0.4088099300861359
605,37500.0,0.5057750940322876,-9.63187313079834,-0.4237737059593201
606,37600.0,0.5057750940322876,-9.63187313079834,-0.4237737059593201
607,37700.0,0.5524620413780212,-9.666589736938477,-0.4489128291606903
608,37800.0,0.5524620413780212,-9.666589736938477,-0.4489128291606903
609,37900.0,0.5315127968788147,-9.6618013381958,-0.25438392162323004
610,38000.0,0.5315127968788147,-9.6618013381958,-0.25438392162323004
611,38100.0,0.6290764808654785,-9.625887870788574,-0.37828385829925537
612,38200.0,0.6290764808654785,-9.625887870788574,-0.37828385829925537
613,38300.0,0.38367083668708796,-9.674968719482422,-0.3734954595565796
614,38400.0,0.4566939771175385,-9.61451530456543,-0.2519897222518921
615,38500.0,0.4566939771175385,-9.61451530456543,-0.2519897222518921
616,38600.0,0.4040215313434601,-9.60553741455078,-0.5159504413604736
617,38700.0,0.4040215313434601,-9.60553741455078,-0.5159504413604736
618,38800.0,0.3705027103424072,-9.63067626953125,-0.3603273630142212
619,38900.0,0.3705027103424072,-9.63067626953125,-0.3603273630142212
620,39000.0,0.465073674917221,-9.625288963317873,-0.15263035893440247
621,39100.0,0.465073674917221,-9.625288963317873,-0.15263035893440247
622,39200.0,0.5476736426353455,-9.677363395690918,-0.37888240814208973
623,39300.0,0.4644751250743866,-9.637859344482422,-0.16340427100658414
624,39400.0,0.4644751250743866,-9.637859344482422,-0.16340427100658414
625,39500.0,-0.010175357572734356,-9.63187313079834,-0.4734533727169037
626,39600.0,-0.010175357572734356,-9.63187313079834,-0.4734533727169037
627,39700.0,0.5991489887237549,-9.639056205749512,-0.5841852426528931
628,39800.0,0.5991489887237549,-9.639056205749512,-0.5841852426528931
629,39900.0,0.5291185975074768,-9.622895240783693,-0.2669534981250763
630,38500.0,0.4566939771175385,-9.61451530456543,-0.2519897222518921
631,38600.0,0.4040215313434601,-9.60553741455078,-0.5159504413604736
632,38700.0,0.4040215313434601,-9.60553741455078,-0.5159504413604736
633,38800.0,0.3705027103424072,-9.63067626953125,-0.3603273630142212
634,38900.0,0.3705027103424072,-9.63067626953125,-0.3603273630142212
635,39000.0,0.465073674917221,-9.625288963317873,-0.15263035893440247
636,39100.0,0.465073674917221,-9.625288963317873,-0.15263035893440247
637,39200.0,0.5476736426353455,-9.677363395690918,-0.37888240814208973
638,39300.0,0.4644751250743866,-9.637859344482422,-0.16340427100658414
639,39400.0,0.4644751250743866,-9.637859344482422,-0.16340427100658414
640,39500.0,-0.010175357572734356,-9.63187313079834,-0.4734533727169037
641,39600.0,-0.010175357572734356,-9.63187313079834,-0.4734533727169037
642,39700.0,0.5991489887237549,-9.639056205749512,-0.5841852426528931
643,39800.0,0.5991489887237549,-9.639056205749512,-0.5841852426528931
644,39900.0,0.5291185975074768,-9.622895240783693,-0.2669534981250763
645,40000.0,0.5291185975074768,-9.622895240783693,-0.2669534981250763
646,40100.0,0.6775590777397156,-9.67077922821045,-0.18555063009262085
647,40200.0,0.5105634927749634,-9.61212158203125,-0.5015852451324463
648,40300.0,0.5105634927749634,-9.61212158203125,-0.5015852451324463
649,40400.0,0.2645592987537384,-9.785101890563963,-0.1735796183347702
650,40500.0,0.2645592987537384,-9.785101890563963,-0.1735796183347702
651,40600.0,0.4225766062736511,-9.591172218322754,-0.3926490843296051
652,40700.0,0.4225766062736511,-9.591172218322754,-0.3926490843296051
653,40800.0,0.32441434264183044,-9.664793968200684,-0.32441434264183044
654,40900.0,0.32441434264183044,-9.664793968200684,-0.32441434264183044
655,41000.0,0.6625953316688538,-9.621099472045898,-0.395043283700943
656,41100.0,0.6248866319656372,-9.582792282104492,-0.4955997467041016
657,41200.0,0.6248866319656372,-9.582792282104492,-0.4955997467041016
658,41300.0,0.4495113790035248,-9.638457298278807,-0.2693476974964142
659,41400.0,0.4495113790035248,-9.638457298278807,-0.2693476974964142
660,40000.0,0.5291185975074768,-9.622895240783693,-0.2669534981250763
661,40100.0,0.6775590777397156,-9.67077922821045,-0.18555063009262085
662,40200.0,0.5105634927749634,-9.61212158203125,-0.5015852451324463
663,40300.0,0.5105634927749634,-9.61212158203125,-0.5015852451324463
664,40400.0,0.2645592987537384,-9.785101890563963,-0.1735796183347702
665,40500.0,0.2645592987537384,-9.785101890563963,-0.1735796183347702
666,40600.0,0.4225766062736511,-9.591172218322754,-0.3926490843296051
667,40700.0,0.4225766062736511,-9.591172218322754,-0.3926490843296051
668,40800.0,0.32441434264183044,-9.664793968200684,-0.32441434264183044
669,40900.0,0.32441434264183044,-9.664793968200684,-0.32441434264183044
670,41000.0,0.6625953316688538,-9.621099472045898,-0.395043283700943
671,41100.0,0.6248866319656372,-9.582792282104492,-0.4955997467041016
672,41200.0,0.6248866319656372,-9.582792282104492,-0.4955997467041016
673,41300.0,0.4495113790035248,-9.638457298278807,-0.2693476974964142
674,41400.0,0.4495113790035248,-9.638457298278807,-0.2693476974964142
675,41500.0,0.5901707410812378,-9.59715747833252,-0.4770447015762329
676,41600.0,0.5901707410812378,-9.59715747833252,-0.4770447015762329
677,41700.0,0.5488707423210144,-9.65581512451172,-0.23343466222286224
678,41800.0,0.5488707423210144,-9.65581512451172,-0.23343466222286224
679,41900.0,0.42437225580215454,-9.661202430725098,-0.639850378036499
680,42000.0,0.03292027488350868,-9.650428771972656,-0.3806780576705933
681,42100.0,0.03292027488350868,-9.650428771972656,-0.3806780576705933
682,42200.0,0.4926069974899292,-9.619303703308104,-0.2609679996967316
683,42300.0,0.4926069974899292,-9.619303703308104,-0.2609679996967316
684,42400.0,0.3477577865123749,-9.64923095703125,-0.3124433159828186
685,42500.0,0.3477577865123749,-9.64923095703125,-0.3124433159828186
686,42600.0,0.4818331003189087,-9.634865760803224,-0.38486793637275696
687,42700.0,0.4818331003189087,-9.634865760803224,-0.38486793637275696
688,42800.0,0.08499415963888167,-9.11113452911377,0.3076549172401428
689,42900.0,0.4393360018730164,-9.607931137084961,-0.6230909824371338
690,41500.0,0.5901707410812378,-9.59715747833252,-0.4770447015762329
691,41600.0,0.5901707410812378,-9.59715747833252,-0.4770447015762329
692,41700.0,0.5488707423210144,-9.65581512451172,-0.23343466222286224
693,41800.0,0.5488707423210144,-9.65581512451172,-0.23343466222286224
694,41900.0,0.42437225580215454,-9.661202430725098,-0.639850378036499
695,42000.0,0.03292027488350868,-9.650428771972656,-0.3806780576705933
696,42100.0,0.03292027488350868,-9.650428771972656,-0.3806780576705933
697,42200.0,0.4926069974899292,-9.619303703308104,-0.2609679996967316
698,42300.0,0.4926069974899292,-9.619303703308104,-0.2609679996967316
699,42400.0,0.3477577865123749,-9.64923095703125,-0.3124433159828186
700,42500.0,0.3477577865123749,-9.64923095703125,-0.3124433159828186
701,42600.0,0.4818331003189087,-9.634865760803224,-0.38486793637275696
702,42700.0,0.4818331003189087,-9.634865760803224,-0.38486793637275696
703,42800.0,0.08499415963888167,-9.11113452911377,0.3076549172401428
704,42900.0,0.4393360018730164,-9.607931137084961,-0.6230909824371338
705,43000.0,0.4393360018730164,-9.607931137084961,-0.6230909824371338
706,43100.0,0.3274070918560028,-9.651026725769043,-0.13587094843387604
707,43200.0,0.3274070918560028,-9.651026725769043,-0.13587094843387604
708,43300.0,0.5291185975074768,-9.652822494506836,-0.3345896899700165
709,43400.0,0.5291185975074768,-9.652822494506836,-0.3345896899700165
710,43500.0,0.2795230448246002,-9.636661529541016,-0.3112462162971497
711,43600.0,0.2795230448246002,-9.636661529541016,-0.3112462162971497
712,43700.0,0.3351882398128509,-9.59596061706543,-0.3878606855869293
713,43800.0,0.4788403511047363,-9.607931137084961,-0.4315548539161682
714,43900.0,0.4788403511047363,-9.607931137084961,-0.4315548539161682
715,44000.0,0.2017114907503128,-9.654019355773926,-0.33279404044151306
716,44100.0,0.2017114907503128,-9.654019355773926,-0.33279404044151306
717,44200.0,0.535702645778656,-9.663596153259276,-0.4770447015762329
718,44300.0,0.535702645778656,-9.663596153259276,-0.4770447015762329
719,44400.0,0.24839842319488525,-9.661202430725098,-0.7104793787002563
720,43000.0,0.4393360018730164,-9.607931137084961,-0.6230909824371338
721,43100.0,0.3274070918560028,-9.651026725769043,-0.13587094843387604
722,43200.0,0.3274070918560028,-9.651026725769043,-0.13587094843387604
723,43300.0,0.5291185975074768,-9.652822494506836,-0.3345896899700165
724,43400.0,0.5291185975074768,-9.652822494506836,-0.3345896899700165
725,43500.0,0.2795230448246002,-9.636661529541016,-0.3112462162971497
726,43600.0,0.2795230448246002,-9.636661529541016,-0.3112462162971497
727,43700.0,0.3351882398128509,-9.59596061706543,-0.3878606855869293
728,43800.0,0.4788403511047363,-9.607931137084961,-0.4315548539161682
729,43900.0,0.4788403511047363,-9.607931137084961,-0.4315548539161682
730,44000.0,0.2017114907503128,-9.654019355773926,-0.33279404044151306
731,44100.0,0.2017114907503128,-9.654019355773926,-0.33279404044151306
732,44200.0,0.535702645778656,-9.663596153259276,-0.4770447015762329
733,44300.0,0.535702645778656,-9.663596153259276,-0.4770447015762329
734,44400.0,0.24839842319488525,-9.661202430725098,-0.7104793787002563
735,44500.0,0.24839842319488525,-9.661202430725098,-0.7104793787002563
736,44600.0,0.18614917993545527,-9.631275177001953,-0.32441434264183044
737,44700.0,0.8331822156906128,-9.57441234588623,-0.6075286865234375
738,44800.0,0.8331822156906128,-9.57441234588623,-0.6075286865234375
739,44900.0,0.22445641458034515,-9.72824001312256,-0.467467874288559
740,45000.0,0.22445641458034515,-9.72824001312256,-0.467467874288559
741,45100.0,0.4471171796321869,-9.677363395690918,-0.2759317457675934
742,45200.0,0.4471171796321869,-9.677363395690918,-0.2759317457675934
743,45300.0,0.2759317457675934,-9.66419506072998,-0.3830722570419312
744,45400.0,0.2759317457675934,-9.66419506072998,-0.3830722570419312
745,45500.0,0.2867056429386139,-9.64923095703125,-0.3621230125427246
746,45600.0,0.46627077460289,-9.603142738342283,-0.3010708689689636
747,45700.0,0.46627077460289,-9.603142738342283,-0.3010708689689636
748,45800.0,0.4734533727169037,-9.651026725769043,-0.3806780576705933
749,45900.0,0.4734533727169037,-9.651026725769043,-0.3806780576705933
750,44500.0,0.24839842319488525,-9.661202430725098,-0.7104793787002563
751,44600.0,0.18614917993545527,-9.631275177001953,-0.32441434264183044
752,44700.0,0.8331822156906128,-9.57441234588623,-0.6075286865234375
753,44800.0,0.8331822156906128,-9.57441234588623,-0.6075286865234375
754,44900.0,0.22445641458034515,-9.72824001312256,-0.467467874288559
755,45000.0,0.22445641458034515,-9.72824001312256,-0.467467874288559
756,45100.0,0.4471171796321869,-9.677363395690918,-0.2759317457675934
757,45200.0,0.4471171796321869,-9.677363395690918,-0.2759317457675934
758,45300.0,0.2759317457675934,-9.66419506072998,-0.3830722570419312
759,45400.0,0.2759317457675934,-9.66419506072998,-0.3830722570419312
760,45500.0,0.2867056429386139,-9.64923095703125,-0.3621230125427246
761,45600.0,0.46627077460289,-9.603142738342283,-0.3010708689689636
762,45700.0,0.46627077460289,-9.603142738342283,-0.3010708689689636
763,45800.0,0.4734533727169037,-9.651026725769043,-0.3806780576705933
764,45900.0,0.4734533727169037,-9.651026725769043,-0.3806780576705933
765,46000.0,0.4991910457611084,-9.661202430725098,-0.2651578485965729
766,46100.0,0.4991910457611084,-9.661202430725098,-0.2651578485965729
767,46200.0,0.3274070918560028,-9.63726043701172,-0.406415730714798
768,46300.0,0.3274070918560028,-9.63726043701172,-0.406415730714798
769,46400.0,0.4417302012443543,-9.609128952026367,-0.32441434264183044
770,46500.0,0.5404910445213318,-9.630077362060547,-0.32620999217033386
771,46600.0,0.5404910445213318,-9.630077362060547,-0.32620999217033386
772,46700.0,0.3303998410701752,-9.609128952026367,-0.497395396232605
773,46800.0,0.3303998410701752,-9.609128952026367,-0.497395396232605
774,46900.0,0.3208230137825012,-9.62947940826416,-0.4297592043876648
775,47000.0,0.3208230137825012,-9.62947940826416,-0.4297592043876648
776,47100.0,0.4171896576881409,-9.655217170715332,-0.35254621505737305
777,47200.0,0.4171896576881409,-9.655217170715332,-0.35254621505737305
778,47300.0,0.5925649404525757,-9.67077922821045,-0.18794482946395874
779,47400.0,0.4890156984329224,-9.610923767089844,-0.5829881429672241
780,46000.0,0.4991910457611084,-9.661202430725098,-0.2651578485965729
781,46100.0,0.4991910457611084,-9.661202430725098,-0.2651578485965729
782,46200.0,0.3274070918560028,-9.63726043701172,-0.406415730714798
783,46300.0,0.3274070918560028,-9.63726043701172,-0.406415730714798
784,46400.0,0.4417302012443543,-9.609128952026367,-0.32441434264183044
785,46500.0,0.5404910445213318,-9.630077362060547,-0.32620999217033386
786,46600.0,0.5404910445213318,-9.630077362060547,-0.32620999217033386
787,46700.0,0.3303998410701752,-9.609128952026367,-0.497395396232605
788,46800.0,0.3303998410701752,-9.609128952026367,-0.497395396232605
789,46900.0,0.3208230137825012,-9.62947940826416,-0.4297592043876648
790,47000.0,0.3208230137825012,-9.62947940826416,-0.4297592043876648
791,47100.0,0.4171896576881409,-9.655217170715332,-0.35254621505737305
792,47200.0,0.4171896576881409,-9.655217170715332,-0.35254621505737305
793,47300.0,0.5925649404525757,-9.67077922821045,-0.18794482946395874
794,47400.0,0.4890156984329224,-9.610923767089844,-0.5829881429672241
795,47500.0,0.4890156984329224,-9.610923767089844,-0.5829881429672241
796,47600.0,0.3597288131713867,-9.658807754516602,-0.12030863761901855
797,47700.0,0.3597288131713867,-9.658807754516602,-0.12030863761901855
798,47800.0,0.3447650372982025,-9.638457298278807,-0.3172317147254944
799,47900.0,0.3447650372982025,-9.638457298278807,-0.3172317147254944
800,48000.0,0.4836287498474121,-9.601346969604492,-0.4991910457611084
801,48100.0,0.4836287498474121,-9.601346969604492,-0.4991910457611084
802,48200.0,0.6290764808654785,-9.567828178405762,-0.4165911078453064
803,48300.0,0.3010708689689636,-9.585186958312988,-0.4932055473327637
804,48400.0,0.3010708689689636,-9.585186958312988,-0.4932055473327637
805,48500.0,0.2436100244522095,-9.694721221923828,-0.09038111567497252
806,48600.0,0.2436100244522095,-9.694721221923828,-0.09038111567497252
807,48700.0,0.4351461529731751,-9.625288963317873,-0.3555389642715454
808,48800.0,0.4351461529731751,-9.625288963317873,-0.3555389642715454
809,48900.0,0.5045779943466187,-9.634267807006836,-0.3321954905986786
810,47500.0,0.4890156984329224,-9.610923767089844,-0.5829881429672241
811,47600.0,0.3597288131713867,-9.658807754516602,-0.12030863761901855
812,47700.0,0.3597288131713867,-9.658807754516602,-0.12030863761901855
813,47800.0,0.3447650372982025,-9.638457298278807,-0.3172317147254944
814,47900.0,0.3447650372982025,-9.638457298278807,-0.3172317147254944
815,48000.0,0.4836287498474121,-9.601346969604492,-0.4991910457611084
816,48100.0,0.4836287498474121,-9.601346969604492,-0.4991910457611084
817,48200.0,0.6290764808654785,-9.567828178405762,-0.4165911078453064
818,48300.0,0.3010708689689636,-9.585186958312988,-0.4932055473327637
819,48400.0,0.3010708689689636,-9.585186958312988,-0.4932055473327637
820,48500.0,0.2436100244522095,-9.694721221923828,-0.09038111567497252
821,48600.0,0.2436100244522095,-9.694721221923828,-0.09038111567497252
822,48700.0,0.4351461529731751,-9.625288963317873,-0.3555389642715454
823,48800.0,0.4351461529731751,-9.625288963317873,-0.3555389642715454
824,48900.0,0.5045779943466187,-9.634267807006836,-0.3321954905986786
825,49000.0,0.5045779943466187,-9.634267807006836,-0.3321954905986786
826,49100.0,0.3549404144287109,-9.674968719482422,-0.262763649225235
827,49200.0,0.4776432514190674,-9.694122314453123,-0.1915361285209656
828,49300.0,0.4776432514190674,-9.694122314453123,-0.1915361285209656
829,49400.0,0.6649895310401917,-9.604938507080078,-0.24660277366638186
830,49500.0,0.6649895310401917,-9.604938507080078,-0.24660277366638186
831,49600.0,0.3938461840152741,-9.638457298278807,-0.5488707423210144
832,49700.0,0.3938461840152741,-9.638457298278807,-0.5488707423210144
833,49800.0,0.37888240814208973,-9.658807754516602,-0.26994624733924866
834,49900.0,0.37888240814208973,-9.658807754516602,-0.26994624733924866
835,50000.0,0.2753331959247589,-9.670180320739746,-0.4153940081596375
836,50100.0,0.6643909811973572,-9.59835433959961,-0.3250128924846649
837,50200.0,0.6643909811973572,-9.59835433959961,-0.3250128924846649
838,50300.0,0.4710591733455658,-9.660603523254396,-0.3369838893413544
839,50400.0,0.4710591733455658,-9.660603523254396,-0.3369838893413544
840,49000.0,0.5045779943466187,-9.634267807006836,-0.3321954905986786
841,49100.0,0.3549404144287109,-9.674968719482422,-0.262763649225235
842,49200.0,0.4776432514190674,-9.694122314453123,-0.1915361285209656
843,49300.0,0.4776432514190674,-9.694122314453123,-0.1915361285209656
844,49400.0,0.6649895310401917,-9.604938507080078,-0.24660277366638186
845,49500.0,0.6649895310401917,-9.604938507080078,-0.24660277366638186
846,49600.0,0.3938461840152741,-9.638457298278807,-0.5488707423210144
847,49700.0,0.3938461840152741,-9.638457298278807,-0.5488707423210144
848,49800.0,0.37888240814208973,-9.658807754516602,-0.26994624733924866
849,49900.0,0.37888240814208973,-9.658807754516602,-0.26994624733924866
850,50000.0,0.2753331959247589,-9.670180320739746,-0.4153940081596375
851,50100.0,0.6643909811973572,-9.59835433959961,-0.3250128924846649
852,50200.0,0.6643909811973572,-9.59835433959961,-0.3250128924846649
853,50300.0,0.4710591733455658,-9.660603523254396,-0.3369838893413544
854,50400.0,0.4710591733455658,-9.660603523254396,-0.3369838893413544
855,50500.0,0.19452889263629916,-9.647436141967773,-0.4285621047019959
856,50600.0,0.19452889263629916,-9.647436141967773,-0.4285621047019959
857,50700.0,0.497395396232605,-9.68155288696289,-0.2112883031368256
858,50800.0,0.497395396232605,-9.68155288696289,-0.2112883031368256
859,50900.0,0.34596213698387146,-9.650428771972656,-0.3118447661399841
860,51000.0,0.5285200476646423,-9.642048835754396,-0.43754035234451294
861,51100.0,0.5285200476646423,-9.642048835754396,-0.43754035234451294
862,51200.0,0.38367083668708796,-9.650428771972656,-0.15023615956306458
863,51300.0,0.38367083668708796,-9.650428771972656,-0.15023615956306458
864,51400.0,0.5931634902954102,-9.628880500793457,-0.18794482946395874
865,51500.0,0.5931634902954102,-9.628880500793457,-0.18794482946395874
866,51600.0,0.4471171796321869,-9.640851974487305,-0.20769700407981875
867,51700.0,0.4471171796321869,-9.640851974487305,-0.20769700407981875
868,51800.0,0.7356184720993042,-9.61571216583252,-0.3824737071990967
869,51900.0,0.6829460263252258,-9.625288963317873,-0.32680854201316833
870,50500.0,0.19452889263629916,-9.647436141967773,-0.4285621047019959
871,50600.0,0.19452889263629916,-9.647436141967773,-0.4285621047019959
872,50700.0,0.497395396232605,-9.68155288696289,-0.2112883031368256
873,50800.0,0.497395396232605,-9.68155288696289,-0.2112883031368256
874,50900.0,0.34596213698387146,-9.650428771972656,-0.3118447661399841
875,51000.0,0.5285200476646423,-9.642048835754396,-0.43754035234451294
876,51100.0,0.5285200476646423,-9.642048835754396,-0.43754035234451294
877,51200.0,0.38367083668708796,-9.650428771972656,-0.15023615956306458
878,51300.0,0.38367083668708796,-9.650428771972656,-0.15023615956306458
879,51400.0,0.5931634902954102,-9.628880500793457,-0.18794482946395874
880,51500.0,0.5931634902954102,-9.628880500793457,-0.18794482946395874
881,51600.0,0.4471171796321869,-9.640851974487305,-0.20769700407981875
882,51700.0,0.4471171796321869,-9.640851974487305,-0.20769700407981875
883,51800.0,0.7356184720993042,-9.61571216583252,-0.3824737071990967
884,51900.0,0.6829460263252258,-9.625288963317873,-0.32680854201316833
885,52000.0,0.6829460263252258,-9.625288963317873,-0.32680854201316833
886,52100.0,0.424970805644989,-9.651026725769043,-0.284311443567276
887,52200.0,0.424970805644989,-9.651026725769043,-0.284311443567276
888,52300.0,0.40462008118629456,-9.673172950744627,-0.3519476354122162
889,52400.0,0.40462008118629456,-9.673172950744627,-0.3519476354122162
890,52500.0,0.5003881454467773,-9.626486778259276,-0.4626794755458832
891,52600.0,0.5003881454467773,-9.626486778259276,-0.4626794755458832
892,52700.0,0.5704185366630554,-9.644442558288574,-0.44831427931785583
893,52800.0,0.3902548849582672,-9.569623947143556,-0.5476736426353455
894,52900.0,0.3902548849582672,-9.569623947143556,-0.5476736426353455
895,53000.0,0.4279635548591614,-9.645041465759276,-0.4812345504760742
896,53100.0,0.4279635548591614,-9.645041465759276,-0.4812345504760742
897,53200.0,0.4255693554878235,-9.649829864501953,-0.5590460896492004
898,53300.0,0.4255693554878235,-9.649829864501953,-0.5590460896492004
899,53400.0,0.547075092792511,-9.625288963317873,-0.3513490855693817
900,52000.0,0.6829460263252258,-9.625288963317873,-0.32680854201316833
901,52100.0,0.424970805644989,-9.651026725769043,-0.284311443567276
902,52200.0,0.424970805644989,-9.651026725769043,-0.284311443567276
903,52300.0,0.40462008118629456,-9.673172950744627,-0.3519476354122162
904,52400.0,0.40462008118629456,-9.673172950744627,-0.3519476354122162
905,52500.0,0.5003881454467773,-9.626486778259276,-0.4626794755458832
906,52600.0,0.5003881454467773,-9.626486778259276,-0.4626794755458832
907,52700.0,0.5704185366630554,-9.644442558288574,-0.44831427931785583
908,52800.0,0.3902548849582672,-9.569623947143556,-0.5476736426353455
909,52900.0,0.3902548849582672,-9.569623947143556,-0.5476736426353455
910,53000.0,0.4279635548591614,-9.645041465759276,-0.4812345504760742
911,53100.0,0.4279635548591614,-9.645041465759276,-0.4812345504760742
912,53200.0,0.4255693554878235,-9.649829864501953,-0.5590460896492004
913,53300.0,0.4255693554878235,-9.649829864501953,-0.5590460896492004
914,53400.0,0.547075092792511,-9.625288963317873,-0.3513490855693817
915,53500.0,0.547075092792511,-9.625288963317873,-0.3513490855693817
916,53600.0,0.596754789352417,-9.6803560256958,-0.4399345517158508
917,53700.0,0.2274491637945175,-9.654618263244627,-0.4219780564308167
918,53800.0,0.2274491637945175,-9.654618263244627,-0.4219780564308167
919,53900.0,0.760757565498352,-9.589376449584961,-0.454898327589035
920,54000.0,0.760757565498352,-9.589376449584961,-0.454898327589035
921,54100.0,0.3711012601852417,-9.662399291992188,-0.444722980260849
922,54200.0,0.3711012601852417,-9.662399291992188,-0.444722980260849
923,54300.0,0.6763619780540466,-9.641449928283693,-0.497395396232605
924,54400.0,0.6763619780540466,-9.641449928283693,-0.497395396232605
925,54500.0,0.6643909811973572,-9.654019355773926,-0.4118026793003082
926,54600.0,0.44532153010368347,-9.633668899536133,-0.6290764808654785
927,54700.0,0.44532153010368347,-9.633668899536133,-0.6290764808654785
928,54800.0,0.5249287486076355,-9.627683639526367,-0.5291185975074768
929,54900.0,0.5249287486076355,-9.627683639526367,-0.5291185975074768
930,53500.0,0.547075092792511,-9.625288963317873,-0.3513490855693817
931,53600.0,0.596754789352417,-9.6803560256958,-0.4399345517158508
932,53700.0,0.2274491637945175,-9.654618263244627,-0.4219780564308167
933,53800.0,0.2274491637945175,-9.654618263244627,-0.4219780564308167
934,53900.0,0.760757565498352,-9.589376449584961,-0.454898327589035
935,54000.0,0.760757565498352,-9.589376449584961,-0.454898327589035
936,54100.0,0.3711012601852417,-9.662399291992188,-0.444722980260849
937,54200.0,0.3711012601852417,-9.662399291992188,-0.444722980260849
938,54300.0,0.6763619780540466,-9.641449928283693,-0.497395396232605
939,54400.0,0.6763619780540466,-9.641449928283693,-0.497395396232605
940,54500.0,0.6643909811973572,-9.654019355773926,-0.4118026793003082
941,54600.0,0.44532153010368347,-9.633668899536133,-0.6290764808654785
942,54700.0,0.44532153010368347,-9.633668899536133,-0.6290764808654785
943,54800.0,0.5249287486076355,-9.627683639526367,-0.5291185975074768
944,54900.0,0.5249287486076355,-9.627683639526367,-0.5291185975074768
945,55000.0,0.46627077460289,-9.642647743225098,-0.5261258482933044
946,55100.0,0.46627077460289,-9.642647743225098,-0.5261258482933044
947,55200.0,0.4914098978042602,-9.625887870788574,-0.6129156351089478
948,55300.0,0.4914098978042602,-9.625887870788574,-0.6129156351089478
949,55400.0,0.4165911078453064,-9.634865760803224,-0.4219780564308167
950,55500.0,0.4704606235027313,-9.671976089477539,-0.40462008118629456
951,55600.0,0.4704606235027313,-9.671976089477539,-0.40462008118629456
952,55700.0,0.3944447338581085,-9.722254753112793,-0.30885201692581177
953,55800.0,0.3944447338581085,-9.722254753112793,-0.30885201692581177
954,55900.0,0.5416881442070007,-9.645041465759276,-0.6554127335548401
955,56000.0,0.5416881442070007,-9.645041465759276,-0.6554127335548401
956,56100.0,0.5105634927749634,-9.57441234588623,-0.4489128291606903
957,56200.0,0.5105634927749634,-9.57441234588623,-0.4489128291606903
958,56300.0,0.6129156351089478,-9.675567626953123,-0.4405331015586853
959,56400.0,0.4985924959182739,-9.627084732055664,-0.24600422382354736
960,55000.0,0.46627077460289,-9.642647743225098,-0.5261258482933044
961,55100.0,0.46627077460289,-9.642647743225098,-0.5261258482933044
962,55200.0,0.4914098978042602,-9.625887870788574,-0.6129156351089478
963,55300.0,0.4914098978042602,-9.625887870788574,-0.6129156351089478
964,55400.0,0.4165911078453064,-9.634865760803224,-0.4219780564308167
965,55500.0,0.4704606235027313,-9.671976089477539,-0.40462008118629456
966,55600.0,0.4704606235027313,-9.671976089477539,-0.40462008118629456
967,55700.0,0.3944447338581085,-9.722254753112793,-0.30885201692581177
968,55800.0,0.3944447338581085,-9.722254753112793,-0.30885201692581177
969,55900.0,0.5416881442070007,-9.645041465759276,-0.6554127335548401
970,56000.0,0.5416881442070007,-9.645041465759276,-0.6554127335548401
971,56100.0,0.5105634927749634,-9.57441234588623,-0.4489128291606903
972,56200.0,0.5105634927749634,-9.57441234588623,-0.4489128291606903
973,56300.0,0.6129156351089478,-9.675567626953123,-0.4405331015586853
974,56400.0,0.4985924959182739,-9.627084732055664,-0.24600422382354736
975,56500.0,0.4985924959182739,-9.627084732055664,-0.24600422382354736
976,56600.0,0.3699041604995728,-9.601346969604492,-0.4297592043876648
977,56700.0,0.3699041604995728,-9.601346969604492,-0.4297592043876648
978,56800.0,0.5129576921463013,-9.677363395690918,-0.2998737692832947
979,56900.0,0.5129576921463013,-9.677363395690918,-0.2998737692832947
980,57000.0,0.496198296546936,-9.603142738342283,-0.4920084476470947
981,57100.0,0.496198296546936,-9.603142738342283,-0.4920084476470947
982,57200.0,0.5105634927749634,-9.633668899536133,-0.3669114112854004
983,57300.0,0.5764040350914001,-9.677363395690918,-0.4459200799465179
984,57400.0,0.5764040350914001,-9.677363395690918,-0.4459200799465179
985,57500.0,0.405218631029129,-9.621698379516602,-0.545877993106842
986,57600.0,0.405218631029129,-9.621698379516602,-0.545877993106842
987,57700.0,0.5321113467216492,-9.658807754516602,-0.6290764808654785
988,57800.0,0.5321113467216492,-9.658807754516602,-0.6290764808654785
989,57900.0,0.5345055460929871,-9.610325813293457,-0.4908113479614258
990,56500.0,0.4985924959182739,-9.627084732055664,-0.24600422382354736
991,56600.0,0.3699041604995728,-9.601346969604492,-0.4297592043876648
992,56700.0,0.3699041604995728,-9.601346969604492,-0.4297592043876648
993,56800.0,0.5129576921463013,-9.677363395690918,-0.2998737692832947
994,56900.0,0.5129576921463013,-9.677363395690918,-0.2998737692832947
995,57000.0,0.496198296546936,-9.603142738342283,-0.4920084476470947
996,57100.0,0.496198296546936,-9.603142738342283,-0.4920084476470947
997,57200.0,0.5105634927749634,-9.633668899536133,-0.3669114112854004
998,57300.0,0.5764040350914001,-9.677363395690918,-0.4459200799465179
999,57400.0,0.5764040350914001,-9.677363395690918,-0.4459200799465179
1000,57500.0,0.405218631029129,-9.621698379516602,-0.545877993106842
1001,57600.0,0.405218631029129,-9.621698379516602,-0.545877993106842
1002,57700.0,0.5321113467216492,-9.658807754516602,-0.6290764808654785
1003,57800.0,0.5321113467216492,-9.658807754516602,-0.6290764808654785
1004,57900.0,0.5345055460929871,-9.610325813293457,-0.4908113479614258
1005,58000.0,0.5345055460929871,-9.610325813293457,-0.4908113479614258
1006,58100.0,0.628477931022644,-9.666589736938477,-0.5380968451499939
1007,58200.0,0.3130418658256531,-9.646238327026367,-0.3345896899700165
1008,58300.0,0.3130418658256531,-9.646238327026367,-0.3345896899700165
1009,58400.0,0.6530185341835022,-9.641449928283693,-0.3357867896556854
1010,58500.0,0.6530185341835022,-9.641449928283693,-0.3357867896556854
1011,58600.0,0.3866635859012604,-9.566033363342283,-0.5578489899635315
1012,58700.0,0.3866635859012604,-9.566033363342283,-0.5578489899635315
1013,58800.0,0.23283611238002774,-9.625288963317873,-0.3369838893413544
1014,58900.0,0.23283611238002774,-9.625288963317873,-0.3369838893413544
1015,59000.0,0.4692635238170624,-9.612719535827637,-0.1975216418504715
1016,59100.0,0.5374982953071594,-9.600150108337402,-0.3280056416988373
1017,59200.0,0.5374982953071594,-9.600150108337402,-0.3280056416988373
1018,59300.0,0.4537012279033661,-9.63187313079834,-0.2537853717803955
1019,59400.0,0.4537012279033661,-9.63187313079834,-0.2537853717803955
1020,58000.0,0.5345055460929871,-9.610325813293457,-0.4908113479614258
1021,58100.0,0.628477931022644,-9.666589736938477,-0.5380968451499939
1022,58200.0,0.3130418658256531,-9.646238327026367,-0.3345896899700165
1023,58300.0,0.3130418658256531,-9.646238327026367,-0.3345896899700165
1024,58400.0,0.6530185341835022,-9.641449928283693,-0.3357867896556854
1025,58500.0,0.6530185341835022,-9.641449928283693,-0.3357867896556854
1026,58600.0,0.3866635859012604,-9.566033363342283,-0.5578489899635315
1027,58700.0,0.3866635859012604,-9.566033363342283,-0.5578489899635315
1028,58800.0,0.23283611238002774,-9.625288963317873,-0.3369838893413544
1029,58900.0,0.23283611238002774,-9.625288963317873,-0.3369838893413544
1030,59000.0,0.4692635238170624,-9.612719535827637,-0.1975216418504715
1031,59100.0,0.5374982953071594,-9.600150108337402,-0.3280056416988373
1032,59200.0,0.5374982953071594,-9.600150108337402,-0.3280056416988373
1033,59300.0,0.4537012279033661,-9.63187313079834,-0.2537853717803955
1034,59400.0,0.4537012279033661,-9.63187313079834,-0.2537853717803955
1035,59500.0,0.09097966551780699,-9.667786598205566,-0.12629413604736328
1036,59600.0,0.09097966551780699,-9.667786598205566,-0.12629413604736328
1037,59700.0,0.4632780253887177,-9.596558570861816,-0.18375498056411746
1038,59800.0,0.4632780253887177,-9.596558570861816,-0.18375498056411746
1039,59900.0,0.5770025849342346,-9.621698379516602,-0.2017114907503128
1040,60000.0,0.5770025849342346,-9.621698379516602,-0.2017114907503128
1041,60100.0,0.3190273642539978,-9.657012939453123,-0.3705027103424072
1042,60200.0,0.7374141216278076,-9.627084732055664,-0.4638765752315521
1043,60300.0,0.7374141216278076,-9.627084732055664,-0.4638765752315521
1044,60400.0,0.3477577865123749,-9.665990829467773,-0.33099839091300964
1045,60500.0,0.3477577865123749,-9.665990829467773,-0.33099839091300964
1046,60600.0,0.6314706802368164,-9.611522674560547,-0.4614823758602142
1047,60700.0,0.6314706802368164,-9.611522674560547,-0.4614823758602142
1048,60800.0,0.20709845423698425,-9.85393524169922,-0.198120191693306
1049,60900.0,0.20709845423698425,-9.85393524169922,-0.198120191693306
1050,59500.0,0.09097966551780699,-9.667786598205566,-0.12629413604736328
1051,59600.0,0.09097966551780699,-9.667786598205566,-0.12629413604736328
1052,59700.0,0.4632780253887177,-9.596558570861816,-0.18375498056411746
1053,59800.0,0.4632780253887177,-9.596558570861816,-0.18375498056411746
1054,59900.0,0.5770025849342346,-9.621698379516602,-0.2017114907503128
1055,60000.0,0.5770025849342346,-9.621698379516602,-0.2017114907503128
1056,60100.0,0.3190273642539978,-9.657012939453123,-0.3705027103424072
1057,60200.0,0.7374141216278076,-9.627084732055664,-0.4638765752315521
1058,60300.0,0.7374141216278076,-9.627084732055664,-0.4638765752315521
1059,60400.0,0.3477577865123749,-9.665990829467773,-0.33099839091300964
1060,60500.0,0.3477577865123749,-9.665990829467773,-0.33099839091300964
1061,60600.0,0.6314706802368164,-9.611522674560547,-0.4614823758602142
1062,60700.0,0.6314706802368164,-9.611522674560547,-0.4614823758602142
1063,60800.0,0.20709845423698425,-9.85393524169922,-0.198120191693306
1064,60900.0,0.20709845423698425,-9.85393524169922,-0.198120191693306
1065,61000.0,0.8577227592468262,-9.625887870788574,-0.3884592354297638
1066,61100.0,0.4225766062736511,-9.66958236694336,-0.3872621357440949
1067,61200.0,0.4225766062736511,-9.66958236694336,-0.3872621357440949
1068,61300.0,0.5410895943641663,-9.635464668273926,-0.5027823448181152
1069,61400.0,0.5410895943641663,-9.635464668273926,-0.5027823448181152
1070,61500.0,0.5931634902954102,-9.59835433959961,-0.5835866928100586
1071,61600.0,0.5931634902954102,-9.59835433959961,-0.5835866928100586
1072,61700.0,0.5117605924606323,-9.661202430725098,-0.4866214990615845
1073,61800.0,0.5117605924606323,-9.661202430725098,-0.4866214990615845
1074,61900.0,0.7182605266571045,-9.63726043701172,-0.39145198464393616
1075,62000.0,0.33758243918418884,-9.673771858215332,-0.4884171485900879
1076,62100.0,0.33758243918418884,-9.673771858215332,-0.4884171485900879
1077,62200.0,0.3519476354122162,-9.66958236694336,-0.2711433470249176
1078,62300.0,0.3519476354122162,-9.66958236694336,-0.2711433470249176
1079,62400.0,0.8313865661621094,-9.610923767089844,-0.4129997789859772
1080,61000.0,0.8577227592468262,-9.625887870788574,-0.3884592354297638
1081,61100.0,0.4225766062736511,-9.66958236694336,-0.3872621357440949
1082,61200.0,0.4225766062736511,-9.66958236694336,-0.3872621357440949
1083,61300.0,0.5410895943641663,-9.635464668273926,-0.5027823448181152
1084,61400.0,0.5410895943641663,-9.635464668273926,-0.5027823448181152
1085,61500.0,0.5931634902954102,-9.59835433959961,-0.5835866928100586
1086,61600.0,0.5931634902954102,-9.59835433959961,-0.5835866928100586
1087,61700.0,0.5117605924606323,-9.661202430725098,-0.4866214990615845
1088,61800.0,0.5117605924606323,-9.661202430725098,-0.4866214990615845
1089,61900.0,0.7182605266571045,-9.63726043701172,-0.39145198464393616
1090,62000.0,0.33758243918418884,-9.673771858215332,-0.4884171485900879
1091,62100.0,0.33758243918418884,-9.673771858215332,-0.4884171485900879
1092,62200.0,0.3519476354122162,-9.66958236694336,-0.2711433470249176
1093,62300.0,0.3519476354122162,-9.66958236694336,-0.2711433470249176
1094,62400.0,0.8313865661621094,-9.610923767089844,-0.4129997789859772
1095,62500.0,0.8313865661621094,-9.610923767089844,-0.4129997789859772
1096,62600.0,0.6057330369949341,-9.640851974487305,-0.25737667083740234
1097,62700.0,0.6057330369949341,-9.640851974487305,-0.25737667083740234
1098,62800.0,0.2106897532939911,-9.665990829467773,-0.4914098978042602
1099,62900.0,0.667982280254364,-9.65222454071045,-0.37169981002807617
1100,63000.0,0.667982280254364,-9.65222454071045,-0.37169981002807617
1101,63100.0,0.3190273642539978,-9.636661529541016,-0.3232172429561615
1102,63200.0,0.3190273642539978,-9.636661529541016,-0.3232172429561615
1103,63300.0,0.3076549172401428,-9.631275177001953,-0.4195838570594788
1104,63400.0,0.3076549172401428,-9.631275177001953,-0.4195838570594788
1105,63500.0,0.6458359360694885,-9.607931137084961,-0.34596213698387146
1106,63600.0,0.6458359360694885,-9.607931137084961,-0.34596213698387146
1107,63700.0,0.3363853394985199,-9.664793968200684,-0.2807201445102692
1108,63800.0,0.5183446407318115,-9.651625633239746,-0.3597288131713867
1109,63900.0,0.5183446407318115,-9.651625633239746,-0.3597288131713867
1110,62500.0,0.8313865661621094,-9.610923767089844,-0.4129997789859772
1111,62600.0,0.6057330369949341,-9.640851974487305,-0.25737667083740234
1112,62700.0,0.6057330369949341,-9.640851974487305,-0.25737667083740234
1113,62800.0,0.2106897532939911,-9.665990829467773,-0.4914098978042602
1114,62900.0,0.667982280254364,-9.65222454071045,-0.37169981002807617
1115,63000.0,0.667982280254364,-9.65222454071045,-0.37169981002807617
1116,63100.0,0.3190273642539978,-9.636661529541016,-0.3232172429561615
1117,63200.0,0.3190273642539978,-9.636661529541016,-0.3232172429561615
1118,63300.0,0.3076549172401428,-9.631275177001953,-0.4195838570594788
1119,63400.0,0.3076549172401428,-9.631275177001953,-0.4195838570594788
1120,63500.0,0.6458359360694885,-9.607931137084961,-0.34596213698387146
1121,63600.0,0.6458359360694885,-9.607931137084961,-0.34596213698387146
1122,63700.0,0.3363853394985199,-9.664793968200684,-0.2807201445102692
1123,63800.0,0.5183446407318115,-9.651625633239746,-0.3597288131713867
1124,63900.0,0.5183446407318115,-9.651625633239746,-0.3597288131713867
1125,64000.0,0.7015010714530945,-9.670180320739746,-0.3842693865299225
1126,64100.0,0.7015010714530945,-9.670180320739746,-0.3842693865299225
1127,64200.0,0.2274491637945175,-9.603142738342283,-0.4124012291431427
1128,64300.0,0.2274491637945175,-9.603142738342283,-0.4124012291431427
1129,64400.0,0.7709329724311829,-9.61451530456543,-0.6141127347946167
1130,64500.0,0.7709329724311829,-9.61451530456543,-0.6141127347946167
1131,64600.0,0.5309142470359802,-9.603741645812988,-0.38367083668708796
1132,64700.0,0.702099621295929,-9.582792282104492,-0.5207388401031494
1133,64800.0,0.702099621295929,-9.582792282104492,-0.5207388401031494
1134,64900.0,0.19632454216480252,-9.671976089477539,-0.4519055783748626
1135,65000.0,0.19632454216480252,-9.671976089477539,-0.4519055783748626
1136,65100.0,0.6494272351264954,-9.66299819946289,-0.6194996833801271
1137,65200.0,0.6494272351264954,-9.66299819946289,-0.6194996833801271
1138,65300.0,0.5746083855628967,-9.607931137084961,-0.5123591423034668
1139,65400.0,0.5746083855628967,-9.607931137084961,-0.5123591423034668
1140,64000.0,0.7015010714530945,-9.670180320739746,-0.3842693865299225
1141,64100.0,0.7015010714530945,-9.670180320739746,-0.3842693865299225
1142,64200.0,0.2274491637945175,-9.603142738342283,-0.4124012291431427
1143,64300.0,0.2274491637945175,-9.603142738342283,-0.4124012291431427
1144,64400.0,0.7709329724311829,-9.61451530456543,-0.6141127347946167
1145,64500.0,0.7709329724311829,-9.61451530456543,-0.6141127347946167
1146,64600.0,0.5309142470359802,-9.603741645812988,-0.38367083668708796
1147,64700.0,0.702099621295929,-9.582792282104492,-0.5207388401031494
1148,64800.0,0.702099621295929,-9.582792282104492,-0.5207388401031494
1149,64900.0,0.19632454216480252,-9.671976089477539,-0.4519055783748626
1150,65000.0,0.19632454216480252,-9.671976089477539,-0.4519055783748626
1151,65100.0,0.6494272351264954,-9.66299819946289,-0.6194996833801271
1152,65200.0,0.6494272351264954,-9.66299819946289,-0.6194996833801271
1153,65300.0,0.5746083855628967,-9.607931137084961,-0.5123591423034668
1154,65400.0,0.5746083855628967,-9.607931137084961,-0.5123591423034668
1155,65500.0,0.6057330369949341,-9.62947940826416,-0.4932055473327637
1156,65600.0,0.6356605291366577,-9.64923095703125,-0.5093663930892944
1157,65700.0,0.6356605291366577,-9.64923095703125,-0.5093663930892944
1158,65800.0,0.52552729845047,-9.621698379516602,-0.5943605899810791
1159,65900.0,0.52552729845047,-9.621698379516602,-0.5943605899810791
1160,66000.0,0.6189011335372925,-9.609726905822754,-0.5279214978218079
1161,66100.0,0.6189011335372925,-9.609726905822754,-0.5279214978218079
1162,66200.0,0.6374561786651611,-9.638457298278807,-0.5129576921463013
1163,66300.0,0.6374561786651611,-9.638457298278807,-0.5129576921463013
1164,66400.0,0.6266822814941406,-9.622296333312988,-0.4878185987472534
1165,66500.0,0.7038952708244324,-9.630077362060547,-0.4153940081596375
1166,66600.0,0.7038952708244324,-9.630077362060547,-0.4153940081596375
1167,66700.0,0.3286041915416717,-9.635464668273926,-0.3824737071990967
1168,66800.0,0.3286041915416717,-9.635464668273926,-0.3824737071990967
1169,66900.0,0.8074445128440857,-9.640851974487305,-0.4531026780605316
1170,65500.0,0.6057330369949341,-9.62947940826416,-0.4932055473327637
1171,65600.0,0.6356605291366577,-9.64923095703125,-0.5093663930892944
1172,65700.0,0.6356605291366577,-9.64923095703125,-0.5093663930892944
1173,65800.0,0.52552729845047,-9.621698379516602,-0.5943605899810791
1174,65900.0,0.52552729845047,-9.621698379516602,-0.5943605899810791
1175,66000.0,0.6189011335372925,-9.609726905822754,-0.5279214978218079
1176,66100.0,0.6189011335372925,-9.609726905822754,-0.5279214978218079
1177,66200.0,0.6374561786651611,-9.638457298278807,-0.5129576921463013
1178,66300.0,0.6374561786651611,-9.638457298278807,-0.5129576921463013
1179,66400.0,0.6266822814941406,-9.622296333312988,-0.4878185987472534
1180,66500.0,0.7038952708244324,-9.630077362060547,-0.4153940081596375
1181,66600.0,0.7038952708244324,-9.630077362060547,-0.4153940081596375
1182,66700.0,0.3286041915416717,-9.635464668273926,-0.3824737071990967
1183,66800.0,0.3286041915416717,-9.635464668273926,-0.3824737071990967
1184,66900.0,0.8074445128440857,-9.640851974487305,-0.4531026780605316
1185,67000.0,0.8074445128440857,-9.640851974487305,-0.4531026780605316
1186,67100.0,0.3705027103424072,-9.651625633239746,-0.3292027413845062
1187,67200.0,0.3705027103424072,-9.651625633239746,-0.3292027413845062
1188,67300.0,0.6721721291542053,-9.596558570861816,-0.3830722570419312
1189,67400.0,0.5057750940322876,-9.589975357055664,-0.5901707410812378
1190,67500.0,0.5057750940322876,-9.589975357055664,-0.5901707410812378
1191,67600.0,0.6913257241249084,-9.673172950744627,-0.3447650372982025
1192,67700.0,0.6913257241249084,-9.673172950744627,-0.3447650372982025
1193,67800.0,0.5841852426528931,-9.648633003234863,-0.4034229815006256
1194,67900.0,0.5841852426528931,-9.648633003234863,-0.4034229815006256
1195,68000.0,0.690727174282074,-9.57441234588623,-0.5099649429321289
1196,68100.0,0.690727174282074,-9.57441234588623,-0.5099649429321289
1197,68200.0,0.586579442024231,-9.623494148254396,-0.4584896266460418
1198,68300.0,0.5488707423210144,-9.641449928283693,-0.4722562730312347
1199,68400.0,0.5488707423210144,-9.641449928283693,-0.4722562730312347
1200,67000.0,0.8074445128440857,-9.640851974487305,-0.4531026780605316
1201,67100.0,0.3705027103424072,-9.651625633239746,-0.3292027413845062
1202,67200.0,0.3705027103424072,-9.651625633239746,-0.3292027413845062
1203,67300.0,0.6721721291542053,-9.596558570861816,-0.3830722570419312
1204,67400.0,0.5057750940322876,-9.589975357055664,-0.5901707410812378
1205,67500.0,0.5057750940322876,-9.589975357055664,-0.5901707410812378
1206,67600.0,0.6913257241249084,-9.673172950744627,-0.3447650372982025
1207,67700.0,0.6913257241249084,-9.673172950744627,-0.3447650372982025
1208,67800.0,0.5841852426528931,-9.648633003234863,-0.4034229815006256
1209,67900.0,0.5841852426528931,-9.648633003234863,-0.4034229815006256
1210,68000.0,0.690727174282074,-9.57441234588623,-0.5099649429321289
1211,68100.0,0.690727174282074,-9.57441234588623,-0.5099649429321289
1212,68200.0,0.586579442024231,-9.623494148254396,-0.4584896266460418
1213,68300.0,0.5488707423210144,-9.641449928283693,-0.4722562730312347
1214,68400.0,0.5488707423210144,-9.641449928283693,-0.4722562730312347
1215,68500.0,0.8619126081466675,-9.621698379516602,-0.4644751250743866
1216,68600.0,0.8619126081466675,-9.621698379516602,-0.4644751250743866
1217,68700.0,0.4459200799465179,-9.627084732055664,-0.6141127347946167
1218,68800.0,0.4459200799465179,-9.627084732055664,-0.6141127347946167
1219,68900.0,0.8601169586181641,-9.666589736938477,-0.4273650050163269
1220,69000.0,0.8601169586181641,-9.666589736938477,-0.4273650050163269
1221,69100.0,0.5195417404174805,-9.621099472045898,-0.5650315880775452
1222,69200.0,0.5291185975074768,-9.670180320739746,-0.4926069974899292
1223,69300.0,0.5291185975074768,-9.670180320739746,-0.4926069974899292
1224,69400.0,0.8744821548461914,-9.628880500793457,-0.3555389642715454
1225,69500.0,0.8744821548461914,-9.628880500793457,-0.3555389642715454
1226,69600.0,0.4153940081596375,-9.66539192199707,-0.43754035234451294
1227,69700.0,0.4153940081596375,-9.66539192199707,-0.43754035234451294
1228,69800.0,0.4938040971755981,-9.59476375579834,-0.5704185366630554
1229,69900.0,0.4938040971755981,-9.59476375579834,-0.5704185366630554
1230,68500.0,0.8619126081466675,-9.621698379516602,-0.4644751250743866
1231,68600.0,0.8619126081466675,-9.621698379516602,-0.4644751250743866
1232,68700.0,0.4459200799465179,-9.627084732055664,-0.6141127347946167
1233,68800.0,0.4459200799465179,-9.627084732055664,-0.6141127347946167
1234,68900.0,0.8601169586181641,-9.666589736938477,-0.4273650050163269
1235,69000.0,0.8601169586181641,-9.666589736938477,-0.4273650050163269
1236,69100.0,0.5195417404174805,-9.621099472045898,-0.5650315880775452
1237,69200.0,0.5291185975074768,-9.670180320739746,-0.4926069974899292
1238,69300.0,0.5291185975074768,-9.670180320739746,-0.4926069974899292
1239,69400.0,0.8744821548461914,-9.628880500793457,-0.3555389642715454
1240,69500.0,0.8744821548461914,-9.628880500793457,-0.3555389642715454
1241,69600.0,0.4153940081596375,-9.66539192199707,-0.43754035234451294
1242,69700.0,0.4153940081596375,-9.66539192199707,-0.43754035234451294
1243,69800.0,0.4938040971755981,-9.59476375579834,-0.5704185366630554
1244,69900.0,0.4938040971755981,-9.59476375579834,-0.5704185366630554
1245,70000.0,0.6147112846374512,-9.652822494506836,-0.17477671802043915
1246,70100.0,0.7463923692703247,-9.602544784545898,-0.2106897532939911
1247,70200.0,0.7463923692703247,-9.602544784545898,-0.2106897532939911
1248,70300.0,0.5889736413955688,-9.642647743225098,-0.3106476664543152
1249,70400.0,0.5889736413955688,-9.642647743225098,-0.3106476664543152
1250,70500.0,0.3274070918560028,-9.641449928283693,-0.35254621505737305
1251,70600.0,0.3274070918560028,-9.641449928283693,-0.35254621505737305
1252,70700.0,0.3794809579849243,-9.623494148254396,-0.4692635238170624
1253,70800.0,0.3794809579849243,-9.623494148254396,-0.4692635238170624
1254,70900.0,0.579995334148407,-9.707889556884766,-0.4806360006332398
1255,71000.0,0.12629413604736328,-9.61870574951172,-0.5985504388809204
1256,71100.0,0.12629413604736328,-9.61870574951172,-0.5985504388809204
1257,71200.0,0.8577227592468262,-9.617507934570312,-0.6931213736534119
1258,71300.0,0.8577227592468262,-9.617507934570312,-0.6931213736534119
1259,71400.0,0.16759411990642548,-9.645041465759276,-0.28371289372444153
1260,70000.0,0.6147112846374512,-9.652822494506836,-0.17477671802043915
1261,70100.0,0.7463923692703247,-9.602544784545898,-0.2106897532939911
1262,70200.0,0.7463923692703247,-9.602544784545898,-0.2106897532939911
1263,70300.0,0.5889736413955688,-9.642647743225098,-0.3106476664543152
1264,70400.0,0.5889736413955688,-9.642647743225098,-0.3106476664543152
1265,70500.0,0.3274070918560028,-9.641449928283693,-0.35254621505737305
1266,70600.0,0.3274070918560028,-9.641449928283693,-0.35254621505737305
1267,70700.0,0.3794809579849243,-9.623494148254396,-0.4692635238170624
1268,70800.0,0.3794809579849243,-9.623494148254396,-0.4692635238170624
1269,70900.0,0.579995334148407,-9.707889556884766,-0.4806360006332398
1270,71000.0,0.12629413604736328,-9.61870574951172,-0.5985504388809204
1271,71100.0,0.12629413604736328,-9.61870574951172,-0.5985504388809204
1272,71200.0,0.8577227592468262,-9.617507934570312,-0.6931213736534119
1273,71300.0,0.8577227592468262,-9.617507934570312,-0.6931213736534119
1274,71400.0,0.16759411990642548,-9.645041465759276,-0.28371289372444153
1275,71500.0,0.16759411990642548,-9.645041465759276,-0.28371289372444153
1276,71600.0,0.5536591410636902,-9.650428771972656,-0.5925649404525757
1277,71700.0,0.5536591410636902,-9.650428771972656,-0.5925649404525757
1278,71800.0,0.2358288615942001,-9.623494148254396,-0.5368997454643251
1279,71900.0,0.6799532771110535,-9.639654159545898,-0.3699041604995728
1280,72000.0,0.6799532771110535,-9.639654159545898,-0.3699041604995728
1281,72100.0,0.5123591423034668,-9.62947940826416,-0.4824316501617432
1282,72200.0,0.5123591423034668,-9.62947940826416,-0.4824316501617432
1283,72300.0,0.9504981040954591,-9.602544784545898,-0.4932055473327637
1284,72400.0,0.9504981040954591,-9.602544784545898,-0.4932055473327637
1285,72500.0,0.5267243981361389,-9.534908294677734,-0.6530185341835022
1286,72600.0,0.5267243981361389,-9.534908294677734,-0.6530185341835022
1287,72700.0,0.6416460275650024,-9.601346969604492,-0.5428852438926697
1288,72800.0,0.6224924325942993,-9.633070945739746,-0.6111199855804443
1289,72900.0,0.6224924325942993,-9.633070945739746,-0.6111199855804443
1290,71500.0,0.16759411990642548,-9.645041465759276,-0.28371289372444153
1291,71600.0,0.5536591410636902,-9.650428771972656,-0.5925649404525757
1292,71700.0,0.5536591410636902,-9.650428771972656,-0.5925649404525757
1293,71800.0,0.2358288615942001,-9.623494148254396,-0.5368997454643251
1294,71900.0,0.6799532771110535,-9.639654159545898,-0.3699041604995728
1295,72000.0,0.6799532771110535,-9.639654159545898,-0.3699041604995728
1296,72100.0,0.5123591423034668,-9.62947940826416,-0.4824316501617432
1297,72200.0,0.5123591423034668,-9.62947940826416,-0.4824316501617432
1298,72300.0,0.9504981040954591,-9.602544784545898,-0.4932055473327637
1299,72400.0,0.9504981040954591,-9.602544784545898,-0.4932055473327637
1300,72500.0,0.5267243981361389,-9.534908294677734,-0.6530185341835022
1301,72600.0,0.5267243981361389,-9.534908294677734,-0.6530185341835022
1302,72700.0,0.6416460275650024,-9.601346969604492,-0.5428852438926697
1303,72800.0,0.6224924325942993,-9.633070945739746,-0.6111199855804443
1304,72900.0,0.6224924325942993,-9.633070945739746,-0.6111199855804443
1305,73000.0,0.5560533404350281,-9.632472038269043,-0.7428010702133179
1306,73100.0,0.5560533404350281,-9.632472038269043,-0.7428010702133179
1307,73200.0,0.5829881429672241,-9.606135368347168,-0.7553706169128418
1308,73300.0,0.5829881429672241,-9.606135368347168,-0.7553706169128418
1309,73400.0,0.667982280254364,-9.59177017211914,-0.706289529800415
1310,73500.0,0.667982280254364,-9.59177017211914,-0.706289529800415
1311,73600.0,0.6033388376235962,-9.620500564575195,-0.7428010702133179
1312,73700.0,0.6488286852836609,-9.622296333312988,-0.8104372620582581
1313,73800.0,0.6488286852836609,-9.622296333312988,-0.8104372620582581
1314,73900.0,0.44771572947502136,-9.632472038269043,-0.7703344225883484
1315,74000.0,0.44771572947502136,-9.632472038269043,-0.7703344225883484
1316,74100.0,0.9929951429367064,-9.622296333312988,-0.5129576921463013
1317,74200.0,0.9929951429367064,-9.622296333312988,-0.5129576921463013
1318,74300.0,0.8164227604866028,-9.563638687133787,-0.8355764150619507
1319,74400.0,0.8164227604866028,-9.563638687133787,-0.8355764150619507
1320,73000.0,0.5560533404350281,-9.632472038269043,-0.7428010702133179
1321,73100.0,0.5560533404350281,-9.632472038269043,-0.7428010702133179
1322,73200.0,0.5829881429672241,-9.606135368347168,-0.7553706169128418
1323,73300.0,0.5829881429672241,-9.606135368347168,-0.7553706169128418
1324,73400.0,0.667982280254364,-9.59177017211914,-0.706289529800415
1325,73500.0,0.667982280254364,-9.59177017211914,-0.706289529800415
1326,73600.0,0.6033388376235962,-9.620500564575195,-0.7428010702133179
1327,73700.0,0.6488286852836609,-9.622296333312988,-0.8104372620582581
1328,73800.0,0.6488286852836609,-9.622296333312988,-0.8104372620582581
1329,73900.0,0.44771572947502136,-9.632472038269043,-0.7703344225883484
1330,74000.0,0.44771572947502136,-9.632472038269043,-0.7703344225883484
1331,74100.0,0.9929951429367064,-9.622296333312988,-0.5129576921463013
1332,74200.0,0.9929951429367064,-9.622296333312988,-0.5129576921463013
1333,74300.0,0.8164227604866028,-9.563638687133787,-0.8355764150619507
1334,74400.0,0.8164227604866028,-9.563638687133787,-0.8355764150619507
1335,74500.0,0.3555389642715454,-9.607333183288574,-0.6955155730247498
1336,74600.0,0.8242039084434509,-9.622296333312988,-0.4129997789859772
1337,74700.0,0.8242039084434509,-9.622296333312988,-0.4129997789859772
1338,74800.0,0.3387795388698578,-9.622895240783693,-0.4794389009475708
1339,74900.0,0.3387795388698578,-9.622895240783693,-0.4794389009475708
1340,75000.0,0.596754789352417,-9.600150108337402,-0.5805938839912415
1341,75100.0,0.596754789352417,-9.600150108337402,-0.5805938839912415
1342,75200.0,0.43095630407333374,-9.619902610778807,-0.5105634927749634
1343,75300.0,0.43095630407333374,-9.619902610778807,-0.5105634927749634
1344,75400.0,0.4818331003189087,-9.62828254699707,-0.5321113467216492
1345,75500.0,0.5327098965644836,-9.601945877075195,-0.2849099934101105
1346,75600.0,0.5327098965644836,-9.601945877075195,-0.2849099934101105
1347,75700.0,0.5135562419891357,-9.642048835754396,-0.42437225580215454
1348,75800.0,0.5135562419891357,-9.642048835754396,-0.42437225580215454
1349,75900.0,0.6009446382522583,-9.61212158203125,-0.4129997789859772
1350,74500.0,0.3555389642715454,-9.607333183288574,-0.6955155730247498
1351,74600.0,0.8242039084434509,-9.622296333312988,-0.4129997789859772
1352,74700.0,0.8242039084434509,-9.622296333312988,-0.4129997789859772
1353,74800.0,0.3387795388698578,-9.622895240783693,-0.4794389009475708
1354,74900.0,0.3387795388698578,-9.622895240783693,-0.4794389009475708
1355,75000.0,0.596754789352417,-9.600150108337402,-0.5805938839912415
1356,75100.0,0.596754789352417,-9.600150108337402,-0.5805938839912415
1357,75200.0,0.43095630407333374,-9.619902610778807,-0.5105634927749634
1358,75300.0,0.43095630407333374,-9.619902610778807,-0.5105634927749634
1359,75400.0,0.4818331003189087,-9.62828254699707,-0.5321113467216492
1360,75500.0,0.5327098965644836,-9.601945877075195,-0.2849099934101105
1361,75600.0,0.5327098965644836,-9.601945877075195,-0.2849099934101105
1362,75700.0,0.5135562419891357,-9.642048835754396,-0.42437225580215454
1363,75800.0,0.5135562419891357,-9.642048835754396,-0.42437225580215454
1364,75900.0,0.6009446382522583,-9.61212158203125,-0.4129997789859772
1365,76000.0,0.6009446382522583,-9.61212158203125,-0.4129997789859772
1366,76100.0,0.6129156351089478,-9.646238327026367,-0.5321113467216492
1367,76200.0,0.6129156351089478,-9.646238327026367,-0.5321113467216492
1368,76300.0,-0.046088382601737976,-9.690531730651855,-0.22206220030784607
1369,76400.0,1.0103530883789065,-9.57201862335205,-0.6829460263252258
1370,76500.0,1.0103530883789065,-9.57201862335205,-0.6829460263252258
1371,76600.0,0.3016694188117981,-9.68155288696289,-0.02753331884741783
1372,76700.0,0.3016694188117981,-9.68155288696289,-0.02753331884741783
1373,76800.0,0.5530605912208557,-9.640851974487305,-0.3579331636428833
1374,76900.0,0.5530605912208557,-9.640851974487305,-0.3579331636428833
1375,77000.0,0.3645172119140625,-9.641449928283693,-0.4141969084739685
1376,77100.0,0.3645172119140625,-9.641449928283693,-0.4141969084739685
1377,77200.0,0.4590881764888763,-9.654019355773926,-0.2358288615942001
1378,77300.0,0.3286041915416717,-9.652822494506836,-0.2807201445102692
1379,77400.0,0.3286041915416717,-9.652822494506836,-0.2807201445102692
1380,76000.0,0.6009446382522583,-9.61212158203125,-0.4129997789859772
1381,76100.0,0.6129156351089478,-9.646238327026367,-0.5321113467216492
1382,76200.0,0.6129156351089478,-9.646238327026367,-0.5321113467216492
1383,76300.0,-0.046088382601737976,-9.690531730651855,-0.22206220030784607
1384,76400.0,1.0103530883789065,-9.57201862335205,-0.6829460263252258
1385,76500.0,1.0103530883789065,-9.57201862335205,-0.6829460263252258
1386,76600.0,0.3016694188117981,-9.68155288696289,-0.02753331884741783
1387,76700.0,0.3016694188117981,-9.68155288696289,-0.02753331884741783
1388,76800.0,0.5530605912208557,-9.640851974487305,-0.3579331636428833
1389,76900.0,0.5530605912208557,-9.640851974487305,-0.3579331636428833
1390,77000.0,0.3645172119140625,-9.641449928283693,-0.4141969084739685
1391,77100.0,0.3645172119140625,-9.641449928283693,-0.4141969084739685
1392,77200.0,0.4590881764888763,-9.654019355773926,-0.2358288615942001
1393,77300.0,0.3286041915416717,-9.652822494506836,-0.2807201445102692
1394,77400.0,0.3286041915416717,-9.652822494506836,-0.2807201445102692
1395,77500.0,0.4423287510871887,-9.644442558288574,-0.3609259128570557
1396,77600.0,0.4423287510871887,-9.644442558288574,-0.3609259128570557
1397,77700.0,0.17956513166427612,-9.637859344482422,-0.3190273642539978
1398,77800.0,0.17956513166427612,-9.637859344482422,-0.3190273642539978
1399,77900.0,0.6482301354408264,-9.604938507080078,-0.33937808871269226
1400,78000.0,0.6482301354408264,-9.604938507080078,-0.33937808871269226
1401,78100.0,0.060453593730926514,-9.627683639526367,-0.5973533391952515
1402,78200.0,0.41120412945747375,-9.638457298278807,-0.20889410376548767
1403,78300.0,0.41120412945747375,-9.638457298278807,-0.20889410376548767
1404,78400.0,0.4950011968612671,-9.620500564575195,-0.16579847037792206
1405,78500.0,0.4950011968612671,-9.620500564575195,-0.16579847037792206
1406,78600.0,0.5847837924957275,-9.61331844329834,-0.4213795065879822
1407,78700.0,0.5847837924957275,-9.61331844329834,-0.4213795065879822
1408,78800.0,0.152031809091568,-9.72285270690918,-0.586579442024231
1409,78900.0,0.152031809091568,-9.72285270690918,-0.586579442024231
1410,77500.0,0.4423287510871887,-9.644442558288574,-0.3609259128570557
1411,77600.0,0.4423287510871887,-9.644442558288574,-0.3609259128570557
1412,77700.0,0.17956513166427612,-9.637859344482422,-0.3190273642539978
1413,77800.0,0.17956513166427612,-9.637859344482422,-0.3190273642539978
1414,77900.0,0.6482301354408264,-9.604938507080078,-0.33937808871269226
1415,78000.0,0.6482301354408264,-9.604938507080078,-0.33937808871269226
1416,78100.0,0.060453593730926514,-9.627683639526367,-0.5973533391952515
1417,78200.0,0.41120412945747375,-9.638457298278807,-0.20889410376548767
1418,78300.0,0.41120412945747375,-9.638457298278807,-0.20889410376548767
1419,78400.0,0.4950011968612671,-9.620500564575195,-0.16579847037792206
1420,78500.0,0.4950011968612671,-9.620500564575195,-0.16579847037792206
1421,78600.0,0.5847837924957275,-9.61331844329834,-0.4213795065879822
1422,78700.0,0.5847837924957275,-9.61331844329834,-0.4213795065879822
1423,78800.0,0.152031809091568,-9.72285270690918,-0.586579442024231
1424,78900.0,0.152031809091568,-9.72285270690918,-0.586579442024231
1425,79000.0,0.6877344250679016,-9.607333183288574,-0.5368997454643251
1426,79100.0,0.5961562395095825,-9.61331844329834,-0.16819266974925995
1427,79200.0,0.5961562395095825,-9.61331844329834,-0.16819266974925995
1428,79300.0,0.4399345517158508,-9.613917350769043,-0.5339069962501526
1429,79400.0,0.4399345517158508,-9.613917350769043,-0.5339069962501526
1430,79500.0,0.4950011968612671,-9.59177017211914,-0.3615244626998901
1431,79600.0,0.4950011968612671,-9.59177017211914,-0.3615244626998901
1432,79700.0,0.5805938839912415,-9.601346969604492,-0.21368250250816345
1433,79800.0,0.5805938839912415,-9.601346969604492,-0.21368250250816345
1434,79900.0,0.943913996219635,-9.637859344482422,-0.4519055783748626
1435,80000.0,0.518943190574646,-9.63067626953125,-0.5632359385490417
1436,80100.0,0.518943190574646,-9.63067626953125,-0.5632359385490417
1437,80200.0,0.5039794445037842,-9.691129684448242,-0.11372458189725874
1438,80300.0,0.5039794445037842,-9.691129684448242,-0.11372458189725874
1439,80400.0,0.6057330369949341,-9.642048835754396,-0.3130418658256531
1440,79000.0,0.6877344250679016,-9.607333183288574,-0.5368997454643251
1441,79100.0,0.5961562395095825,-9.61331844329834,-0.16819266974925995
1442,79200.0,0.5961562395095825,-9.61331844329834,-0.16819266974925995
1443,79300.0,0.4399345517158508,-9.613917350769043,-0.5339069962501526
1444,79400.0,0.4399345517158508,-9.613917350769043,-0.5339069962501526
1445,79500.0,0.4950011968612671,-9.59177017211914,-0.3615244626998901
1446,79600.0,0.4950011968612671,-9.59177017211914,-0.3615244626998901
1447,79700.0,0.5805938839912415,-9.601346969604492,-0.21368250250816345
1448,79800.0,0.5805938839912415,-9.601346969604492,-0.21368250250816345
1449,79900.0,0.943913996219635,-9.637859344482422,-0.4519055783748626
1450,80000.0,0.518943190574646,-9.63067626953125,-0.5632359385490417
1451,80100.0,0.518943190574646,-9.63067626953125,-0.5632359385490417
1452,80200.0,0.5039794445037842,-9.691129684448242,-0.11372458189725874
1453,80300.0,0.5039794445037842,-9.691129684448242,-0.11372458189725874
1454,80400.0,0.6057330369949341,-9.642048835754396,-0.3130418658256531
1455,80500.0,0.6057330369949341,-9.642048835754396,-0.3130418658256531
1456,80600.0,0.5452794432640076,-9.6618013381958,-0.4519055783748626
1457,80700.0,0.5452794432640076,-9.6618013381958,-0.4519055783748626
1458,80800.0,0.4632780253887177,-9.598953247070312,-0.5135562419891357
1459,80900.0,0.4632780253887177,-9.598953247070312,-0.5135562419891357
1460,81000.0,0.4237737059593201,-9.646238327026367,-0.4979939460754394
1461,81100.0,0.454898327589035,-9.618106842041016,-0.4578910768032074
1462,81200.0,0.454898327589035,-9.618106842041016,-0.4578910768032074
1463,81300.0,0.5410895943641663,-9.648633003234863,-0.3986345827579498
1464,81400.0,0.5410895943641663,-9.648633003234863,-0.3986345827579498
1465,81500.0,0.6733692288398743,-9.622296333312988,-0.3956418335437775
1466,81600.0,0.6733692288398743,-9.622296333312988,-0.3956418335437775
1467,81700.0,0.2370259612798691,-9.651625633239746,-0.4890156984329224
1468,81800.0,0.2370259612798691,-9.651625633239746,-0.4890156984329224
1469,81900.0,0.6811503767967224,-9.588777542114258,-0.3567360639572144
1470,80500.0,0.6057330369949341,-9.642048835754396,-0.3130418658256531
1471,80600.0,0.5452794432640076,-9.6618013381958,-0.4519055783748626
1472,80700.0,0.5452794432640076,-9.6618013381958,-0.4519055783748626
1473,80800.0,0.4632780253887177,-9.598953247070312,-0.5135562419891357
1474,80900.0,0.4632780253887177,-9.598953247070312,-0.5135562419891357
1475,81000.0,0.4237737059593201,-9.646238327026367,-0.4979939460754394
1476,81100.0,0.454898327589035,-9.618106842041016,-0.4578910768032074
1477,81200.0,0.454898327589035,-9.618106842041016,-0.4578910768032074
1478,81300.0,0.5410895943641663,-9.648633003234863,-0.3986345827579498
1479,81400.0,0.5410895943641663,-9.648633003234863,-0.3986345827579498
1480,81500.0,0.6733692288398743,-9.622296333312988,-0.3956418335437775
1481,81600.0,0.6733692288398743,-9.622296333312988,-0.3956418335437775
1482,81700.0,0.2370259612798691,-9.651625633239746,-0.4890156984329224
1483,81800.0,0.2370259612798691,-9.651625633239746,-0.4890156984329224
1484,81900.0,0.6811503767967224,-9.588777542114258,-0.3567360639572144
1485,82000.0,0.25498247146606445,-9.591172218322754,-0.28131869435310364
1486,82100.0,0.25498247146606445,-9.591172218322754,-0.28131869435310364
1487,82200.0,0.4920084476470947,-9.607931137084961,-0.3866635859012604
1488,82300.0,0.4920084476470947,-9.607931137084961,-0.3866635859012604
1489,82400.0,0.4746504724025726,-9.63187313079834,-0.30945056676864624
1490,82500.0,0.4746504724025726,-9.63187313079834,-0.30945056676864624
1491,82600.0,0.5692214369773865,-9.62828254699707,-0.314238965511322
1492,82700.0,0.5692214369773865,-9.62828254699707,-0.314238965511322
1493,82800.0,0.4866214990615845,-9.627683639526367,-0.5321113467216492
1494,82900.0,0.4141969084739685,-9.673172950744627,-0.3124433159828186
1495,83000.0,0.4141969084739685,-9.673172950744627,-0.3124433159828186
1496,83100.0,0.568622887134552,-9.649829864501953,-0.30047231912612915
1497,83200.0,0.568622887134552,-9.649829864501953,-0.30047231912612915
1498,83300.0,0.6111199855804443,-9.65222454071045,-0.5752069354057312
1499,83400.0,0.6111199855804443,-9.65222454071045,-0.5752069354057312
1500,82000.0,0.25498247146606445,-9.591172218322754,-0.28131869435310364
1501,82100.0,0.25498247146606445,-9.591172218322754,-0.28131869435310364
1502,82200.0,0.4920084476470947,-9.607931137084961,-0.3866635859012604
1503,82300.0,0.4920084476470947,-9.607931137084961,-0.3866635859012604
1504,82400.0,0.4746504724025726,-9.63187313079834,-0.30945056676864624
1505,82500.0,0.4746504724025726,-9.63187313079834,-0.30945056676864624
1506,82600.0,0.5692214369773865,-9.62828254699707,-0.314238965511322
1507,82700.0,0.5692214369773865,-9.62828254699707,-0.314238965511322
1508,82800.0,0.4866214990615845,-9.627683639526367,-0.5321113467216492
1509,82900.0,0.4141969084739685,-9.673172950744627,-0.3124433159828186
1510,83000.0,0.4141969084739685,-9.673172950744627,-0.3124433159828186
1511,83100.0,0.568622887134552,-9.649829864501953,-0.30047231912612915
1512,83200.0,0.568622887134552,-9.649829864501953,-0.30047231912612915
1513,83300.0,0.6111199855804443,-9.65222454071045,-0.5752069354057312
1514,83400.0,0.6111199855804443,-9.65222454071045,-0.5752069354057312
1515,83500.0,0.3286041915416717,-9.617507934570312,-0.4770447015762329
1516,83600.0,0.3286041915416717,-9.617507934570312,-0.4770447015762329
1517,83700.0,0.6093243360519409,-9.627683639526367,-0.4058171808719635
1518,83800.0,0.4321534037590027,-9.622296333312988,-0.38367083668708796
1519,83900.0,0.4321534037590027,-9.622296333312988,-0.38367083668708796
1520,84000.0,0.4602852761745453,-9.608530044555664,-0.4345476031303406
1521,84100.0,0.4602852761745453,-9.608530044555664,-0.4345476031303406
1522,84200.0,0.5033808946609497,-9.608530044555664,-0.507570743560791
1523,84300.0,0.5033808946609497,-9.608530044555664,-0.507570743560791
1524,84400.0,0.6177040338516235,-9.622895240783693,-0.4303577542304993
1525,84500.0,0.6177040338516235,-9.622895240783693,-0.4303577542304993
1526,84600.0,0.5105634927749634,-9.619902610778807,-0.4985924959182739
1527,84700.0,0.5416881442070007,-9.61870574951172,-0.3854664862155914
1528,84800.0,0.5416881442070007,-9.61870574951172,-0.3854664862155914
1529,84900.0,0.4106055796146393,-9.66539192199707,-0.4746504724025726
1530,83500.0,0.3286041915416717,-9.617507934570312,-0.4770447015762329
1531,83600.0,0.3286041915416717,-9.617507934570312,-0.4770447015762329
1532,83700.0,0.6093243360519409,-9.627683639526367,-0.4058171808719635
1533,83800.0,0.4321534037590027,-9.622296333312988,-0.38367083668708796
1534,83900.0,0.4321534037590027,-9.622296333312988,-0.38367083668708796
1535,84000.0,0.4602852761745453,-9.608530044555664,-0.4345476031303406
1536,84100.0,0.4602852761745453,-9.608530044555664,-0.4345476031303406
1537,84200.0,0.5033808946609497,-9.608530044555664,-0.507570743560791
1538,84300.0,0.5033808946609497,-9.608530044555664,-0.507570743560791
1539,84400.0,0.6177040338516235,-9.622895240783693,-0.4303577542304993
1540,84500.0,0.6177040338516235,-9.622895240783693,-0.4303577542304993
1541,84600.0,0.5105634927749634,-9.619902610778807,-0.4985924959182739
1542,84700.0,0.5416881442070007,-9.61870574951172,-0.3854664862155914
1543,84800.0,0.5416881442070007,-9.61870574951172,-0.3854664862155914
1544,84900.0,0.4106055796146393,-9.66539192199707,-0.4746504724025726
1545,85000.0,0.4106055796146393,-9.66539192199707,-0.4746504724025726
1546,85100.0,0.5123591423034668,-9.592967987060547,-0.4878185987472534
1547,85200.0,0.5123591423034668,-9.592967987060547,-0.4878185987472534
1548,85300.0,0.6919242739677429,-9.647436141967773,-0.3956418335437775
1549,85400.0,0.6919242739677429,-9.647436141967773,-0.3956418335437775
1550,85500.0,0.5261258482933044,-9.61331844329834,-0.6272808313369751
1551,85600.0,0.7212532758712769,-9.607931137084961,-0.3902548849582672
1552,85700.0,0.7212532758712769,-9.607931137084961,-0.3902548849582672
1553,85800.0,0.2477998733520508,-9.66419506072998,-0.5303156971931458
1554,85900.0,0.2477998733520508,-9.66419506072998,-0.5303156971931458
1555,86000.0,0.6344634294509888,-9.64803409576416,-0.5219359993934631
1556,86100.0,0.6344634294509888,-9.64803409576416,-0.5219359993934631
1557,86200.0,0.5626373887062073,-9.628880500793457,-0.4824316501617432
1558,86300.0,0.5626373887062073,-9.628880500793457,-0.4824316501617432
1559,86400.0,0.5500678420066833,-9.625288963317873,-0.656609833240509
1560,85000.0,0.4106055796146393,-9.66539192199707,-0.4746504724025726
1561,85100.0,0.5123591423034668,-9.592967987060547,-0.4878185987472534
1562,85200.0,0.5123591423034668,-9.592967987060547,-0.4878185987472534
1563,85300.0,0.6919242739677429,-9.647436141967773,-0.3956418335437775
1564,85400.0,0.6919242739677429,-9.647436141967773,-0.3956418335437775
1565,85500.0,0.5261258482933044,-9.61331844329834,-0.6272808313369751
1566,85600.0,0.7212532758712769,-9.607931137084961,-0.3902548849582672
1567,85700.0,0.7212532758712769,-9.607931137084961,-0.3902548849582672
1568,85800.0,0.2477998733520508,-9.66419506072998,-0.5303156971931458
1569,85900.0,0.2477998733520508,-9.66419506072998,-0.5303156971931458
1570,86000.0,0.6344634294509888,-9.64803409576416,-0.5219359993934631
1571,86100.0,0.6344634294509888,-9.64803409576416,-0.5219359993934631
1572,86200.0,0.5626373887062073,-9.628880500793457,-0.4824316501617432
1573,86300.0,0.5626373887062073,-9.628880500793457,-0.4824316501617432
1574,86400.0,0.5500678420066833,-9.625288963317873,-0.656609833240509
1575,86500.0,0.4955997467041016,-9.651026725769043,-0.4124012291431427
1576,86600.0,0.4955997467041016,-9.651026725769043,-0.4124012291431427
1577,86700.0,0.7763199210166931,-9.635464668273926,-0.414795458316803
1578,86800.0,0.7763199210166931,-9.635464668273926,-0.414795458316803
1579,86900.0,0.3423708379268646,-9.634267807006836,-0.4782418012619018
1580,87000.0,0.3423708379268646,-9.634267807006836,-0.4782418012619018
1581,87100.0,0.7577648162841797,-9.599552154541016,-0.545877993106842
1582,87200.0,0.7577648162841797,-9.599552154541016,-0.545877993106842
1583,87300.0,0.44532153010368347,-9.656414031982422,-0.5099649429321289
1584,87400.0,0.21607670187950132,-9.600749015808104,-0.4590881764888763
1585,87500.0,0.21607670187950132,-9.600749015808104,-0.4590881764888763
1586,87600.0,0.7080851793289185,-9.63067626953125,-0.4770447015762329
1587,87700.0,0.7080851793289185,-9.63067626953125,-0.4770447015762329
1588,87800.0,0.7092822790145874,-9.63187313079834,-0.3854664862155914
1589,87900.0,0.7092822790145874,-9.63187313079834,-0.3854664862155914
1590,86500.0,0.4955997467041016,-9.651026725769043,-0.4124012291431427
1591,86600.0,0.4955997467041016,-9.651026725769043,-0.4124012291431427
1592,86700.0,0.7763199210166931,-9.635464668273926,-0.414795458316803
1593,86800.0,0.7763199210166931,-9.635464668273926,-0.414795458316803
1594,86900.0,0.3423708379268646,-9.634267807006836,-0.4782418012619018
1595,87000.0,0.3423708379268646,-9.634267807006836,-0.4782418012619018
1596,87100.0,0.7577648162841797,-9.599552154541016,-0.545877993106842
1597,87200.0,0.7577648162841797,-9.599552154541016,-0.545877993106842
1598,87300.0,0.44532153010368347,-9.656414031982422,-0.5099649429321289
1599,87400.0,0.21607670187950132,-9.600749015808104,-0.4590881764888763
1600,87500.0,0.21607670187950132,-9.600749015808104,-0.4590881764888763
1601,87600.0,0.7080851793289185,-9.63067626953125,-0.4770447015762329
1602,87700.0,0.7080851793289185,-9.63067626953125,-0.4770447015762329
1603,87800.0,0.7092822790145874,-9.63187313079834,-0.3854664862155914
1604,87900.0,0.7092822790145874,-9.63187313079834,-0.3854664862155914
1605,88000.0,0.3806780576705933,-9.621698379516602,-0.5015852451324463
1606,88100.0,0.3806780576705933,-9.621698379516602,-0.5015852451324463
1607,88200.0,0.3513490855693817,-9.6803560256958,-0.4405331015586853
1608,88300.0,0.6997054219245911,-9.63067626953125,-0.5925649404525757
1609,88400.0,0.6997054219245911,-9.63067626953125,-0.5925649404525757
1610,88500.0,0.4800374507904053,-9.604938507080078,-0.4692635238170624
1611,88600.0,0.4800374507904053,-9.604938507080078,-0.4692635238170624
1612,88700.0,0.5464765429496765,-9.658209800720217,-0.4201824069023132
1613,88800.0,0.5464765429496765,-9.658209800720217,-0.4201824069023132
1614,88900.0,0.6548141837120056,-9.627683639526367,-0.4465186297893524
1615,89000.0,0.6548141837120056,-9.627683639526367,-0.4465186297893524
1616,89100.0,0.5632359385490417,-9.986215591430664,-0.7439981698989868
1617,89200.0,0.6326677799224854,-9.626486778259276,-0.4782418012619018
1618,89300.0,0.6326677799224854,-9.626486778259276,-0.4782418012619018
1619,89400.0,0.4626794755458832,-9.666589736938477,-0.5339069962501526
1620,88000.0,0.3806780576705933,-9.621698379516602,-0.5015852451324463
1621,88100.0,0.3806780576705933,-9.621698379516602,-0.5015852451324463
1622,88200.0,0.3513490855693817,-9.6803560256958,-0.4405331015586853
1623,88300.0,0.6997054219245911,-9.63067626953125,-0.5925649404525757
1624,88400.0,0.6997054219245911,-9.63067626953125,-0.5925649404525757
1625,88500.0,0.4800374507904053,-9.604938507080078,-0.4692635238170624
1626,88600.0,0.4800374507904053,-9.604938507080078,-0.4692635238170624
1627,88700.0,0.5464765429496765,-9.658209800720217,-0.4201824069023132
1628,88800.0,0.5464765429496765,-9.658209800720217,-0.4201824069023132
1629,88900.0,0.6548141837120056,-9.627683639526367,-0.4465186297893524
1630,89000.0,0.6548141837120056,-9.627683639526367,-0.4465186297893524
1631,89100.0,0.5632359385490417,-9.986215591430664,-0.7439981698989868
1632,89200.0,0.6326677799224854,-9.626486778259276,-0.4782418012619018
1633,89300.0,0.6326677799224854,-9.626486778259276,-0.4782418012619018
1634,89400.0,0.4626794755458832,-9.666589736938477,-0.5339069962501526
1635,89500.0,0.4626794755458832,-9.666589736938477,-0.5339069962501526
1636,89600.0,0.7080851793289185,-9.621698379516602,-0.5434837937355042
1637,89700.0,0.7080851793289185,-9.621698379516602,-0.5434837937355042
1638,89800.0,0.5051765441894531,-9.657012939453123,-0.5746083855628967
1639,89900.0,0.5051765441894531,-9.657012939453123,-0.5746083855628967
1640,90000.0,0.5488707423210144,-9.63726043701172,-0.7068880796432495
1641,90100.0,0.465073674917221,-9.63726043701172,-0.6865373253822327
1642,90200.0,0.465073674917221,-9.63726043701172,-0.6865373253822327
1643,90300.0,0.6685808300971985,-9.658807754516602,-0.5770025849342346
1644,90400.0,0.6685808300971985,-9.658807754516602,-0.5770025849342346
1645,90500.0,0.4938040971755981,-9.642048835754396,-0.6751648783683777
1646,90600.0,0.4938040971755981,-9.642048835754396,-0.6751648783683777
1647,90700.0,0.7846996188163757,-9.613917350769043,-0.6189011335372925
1648,90800.0,0.7846996188163757,-9.613917350769043,-0.6189011335372925
1649,90900.0,0.4620809257030487,-9.66539192199707,-0.7218518257141113
1650,89500.0,0.4626794755458832,-9.666589736938477,-0.5339069962501526
1651,89600.0,0.7080851793289185,-9.621698379516602,-0.5434837937355042
1652,89700.0,0.7080851793289185,-9.621698379516602,-0.5434837937355042
1653,89800.0,0.5051765441894531,-9.657012939453123,-0.5746083855628967
1654,89900.0,0.5051765441894531,-9.657012939453123,-0.5746083855628967
1655,90000.0,0.5488707423210144,-9.63726043701172,-0.7068880796432495
1656,90100.0,0.465073674917221,-9.63726043701172,-0.6865373253822327
1657,90200.0,0.465073674917221,-9.63726043701172,-0.6865373253822327
1658,90300.0,0.6685808300971985,-9.658807754516602,-0.5770025849342346
1659,90400.0,0.6685808300971985,-9.658807754516602,-0.5770025849342346
1660,90500.0,0.4938040971755981,-9.642048835754396,-0.6751648783683777
1661,90600.0,0.4938040971755981,-9.642048835754396,-0.6751648783683777
1662,90700.0,0.7846996188163757,-9.613917350769043,-0.6189011335372925
1663,90800.0,0.7846996188163757,-9.613917350769043,-0.6189011335372925
1664,90900.0,0.4620809257030487,-9.66539192199707,-0.7218518257141113
1665,91000.0,0.7098808288574219,-9.641449928283693,-0.5722141861915588
1666,91100.0,0.7098808288574219,-9.641449928283693,-0.5722141861915588
1667,91200.0,0.4525041282176971,-9.667187690734863,-0.5985504388809204
1668,91300.0,0.4525041282176971,-9.667187690734863,-0.5985504388809204
1669,91400.0,0.5716156363487244,-9.625288963317873,-0.5416881442070007
1670,91500.0,0.5716156363487244,-9.625288963317873,-0.5416881442070007
1671,91600.0,0.272938996553421,-9.706692695617676,-0.3369838893413544
1672,91700.0,0.272938996553421,-9.706692695617676,-0.3369838893413544
1673,91800.0,0.6470330357551575,-9.697713851928713,-0.395043283700943
1674,91900.0,0.4040215313434601,-9.626486778259276,-0.5207388401031494
1675,92000.0,0.4040215313434601,-9.626486778259276,-0.5207388401031494
1676,92100.0,0.6446388363838196,-9.624691009521484,-0.5752069354057312
1677,92200.0,0.6446388363838196,-9.624691009521484,-0.5752069354057312
1678,92300.0,0.6733692288398743,-9.57321548461914,-0.3699041604995728
1679,92400.0,0.6733692288398743,-9.57321548461914,-0.3699041604995728
1680,91000.0,0.7098808288574219,-9.641449928283693,-0.5722141861915588
1681,91100.0,0.7098808288574219,-9.641449928283693,-0.5722141861915588
1682,91200.0,0.4525041282176971,-9.667187690734863,-0.5985504388809204
1683,91300.0,0.4525041282176971,-9.667187690734863,-0.5985504388809204
1684,91400.0,0.5716156363487244,-9.625288963317873,-0.5416881442070007
1685,91500.0,0.5716156363487244,-9.625288963317873,-0.5416881442070007
1686,91600.0,0.272938996553421,-9.706692695617676,-0.3369838893413544
1687,91700.0,0.272938996553421,-9.706692695617676,-0.3369838893413544
1688,91800.0,0.6470330357551575,-9.697713851928713,-0.395043283700943
1689,91900.0,0.4040215313434601,-9.626486778259276,-0.5207388401031494
1690,92000.0,0.4040215313434601,-9.626486778259276,-0.5207388401031494
1691,92100.0,0.6446388363838196,-9.624691009521484,-0.5752069354057312
1692,92200.0,0.6446388363838196,-9.624691009521484,-0.5752069354057312
1693,92300.0,0.6733692288398743,-9.57321548461914,-0.3699041604995728
1694,92400.0,0.6733692288398743,-9.57321548461914,-0.3699041604995728
1695,92500.0,0.13587094843387604,-9.652822494506836,-0.1628057211637497
1696,92600.0,0.13587094843387604,-9.652822494506836,-0.1628057211637497
1697,92700.0,1.0324994325637815,-9.575610160827637,-0.487220048904419
1698,92800.0,0.6476315855979919,-9.601346969604492,-0.4327519536018372
1699,92900.0,0.6476315855979919,-9.601346969604492,-0.4327519536018372
1700,93000.0,0.2477998733520508,-9.643245697021484,-0.3806780576705933
1701,93100.0,0.2477998733520508,-9.643245697021484,-0.3806780576705933
1702,93200.0,0.6260837316513062,-9.615114212036133,-0.4381389021873474
1703,93300.0,0.6260837316513062,-9.615114212036133,-0.4381389021873474
1704,93400.0,0.4776432514190674,-9.632472038269043,-0.26815059781074524
1705,93500.0,0.4776432514190674,-9.632472038269043,-0.26815059781074524
1706,93600.0,0.5883750915527344,-9.671378135681152,-0.10594342648983003
