,timestamp,ax,ay,az
0,7000.0,-14.261221885681152,2.682354211807251,2.3162522315979004
1,7100.0,-14.261221885681152,2.682354211807251,2.3162522315979004
2,7200.0,-14.261221885681152,2.682354211807251,2.3162522315979004
3,7300.0,-14.261221885681152,2.682354211807251,2.3162522315979004
4,7400.0,-7.81974458694458,3.5605196952819824,-4.019941806793213
5,7500.0,-7.81974458694458,3.5605196952819824,-4.019941806793213
6,7600.0,-7.81974458694458,3.5605196952819824,-4.019941806793213
7,7700.0,-12.43310546875,2.914458036422729,1.6965112686157229
8,7800.0,-12.43310546875,2.914458036422729,1.6965112686157229
9,7900.0,-7.0444698333740225,-0.01914258114993572,-5.218745708465576
10,8000.0,-7.0444698333740225,-0.01914258114993572,-5.218745708465576
11,8100.0,-7.0444698333740225,-0.01914258114993572,-5.218745708465576
12,8200.0,-0.7992027401924133,-5.2115678787231445,-8.286344528198242
13,8300.0,-0.7992027401924133,-5.2115678787231445,-8.286344528198242
14,8400.0,-4.6851468086242685,-2.919243574142456,-7.374679565429687
15,8500.0,-4.6851468086242685,-2.919243574142456,-7.374679565429687
16,8600.0,-1.7706886529922483,-6.0538411140441895,-8.434700012207031
17,8700.0,-1.7706886529922483,-6.0538411140441895,-8.434700012207031
18,8800.0,-3.335594892501831,-4.1730828285217285,-6.836294651031494
19,8900.0,-3.335594892501831,-4.1730828285217285,-6.836294651031494
20,8000.0,-7.0444698333740225,-0.01914258114993572,-5.218745708465576
21,8100.0,-7.0444698333740225,-0.01914258114993572,-5.218745708465576
22,8200.0,-0.7992027401924133,-5.2115678787231445,-8.286344528198242
23,8300.0,-0.7992027401924133,-5.2115678787231445,-8.286344528198242
24,8400.0,-4.6851468086242685,-2.919243574142456,-7.374679565429687
25,8500.0,-4.6851468086242685,-2.919243574142456,-7.374679565429687
26,8600.0,-1.7706886529922483,-6.0538411140441895,-8.434700012207031
27,8700.0,-1.7706886529922483,-6.0538411140441895,-8.434700012207031
28,8800.0,-3.335594892501831,-4.1730828285217285,-6.836294651031494
29,8900.0,-3.335594892501831,-4.1730828285217285,-6.836294651031494
30,9000.0,-3.335594892501831,-4.1730828285217285,-6.836294651031494
31,9100.0,-1.7324036359786987,7.534998416900635,-5.209175109863281
32,9200.0,-1.7324036359786987,7.534998416900635,-5.209175109863281
33,9300.0,-2.421536445617676,6.781259536743164,-13.418950080871582
34,9400.0,-2.421536445617676,6.781259536743164,-13.418950080871582
35,9500.0,-2.421536445617676,6.781259536743164,-13.418950080871582
36,9600.0,-9.66221809387207,3.160918712615967,3.0149567127227783
37,9700.0,-9.66221809387207,3.160918712615967,3.0149567127227783
38,9800.0,-10.686346054077148,0.16031910479068756,3.0460631847381587
39,9900.0,-10.686346054077148,0.16031910479068756,3.0460631847381587
40,9000.0,-3.335594892501831,-4.1730828285217285,-6.836294651031494
41,9100.0,-1.7324036359786987,7.534998416900635,-5.209175109863281
42,9200.0,-1.7324036359786987,7.534998416900635,-5.209175109863281
43,9300.0,-2.421536445617676,6.781259536743164,-13.418950080871582
44,9400.0,-2.421536445617676,6.781259536743164,-13.418950080871582
45,9500.0,-2.421536445617676,6.781259536743164,-13.418950080871582
46,9600.0,-9.66221809387207,3.160918712615967,3.0149567127227783
47,9700.0,-9.66221809387207,3.160918712615967,3.0149567127227783
48,9800.0,-10.686346054077148,0.16031910479068756,3.0460631847381587
49,9900.0,-10.686346054077148,0.16031910479068756,3.0460631847381587
50,10000.0,-5.1014976501464835,7.728816509246826,-10.403992652893066
51,10100.0,-5.1014976501464835,7.728816509246826,-10.403992652893066
52,10200.0,-5.1014976501464835,7.728816509246826,-10.403992652893066
53,10300.0,-5.37906551361084,7.068397998809815,-12.366107940673828
54,10400.0,-5.37906551361084,7.068397998809815,-12.366107940673828
55,10500.0,-7.948956489562987,4.122833251953125,-5.331209182739258
56,10600.0,-7.948956489562987,4.122833251953125,-5.331209182739258
57,10700.0,-13.87358570098877,-0.21296121180057528,8.45862865447998
58,10800.0,-13.87358570098877,-0.21296121180057528,8.45862865447998
59,10900.0,-13.87358570098877,-0.21296121180057528,8.45862865447998
60,10000.0,-5.1014976501464835,7.728816509246826,-10.403992652893066
61,10100.0,-5.1014976501464835,7.728816509246826,-10.403992652893066
62,10200.0,-5.1014976501464835,7.728816509246826,-10.403992652893066
63,10300.0,-5.37906551361084,7.068397998809815,-12.366107940673828
64,10400.0,-5.37906551361084,7.068397998809815,-12.366107940673828
65,10500.0,-7.948956489562987,4.122833251953125,-5.331209182739258
66,10600.0,-7.948956489562987,4.122833251953125,-5.331209182739258
67,10700.0,-13.87358570098877,-0.21296121180057528,8.45862865447998
68,10800.0,-13.87358570098877,-0.21296121180057528,8.45862865447998
69,10900.0,-13.87358570098877,-0.21296121180057528,8.45862865447998
70,11000.0,-13.66301727294922,1.7252250909805298,6.099304676055907
71,11100.0,-13.66301727294922,1.7252250909805298,6.099304676055907
72,11200.0,-9.087940216064453,-0.03589234128594398,-1.430907964706421
73,11300.0,-9.087940216064453,-0.03589234128594398,-1.430907964706421
74,11400.0,-11.0835542678833,6.470191955566406,-12.07179069519043
75,11500.0,-11.0835542678833,6.470191955566406,-12.07179069519043
76,11600.0,-11.0835542678833,6.470191955566406,-12.07179069519043
77,11700.0,-10.389636039733887,-3.5365920066833496,-14.25404453277588
78,11800.0,-10.389636039733887,-3.5365920066833496,-14.25404453277588
79,11900.0,-13.35673713684082,0.5479563474655151,-7.5254268646240225
80,11000.0,-13.66301727294922,1.7252250909805298,6.099304676055907
81,11100.0,-13.66301727294922,1.7252250909805298,6.099304676055907
82,11200.0,-9.087940216064453,-0.03589234128594398,-1.430907964706421
83,11300.0,-9.087940216064453,-0.03589234128594398,-1.430907964706421
84,11400.0,-11.0835542678833,6.470191955566406,-12.07179069519043
85,11500.0,-11.0835542678833,6.470191955566406,-12.07179069519043
86,11600.0,-11.0835542678833,6.470191955566406,-12.07179069519043
87,11700.0,-10.389636039733887,-3.5365920066833496,-14.25404453277588
88,11800.0,-10.389636039733887,-3.5365920066833496,-14.25404453277588
89,11900.0,-13.35673713684082,0.5479563474655151,-7.5254268646240225
90,12000.0,-13.35673713684082,0.5479563474655151,-7.5254268646240225
91,12100.0,-16.094125747680664,3.0963122844696045,-9.449256896972656
92,12200.0,-16.094125747680664,3.0963122844696045,-9.449256896972656
93,12300.0,-5.661418437957764,-1.641476273536682,-0.055034920573234565
94,12400.0,-5.661418437957764,-1.641476273536682,-0.055034920573234565
95,12500.0,-5.297709465026856,-2.8498516082763667,-2.062613010406494
96,12600.0,-5.297709465026856,-2.8498516082763667,-2.062613010406494
97,12700.0,-5.297709465026856,-2.8498516082763667,-2.062613010406494
98,12800.0,-8.633303642272951,-0.07657032459974289,-3.259024381637573
99,12900.0,-8.633303642272951,-0.07657032459974289,-3.259024381637573
100,12000.0,-13.35673713684082,0.5479563474655151,-7.5254268646240225
101,12100.0,-16.094125747680664,3.0963122844696045,-9.449256896972656
102,12200.0,-16.094125747680664,3.0963122844696045,-9.449256896972656
103,12300.0,-5.661418437957764,-1.641476273536682,-0.055034920573234565
104,12400.0,-5.661418437957764,-1.641476273536682,-0.055034920573234565
105,12500.0,-5.297709465026856,-2.8498516082763667,-2.062613010406494
106,12600.0,-5.297709465026856,-2.8498516082763667,-2.062613010406494
107,12700.0,-5.297709465026856,-2.8498516082763667,-2.062613010406494
108,12800.0,-8.633303642272951,-0.07657032459974289,-3.259024381637573
109,12900.0,-8.633303642272951,-0.07657032459974289,-3.259024381637573
110,13000.0,-9.221939086914062,1.9525433778762815,1.6342979669570925
111,13100.0,-9.221939086914062,1.9525433778762815,1.6342979669570925
112,13200.0,-2.7900311946868896,10.717452049255373,-14.026725769042967
113,13300.0,-2.7900311946868896,10.717452049255373,-14.026725769042967
114,13400.0,-2.445464611053467,9.131011009216307,-13.914262771606445
115,13500.0,-2.445464611053467,9.131011009216307,-13.914262771606445
116,13600.0,-3.273381233215332,7.0923261642456055,-10.954340934753418
117,13700.0,-3.273381233215332,7.0923261642456055,-10.954340934753418
118,13800.0,-3.273381233215332,7.0923261642456055,-10.954340934753418
119,13900.0,-4.7712883949279785,7.994420051574707,-8.188239097595215
120,13000.0,-9.221939086914062,1.9525433778762815,1.6342979669570925
121,13100.0,-9.221939086914062,1.9525433778762815,1.6342979669570925
122,13200.0,-2.7900311946868896,10.717452049255373,-14.026725769042967
123,13300.0,-2.7900311946868896,10.717452049255373,-14.026725769042967
124,13400.0,-2.445464611053467,9.131011009216307,-13.914262771606445
125,13500.0,-2.445464611053467,9.131011009216307,-13.914262771606445
126,13600.0,-3.273381233215332,7.0923261642456055,-10.954340934753418
127,13700.0,-3.273381233215332,7.0923261642456055,-10.954340934753418
128,13800.0,-3.273381233215332,7.0923261642456055,-10.954340934753418
129,13900.0,-4.7712883949279785,7.994420051574707,-8.188239097595215
130,14000.0,-4.7712883949279785,7.994420051574707,-8.188239097595215
131,14100.0,-12.87817096710205,-2.304288148880005,7.0133628845214835
132,14200.0,-12.87817096710205,-2.304288148880005,7.0133628845214835
133,14300.0,-8.791230201721191,-0.6652047038078308,2.5292134284973145
134,14400.0,-8.791230201721191,-0.6652047038078308,2.5292134284973145
135,14500.0,-8.791230201721191,-0.6652047038078308,2.5292134284973145
136,14600.0,-9.4660062789917,2.65842604637146,0.48574298620224
137,14700.0,-9.4660062789917,2.65842604637146,0.48574298620224
138,14800.0,-1.7706886529922483,12.337392807006836,-15.86441421508789
139,14900.0,-1.7706886529922483,12.337392807006836,-15.86441421508789
140,14000.0,-4.7712883949279785,7.994420051574707,-8.188239097595215
141,14100.0,-12.87817096710205,-2.304288148880005,7.0133628845214835
142,14200.0,-12.87817096710205,-2.304288148880005,7.0133628845214835
143,14300.0,-8.791230201721191,-0.6652047038078308,2.5292134284973145
144,14400.0,-8.791230201721191,-0.6652047038078308,2.5292134284973145
145,14500.0,-8.791230201721191,-0.6652047038078308,2.5292134284973145
146,14600.0,-9.4660062789917,2.65842604637146,0.48574298620224
147,14700.0,-9.4660062789917,2.65842604637146,0.48574298620224
148,14800.0,-1.7706886529922483,12.337392807006836,-15.86441421508789
149,14900.0,-1.7706886529922483,12.337392807006836,-15.86441421508789
150,15000.0,-7.015756130218506,5.879165172576903,-4.29750919342041
151,15100.0,-7.015756130218506,5.879165172576903,-4.29750919342041
152,15200.0,-7.015756130218506,5.879165172576903,-4.29750919342041
153,15300.0,-4.651647090911865,5.55852746963501,-11.200803756713867
154,15400.0,-4.651647090911865,5.55852746963501,-11.200803756713867
155,15500.0,-10.470992088317873,0.4354937374591827,-12.770493507385256
156,15600.0,-10.470992088317873,0.4354937374591827,-12.770493507385256
157,15700.0,-9.973284721374512,-6.424728870391847,-10.466205596923828
158,15800.0,-9.973284721374512,-6.424728870391847,-10.466205596923828
159,15900.0,-9.973284721374512,-6.424728870391847,-10.466205596923828
160,15000.0,-7.015756130218506,5.879165172576903,-4.29750919342041
161,15100.0,-7.015756130218506,5.879165172576903,-4.29750919342041
162,15200.0,-7.015756130218506,5.879165172576903,-4.29750919342041
163,15300.0,-4.651647090911865,5.55852746963501,-11.200803756713867
164,15400.0,-4.651647090911865,5.55852746963501,-11.200803756713867
165,15500.0,-10.470992088317873,0.4354937374591827,-12.770493507385256
166,15600.0,-10.470992088317873,0.4354937374591827,-12.770493507385256
167,15700.0,-9.973284721374512,-6.424728870391847,-10.466205596923828
168,15800.0,-9.973284721374512,-6.424728870391847,-10.466205596923828
169,15900.0,-9.973284721374512,-6.424728870391847,-10.466205596923828
170,16000.0,-4.106083393096924,-1.4907284975051882,3.9529430866241455
171,16100.0,-4.106083393096924,-1.4907284975051882,3.9529430866241455
172,16200.0,-3.7902309894561768,-0.2919243574142456,5.343173027038574
173,16300.0,-3.7902309894561768,-0.2919243574142456,5.343173027038574
174,16400.0,-5.187639236450195,-1.1820544004440308,-0.19621144235134125
175,16500.0,-5.187639236450195,-1.1820544004440308,-0.19621144235134125
176,16600.0,-5.187639236450195,-1.1820544004440308,-0.19621144235134125
177,16700.0,-6.9583282470703125,-4.101297855377196,-9.329615592956543
178,16800.0,-6.9583282470703125,-4.101297855377196,-9.329615592956543
179,16900.0,-3.3068809509277344,-3.488735675811768,-11.229516983032227
180,16000.0,-4.106083393096924,-1.4907284975051882,3.9529430866241455
181,16100.0,-4.106083393096924,-1.4907284975051882,3.9529430866241455
182,16200.0,-3.7902309894561768,-0.2919243574142456,5.343173027038574
183,16300.0,-3.7902309894561768,-0.2919243574142456,5.343173027038574
184,16400.0,-5.187639236450195,-1.1820544004440308,-0.19621144235134125
185,16500.0,-5.187639236450195,-1.1820544004440308,-0.19621144235134125
186,16600.0,-5.187639236450195,-1.1820544004440308,-0.19621144235134125
187,16700.0,-6.9583282470703125,-4.101297855377196,-9.329615592956543
188,16800.0,-6.9583282470703125,-4.101297855377196,-9.329615592956543
189,16900.0,-3.3068809509277344,-3.488735675811768,-11.229516983032227
190,17000.0,-3.3068809509277344,-3.488735675811768,-11.229516983032227
191,17100.0,-3.3786656856536865,3.235095977783203,-6.410372257232666
192,17200.0,-3.3786656856536865,3.235095977783203,-6.410372257232666
193,17300.0,-3.3786656856536865,3.235095977783203,-6.410372257232666
194,17400.0,-3.2446675300598145,4.266402721405028,-10.24606704711914
195,17500.0,-3.2446675300598145,4.266402721405028,-10.24606704711914
196,17600.0,-3.565305471420288,4.603790760040283,-15.617953300476074
197,17700.0,-3.565305471420288,4.603790760040283,-15.617953300476074
198,17800.0,-5.072784423828125,1.0360921621322632,2.0362920761108403
199,17900.0,-5.072784423828125,1.0360921621322632,2.0362920761108403
200,17000.0,-3.3068809509277344,-3.488735675811768,-11.229516983032227
201,17100.0,-3.3786656856536865,3.235095977783203,-6.410372257232666
202,17200.0,-3.3786656856536865,3.235095977783203,-6.410372257232666
203,17300.0,-3.3786656856536865,3.235095977783203,-6.410372257232666
204,17400.0,-3.2446675300598145,4.266402721405028,-10.24606704711914
205,17500.0,-3.2446675300598145,4.266402721405028,-10.24606704711914
206,17600.0,-3.565305471420288,4.603790760040283,-15.617953300476074
207,17700.0,-3.565305471420288,4.603790760040283,-15.617953300476074
208,17800.0,-5.072784423828125,1.0360921621322632,2.0362920761108403
209,17900.0,-5.072784423828125,1.0360921621322632,2.0362920761108403
210,18000.0,-5.072784423828125,1.0360921621322632,2.0362920761108403
211,18100.0,-7.939385414123535,3.2829525470733643,0.5288137793540955
212,18200.0,-7.939385414123535,3.2829525470733643,0.5288137793540955
213,18300.0,-12.830314636230467,1.6223337650299072,2.761317014694214
214,18400.0,-12.830314636230467,1.6223337650299072,2.761317014694214
215,18500.0,-14.53400421142578,0.16031910479068756,4.484149932861328
216,18600.0,-14.53400421142578,0.16031910479068756,4.484149932861328
217,18700.0,-14.53400421142578,0.16031910479068756,4.484149932861328
218,18800.0,-13.46201992034912,0.7872385978698729,2.711068153381348
219,18900.0,-13.46201992034912,0.7872385978698729,2.711068153381348
220,18000.0,-5.072784423828125,1.0360921621322632,2.0362920761108403
221,18100.0,-7.939385414123535,3.2829525470733643,0.5288137793540955
222,18200.0,-7.939385414123535,3.2829525470733643,0.5288137793540955
223,18300.0,-12.830314636230467,1.6223337650299072,2.761317014694214
224,18400.0,-12.830314636230467,1.6223337650299072,2.761317014694214
225,18500.0,-14.53400421142578,0.16031910479068756,4.484149932861328
226,18600.0,-14.53400421142578,0.16031910479068756,4.484149932861328
227,18700.0,-14.53400421142578,0.16031910479068756,4.484149932861328
228,18800.0,-13.46201992034912,0.7872385978698729,2.711068153381348
229,18900.0,-13.46201992034912,0.7872385978698729,2.711068153381348
230,19000.0,-11.600403785705565,1.5864413976669312,0.48574298620224
231,19100.0,-11.600403785705565,1.5864413976669312,0.48574298620224
232,19200.0,-11.739187240600586,2.0434706211090092,1.1222338676452637
233,19300.0,-11.739187240600586,2.0434706211090092,1.1222338676452637
234,19400.0,-7.23589563369751,5.697310447692871,-0.2943171858787537
235,19500.0,-7.23589563369751,5.697310447692871,-0.2943171858787537
236,19600.0,-7.23589563369751,5.697310447692871,-0.2943171858787537
237,19700.0,-5.905486583709718,5.319244384765625,-1.117448091506958
238,19800.0,-5.905486583709718,5.319244384765625,-1.117448091506958
239,19900.0,-4.914857387542725,5.383851051330566,-1.6606187820434568
240,19000.0,-11.600403785705565,1.5864413976669312,0.48574298620224
241,19100.0,-11.600403785705565,1.5864413976669312,0.48574298620224
242,19200.0,-11.739187240600586,2.0434706211090092,1.1222338676452637
243,19300.0,-11.739187240600586,2.0434706211090092,1.1222338676452637
244,19400.0,-7.23589563369751,5.697310447692871,-0.2943171858787537
245,19500.0,-7.23589563369751,5.697310447692871,-0.2943171858787537
246,19600.0,-7.23589563369751,5.697310447692871,-0.2943171858787537
247,19700.0,-5.905486583709718,5.319244384765625,-1.117448091506958
248,19800.0,-5.905486583709718,5.319244384765625,-1.117448091506958
249,19900.0,-4.914857387542725,5.383851051330566,-1.6606187820434568
250,20000.0,-4.914857387542725,5.383851051330566,-1.6606187820434568
251,20100.0,-4.914857387542725,5.383851051330566,-1.6606187820434568
252,20200.0,-3.8237307071685787,7.3531436920166025,-2.902493953704834
253,20300.0,-3.8237307071685787,7.3531436920166025,-2.902493953704834
254,20400.0,-12.198609352111815,2.7349963188171387,1.7682960033416748
255,20500.0,-12.198609352111815,2.7349963188171387,1.7682960033416748
256,20600.0,-14.940784454345705,2.620140790939331,2.9240293502807617
257,20700.0,-14.940784454345705,2.620140790939331,2.9240293502807617
258,20800.0,-10.52363395690918,3.25663161277771,0.0263210479170084
259,20900.0,-10.52363395690918,3.25663161277771,0.0263210479170084
260,20000.0,-4.914857387542725,5.383851051330566,-1.6606187820434568
261,20100.0,-4.914857387542725,5.383851051330566,-1.6606187820434568
262,20200.0,-3.8237307071685787,7.3531436920166025,-2.902493953704834
263,20300.0,-3.8237307071685787,7.3531436920166025,-2.902493953704834
264,20400.0,-12.198609352111815,2.7349963188171387,1.7682960033416748
265,20500.0,-12.198609352111815,2.7349963188171387,1.7682960033416748
266,20600.0,-14.940784454345705,2.620140790939331,2.9240293502807617
267,20700.0,-14.940784454345705,2.620140790939331,2.9240293502807617
268,20800.0,-10.52363395690918,3.25663161277771,0.0263210479170084
269,20900.0,-10.52363395690918,3.25663161277771,0.0263210479170084
270,21000.0,-10.52363395690918,3.25663161277771,0.0263210479170084
271,21100.0,-5.005784511566162,5.790630340576173,-1.6534404754638672
272,21200.0,-5.005784511566162,5.790630340576173,-1.6534404754638672
273,21300.0,-3.259024381637573,7.142575740814209,-3.0269205570220947
274,21400.0,-3.259024381637573,7.142575740814209,-3.0269205570220947
275,21500.0,-3.259024381637573,7.142575740814209,-3.0269205570220947
276,21600.0,-12.447463035583494,1.9884356260299685,3.507878065109253
277,21700.0,-12.447463035583494,1.9884356260299685,3.507878065109253
278,21800.0,-10.75813102722168,-0.04307081177830696,-3.716053485870361
279,21900.0,-10.75813102722168,-0.04307081177830696,-3.716053485870361
280,21000.0,-10.52363395690918,3.25663161277771,0.0263210479170084
281,21100.0,-5.005784511566162,5.790630340576173,-1.6534404754638672
282,21200.0,-5.005784511566162,5.790630340576173,-1.6534404754638672
283,21300.0,-3.259024381637573,7.142575740814209,-3.0269205570220947
284,21400.0,-3.259024381637573,7.142575740814209,-3.0269205570220947
285,21500.0,-3.259024381637573,7.142575740814209,-3.0269205570220947
286,21600.0,-12.447463035583494,1.9884356260299685,3.507878065109253
287,21700.0,-12.447463035583494,1.9884356260299685,3.507878065109253
288,21800.0,-10.75813102722168,-0.04307081177830696,-3.716053485870361
289,21900.0,-10.75813102722168,-0.04307081177830696,-3.716053485870361
290,22000.0,-10.571491241455078,-0.2847459018230438,-3.1274189949035645
291,22100.0,-10.571491241455078,-0.2847459018230438,-3.1274189949035645
292,22200.0,-13.174880981445312,0.8781659603118896,0.5168496966362001
293,22300.0,-13.174880981445312,0.8781659603118896,0.5168496966362001
294,22400.0,-8.389235496520996,-0.8135597109794617,-4.505684852600098
295,22500.0,-8.389235496520996,-0.8135597109794617,-4.505684852600098
296,22600.0,-6.57547664642334,-0.8590233325958252,-5.450850009918213
297,22700.0,-6.57547664642334,-0.8590233325958252,-5.450850009918213
298,22800.0,-6.57547664642334,-0.8590233325958252,-5.450850009918213
299,22900.0,-6.360122680664063,-0.6005984544754028,-6.010770320892334
300,22000.0,-10.571491241455078,-0.2847459018230438,-3.1274189949035645
301,22100.0,-10.571491241455078,-0.2847459018230438,-3.1274189949035645
302,22200.0,-13.174880981445312,0.8781659603118896,0.5168496966362001
303,22300.0,-13.174880981445312,0.8781659603118896,0.5168496966362001
304,22400.0,-8.389235496520996,-0.8135597109794617,-4.505684852600098
305,22500.0,-8.389235496520996,-0.8135597109794617,-4.505684852600098
306,22600.0,-6.57547664642334,-0.8590233325958252,-5.450850009918213
307,22700.0,-6.57547664642334,-0.8590233325958252,-5.450850009918213
308,22800.0,-6.57547664642334,-0.8590233325958252,-5.450850009918213
309,22900.0,-6.360122680664063,-0.6005984544754028,-6.010770320892334
310,23000.0,-6.360122680664063,-0.6005984544754028,-6.010770320892334
311,23100.0,-7.264609336853027,0.7274181246757507,-4.713860511779785
312,23200.0,-7.264609336853027,0.7274181246757507,-4.713860511779785
313,23300.0,-7.264609336853027,0.7274181246757507,-4.713860511779785
314,23400.0,-2.5986053943634038,-2.0147566795349117,-5.5345988273620605
315,23500.0,-2.5986053943634038,-2.0147566795349117,-5.5345988273620605
316,23600.0,4.67078971862793,2.3545374870300293,-3.7016968727111816
317,23700.0,4.67078971862793,2.3545374870300293,-3.7016968727111816
318,23800.0,2.033899307250977,0.7130610942840576,-4.919642925262451
319,23900.0,2.033899307250977,0.7130610942840576,-4.919642925262451
320,23000.0,-6.360122680664063,-0.6005984544754028,-6.010770320892334
321,23100.0,-7.264609336853027,0.7274181246757507,-4.713860511779785
322,23200.0,-7.264609336853027,0.7274181246757507,-4.713860511779785
323,23300.0,-7.264609336853027,0.7274181246757507,-4.713860511779785
324,23400.0,-2.5986053943634038,-2.0147566795349117,-5.5345988273620605
325,23500.0,-2.5986053943634038,-2.0147566795349117,-5.5345988273620605
326,23600.0,4.67078971862793,2.3545374870300293,-3.7016968727111816
327,23700.0,4.67078971862793,2.3545374870300293,-3.7016968727111816
328,23800.0,2.033899307250977,0.7130610942840576,-4.919642925262451
329,23900.0,2.033899307250977,0.7130610942840576,-4.919642925262451
330,24000.0,-0.30149564146995544,0.17706887423992154,-4.3238306045532235
331,24100.0,-0.30149564146995544,0.17706887423992154,-4.3238306045532235
332,24200.0,-0.30149564146995544,0.17706887423992154,-4.3238306045532235
333,24300.0,-2.5076780319213867,1.430907964706421,-3.273381233215332
334,24400.0,-2.5076780319213867,1.430907964706421,-3.273381233215332
335,24500.0,-8.303093910217285,1.3663017749786377,-0.7513462901115417
336,24600.0,-8.303093910217285,1.3663017749786377,-0.7513462901115417
337,24700.0,-18.597017288208008,7.0851478576660165,-1.3782659769058228
338,24800.0,-18.597017288208008,7.0851478576660165,-1.3782659769058228
339,24900.0,-18.597017288208008,7.0851478576660165,-1.3782659769058228
340,24000.0,-0.30149564146995544,0.17706887423992154,-4.3238306045532235
341,24100.0,-0.30149564146995544,0.17706887423992154,-4.3238306045532235
342,24200.0,-0.30149564146995544,0.17706887423992154,-4.3238306045532235
343,24300.0,-2.5076780319213867,1.430907964706421,-3.273381233215332
344,24400.0,-2.5076780319213867,1.430907964706421,-3.273381233215332
345,24500.0,-8.303093910217285,1.3663017749786377,-0.7513462901115417
346,24600.0,-8.303093910217285,1.3663017749786377,-0.7513462901115417
347,24700.0,-18.597017288208008,7.0851478576660165,-1.3782659769058228
348,24800.0,-18.597017288208008,7.0851478576660165,-1.3782659769058228
349,24900.0,-18.597017288208008,7.0851478576660165,-1.3782659769058228
350,25000.0,-18.597017288208008,7.929814338684082,1.550549030303955
351,25100.0,-18.597017288208008,7.929814338684082,1.550549030303955
352,25200.0,-16.271194458007812,8.420342445373535,1.3878371715545654
353,25300.0,-16.271194458007812,8.420342445373535,1.3878371715545654
354,25400.0,-15.783059120178224,8.750552177429201,0.25842484831810003
355,25500.0,-15.783059120178224,8.750552177429201,0.25842484831810003
356,25600.0,-15.783059120178224,8.750552177429201,0.25842484831810003
357,25700.0,-24.172292709350586,3.7256247997283936,-1.107876896858215
358,25800.0,-24.172292709350586,3.7256247997283936,-1.107876896858215
359,25900.0,-18.17109489440918,4.615755081176758,-3.5054850578308105
360,25000.0,-18.597017288208008,7.929814338684082,1.550549030303955
361,25100.0,-18.597017288208008,7.929814338684082,1.550549030303955
362,25200.0,-16.271194458007812,8.420342445373535,1.3878371715545654
363,25300.0,-16.271194458007812,8.420342445373535,1.3878371715545654
364,25400.0,-15.783059120178224,8.750552177429201,0.25842484831810003
365,25500.0,-15.783059120178224,8.750552177429201,0.25842484831810003
366,25600.0,-15.783059120178224,8.750552177429201,0.25842484831810003
367,25700.0,-24.172292709350586,3.7256247997283936,-1.107876896858215
368,25800.0,-24.172292709350586,3.7256247997283936,-1.107876896858215
369,25900.0,-18.17109489440918,4.615755081176758,-3.5054850578308105
370,26000.0,-18.17109489440918,4.615755081176758,-3.5054850578308105
371,26100.0,-11.00698471069336,0.7441678047180176,-5.106283187866211
372,26200.0,-11.00698471069336,0.7441678047180176,-5.106283187866211
373,26300.0,-11.00698471069336,0.7441678047180176,-5.106283187866211
374,26400.0,-5.235496044158936,-1.727617859840393,-4.326223373413087
375,26500.0,-5.235496044158936,-1.727617859840393,-4.326223373413087
376,26600.0,-9.619147300720217,2.3018953800201416,-6.199803352355957
377,26700.0,-9.619147300720217,2.3018953800201416,-6.199803352355957
378,26800.0,-2.857030153274536,3.44327163696289,-4.555934429168701
379,26900.0,-2.857030153274536,3.44327163696289,-4.555934429168701
380,26000.0,-18.17109489440918,4.615755081176758,-3.5054850578308105
381,26100.0,-11.00698471069336,0.7441678047180176,-5.106283187866211
382,26200.0,-11.00698471069336,0.7441678047180176,-5.106283187866211
383,26300.0,-11.00698471069336,0.7441678047180176,-5.106283187866211
384,26400.0,-5.235496044158936,-1.727617859840393,-4.326223373413087
385,26500.0,-5.235496044158936,-1.727617859840393,-4.326223373413087
386,26600.0,-9.619147300720217,2.3018953800201416,-6.199803352355957
387,26700.0,-9.619147300720217,2.3018953800201416,-6.199803352355957
388,26800.0,-2.857030153274536,3.44327163696289,-4.555934429168701
389,26900.0,-2.857030153274536,3.44327163696289,-4.555934429168701
390,27000.0,-2.857030153274536,3.44327163696289,-4.555934429168701
391,27100.0,-3.828516006469727,7.793423175811768,-2.2396819591522217
392,27200.0,-3.828516006469727,7.793423175811768,-2.2396819591522217
393,27300.0,-5.862415313720702,6.161518096923827,-3.1992037296295166
394,27400.0,-5.862415313720702,6.161518096923827,-3.1992037296295166
395,27500.0,-2.3976082801818848,7.231109619140625,-4.431507587432861
396,27600.0,-2.3976082801818848,7.231109619140625,-4.431507587432861
397,27700.0,-2.3976082801818848,7.231109619140625,-4.431507587432861
398,27800.0,1.2969098091125488,6.917649745941162,-3.462414264678955
399,27900.0,1.2969098091125488,6.917649745941162,-3.462414264678955
400,27000.0,-2.857030153274536,3.44327163696289,-4.555934429168701
401,27100.0,-3.828516006469727,7.793423175811768,-2.2396819591522217
402,27200.0,-3.828516006469727,7.793423175811768,-2.2396819591522217
403,27300.0,-5.862415313720702,6.161518096923827,-3.1992037296295166
404,27400.0,-5.862415313720702,6.161518096923827,-3.1992037296295166
405,27500.0,-2.3976082801818848,7.231109619140625,-4.431507587432861
406,27600.0,-2.3976082801818848,7.231109619140625,-4.431507587432861
407,27700.0,-2.3976082801818848,7.231109619140625,-4.431507587432861
408,27800.0,1.2969098091125488,6.917649745941162,-3.462414264678955
409,27900.0,1.2969098091125488,6.917649745941162,-3.462414264678955
410,28000.0,-12.098111152648926,7.668996810913086,1.3399806022644043
411,28100.0,-12.098111152648926,7.668996810913086,1.3399806022644043
412,28200.0,-15.974482536315918,6.010770320892334,5.606383323669434
413,28300.0,-15.974482536315918,6.010770320892334,5.606383323669434
414,28400.0,-12.409178733825685,4.153940200805663,1.3040882349014282
415,28500.0,-12.409178733825685,4.153940200805663,1.3040882349014282
416,28600.0,-12.409178733825685,4.153940200805663,1.3040882349014282
417,28700.0,-8.078168869018555,8.403593063354492,-1.7156537771224976
418,28800.0,-8.078168869018555,8.403593063354492,-1.7156537771224976
419,28900.0,-10.37527847290039,0.4666004180908203,-4.299902439117432
420,28000.0,-12.098111152648926,7.668996810913086,1.3399806022644043
421,28100.0,-12.098111152648926,7.668996810913086,1.3399806022644043
422,28200.0,-15.974482536315918,6.010770320892334,5.606383323669434
423,28300.0,-15.974482536315918,6.010770320892334,5.606383323669434
424,28400.0,-12.409178733825685,4.153940200805663,1.3040882349014282
425,28500.0,-12.409178733825685,4.153940200805663,1.3040882349014282
426,28600.0,-12.409178733825685,4.153940200805663,1.3040882349014282
427,28700.0,-8.078168869018555,8.403593063354492,-1.7156537771224976
428,28800.0,-8.078168869018555,8.403593063354492,-1.7156537771224976
429,28900.0,-10.37527847290039,0.4666004180908203,-4.299902439117432
430,29000.0,-10.37527847290039,0.4666004180908203,-4.299902439117432
431,29100.0,-2.89052963256836,3.665804386138916,-8.10688304901123
432,29200.0,-2.89052963256836,3.665804386138916,-8.10688304901123
433,29300.0,-2.89052963256836,3.665804386138916,-8.10688304901123
434,29400.0,-7.666603565216064,3.5198421478271484,-3.0005996227264404
435,29500.0,-7.666603565216064,3.5198421478271484,-3.0005996227264404
436,29600.0,-10.25563907623291,5.31685209274292,-1.804188132286072
437,29700.0,-10.25563907623291,5.31685209274292,-1.804188132286072
438,29800.0,-8.403593063354492,3.768695831298828,0.11724831163883208
439,29900.0,-8.403593063354492,3.768695831298828,0.11724831163883208
440,29000.0,-10.37527847290039,0.4666004180908203,-4.299902439117432
441,29100.0,-2.89052963256836,3.665804386138916,-8.10688304901123
442,29200.0,-2.89052963256836,3.665804386138916,-8.10688304901123
443,29300.0,-2.89052963256836,3.665804386138916,-8.10688304901123
444,29400.0,-7.666603565216064,3.5198421478271484,-3.0005996227264404
445,29500.0,-7.666603565216064,3.5198421478271484,-3.0005996227264404
446,29600.0,-10.25563907623291,5.31685209274292,-1.804188132286072
447,29700.0,-10.25563907623291,5.31685209274292,-1.804188132286072
448,29800.0,-8.403593063354492,3.768695831298828,0.11724831163883208
449,29900.0,-8.403593063354492,3.768695831298828,0.11724831163883208
450,30000.0,-8.403593063354492,3.768695831298828,0.11724831163883208
451,30100.0,-14.409578323364258,4.479363918304443,4.730610370635986
452,30200.0,-14.409578323364258,4.479363918304443,4.730610370635986
453,30300.0,-16.11326789855957,1.2227323055267334,4.484149932861328
454,30400.0,-16.11326789855957,1.2227323055267334,4.484149932861328
455,30500.0,-6.436692714691162,5.118247985839844,-2.033899307250977
456,30600.0,-6.436692714691162,5.118247985839844,-2.033899307250977
457,30700.0,-13.811371803283693,4.876572608947754,5.12303352355957
458,30800.0,-13.811371803283693,4.876572608947754,5.12303352355957
459,30900.0,-13.811371803283693,4.876572608947754,5.12303352355957
460,30000.0,-8.403593063354492,3.768695831298828,0.11724831163883208
461,30100.0,-14.409578323364258,4.479363918304443,4.730610370635986
462,30200.0,-14.409578323364258,4.479363918304443,4.730610370635986
463,30300.0,-16.11326789855957,1.2227323055267334,4.484149932861328
464,30400.0,-16.11326789855957,1.2227323055267334,4.484149932861328
465,30500.0,-6.436692714691162,5.118247985839844,-2.033899307250977
466,30600.0,-6.436692714691162,5.118247985839844,-2.033899307250977
467,30700.0,-13.811371803283693,4.876572608947754,5.12303352355957
468,30800.0,-13.811371803283693,4.876572608947754,5.12303352355957
469,30900.0,-13.811371803283693,4.876572608947754,5.12303352355957
470,31000.0,-15.136996269226074,-0.3661018908023834,6.903293132781982
471,31100.0,-15.136996269226074,-0.3661018908023834,6.903293132781982
472,31200.0,-12.897314071655273,2.84506630897522,4.910072326660156
473,31300.0,-12.897314071655273,2.84506630897522,4.910072326660156
474,31400.0,-7.6522464752197275,7.317252159118652,2.565105676651001
475,31500.0,-7.6522464752197275,7.317252159118652,2.565105676651001
476,31600.0,-7.6522464752197275,7.317252159118652,2.565105676651001
477,31700.0,-3.751945972442627,9.19561767578125,-2.6560330390930176
478,31800.0,-3.751945972442627,9.19561767578125,-2.6560330390930176
479,31900.0,-5.570490837097168,-5.039284706115723,0.4091726541519165
480,31000.0,-15.136996269226074,-0.3661018908023834,6.903293132781982
481,31100.0,-15.136996269226074,-0.3661018908023834,6.903293132781982
482,31200.0,-12.897314071655273,2.84506630897522,4.910072326660156
483,31300.0,-12.897314071655273,2.84506630897522,4.910072326660156
484,31400.0,-7.6522464752197275,7.317252159118652,2.565105676651001
485,31500.0,-7.6522464752197275,7.317252159118652,2.565105676651001
486,31600.0,-7.6522464752197275,7.317252159118652,2.565105676651001
487,31700.0,-3.751945972442627,9.19561767578125,-2.6560330390930176
488,31800.0,-3.751945972442627,9.19561767578125,-2.6560330390930176
489,31900.0,-5.570490837097168,-5.039284706115723,0.4091726541519165
490,32000.0,-5.570490837097168,-5.039284706115723,0.4091726541519165
491,32100.0,-0.7752745151519775,-2.71346116065979,5.627918720245361
492,32200.0,-0.7752745151519775,-2.71346116065979,5.627918720245361
493,32300.0,-1.727617859840393,-1.6965112686157229,6.367300987243652
494,32400.0,-1.727617859840393,-1.6965112686157229,6.367300987243652
495,32500.0,-1.727617859840393,-1.6965112686157229,6.367300987243652
496,32600.0,-1.459621787071228,0.5359922647476196,9.150154113769533
497,32700.0,-1.459621787071228,0.5359922647476196,9.150154113769533
498,32800.0,-3.4983065128326416,-3.8213374614715576,-0.8685945868492126
499,32900.0,-3.4983065128326416,-3.8213374614715576,-0.8685945868492126
500,32000.0,-5.570490837097168,-5.039284706115723,0.4091726541519165
501,32100.0,-0.7752745151519775,-2.71346116065979,5.627918720245361
502,32200.0,-0.7752745151519775,-2.71346116065979,5.627918720245361
503,32300.0,-1.727617859840393,-1.6965112686157229,6.367300987243652
504,32400.0,-1.727617859840393,-1.6965112686157229,6.367300987243652
505,32500.0,-1.727617859840393,-1.6965112686157229,6.367300987243652
506,32600.0,-1.459621787071228,0.5359922647476196,9.150154113769533
507,32700.0,-1.459621787071228,0.5359922647476196,9.150154113769533
508,32800.0,-3.4983065128326416,-3.8213374614715576,-0.8685945868492126
509,32900.0,-3.4983065128326416,-3.8213374614715576,-0.8685945868492126
510,33000.0,-3.4983065128326416,-3.8213374614715576,-0.8685945868492126
511,33100.0,-5.871986389160156,-7.39860725402832,-13.727622985839846
512,33200.0,-5.871986389160156,-7.39860725402832,-13.727622985839846
513,33300.0,-8.60459041595459,-5.924628734588622,-15.256637573242188
514,33400.0,-8.60459041595459,-5.924628734588622,-15.256637573242188
515,33500.0,-5.192424774169922,-7.544569969177246,-15.692131042480467
516,33600.0,-5.192424774169922,-7.544569969177246,-15.692131042480467
517,33700.0,-4.479363918304443,-3.5581274032592773,-1.0911270380020142
518,33800.0,-4.479363918304443,-3.5581274032592773,-1.0911270380020142
519,33900.0,-4.479363918304443,-3.5581274032592773,-1.0911270380020142
520,33000.0,-3.4983065128326416,-3.8213374614715576,-0.8685945868492126
521,33100.0,-5.871986389160156,-7.39860725402832,-13.727622985839846
522,33200.0,-5.871986389160156,-7.39860725402832,-13.727622985839846
523,33300.0,-8.60459041595459,-5.924628734588622,-15.256637573242188
524,33400.0,-8.60459041595459,-5.924628734588622,-15.256637573242188
525,33500.0,-5.192424774169922,-7.544569969177246,-15.692131042480467
526,33600.0,-5.192424774169922,-7.544569969177246,-15.692131042480467
527,33700.0,-4.479363918304443,-3.5581274032592773,-1.0911270380020142
528,33800.0,-4.479363918304443,-3.5581274032592773,-1.0911270380020142
529,33900.0,-4.479363918304443,-3.5581274032592773,-1.0911270380020142
530,34000.0,-7.99681282043457,0.2488535493612289,-1.588834285736084
531,34100.0,-7.99681282043457,0.2488535493612289,-1.588834285736084
532,34200.0,-10.825129508972168,-1.765903115272522,-6.671189785003662
533,34300.0,-10.825129508972168,-1.765903115272522,-6.671189785003662
534,34400.0,-10.825129508972168,-1.765903115272522,-6.671189785003662
535,34500.0,-14.261221885681152,4.3166518211364755,-8.796016693115233
536,34600.0,-14.261221885681152,4.3166518211364755,-8.796016693115233
537,34700.0,-14.615361213684082,4.266402721405028,-9.812965393066406
538,34800.0,-14.615361213684082,4.266402721405028,-9.812965393066406
539,34900.0,-9.69093132019043,3.8572301864624015,-4.993820667266847
540,34000.0,-7.99681282043457,0.2488535493612289,-1.588834285736084
541,34100.0,-7.99681282043457,0.2488535493612289,-1.588834285736084
542,34200.0,-10.825129508972168,-1.765903115272522,-6.671189785003662
543,34300.0,-10.825129508972168,-1.765903115272522,-6.671189785003662
544,34400.0,-10.825129508972168,-1.765903115272522,-6.671189785003662
545,34500.0,-14.261221885681152,4.3166518211364755,-8.796016693115233
546,34600.0,-14.261221885681152,4.3166518211364755,-8.796016693115233
547,34700.0,-14.615361213684082,4.266402721405028,-9.812965393066406
548,34800.0,-14.615361213684082,4.266402721405028,-9.812965393066406
549,34900.0,-9.69093132019043,3.8572301864624015,-4.993820667266847
550,35000.0,-9.69093132019043,3.8572301864624015,-4.993820667266847
551,35100.0,-9.69093132019043,3.8572301864624015,-4.993820667266847
552,35200.0,-9.504291534423828,4.3166518211364755,-5.5106706619262695
553,35300.0,-9.504291534423828,4.3166518211364755,-5.5106706619262695
554,35400.0,-7.001399040222168,5.37906551361084,-11.933006286621096
555,35500.0,-7.001399040222168,5.37906551361084,-11.933006286621096
556,35600.0,-3.579662799835205,6.10169792175293,-10.631311416625977
557,35700.0,-3.579662799835205,6.10169792175293,-10.631311416625977
558,35800.0,-3.579662799835205,6.10169792175293,-10.631311416625977
559,35900.0,-13.42852020263672,3.1178479194641118,2.71346116065979
560,35000.0,-9.69093132019043,3.8572301864624015,-4.993820667266847
561,35100.0,-9.69093132019043,3.8572301864624015,-4.993820667266847
562,35200.0,-9.504291534423828,4.3166518211364755,-5.5106706619262695
563,35300.0,-9.504291534423828,4.3166518211364755,-5.5106706619262695
564,35400.0,-7.001399040222168,5.37906551361084,-11.933006286621096
565,35500.0,-7.001399040222168,5.37906551361084,-11.933006286621096
566,35600.0,-3.579662799835205,6.10169792175293,-10.631311416625977
567,35700.0,-3.579662799835205,6.10169792175293,-10.631311416625977
568,35800.0,-3.579662799835205,6.10169792175293,-10.631311416625977
569,35900.0,-13.42852020263672,3.1178479194641118,2.71346116065979
570,36000.0,-13.42852020263672,3.1178479194641118,2.71346116065979
571,36100.0,-15.294922828674315,1.6390833854675293,3.4672000408172607
572,36200.0,-15.294922828674315,1.6390833854675293,3.4672000408172607
573,36300.0,-12.710674285888672,3.500699520111084,-0.969093143939972
574,36400.0,-12.710674285888672,3.500699520111084,-0.969093143939972
575,36500.0,-12.710674285888672,3.500699520111084,-0.969093143939972
576,36600.0,-5.331209182739258,-3.2853453159332275,-1.1892328262329102
577,36700.0,-5.331209182739258,-3.2853453159332275,-1.1892328262329102
578,36800.0,-2.8043880462646484,-5.024927616119385,1.916650891304016
579,36900.0,-2.8043880462646484,-5.024927616119385,1.916650891304016
580,36000.0,-13.42852020263672,3.1178479194641118,2.71346116065979
581,36100.0,-15.294922828674315,1.6390833854675293,3.4672000408172607
582,36200.0,-15.294922828674315,1.6390833854675293,3.4672000408172607
583,36300.0,-12.710674285888672,3.500699520111084,-0.969093143939972
584,36400.0,-12.710674285888672,3.500699520111084,-0.969093143939972
585,36500.0,-12.710674285888672,3.500699520111084,-0.969093143939972
586,36600.0,-5.331209182739258,-3.2853453159332275,-1.1892328262329102
587,36700.0,-5.331209182739258,-3.2853453159332275,-1.1892328262329102
588,36800.0,-2.8043880462646484,-5.024927616119385,1.916650891304016
589,36900.0,-2.8043880462646484,-5.024927616119385,1.916650891304016
590,37000.0,-4.852644443511963,-6.013163089752197,1.4859429597854614
591,37100.0,-4.852644443511963,-6.013163089752197,1.4859429597854614
592,37200.0,-4.852644443511963,-6.013163089752197,1.4859429597854614
593,37300.0,-12.05504035949707,-1.7443678379058838,-5.0201416015625
594,37400.0,-12.05504035949707,-1.7443678379058838,-5.0201416015625
595,37500.0,-8.394021987915039,-4.19701099395752,-2.12961220741272
596,37600.0,-8.394021987915039,-4.19701099395752,-2.12961220741272
597,37700.0,-7.508677005767822,-3.2997026443481445,-3.7328033447265625
598,37800.0,-7.508677005767822,-3.2997026443481445,-3.7328033447265625
599,37900.0,-1.9238293170928955,0.35892340540885925,-9.66939640045166
600,37000.0,-4.852644443511963,-6.013163089752197,1.4859429597854614
601,37100.0,-4.852644443511963,-6.013163089752197,1.4859429597854614
602,37200.0,-4.852644443511963,-6.013163089752197,1.4859429597854614
603,37300.0,-12.05504035949707,-1.7443678379058838,-5.0201416015625
604,37400.0,-12.05504035949707,-1.7443678379058838,-5.0201416015625
605,37500.0,-8.394021987915039,-4.19701099395752,-2.12961220741272
606,37600.0,-8.394021987915039,-4.19701099395752,-2.12961220741272
607,37700.0,-7.508677005767822,-3.2997026443481445,-3.7328033447265625
608,37800.0,-7.508677005767822,-3.2997026443481445,-3.7328033447265625
609,37900.0,-1.9238293170928955,0.35892340540885925,-9.66939640045166
610,38000.0,-1.9238293170928955,0.35892340540885925,-9.66939640045166
611,38100.0,-1.9238293170928955,0.35892340540885925,-9.66939640045166
612,38200.0,-2.234896183013916,5.204389572143555,-12.593424797058105
613,38300.0,-2.234896183013916,5.204389572143555,-12.593424797058105
614,38400.0,-5.292923927307129,4.0414772033691415,-8.784051895141603
615,38500.0,-5.292923927307129,4.0414772033691415,-8.784051895141603
616,38600.0,-5.292923927307129,4.0414772033691415,-8.784051895141603
617,38700.0,-6.766902446746826,4.867001533508301,-2.900100946426392
618,38800.0,-6.766902446746826,4.867001533508301,-2.900100946426392
619,38900.0,-5.536991596221924,5.783452033996582,-8.690732002258299
620,38000.0,-1.9238293170928955,0.35892340540885925,-9.66939640045166
621,38100.0,-1.9238293170928955,0.35892340540885925,-9.66939640045166
622,38200.0,-2.234896183013916,5.204389572143555,-12.593424797058105
623,38300.0,-2.234896183013916,5.204389572143555,-12.593424797058105
624,38400.0,-5.292923927307129,4.0414772033691415,-8.784051895141603
625,38500.0,-5.292923927307129,4.0414772033691415,-8.784051895141603
626,38600.0,-5.292923927307129,4.0414772033691415,-8.784051895141603
627,38700.0,-6.766902446746826,4.867001533508301,-2.900100946426392
628,38800.0,-6.766902446746826,4.867001533508301,-2.900100946426392
629,38900.0,-5.536991596221924,5.783452033996582,-8.690732002258299
630,39000.0,-5.536991596221924,5.783452033996582,-8.690732002258299
631,39100.0,-14.701501846313475,2.3186452388763428,4.9387855529785165
632,39200.0,-14.701501846313475,2.3186452388763428,4.9387855529785165
633,39300.0,-14.66800308227539,3.804587841033936,5.197210788726807
634,39400.0,-14.66800308227539,3.804587841033936,5.197210788726807
635,39500.0,-14.66800308227539,3.804587841033936,5.197210788726807
636,39600.0,-7.441678524017334,5.041677951812744,-0.9308080077171326
637,39700.0,-7.441678524017334,5.041677951812744,-0.9308080077171326
638,39800.0,-5.637490272521973,6.096912384033202,-7.487142086029053
639,39900.0,-5.637490272521973,6.096912384033202,-7.487142086029053
640,39000.0,-5.536991596221924,5.783452033996582,-8.690732002258299
641,39100.0,-14.701501846313475,2.3186452388763428,4.9387855529785165
642,39200.0,-14.701501846313475,2.3186452388763428,4.9387855529785165
643,39300.0,-14.66800308227539,3.804587841033936,5.197210788726807
644,39400.0,-14.66800308227539,3.804587841033936,5.197210788726807
645,39500.0,-14.66800308227539,3.804587841033936,5.197210788726807
646,39600.0,-7.441678524017334,5.041677951812744,-0.9308080077171326
647,39700.0,-7.441678524017334,5.041677951812744,-0.9308080077171326
648,39800.0,-5.637490272521973,6.096912384033202,-7.487142086029053
649,39900.0,-5.637490272521973,6.096912384033202,-7.487142086029053
650,40000.0,-9.116654396057127,-4.194617748260498,-14.024333000183105
651,40100.0,-9.116654396057127,-4.194617748260498,-14.024333000183105
652,40200.0,-9.116654396057127,-4.194617748260498,-14.024333000183105
653,40300.0,-15.232709884643555,0.7393822073936462,-12.184252738952635
654,40400.0,-15.232709884643555,0.7393822073936462,-12.184252738952635
655,40500.0,-16.87418556213379,1.4045867919921875,-11.181660652160645
656,40600.0,-16.87418556213379,1.4045867919921875,-11.181660652160645
657,40700.0,-14.58186149597168,4.1563329696655265,-10.03549861907959
658,40800.0,-14.58186149597168,4.1563329696655265,-10.03549861907959
659,40900.0,-14.58186149597168,4.1563329696655265,-10.03549861907959
660,40000.0,-9.116654396057127,-4.194617748260498,-14.024333000183105
661,40100.0,-9.116654396057127,-4.194617748260498,-14.024333000183105
662,40200.0,-9.116654396057127,-4.194617748260498,-14.024333000183105
663,40300.0,-15.232709884643555,0.7393822073936462,-12.184252738952635
664,40400.0,-15.232709884643555,0.7393822073936462,-12.184252738952635
665,40500.0,-16.87418556213379,1.4045867919921875,-11.181660652160645
666,40600.0,-16.87418556213379,1.4045867919921875,-11.181660652160645
667,40700.0,-14.58186149597168,4.1563329696655265,-10.03549861907959
668,40800.0,-14.58186149597168,4.1563329696655265,-10.03549861907959
669,40900.0,-14.58186149597168,4.1563329696655265,-10.03549861907959
670,41000.0,-12.978670120239258,3.907479047775269,-9.205188751220703
671,41100.0,-12.978670120239258,3.907479047775269,-9.205188751220703
672,41200.0,-13.46201992034912,2.407179594039917,-9.820144653320312
673,41300.0,-13.46201992034912,2.407179594039917,-9.820144653320312
674,41400.0,-12.42832088470459,3.902693748474121,-10.224532127380373
675,41500.0,-12.42832088470459,3.902693748474121,-10.224532127380373
676,41600.0,-12.42832088470459,3.902693748474121,-10.224532127380373
677,41700.0,-12.748958587646484,8.432307243347168,-11.373086929321287
678,41800.0,-12.748958587646484,8.432307243347168,-11.373086929321287
679,41900.0,-12.179466247558596,3.768695831298828,-10.126425743103027
680,41000.0,-12.978670120239258,3.907479047775269,-9.205188751220703
681,41100.0,-12.978670120239258,3.907479047775269,-9.205188751220703
682,41200.0,-13.46201992034912,2.407179594039917,-9.820144653320312
683,41300.0,-13.46201992034912,2.407179594039917,-9.820144653320312
684,41400.0,-12.42832088470459,3.902693748474121,-10.224532127380373
685,41500.0,-12.42832088470459,3.902693748474121,-10.224532127380373
686,41600.0,-12.42832088470459,3.902693748474121,-10.224532127380373
687,41700.0,-12.748958587646484,8.432307243347168,-11.373086929321287
688,41800.0,-12.748958587646484,8.432307243347168,-11.373086929321287
689,41900.0,-12.179466247558596,3.768695831298828,-10.126425743103027
690,42000.0,-12.179466247558596,3.768695831298828,-10.126425743103027
691,42100.0,-7.28375244140625,-2.7804601192474365,-6.812366485595702
692,42200.0,-7.28375244140625,-2.7804601192474365,-6.812366485595702
693,42300.0,-3.2542388439178467,-1.727617859840393,-11.803793907165527
694,42400.0,-3.2542388439178467,-1.727617859840393,-11.803793907165527
695,42500.0,-3.2542388439178467,-1.727617859840393,-11.803793907165527
696,42600.0,-6.939186096191406,-2.321038007736206,-7.542177200317383
697,42700.0,-6.939186096191406,-2.321038007736206,-7.542177200317383
698,42800.0,-2.0817556381225586,-0.4498506784439087,-8.267202377319336
699,42900.0,-2.0817556381225586,-0.4498506784439087,-8.267202377319336
700,42000.0,-12.179466247558596,3.768695831298828,-10.126425743103027
701,42100.0,-7.28375244140625,-2.7804601192474365,-6.812366485595702
702,42200.0,-7.28375244140625,-2.7804601192474365,-6.812366485595702
703,42300.0,-3.2542388439178467,-1.727617859840393,-11.803793907165527
704,42400.0,-3.2542388439178467,-1.727617859840393,-11.803793907165527
705,42500.0,-3.2542388439178467,-1.727617859840393,-11.803793907165527
706,42600.0,-6.939186096191406,-2.321038007736206,-7.542177200317383
707,42700.0,-6.939186096191406,-2.321038007736206,-7.542177200317383
708,42800.0,-2.0817556381225586,-0.4498506784439087,-8.267202377319336
709,42900.0,-2.0817556381225586,-0.4498506784439087,-8.267202377319336
710,43000.0,-8.461020469665527,3.4672000408172607,-4.7234320640563965
711,43100.0,-8.461020469665527,3.4672000408172607,-4.7234320640563965
712,43200.0,-15.132209777832033,5.259423732757568,-2.062613010406494
713,43300.0,-15.132209777832033,5.259423732757568,-2.062613010406494
714,43400.0,-4.058227062225342,2.1966111660003658,-7.747959613800049
715,43500.0,-4.058227062225342,2.1966111660003658,-7.747959613800049
716,43600.0,-4.058227062225342,2.1966111660003658,-7.747959613800049
717,43700.0,-4.7712883949279785,3.759124279022217,-5.852844715118407
718,43800.0,-4.7712883949279785,3.759124279022217,-5.852844715118407
719,43900.0,-8.791230201721191,2.868994235992432,-4.108476161956787
720,43000.0,-8.461020469665527,3.4672000408172607,-4.7234320640563965
721,43100.0,-8.461020469665527,3.4672000408172607,-4.7234320640563965
722,43200.0,-15.132209777832033,5.259423732757568,-2.062613010406494
723,43300.0,-15.132209777832033,5.259423732757568,-2.062613010406494
724,43400.0,-4.058227062225342,2.1966111660003658,-7.747959613800049
725,43500.0,-4.058227062225342,2.1966111660003658,-7.747959613800049
726,43600.0,-4.058227062225342,2.1966111660003658,-7.747959613800049
727,43700.0,-4.7712883949279785,3.759124279022217,-5.852844715118407
728,43800.0,-4.7712883949279785,3.759124279022217,-5.852844715118407
729,43900.0,-8.791230201721191,2.868994235992432,-4.108476161956787
730,44000.0,-8.791230201721191,2.868994235992432,-4.108476161956787
731,44100.0,-8.791230201721191,2.868994235992432,-4.108476161956787
732,44200.0,-12.184252738952635,1.6965112686157229,0.36370906233787537
733,44300.0,-12.184252738952635,1.6965112686157229,0.36370906233787537
734,44400.0,-12.629318237304688,-0.8949156999588013,-1.3280165195465088
735,44500.0,-12.629318237304688,-0.8949156999588013,-1.3280165195465088
736,44600.0,-12.949954986572266,1.3375877141952517,4.424329280853272
737,44700.0,-12.949954986572266,1.3375877141952517,4.424329280853272
738,44800.0,-12.011969566345215,-0.3278167247772217,1.6725829839706419
739,44900.0,-12.011969566345215,-0.3278167247772217,1.6725829839706419
740,44000.0,-8.791230201721191,2.868994235992432,-4.108476161956787
741,44100.0,-8.791230201721191,2.868994235992432,-4.108476161956787
742,44200.0,-12.184252738952635,1.6965112686157229,0.36370906233787537
743,44300.0,-12.184252738952635,1.6965112686157229,0.36370906233787537
744,44400.0,-12.629318237304688,-0.8949156999588013,-1.3280165195465088
745,44500.0,-12.629318237304688,-0.8949156999588013,-1.3280165195465088
746,44600.0,-12.949954986572266,1.3375877141952517,4.424329280853272
747,44700.0,-12.949954986572266,1.3375877141952517,4.424329280853272
748,44800.0,-12.011969566345215,-0.3278167247772217,1.6725829839706419
749,44900.0,-12.011969566345215,-0.3278167247772217,1.6725829839706419
750,45000.0,-12.011969566345215,-0.3278167247772217,1.6725829839706419
751,45100.0,-11.0835542678833,4.199403762817384,-0.8422735333442688
752,45200.0,-11.0835542678833,4.199403762817384,-0.8422735333442688
753,45300.0,-12.954741477966307,1.8831514120101929,3.208775281906128
754,45400.0,-12.954741477966307,1.8831514120101929,3.208775281906128
755,45500.0,-13.57209014892578,0.21296121180057528,4.058227062225342
756,45600.0,-13.57209014892578,0.21296121180057528,4.058227062225342
757,45700.0,-13.57209014892578,0.21296121180057528,4.058227062225342
758,45800.0,-11.925827980041506,2.0099709033966064,3.998406410217285
759,45900.0,-11.925827980041506,2.0099709033966064,3.998406410217285
760,45000.0,-12.011969566345215,-0.3278167247772217,1.6725829839706419
761,45100.0,-11.0835542678833,4.199403762817384,-0.8422735333442688
762,45200.0,-11.0835542678833,4.199403762817384,-0.8422735333442688
763,45300.0,-12.954741477966307,1.8831514120101929,3.208775281906128
764,45400.0,-12.954741477966307,1.8831514120101929,3.208775281906128
765,45500.0,-13.57209014892578,0.21296121180057528,4.058227062225342
766,45600.0,-13.57209014892578,0.21296121180057528,4.058227062225342
767,45700.0,-13.57209014892578,0.21296121180057528,4.058227062225342
768,45800.0,-11.925827980041506,2.0099709033966064,3.998406410217285
769,45900.0,-11.925827980041506,2.0099709033966064,3.998406410217285
770,46000.0,-12.715458869934082,-1.835294842720032,5.706881999969482
771,46100.0,-12.715458869934082,-1.835294842720032,5.706881999969482
772,46200.0,-13.26102352142334,-0.8877372145652771,5.864808082580566
773,46300.0,-13.26102352142334,-0.8877372145652771,5.864808082580566
774,46400.0,-12.973884582519533,1.2251251935958862,4.3381876945495605
775,46500.0,-12.973884582519533,1.2251251935958862,4.3381876945495605
776,46600.0,-12.973884582519533,1.2251251935958862,4.3381876945495605
777,46700.0,-13.122239112854006,-0.8470591902732849,6.0299134254455575
778,46800.0,-13.122239112854006,-0.8470591902732849,6.0299134254455575
779,46900.0,-9.633503913879396,5.0560340881347665,-0.4019941985607147
780,46000.0,-12.715458869934082,-1.835294842720032,5.706881999969482
781,46100.0,-12.715458869934082,-1.835294842720032,5.706881999969482
782,46200.0,-13.26102352142334,-0.8877372145652771,5.864808082580566
783,46300.0,-13.26102352142334,-0.8877372145652771,5.864808082580566
784,46400.0,-12.973884582519533,1.2251251935958862,4.3381876945495605
785,46500.0,-12.973884582519533,1.2251251935958862,4.3381876945495605
786,46600.0,-12.973884582519533,1.2251251935958862,4.3381876945495605
787,46700.0,-13.122239112854006,-0.8470591902732849,6.0299134254455575
788,46800.0,-13.122239112854006,-0.8470591902732849,6.0299134254455575
789,46900.0,-9.633503913879396,5.0560340881347665,-0.4019941985607147
790,47000.0,-9.633503913879396,5.0560340881347665,-0.4019941985607147
791,47100.0,-7.805387496948242,4.063012599945068,-3.115455150604248
792,47200.0,-7.805387496948242,4.063012599945068,-3.115455150604248
793,47300.0,-7.805387496948242,4.063012599945068,-3.115455150604248
794,47400.0,-6.197411060333253,3.988835573196411,-5.264209270477295
795,47500.0,-6.197411060333253,3.988835573196411,-5.264209270477295
796,47600.0,-5.259423732757568,5.757131576538086,-12.294322967529295
797,47700.0,-5.259423732757568,5.757131576538086,-12.294322967529295
798,47800.0,-4.168296813964844,9.542576789855957,-11.509476661682127
799,47900.0,-4.168296813964844,9.542576789855957,-11.509476661682127
800,47000.0,-9.633503913879396,5.0560340881347665,-0.4019941985607147
801,47100.0,-7.805387496948242,4.063012599945068,-3.115455150604248
802,47200.0,-7.805387496948242,4.063012599945068,-3.115455150604248
803,47300.0,-7.805387496948242,4.063012599945068,-3.115455150604248
804,47400.0,-6.197411060333253,3.988835573196411,-5.264209270477295
805,47500.0,-6.197411060333253,3.988835573196411,-5.264209270477295
806,47600.0,-5.259423732757568,5.757131576538086,-12.294322967529295
807,47700.0,-5.259423732757568,5.757131576538086,-12.294322967529295
808,47800.0,-4.168296813964844,9.542576789855957,-11.509476661682127
809,47900.0,-4.168296813964844,9.542576789855957,-11.509476661682127
810,48000.0,-4.000799655914307,6.252446174621582,-11.014162063598633
811,48100.0,-4.000799655914307,6.252446174621582,-11.014162063598633
812,48200.0,-4.000799655914307,6.252446174621582,-11.014162063598633
813,48300.0,-3.1728827953338623,7.1712894439697275,-14.957533836364744
814,48400.0,-3.1728827953338623,7.1712894439697275,-14.957533836364744
815,48500.0,-6.5324058532714835,6.166304588317871,-10.25324535369873
816,48600.0,-6.5324058532714835,6.166304588317871,-10.25324535369873
817,48700.0,-8.221738815307617,3.634697675704956,-6.369694232940674
818,48800.0,-8.221738815307617,3.634697675704956,-6.369694232940674
819,48900.0,-9.083154678344727,2.029113531112671,-3.012563943862915
820,48000.0,-4.000799655914307,6.252446174621582,-11.014162063598633
821,48100.0,-4.000799655914307,6.252446174621582,-11.014162063598633
822,48200.0,-4.000799655914307,6.252446174621582,-11.014162063598633
823,48300.0,-3.1728827953338623,7.1712894439697275,-14.957533836364744
824,48400.0,-3.1728827953338623,7.1712894439697275,-14.957533836364744
825,48500.0,-6.5324058532714835,6.166304588317871,-10.25324535369873
826,48600.0,-6.5324058532714835,6.166304588317871,-10.25324535369873
827,48700.0,-8.221738815307617,3.634697675704956,-6.369694232940674
828,48800.0,-8.221738815307617,3.634697675704956,-6.369694232940674
829,48900.0,-9.083154678344727,2.029113531112671,-3.012563943862915
830,49000.0,-9.083154678344727,2.029113531112671,-3.012563943862915
831,49100.0,-9.083154678344727,2.029113531112671,-3.012563943862915
832,49200.0,-5.532205581665039,4.278366565704347,-9.214759826660156
833,49300.0,-5.532205581665039,4.278366565704347,-9.214759826660156
834,49400.0,-4.60857629776001,4.766502857208252,-11.89472198486328
835,49500.0,-4.60857629776001,4.766502857208252,-11.89472198486328
836,49600.0,-3.603590488433838,1.9621145725250244,-11.207980155944824
837,49700.0,-3.603590488433838,1.9621145725250244,-11.207980155944824
838,49800.0,-3.603590488433838,1.9621145725250244,-11.207980155944824
839,49900.0,-8.934800148010254,1.0863415002822876,-4.910072326660156
840,49000.0,-9.083154678344727,2.029113531112671,-3.012563943862915
841,49100.0,-9.083154678344727,2.029113531112671,-3.012563943862915
842,49200.0,-5.532205581665039,4.278366565704347,-9.214759826660156
843,49300.0,-5.532205581665039,4.278366565704347,-9.214759826660156
844,49400.0,-4.60857629776001,4.766502857208252,-11.89472198486328
845,49500.0,-4.60857629776001,4.766502857208252,-11.89472198486328
846,49600.0,-3.603590488433838,1.9621145725250244,-11.207980155944824
847,49700.0,-3.603590488433838,1.9621145725250244,-11.207980155944824
848,49800.0,-3.603590488433838,1.9621145725250244,-11.207980155944824
849,49900.0,-8.934800148010254,1.0863415002822876,-4.910072326660156
850,50000.0,-8.934800148010254,1.0863415002822876,-4.910072326660156
851,50100.0,-8.169095993041992,2.1511476039886475,-4.53200626373291
852,50200.0,-8.169095993041992,2.1511476039886475,-4.53200626373291
853,50300.0,-8.169095993041992,2.1511476039886475,-4.53200626373291
854,50400.0,-2.0099709033966064,-0.06939186155796051,5.218745708465576
855,50500.0,-2.0099709033966064,-0.06939186155796051,5.218745708465576
856,50600.0,1.2346963882446291,-0.2799602448940277,6.439085483551025
857,50700.0,1.2346963882446291,-0.2799602448940277,6.439085483551025
858,50800.0,-11.787044525146484,-4.785645484924316,-4.096512317657472
859,50900.0,-11.787044525146484,-4.785645484924316,-4.096512317657472
860,50000.0,-8.934800148010254,1.0863415002822876,-4.910072326660156
861,50100.0,-8.169095993041992,2.1511476039886475,-4.53200626373291
862,50200.0,-8.169095993041992,2.1511476039886475,-4.53200626373291
863,50300.0,-8.169095993041992,2.1511476039886475,-4.53200626373291
864,50400.0,-2.0099709033966064,-0.06939186155796051,5.218745708465576
865,50500.0,-2.0099709033966064,-0.06939186155796051,5.218745708465576
866,50600.0,1.2346963882446291,-0.2799602448940277,6.439085483551025
867,50700.0,1.2346963882446291,-0.2799602448940277,6.439085483551025
868,50800.0,-11.787044525146484,-4.785645484924316,-4.096512317657472
869,50900.0,-11.787044525146484,-4.785645484924316,-4.096512317657472
870,51000.0,-6.374479293823242,-3.988835573196411,-1.5170495510101318
871,51100.0,-6.374479293823242,-3.988835573196411,-1.5170495510101318
872,51200.0,-6.374479293823242,-3.988835573196411,-1.5170495510101318
873,51300.0,-8.60459041595459,-3.6370904445648193,-2.289931058883667
874,51400.0,-8.60459041595459,-3.6370904445648193,-2.289931058883667
875,51500.0,-5.819344997406006,-3.594019651412964,2.0195422172546387
876,51600.0,-5.819344997406006,-3.594019651412964,2.0195422172546387
877,51700.0,-20.204992294311523,1.4069796800613403,-9.90389347076416
878,51800.0,-20.204992294311523,1.4069796800613403,-9.90389347076416
879,51900.0,-20.204992294311523,1.4069796800613403,-9.90389347076416
880,51000.0,-6.374479293823242,-3.988835573196411,-1.5170495510101318
881,51100.0,-6.374479293823242,-3.988835573196411,-1.5170495510101318
882,51200.0,-6.374479293823242,-3.988835573196411,-1.5170495510101318
883,51300.0,-8.60459041595459,-3.6370904445648193,-2.289931058883667
884,51400.0,-8.60459041595459,-3.6370904445648193,-2.289931058883667
885,51500.0,-5.819344997406006,-3.594019651412964,2.0195422172546387
886,51600.0,-5.819344997406006,-3.594019651412964,2.0195422172546387
887,51700.0,-20.204992294311523,1.4069796800613403,-9.90389347076416
888,51800.0,-20.204992294311523,1.4069796800613403,-9.90389347076416
889,51900.0,-20.204992294311523,1.4069796800613403,-9.90389347076416
890,52000.0,-17.69253158569336,2.0027925968170166,1.9740787744522093
891,52100.0,-17.69253158569336,2.0027925968170166,1.9740787744522093
892,52200.0,-10.25563907623291,2.9623143672943115,-2.9264223575592037
893,52300.0,-10.25563907623291,2.9623143672943115,-2.9264223575592037
894,52400.0,-0.4019941985607147,4.682754039764403,-7.257431030273437
895,52500.0,-0.4019941985607147,4.682754039764403,-7.257431030273437
896,52600.0,-0.4019941985607147,4.682754039764403,-7.257431030273437
897,52700.0,2.321038007736206,5.44845724105835,-14.179865837097168
898,52800.0,2.321038007736206,5.44845724105835,-14.179865837097168
899,52900.0,0.5982056856155396,3.3092737197875977,-15.232709884643555
900,52000.0,-17.69253158569336,2.0027925968170166,1.9740787744522093
901,52100.0,-17.69253158569336,2.0027925968170166,1.9740787744522093
902,52200.0,-10.25563907623291,2.9623143672943115,-2.9264223575592037
903,52300.0,-10.25563907623291,2.9623143672943115,-2.9264223575592037
904,52400.0,-0.4019941985607147,4.682754039764403,-7.257431030273437
905,52500.0,-0.4019941985607147,4.682754039764403,-7.257431030273437
906,52600.0,-0.4019941985607147,4.682754039764403,-7.257431030273437
907,52700.0,2.321038007736206,5.44845724105835,-14.179865837097168
908,52800.0,2.321038007736206,5.44845724105835,-14.179865837097168
909,52900.0,0.5982056856155396,3.3092737197875977,-15.232709884643555
910,53000.0,0.5982056856155396,3.3092737197875977,-15.232709884643555
911,53100.0,-14.682358741760256,2.8139593601226807,1.1509476900100708
912,53200.0,-14.682358741760256,2.8139593601226807,1.1509476900100708
913,53300.0,-14.682358741760256,2.8139593601226807,1.1509476900100708
914,53400.0,-15.079567909240724,2.988635540008545,3.0436704158782963
915,53500.0,-15.079567909240724,2.988635540008545,3.0436704158782963
916,53600.0,-16.15633773803711,5.898308277130128,0.5670989155769348
917,53700.0,-16.15633773803711,5.898308277130128,0.5670989155769348
918,53800.0,-15.409777641296387,-5.292923927307129,-10.169495582580566
919,53900.0,-15.409777641296387,-5.292923927307129,-10.169495582580566
920,53000.0,0.5982056856155396,3.3092737197875977,-15.232709884643555
921,53100.0,-14.682358741760256,2.8139593601226807,1.1509476900100708
922,53200.0,-14.682358741760256,2.8139593601226807,1.1509476900100708
923,53300.0,-14.682358741760256,2.8139593601226807,1.1509476900100708
924,53400.0,-15.079567909240724,2.988635540008545,3.0436704158782963
925,53500.0,-15.079567909240724,2.988635540008545,3.0436704158782963
926,53600.0,-16.15633773803711,5.898308277130128,0.5670989155769348
927,53700.0,-16.15633773803711,5.898308277130128,0.5670989155769348
928,53800.0,-15.409777641296387,-5.292923927307129,-10.169495582580566
929,53900.0,-15.409777641296387,-5.292923927307129,-10.169495582580566
930,54000.0,-15.409777641296387,-5.292923927307129,-10.169495582580566
931,54100.0,-17.113466262817386,1.6247265338897705,-8.02074146270752
932,54200.0,-17.113466262817386,1.6247265338897705,-8.02074146270752
933,54300.0,-15.845272064208984,4.443471908569336,-8.592625617980957
934,54400.0,-15.845272064208984,4.443471908569336,-8.592625617980957
935,54500.0,-10.69113063812256,-3.3236305713653564,-0.2943171858787537
936,54600.0,-10.69113063812256,-3.3236305713653564,-0.2943171858787537
937,54700.0,-10.69113063812256,-3.3236305713653564,-0.2943171858787537
938,54800.0,-1.6223337650299072,5.647061824798584,-12.067005157470705
939,54900.0,-1.6223337650299072,5.647061824798584,-12.067005157470705
940,54000.0,-15.409777641296387,-5.292923927307129,-10.169495582580566
941,54100.0,-17.113466262817386,1.6247265338897705,-8.02074146270752
942,54200.0,-17.113466262817386,1.6247265338897705,-8.02074146270752
943,54300.0,-15.845272064208984,4.443471908569336,-8.592625617980957
944,54400.0,-15.845272064208984,4.443471908569336,-8.592625617980957
945,54500.0,-10.69113063812256,-3.3236305713653564,-0.2943171858787537
946,54600.0,-10.69113063812256,-3.3236305713653564,-0.2943171858787537
947,54700.0,-10.69113063812256,-3.3236305713653564,-0.2943171858787537
948,54800.0,-1.6223337650299072,5.647061824798584,-12.067005157470705
949,54900.0,-1.6223337650299072,5.647061824798584,-12.067005157470705
950,55000.0,-6.9918274879455575,4.709074974060059,-6.561119556427003
951,55100.0,-6.9918274879455575,4.709074974060059,-6.561119556427003
952,55200.0,-13.907085418701172,0.4163511395454407,0.8494520783424377
953,55300.0,-13.907085418701172,0.4163511395454407,0.8494520783424377
954,55400.0,-13.907085418701172,0.4163511395454407,0.8494520783424377
955,55500.0,-12.619746208190918,3.754338502883911,3.6753754615783687
956,55600.0,-12.619746208190918,3.754338502883911,3.6753754615783687
957,55700.0,-12.524033546447756,3.8596229553222656,-1.3351951837539673
958,55800.0,-12.524033546447756,3.8596229553222656,-1.3351951837539673
959,55900.0,-19.889142990112305,2.8666017055511475,7.558926582336426
960,55000.0,-6.9918274879455575,4.709074974060059,-6.561119556427003
961,55100.0,-6.9918274879455575,4.709074974060059,-6.561119556427003
962,55200.0,-13.907085418701172,0.4163511395454407,0.8494520783424377
963,55300.0,-13.907085418701172,0.4163511395454407,0.8494520783424377
964,55400.0,-13.907085418701172,0.4163511395454407,0.8494520783424377
965,55500.0,-12.619746208190918,3.754338502883911,3.6753754615783687
966,55600.0,-12.619746208190918,3.754338502883911,3.6753754615783687
967,55700.0,-12.524033546447756,3.8596229553222656,-1.3351951837539673
968,55800.0,-12.524033546447756,3.8596229553222656,-1.3351951837539673
969,55900.0,-19.889142990112305,2.8666017055511475,7.558926582336426
970,56000.0,-19.889142990112305,2.8666017055511475,7.558926582336426
971,56100.0,-16.098909378051758,2.8546373844146733,6.723831653594972
972,56200.0,-16.098909378051758,2.8546373844146733,6.723831653594972
973,56300.0,-16.098909378051758,2.8546373844146733,6.723831653594972
974,56400.0,-19.75035858154297,3.2279179096221924,11.057233810424805
975,56500.0,-19.75035858154297,3.2279179096221924,11.057233810424805
976,56600.0,-18.03709602355957,4.974678039550781,6.5084776878356925
977,56700.0,-18.03709602355957,4.974678039550781,6.5084776878356925
978,56800.0,-18.03709602355957,4.974678039550781,6.5084776878356925
979,56900.0,-13.576875686645508,4.390829563140868,3.5294132232666016
980,56000.0,-19.889142990112305,2.8666017055511475,7.558926582336426
981,56100.0,-16.098909378051758,2.8546373844146733,6.723831653594972
982,56200.0,-16.098909378051758,2.8546373844146733,6.723831653594972
983,56300.0,-16.098909378051758,2.8546373844146733,6.723831653594972
984,56400.0,-19.75035858154297,3.2279179096221924,11.057233810424805
985,56500.0,-19.75035858154297,3.2279179096221924,11.057233810424805
986,56600.0,-18.03709602355957,4.974678039550781,6.5084776878356925
987,56700.0,-18.03709602355957,4.974678039550781,6.5084776878356925
988,56800.0,-18.03709602355957,4.974678039550781,6.5084776878356925
989,56900.0,-13.576875686645508,4.390829563140868,3.5294132232666016
990,57000.0,-13.576875686645508,4.390829563140868,3.5294132232666016
991,57100.0,-10.332208633422852,4.271188735961913,2.057827472686768
992,57200.0,-10.332208633422852,4.271188735961913,2.057827472686768
993,57300.0,-6.307480335235597,6.984649658203125,-0.3900300860404968
994,57400.0,-6.307480335235597,6.984649658203125,-0.3900300860404968
995,57500.0,-6.221338748931885,8.061419486999513,0.7680960297584534
996,57600.0,-6.221338748931885,8.061419486999513,0.7680960297584534
997,57700.0,-6.221338748931885,8.061419486999513,0.7680960297584534
998,57800.0,-7.441678524017334,2.069791555404663,-7.1712894439697275
999,57900.0,-7.441678524017334,2.069791555404663,-7.1712894439697275
1000,57000.0,-13.576875686645508,4.390829563140868,3.5294132232666016
1001,57100.0,-10.332208633422852,4.271188735961913,2.057827472686768
1002,57200.0,-10.332208633422852,4.271188735961913,2.057827472686768
1003,57300.0,-6.307480335235597,6.984649658203125,-0.3900300860404968
1004,57400.0,-6.307480335235597,6.984649658203125,-0.3900300860404968
1005,57500.0,-6.221338748931885,8.061419486999513,0.7680960297584534
1006,57600.0,-6.221338748931885,8.061419486999513,0.7680960297584534
1007,57700.0,-6.221338748931885,8.061419486999513,0.7680960297584534
1008,57800.0,-7.441678524017334,2.069791555404663,-7.1712894439697275
1009,57900.0,-7.441678524017334,2.069791555404663,-7.1712894439697275
1010,58000.0,-7.690531730651855,-0.8949156999588013,-7.862814903259277
1011,58100.0,-7.690531730651855,-0.8949156999588013,-7.862814903259277
1012,58200.0,-7.690531730651855,-0.8949156999588013,-7.862814903259277
1013,58300.0,-14.194223403930664,4.036691665649413,-4.106083393096924
1014,58400.0,-14.194223403930664,4.036691665649413,-4.106083393096924
1015,58500.0,-8.030312538146973,-1.0743772983551023,-6.0394840240478525
1016,58600.0,-8.030312538146973,-1.0743772983551023,-6.0394840240478525
1017,58700.0,-6.585048198699951,-2.833101987838745,-6.711867332458496
1018,58800.0,-6.585048198699951,-2.833101987838745,-6.711867332458496
1019,58900.0,-7.75753116607666,-0.014356935396790503,-5.257031440734863
1020,58000.0,-7.690531730651855,-0.8949156999588013,-7.862814903259277
1021,58100.0,-7.690531730651855,-0.8949156999588013,-7.862814903259277
1022,58200.0,-7.690531730651855,-0.8949156999588013,-7.862814903259277
1023,58300.0,-14.194223403930664,4.036691665649413,-4.106083393096924
1024,58400.0,-14.194223403930664,4.036691665649413,-4.106083393096924
1025,58500.0,-8.030312538146973,-1.0743772983551023,-6.0394840240478525
1026,58600.0,-8.030312538146973,-1.0743772983551023,-6.0394840240478525
1027,58700.0,-6.585048198699951,-2.833101987838745,-6.711867332458496
1028,58800.0,-6.585048198699951,-2.833101987838745,-6.711867332458496
1029,58900.0,-7.75753116607666,-0.014356935396790503,-5.257031440734863
1030,59000.0,-7.75753116607666,-0.014356935396790503,-5.257031440734863
1031,59100.0,2.0673987865448002,-2.4670000076293945,-6.558726787567139
1032,59200.0,2.0673987865448002,-2.4670000076293945,-6.558726787567139
1033,59300.0,2.0673987865448002,-2.4670000076293945,-6.558726787567139
1034,59400.0,-4.015156269073486,-2.2851457595825195,-8.336593627929688
1035,59500.0,-4.015156269073486,-2.2851457595825195,-8.336593627929688
1036,59600.0,-9.934999465942383,-0.35892340540885925,0.4259224236011505
1037,59700.0,-9.934999465942383,-0.35892340540885925,0.4259224236011505
1038,59800.0,-8.992227554321289,-0.7992027401924133,-4.54636287689209
1039,59900.0,-8.992227554321289,-0.7992027401924133,-4.54636287689209
1040,59000.0,-7.75753116607666,-0.014356935396790503,-5.257031440734863
1041,59100.0,2.0673987865448002,-2.4670000076293945,-6.558726787567139
1042,59200.0,2.0673987865448002,-2.4670000076293945,-6.558726787567139
1043,59300.0,2.0673987865448002,-2.4670000076293945,-6.558726787567139
1044,59400.0,-4.015156269073486,-2.2851457595825195,-8.336593627929688
1045,59500.0,-4.015156269073486,-2.2851457595825195,-8.336593627929688
1046,59600.0,-9.934999465942383,-0.35892340540885925,0.4259224236011505
1047,59700.0,-9.934999465942383,-0.35892340540885925,0.4259224236011505
1048,59800.0,-8.992227554321289,-0.7992027401924133,-4.54636287689209
1049,59900.0,-8.992227554321289,-0.7992027401924133,-4.54636287689209
1050,60000.0,-10.667202949523926,-1.244267821311951,-5.752345561981201
1051,60100.0,-10.667202949523926,-1.244267821311951,-5.752345561981201
1052,60200.0,-10.667202949523926,-1.244267821311951,-5.752345561981201
1053,60300.0,-15.811772346496582,1.160519003868103,-9.765109062194824
1054,60400.0,-15.811772346496582,1.160519003868103,-9.765109062194824
1055,60500.0,-3.263810157775879,-3.1250264644622803,3.933800458908081
1056,60600.0,-3.263810157775879,-3.1250264644622803,3.933800458908081
1057,60700.0,-4.8191447257995605,-2.8187451362609863,2.3425734043121342
1058,60800.0,-4.8191447257995605,-2.8187451362609863,2.3425734043121342
1059,60900.0,-4.8191447257995605,-2.8187451362609863,2.3425734043121342
1060,60000.0,-10.667202949523926,-1.244267821311951,-5.752345561981201
1061,60100.0,-10.667202949523926,-1.244267821311951,-5.752345561981201
1062,60200.0,-10.667202949523926,-1.244267821311951,-5.752345561981201
1063,60300.0,-15.811772346496582,1.160519003868103,-9.765109062194824
1064,60400.0,-15.811772346496582,1.160519003868103,-9.765109062194824
1065,60500.0,-3.263810157775879,-3.1250264644622803,3.933800458908081
1066,60600.0,-3.263810157775879,-3.1250264644622803,3.933800458908081
1067,60700.0,-4.8191447257995605,-2.8187451362609863,2.3425734043121342
1068,60800.0,-4.8191447257995605,-2.8187451362609863,2.3425734043121342
1069,60900.0,-4.8191447257995605,-2.8187451362609863,2.3425734043121342
1070,61000.0,-12.303894996643065,2.445464611053467,-15.850056648254395
1071,61100.0,-12.303894996643065,2.445464611053467,-15.850056648254395
1072,61200.0,-17.127824783325195,0.6532405614852905,-10.353742599487305
1073,61300.0,-17.127824783325195,0.6532405614852905,-10.353742599487305
1074,61400.0,-18.707088470458984,1.8161523342132568,-8.300702095031737
1075,61500.0,-18.707088470458984,1.8161523342132568,-8.300702095031737
1076,61600.0,-18.707088470458984,1.8161523342132568,-8.300702095031737
1077,61700.0,-15.620347023010256,-0.14835500717163086,-6.412764549255371
1078,61800.0,-15.620347023010256,-0.14835500717163086,-6.412764549255371
1079,61900.0,-11.95454216003418,-0.17706887423992154,-5.345565319061278
1080,61000.0,-12.303894996643065,2.445464611053467,-15.850056648254395
1081,61100.0,-12.303894996643065,2.445464611053467,-15.850056648254395
1082,61200.0,-17.127824783325195,0.6532405614852905,-10.353742599487305
1083,61300.0,-17.127824783325195,0.6532405614852905,-10.353742599487305
1084,61400.0,-18.707088470458984,1.8161523342132568,-8.300702095031737
1085,61500.0,-18.707088470458984,1.8161523342132568,-8.300702095031737
1086,61600.0,-18.707088470458984,1.8161523342132568,-8.300702095031737
1087,61700.0,-15.620347023010256,-0.14835500717163086,-6.412764549255371
1088,61800.0,-15.620347023010256,-0.14835500717163086,-6.412764549255371
1089,61900.0,-11.95454216003418,-0.17706887423992154,-5.345565319061278
1090,62000.0,-11.95454216003418,-0.17706887423992154,-5.345565319061278
1091,62100.0,-4.680361270904541,-2.447857618331909,-3.115455150604248
1092,62200.0,-4.680361270904541,-2.447857618331909,-3.115455150604248
1093,62300.0,-4.680361270904541,-2.447857618331909,-3.115455150604248
1094,62400.0,-8.446663856506348,5.66620397567749,3.445664882659912
1095,62500.0,-8.446663856506348,5.66620397567749,3.445664882659912
1096,62600.0,-10.82034397125244,6.5324058532714835,-2.988635540008545
1097,62700.0,-10.82034397125244,6.5324058532714835,-2.988635540008545
1098,62800.0,-13.60080337524414,8.764908790588379,-4.88853645324707
1099,62900.0,-13.60080337524414,8.764908790588379,-4.88853645324707
1100,62000.0,-11.95454216003418,-0.17706887423992154,-5.345565319061278
1101,62100.0,-4.680361270904541,-2.447857618331909,-3.115455150604248
1102,62200.0,-4.680361270904541,-2.447857618331909,-3.115455150604248
1103,62300.0,-4.680361270904541,-2.447857618331909,-3.115455150604248
1104,62400.0,-8.446663856506348,5.66620397567749,3.445664882659912
1105,62500.0,-8.446663856506348,5.66620397567749,3.445664882659912
1106,62600.0,-10.82034397125244,6.5324058532714835,-2.988635540008545
1107,62700.0,-10.82034397125244,6.5324058532714835,-2.988635540008545
1108,62800.0,-13.60080337524414,8.764908790588379,-4.88853645324707
1109,62900.0,-13.60080337524414,8.764908790588379,-4.88853645324707
1110,63000.0,-13.60080337524414,8.764908790588379,-4.88853645324707
1111,63100.0,-12.969098091125488,4.022334575653076,-4.187439441680908
1112,63200.0,-12.969098091125488,4.022334575653076,-4.187439441680908
1113,63300.0,-8.370094299316406,-0.5455635190010071,-3.553341627120972
1114,63400.0,-8.370094299316406,-0.5455635190010071,-3.553341627120972
1115,63500.0,-6.254837989807129,-0.0813559740781784,-3.1345977783203125
1116,63600.0,-6.254837989807129,-0.0813559740781784,-3.1345977783203125
1117,63700.0,-3.8237307071685787,-1.4141581058502195,-3.4025940895080566
1118,63800.0,-3.8237307071685787,-1.4141581058502195,-3.4025940895080566
1119,63900.0,-3.8237307071685787,-1.4141581058502195,-3.4025940895080566
1120,63000.0,-13.60080337524414,8.764908790588379,-4.88853645324707
1121,63100.0,-12.969098091125488,4.022334575653076,-4.187439441680908
1122,63200.0,-12.969098091125488,4.022334575653076,-4.187439441680908
1123,63300.0,-8.370094299316406,-0.5455635190010071,-3.553341627120972
1124,63400.0,-8.370094299316406,-0.5455635190010071,-3.553341627120972
1125,63500.0,-6.254837989807129,-0.0813559740781784,-3.1345977783203125
1126,63600.0,-6.254837989807129,-0.0813559740781784,-3.1345977783203125
1127,63700.0,-3.8237307071685787,-1.4141581058502195,-3.4025940895080566
1128,63800.0,-3.8237307071685787,-1.4141581058502195,-3.4025940895080566
1129,63900.0,-3.8237307071685787,-1.4141581058502195,-3.4025940895080566
1130,64000.0,-7.432106971740723,2.167897224426269,-3.3714869022369385
1131,64100.0,-7.432106971740723,2.167897224426269,-3.3714869022369385
1132,64200.0,-9.231510162353516,4.512863159179688,-3.69930362701416
1133,64300.0,-9.231510162353516,4.512863159179688,-3.69930362701416
1134,64400.0,-10.772488594055176,6.398407459259032,-0.3038884699344635
1135,64500.0,-10.772488594055176,6.398407459259032,-0.3038884699344635
1136,64600.0,-10.772488594055176,6.398407459259032,-0.3038884699344635
1137,64700.0,-13.442877769470215,4.445864677429199,3.235095977783203
1138,64800.0,-13.442877769470215,4.445864677429199,3.235095977783203
1139,64900.0,-11.06919765472412,2.761317014694214,0.35892340540885925
1140,64000.0,-7.432106971740723,2.167897224426269,-3.3714869022369385
1141,64100.0,-7.432106971740723,2.167897224426269,-3.3714869022369385
1142,64200.0,-9.231510162353516,4.512863159179688,-3.69930362701416
1143,64300.0,-9.231510162353516,4.512863159179688,-3.69930362701416
1144,64400.0,-10.772488594055176,6.398407459259032,-0.3038884699344635
1145,64500.0,-10.772488594055176,6.398407459259032,-0.3038884699344635
1146,64600.0,-10.772488594055176,6.398407459259032,-0.3038884699344635
1147,64700.0,-13.442877769470215,4.445864677429199,3.235095977783203
1148,64800.0,-13.442877769470215,4.445864677429199,3.235095977783203
1149,64900.0,-11.06919765472412,2.761317014694214,0.35892340540885925
1150,65000.0,-11.06919765472412,2.761317014694214,0.35892340540885925
1151,65100.0,-13.931013107299805,3.615554809570313,5.125426292419434
1152,65200.0,-13.931013107299805,3.615554809570313,5.125426292419434
1153,65300.0,-13.931013107299805,3.615554809570313,5.125426292419434
1154,65400.0,-13.916656494140625,2.062613010406494,-0.1986042857170105
1155,65500.0,-13.916656494140625,2.062613010406494,-0.1986042857170105
1156,65600.0,-12.705887794494627,1.8592231273651123,-1.959721684455872
1157,65700.0,-12.705887794494627,1.8592231273651123,-1.959721684455872
1158,65800.0,-8.159524917602539,1.7204395532608032,-5.216352939605713
1159,65900.0,-8.159524917602539,1.7204395532608032,-5.216352939605713
1160,65000.0,-11.06919765472412,2.761317014694214,0.35892340540885925
1161,65100.0,-13.931013107299805,3.615554809570313,5.125426292419434
1162,65200.0,-13.931013107299805,3.615554809570313,5.125426292419434
1163,65300.0,-13.931013107299805,3.615554809570313,5.125426292419434
1164,65400.0,-13.916656494140625,2.062613010406494,-0.1986042857170105
1165,65500.0,-13.916656494140625,2.062613010406494,-0.1986042857170105
1166,65600.0,-12.705887794494627,1.8592231273651123,-1.959721684455872
1167,65700.0,-12.705887794494627,1.8592231273651123,-1.959721684455872
1168,65800.0,-8.159524917602539,1.7204395532608032,-5.216352939605713
1169,65900.0,-8.159524917602539,1.7204395532608032,-5.216352939605713
1170,66000.0,-8.159524917602539,1.7204395532608032,-5.216352939605713
1171,66100.0,-4.642076015472412,2.560320377349853,-6.175874710083008
1172,66200.0,-4.642076015472412,2.560320377349853,-6.175874710083008
1173,66300.0,-1.1341978311538696,7.487142086029053,-11.674582481384276
1174,66400.0,-1.1341978311538696,7.487142086029053,-11.674582481384276
1175,66500.0,-8.082954406738281,5.175675392150879,-3.414557933807373
1176,66600.0,-8.082954406738281,5.175675392150879,-3.414557933807373
1177,66700.0,-2.589033842086792,6.6903319358825675,-14.404792785644533
1178,66800.0,-2.589033842086792,6.6903319358825675,-14.404792785644533
1179,66900.0,-2.589033842086792,6.6903319358825675,-14.404792785644533
1180,66000.0,-8.159524917602539,1.7204395532608032,-5.216352939605713
1181,66100.0,-4.642076015472412,2.560320377349853,-6.175874710083008
1182,66200.0,-4.642076015472412,2.560320377349853,-6.175874710083008
1183,66300.0,-1.1341978311538696,7.487142086029053,-11.674582481384276
1184,66400.0,-1.1341978311538696,7.487142086029053,-11.674582481384276
1185,66500.0,-8.082954406738281,5.175675392150879,-3.414557933807373
1186,66600.0,-8.082954406738281,5.175675392150879,-3.414557933807373
1187,66700.0,-2.589033842086792,6.6903319358825675,-14.404792785644533
1188,66800.0,-2.589033842086792,6.6903319358825675,-14.404792785644533
1189,66900.0,-2.589033842086792,6.6903319358825675,-14.404792785644533
1190,67000.0,-4.364508152008057,4.101297855377196,-7.355536937713622
1191,67100.0,-4.364508152008057,4.101297855377196,-7.355536937713622
1192,67200.0,-13.864013671875,0.2967100143432617,2.12961220741272
1193,67300.0,-13.864013671875,0.2967100143432617,2.12961220741272
1194,67400.0,-8.408378601074219,3.759124279022217,-3.034099102020264
1195,67500.0,-8.408378601074219,3.759124279022217,-3.034099102020264
1196,67600.0,-8.408378601074219,3.759124279022217,-3.034099102020264
1197,67700.0,-12.753745079040527,2.603391170501709,2.687139749526977
1198,67800.0,-12.753745079040527,2.603391170501709,2.687139749526977
1199,67900.0,-11.050054550170898,1.1006983518600464,5.12303352355957
1200,67000.0,-4.364508152008057,4.101297855377196,-7.355536937713622
1201,67100.0,-4.364508152008057,4.101297855377196,-7.355536937713622
1202,67200.0,-13.864013671875,0.2967100143432617,2.12961220741272
1203,67300.0,-13.864013671875,0.2967100143432617,2.12961220741272
1204,67400.0,-8.408378601074219,3.759124279022217,-3.034099102020264
1205,67500.0,-8.408378601074219,3.759124279022217,-3.034099102020264
1206,67600.0,-8.408378601074219,3.759124279022217,-3.034099102020264
1207,67700.0,-12.753745079040527,2.603391170501709,2.687139749526977
1208,67800.0,-12.753745079040527,2.603391170501709,2.687139749526977
1209,67900.0,-11.050054550170898,1.1006983518600464,5.12303352355957
1210,68000.0,-11.050054550170898,1.1006983518600464,5.12303352355957
1211,68100.0,-7.322037220001222,5.960521221160889,-6.570690631866455
1212,68200.0,-7.322037220001222,5.960521221160889,-6.570690631866455
1213,68300.0,-7.322037220001222,5.960521221160889,-6.570690631866455
1214,68400.0,-4.728217601776123,4.02472734451294,-5.156532764434815
1215,68500.0,-4.728217601776123,4.02472734451294,-5.156532764434815
1216,68600.0,-12.514461517333984,2.7014968395233154,0.5096712112426758
1217,68700.0,-12.514461517333984,2.7014968395233154,0.5096712112426758
1218,68800.0,-14.787644386291506,0.7968099117279053,-10.191031455993652
1219,68900.0,-14.787644386291506,0.7968099117279053,-10.191031455993652
1220,68000.0,-11.050054550170898,1.1006983518600464,5.12303352355957
1221,68100.0,-7.322037220001222,5.960521221160889,-6.570690631866455
1222,68200.0,-7.322037220001222,5.960521221160889,-6.570690631866455
1223,68300.0,-7.322037220001222,5.960521221160889,-6.570690631866455
1224,68400.0,-4.728217601776123,4.02472734451294,-5.156532764434815
1225,68500.0,-4.728217601776123,4.02472734451294,-5.156532764434815
1226,68600.0,-12.514461517333984,2.7014968395233154,0.5096712112426758
1227,68700.0,-12.514461517333984,2.7014968395233154,0.5096712112426758
1228,68800.0,-14.787644386291506,0.7968099117279053,-10.191031455993652
1229,68900.0,-14.787644386291506,0.7968099117279053,-10.191031455993652
1230,69000.0,-14.787644386291506,0.7968099117279053,-10.191031455993652
1231,69100.0,-14.175081253051758,0.2464607357978821,-10.279565811157227
1232,69200.0,-14.175081253051758,0.2464607357978821,-10.279565811157227
1233,69300.0,-14.64407444000244,5.340780735015869,-11.693723678588867
1234,69400.0,-14.64407444000244,5.340780735015869,-11.693723678588867
1235,69500.0,-6.206982612609862,-0.882951557636261,-1.1772687435150146
1236,69600.0,-6.206982612609862,-0.882951557636261,-1.1772687435150146
1237,69700.0,-6.206982612609862,-0.882951557636261,-1.1772687435150146
1238,69800.0,-4.704289436340332,-3.0197420120239262,-0.11964112520217896
1239,69900.0,-4.704289436340332,-3.0197420120239262,-0.11964112520217896
1240,69000.0,-14.787644386291506,0.7968099117279053,-10.191031455993652
1241,69100.0,-14.175081253051758,0.2464607357978821,-10.279565811157227
1242,69200.0,-14.175081253051758,0.2464607357978821,-10.279565811157227
1243,69300.0,-14.64407444000244,5.340780735015869,-11.693723678588867
1244,69400.0,-14.64407444000244,5.340780735015869,-11.693723678588867
1245,69500.0,-6.206982612609862,-0.882951557636261,-1.1772687435150146
1246,69600.0,-6.206982612609862,-0.882951557636261,-1.1772687435150146
1247,69700.0,-6.206982612609862,-0.882951557636261,-1.1772687435150146
1248,69800.0,-4.704289436340332,-3.0197420120239262,-0.11964112520217896
1249,69900.0,-4.704289436340332,-3.0197420120239262,-0.11964112520217896
1250,70000.0,-2.4598214626312256,5.948556900024414,-2.557927370071411
1251,70100.0,-2.4598214626312256,5.948556900024414,-2.557927370071411
1252,70200.0,-1.2490534782409668,11.040483474731444,-5.840879917144775
1253,70300.0,-1.2490534782409668,11.040483474731444,-5.840879917144775
1254,70400.0,-4.091726779937743,7.788637638092041,-6.1471614837646475
1255,70500.0,-4.091726779937743,7.788637638092041,-6.1471614837646475
1256,70600.0,-4.091726779937743,7.788637638092041,-6.1471614837646475
1257,70700.0,-6.541977405548097,5.883951187133789,-2.328216552734375
1258,70800.0,-6.541977405548097,5.883951187133789,-2.328216552734375
1259,70900.0,-7.81974458694458,1.37587308883667,-0.2751745879650116
1260,70000.0,-2.4598214626312256,5.948556900024414,-2.557927370071411
1261,70100.0,-2.4598214626312256,5.948556900024414,-2.557927370071411
1262,70200.0,-1.2490534782409668,11.040483474731444,-5.840879917144775
1263,70300.0,-1.2490534782409668,11.040483474731444,-5.840879917144775
1264,70400.0,-4.091726779937743,7.788637638092041,-6.1471614837646475
1265,70500.0,-4.091726779937743,7.788637638092041,-6.1471614837646475
1266,70600.0,-4.091726779937743,7.788637638092041,-6.1471614837646475
1267,70700.0,-6.541977405548097,5.883951187133789,-2.328216552734375
1268,70800.0,-6.541977405548097,5.883951187133789,-2.328216552734375
1269,70900.0,-7.81974458694458,1.37587308883667,-0.2751745879650116
1270,71000.0,-7.81974458694458,1.37587308883667,-0.2751745879650116
1271,71100.0,-6.656832218170166,7.329216003417969,-2.7182462215423584
1272,71200.0,-6.656832218170166,7.329216003417969,-2.7182462215423584
1273,71300.0,-8.997013092041016,-0.7609176039695741,0.8087739944458008
1274,71400.0,-8.997013092041016,-0.7609176039695741,0.8087739944458008
1275,71500.0,-8.997013092041016,-0.7609176039695741,0.8087739944458008
1276,71600.0,-9.183652877807617,0.9427721500396729,2.031506299972534
1277,71700.0,-9.183652877807617,0.9427721500396729,2.031506299972534
1278,71800.0,-11.45683479309082,0.00957129057496786,3.833301782608032
1279,71900.0,-11.45683479309082,0.00957129057496786,3.833301782608032
1280,71000.0,-7.81974458694458,1.37587308883667,-0.2751745879650116
1281,71100.0,-6.656832218170166,7.329216003417969,-2.7182462215423584
1282,71200.0,-6.656832218170166,7.329216003417969,-2.7182462215423584
1283,71300.0,-8.997013092041016,-0.7609176039695741,0.8087739944458008
1284,71400.0,-8.997013092041016,-0.7609176039695741,0.8087739944458008
1285,71500.0,-8.997013092041016,-0.7609176039695741,0.8087739944458008
1286,71600.0,-9.183652877807617,0.9427721500396729,2.031506299972534
1287,71700.0,-9.183652877807617,0.9427721500396729,2.031506299972534
1288,71800.0,-11.45683479309082,0.00957129057496786,3.833301782608032
1289,71900.0,-11.45683479309082,0.00957129057496786,3.833301782608032
1290,72000.0,-11.45683479309082,0.00957129057496786,3.833301782608032
1291,72100.0,-13.792229652404785,-1.0408778190612793,7.149754047393799
1292,72200.0,-13.792229652404785,-1.0408778190612793,7.149754047393799
1293,72300.0,-11.475976943969727,-0.7322037816047668,-0.729810893535614
1294,72400.0,-11.475976943969727,-0.7322037816047668,-0.729810893535614
1295,72500.0,-11.68175983428955,-0.6436693072319031,-13.12702465057373
1296,72600.0,-11.68175983428955,-0.6436693072319031,-13.12702465057373
1297,72700.0,-13.016955375671387,1.6342979669570925,-13.160524368286133
1298,72800.0,-13.016955375671387,1.6342979669570925,-13.160524368286133
1299,72900.0,-13.016955375671387,1.6342979669570925,-13.160524368286133
1300,72000.0,-11.45683479309082,0.00957129057496786,3.833301782608032
1301,72100.0,-13.792229652404785,-1.0408778190612793,7.149754047393799
1302,72200.0,-13.792229652404785,-1.0408778190612793,7.149754047393799
1303,72300.0,-11.475976943969727,-0.7322037816047668,-0.729810893535614
1304,72400.0,-11.475976943969727,-0.7322037816047668,-0.729810893535614
1305,72500.0,-11.68175983428955,-0.6436693072319031,-13.12702465057373
1306,72600.0,-11.68175983428955,-0.6436693072319031,-13.12702465057373
1307,72700.0,-13.016955375671387,1.6342979669570925,-13.160524368286133
1308,72800.0,-13.016955375671387,1.6342979669570925,-13.160524368286133
1309,72900.0,-13.016955375671387,1.6342979669570925,-13.160524368286133
1310,73000.0,-10.667202949523926,0.11964112520217896,-8.590232849121094
1311,73100.0,-10.667202949523926,0.11964112520217896,-8.590232849121094
1312,73200.0,-10.738987922668457,2.6632115840911865,0.16510476171970367
1313,73300.0,-10.738987922668457,2.6632115840911865,0.16510476171970367
1314,73400.0,-10.738987922668457,2.6632115840911865,0.16510476171970367
1315,73500.0,-6.723831653594972,0.0047856452874839315,-1.7491532564163208
1316,73600.0,-6.723831653594972,0.0047856452874839315,-1.7491532564163208
1317,73700.0,-10.786844253540039,-10.413564682006836,1.6510475873947144
1318,73800.0,-10.786844253540039,-10.413564682006836,1.6510475873947144
1319,73900.0,-9.906286239624023,-2.421536445617676,0.7776673436164856
1320,73000.0,-10.667202949523926,0.11964112520217896,-8.590232849121094
1321,73100.0,-10.667202949523926,0.11964112520217896,-8.590232849121094
1322,73200.0,-10.738987922668457,2.6632115840911865,0.16510476171970367
1323,73300.0,-10.738987922668457,2.6632115840911865,0.16510476171970367
1324,73400.0,-10.738987922668457,2.6632115840911865,0.16510476171970367
1325,73500.0,-6.723831653594972,0.0047856452874839315,-1.7491532564163208
1326,73600.0,-6.723831653594972,0.0047856452874839315,-1.7491532564163208
1327,73700.0,-10.786844253540039,-10.413564682006836,1.6510475873947144
1328,73800.0,-10.786844253540039,-10.413564682006836,1.6510475873947144
1329,73900.0,-9.906286239624023,-2.421536445617676,0.7776673436164856
1330,74000.0,-9.906286239624023,-2.421536445617676,0.7776673436164856
1331,74100.0,-11.897113800048828,-1.65583336353302,-0.11964112520217896
1332,74200.0,-11.897113800048828,-1.65583336353302,-0.11964112520217896
1333,74300.0,-7.733603000640869,-0.16031910479068756,-2.256431579589844
1334,74400.0,-7.733603000640869,-0.16031910479068756,-2.256431579589844
1335,74500.0,-7.733603000640869,-0.16031910479068756,-2.256431579589844
1336,74600.0,-6.972684860229492,5.127819538116455,-10.590633392333984
1337,74700.0,-6.972684860229492,5.127819538116455,-10.590633392333984
1338,74800.0,-4.192224979400635,4.493720531463623,-19.44168281555176
1339,74900.0,-4.192224979400635,4.493720531463623,-19.44168281555176
1340,74000.0,-9.906286239624023,-2.421536445617676,0.7776673436164856
1341,74100.0,-11.897113800048828,-1.65583336353302,-0.11964112520217896
1342,74200.0,-11.897113800048828,-1.65583336353302,-0.11964112520217896
1343,74300.0,-7.733603000640869,-0.16031910479068756,-2.256431579589844
1344,74400.0,-7.733603000640869,-0.16031910479068756,-2.256431579589844
1345,74500.0,-7.733603000640869,-0.16031910479068756,-2.256431579589844
1346,74600.0,-6.972684860229492,5.127819538116455,-10.590633392333984
1347,74700.0,-6.972684860229492,5.127819538116455,-10.590633392333984
1348,74800.0,-4.192224979400635,4.493720531463623,-19.44168281555176
1349,74900.0,-4.192224979400635,4.493720531463623,-19.44168281555176
1350,75000.0,-4.192224979400635,4.493720531463623,-19.44168281555176
1351,75100.0,-2.5124638080596924,8.188239097595215,-12.20339584350586
1352,75200.0,-2.5124638080596924,8.188239097595215,-12.20339584350586
1353,75300.0,-9.236295700073242,1.3519448041915894,1.641476273536682
1354,75400.0,-9.236295700073242,1.3519448041915894,1.641476273536682
1355,75500.0,-16.788043975830078,0.4402793645858765,-1.4045867919921875
1356,75600.0,-16.788043975830078,0.4402793645858765,-1.4045867919921875
1357,75700.0,-9.896714210510254,0.8015955686569214,-2.792424201965332
1358,75800.0,-9.896714210510254,0.8015955686569214,-2.792424201965332
1359,75900.0,-9.896714210510254,0.8015955686569214,-2.792424201965332
1360,75000.0,-4.192224979400635,4.493720531463623,-19.44168281555176
1361,75100.0,-2.5124638080596924,8.188239097595215,-12.20339584350586
1362,75200.0,-2.5124638080596924,8.188239097595215,-12.20339584350586
1363,75300.0,-9.236295700073242,1.3519448041915894,1.641476273536682
1364,75400.0,-9.236295700073242,1.3519448041915894,1.641476273536682
1365,75500.0,-16.788043975830078,0.4402793645858765,-1.4045867919921875
1366,75600.0,-16.788043975830078,0.4402793645858765,-1.4045867919921875
1367,75700.0,-9.896714210510254,0.8015955686569214,-2.792424201965332
1368,75800.0,-9.896714210510254,0.8015955686569214,-2.792424201965332
1369,75900.0,-9.896714210510254,0.8015955686569214,-2.792424201965332
1370,76000.0,-17.142181396484375,-1.1892328262329102,3.2757742404937744
1371,76100.0,-17.142181396484375,-1.1892328262329102,3.2757742404937744
1372,76200.0,-15.079567909240724,3.9720854759216313,-3.28773832321167
1373,76300.0,-15.079567909240724,3.9720854759216313,-3.28773832321167
1374,76400.0,-5.958127975463867,-1.6271194219589231,-0.8853443264961243
1375,76500.0,-5.958127975463867,-1.6271194219589231,-0.8853443264961243
1376,76600.0,-5.958127975463867,-1.6271194219589231,-0.8853443264961243
1377,76700.0,-5.498706817626953,-3.476771354675293,-1.3112668991088867
1378,76800.0,-5.498706817626953,-3.476771354675293,-1.3112668991088867
1379,76900.0,-7.891529560089111,-3.9122648239135738,-5.517848491668701
1380,76000.0,-17.142181396484375,-1.1892328262329102,3.2757742404937744
1381,76100.0,-17.142181396484375,-1.1892328262329102,3.2757742404937744
1382,76200.0,-15.079567909240724,3.9720854759216313,-3.28773832321167
1383,76300.0,-15.079567909240724,3.9720854759216313,-3.28773832321167
1384,76400.0,-5.958127975463867,-1.6271194219589231,-0.8853443264961243
1385,76500.0,-5.958127975463867,-1.6271194219589231,-0.8853443264961243
1386,76600.0,-5.958127975463867,-1.6271194219589231,-0.8853443264961243
1387,76700.0,-5.498706817626953,-3.476771354675293,-1.3112668991088867
1388,76800.0,-5.498706817626953,-3.476771354675293,-1.3112668991088867
1389,76900.0,-7.891529560089111,-3.9122648239135738,-5.517848491668701
1390,77000.0,-7.891529560089111,-3.9122648239135738,-5.517848491668701
1391,77100.0,-5.1014976501464835,-1.6797614097595217,-5.295316696166992
1392,77200.0,-5.1014976501464835,-1.6797614097595217,-5.295316696166992
1393,77300.0,-5.1014976501464835,-1.6797614097595217,-5.295316696166992
1394,77400.0,3.809373617172241,-1.7204395532608032,-8.571090698242188
1395,77500.0,3.809373617172241,-1.7204395532608032,-8.571090698242188
1396,77600.0,3.7663028240203857,1.043270707130432,-9.698110580444336
1397,77700.0,3.7663028240203857,1.043270707130432,-9.698110580444336
1398,77800.0,0.7322037816047668,0.00957129057496786,-12.713067054748535
1399,77900.0,0.7322037816047668,0.00957129057496786,-12.713067054748535
1400,77000.0,-7.891529560089111,-3.9122648239135738,-5.517848491668701
1401,77100.0,-5.1014976501464835,-1.6797614097595217,-5.295316696166992
1402,77200.0,-5.1014976501464835,-1.6797614097595217,-5.295316696166992
1403,77300.0,-5.1014976501464835,-1.6797614097595217,-5.295316696166992
1404,77400.0,3.809373617172241,-1.7204395532608032,-8.571090698242188
1405,77500.0,3.809373617172241,-1.7204395532608032,-8.571090698242188
1406,77600.0,3.7663028240203857,1.043270707130432,-9.698110580444336
1407,77700.0,3.7663028240203857,1.043270707130432,-9.698110580444336
1408,77800.0,0.7322037816047668,0.00957129057496786,-12.713067054748535
1409,77900.0,0.7322037816047668,0.00957129057496786,-12.713067054748535
1410,78000.0,0.7322037816047668,0.00957129057496786,-12.713067054748535
1411,78100.0,-5.034498691558838,1.9908283948898315,-7.735995292663574
1412,78200.0,-5.034498691558838,1.9908283948898315,-7.735995292663574
1413,78300.0,-3.268595933914185,7.946564197540282,-6.33380126953125
1414,78400.0,-3.268595933914185,7.946564197540282,-6.33380126953125
1415,78500.0,-2.124826431274414,6.168696403503418,-9.753145217895508
1416,78600.0,-2.124826431274414,6.168696403503418,-9.753145217895508
1417,78700.0,-1.6654045581817627,2.1511476039886475,-10.425528526306152
1418,78800.0,-1.6654045581817627,2.1511476039886475,-10.425528526306152
1419,78900.0,-1.6654045581817627,2.1511476039886475,-10.425528526306152
1420,78000.0,0.7322037816047668,0.00957129057496786,-12.713067054748535
1421,78100.0,-5.034498691558838,1.9908283948898315,-7.735995292663574
1422,78200.0,-5.034498691558838,1.9908283948898315,-7.735995292663574
1423,78300.0,-3.268595933914185,7.946564197540282,-6.33380126953125
1424,78400.0,-3.268595933914185,7.946564197540282,-6.33380126953125
1425,78500.0,-2.124826431274414,6.168696403503418,-9.753145217895508
1426,78600.0,-2.124826431274414,6.168696403503418,-9.753145217895508
1427,78700.0,-1.6654045581817627,2.1511476039886475,-10.425528526306152
1428,78800.0,-1.6654045581817627,2.1511476039886475,-10.425528526306152
1429,78900.0,-1.6654045581817627,2.1511476039886475,-10.425528526306152
1430,79000.0,-9.212367057800293,1.9621145725250244,-4.72582483291626
1431,79100.0,-9.212367057800293,1.9621145725250244,-4.72582483291626
1432,79200.0,-14.031512260437012,-1.3112668991088867,-9.05683422088623
1433,79300.0,-14.031512260437012,-1.3112668991088867,-9.05683422088623
1434,79400.0,-13.543376922607422,-2.3066811561584477,-9.4660062789917
1435,79500.0,-13.543376922607422,-2.3066811561584477,-9.4660062789917
1436,79600.0,-12.495319366455078,-1.5601203441619873,-6.5108704566955575
1437,79700.0,-12.495319366455078,-1.5601203441619873,-6.5108704566955575
1438,79800.0,-12.495319366455078,-1.5601203441619873,-6.5108704566955575
1439,79900.0,-2.541177749633789,7.3052873611450195,-6.142375946044923
1440,79000.0,-9.212367057800293,1.9621145725250244,-4.72582483291626
1441,79100.0,-9.212367057800293,1.9621145725250244,-4.72582483291626
1442,79200.0,-14.031512260437012,-1.3112668991088867,-9.05683422088623
1443,79300.0,-14.031512260437012,-1.3112668991088867,-9.05683422088623
1444,79400.0,-13.543376922607422,-2.3066811561584477,-9.4660062789917
1445,79500.0,-13.543376922607422,-2.3066811561584477,-9.4660062789917
1446,79600.0,-12.495319366455078,-1.5601203441619873,-6.5108704566955575
1447,79700.0,-12.495319366455078,-1.5601203441619873,-6.5108704566955575
1448,79800.0,-12.495319366455078,-1.5601203441619873,-6.5108704566955575
1449,79900.0,-2.541177749633789,7.3052873611450195,-6.142375946044923
1450,80000.0,-2.541177749633789,7.3052873611450195,-6.142375946044923
1451,80100.0,-2.1343977451324463,11.093125343322754,-11.49512004852295
1452,80200.0,-2.1343977451324463,11.093125343322754,-11.49512004852295
1453,80300.0,-5.484349250793457,6.3936219215393075,-7.582855224609375
1454,80400.0,-5.484349250793457,6.3936219215393075,-7.582855224609375
1455,80500.0,-5.484349250793457,6.3936219215393075,-7.582855224609375
1456,80600.0,-15.409777641296387,3.7782666683197017,-2.0865414142608643
1457,80700.0,-15.409777641296387,3.7782666683197017,-2.0865414142608643
1458,80800.0,-16.663616180419922,3.4289150238037114,0.23449662327766416
1459,80900.0,-16.663616180419922,3.4289150238037114,0.23449662327766416
1460,80000.0,-2.541177749633789,7.3052873611450195,-6.142375946044923
1461,80100.0,-2.1343977451324463,11.093125343322754,-11.49512004852295
1462,80200.0,-2.1343977451324463,11.093125343322754,-11.49512004852295
1463,80300.0,-5.484349250793457,6.3936219215393075,-7.582855224609375
1464,80400.0,-5.484349250793457,6.3936219215393075,-7.582855224609375
1465,80500.0,-5.484349250793457,6.3936219215393075,-7.582855224609375
1466,80600.0,-15.409777641296387,3.7782666683197017,-2.0865414142608643
1467,80700.0,-15.409777641296387,3.7782666683197017,-2.0865414142608643
1468,80800.0,-16.663616180419922,3.4289150238037114,0.23449662327766416
1469,80900.0,-16.663616180419922,3.4289150238037114,0.23449662327766416
1470,81000.0,-8.269595146179201,2.675175428390503,-5.1637115478515625
1471,81100.0,-8.269595146179201,2.675175428390503,-5.1637115478515625
1472,81200.0,-8.269595146179201,2.675175428390503,-5.1637115478515625
1473,81300.0,-1.5026925802230835,1.0360921621322632,-7.496713638305664
1474,81400.0,-1.5026925802230835,1.0360921621322632,-7.496713638305664
1475,81500.0,-5.66620397567749,1.2227323055267334,-5.86720085144043
1476,81600.0,-5.66620397567749,1.2227323055267334,-5.86720085144043
1477,81700.0,-5.240281581878662,1.7515461444854736,-7.793423175811768
1478,81800.0,-5.240281581878662,1.7515461444854736,-7.793423175811768
1479,81900.0,-5.240281581878662,1.7515461444854736,-7.793423175811768
1480,81000.0,-8.269595146179201,2.675175428390503,-5.1637115478515625
1481,81100.0,-8.269595146179201,2.675175428390503,-5.1637115478515625
1482,81200.0,-8.269595146179201,2.675175428390503,-5.1637115478515625
1483,81300.0,-1.5026925802230835,1.0360921621322632,-7.496713638305664
1484,81400.0,-1.5026925802230835,1.0360921621322632,-7.496713638305664
1485,81500.0,-5.66620397567749,1.2227323055267334,-5.86720085144043
1486,81600.0,-5.66620397567749,1.2227323055267334,-5.86720085144043
1487,81700.0,-5.240281581878662,1.7515461444854736,-7.793423175811768
1488,81800.0,-5.240281581878662,1.7515461444854736,-7.793423175811768
1489,81900.0,-5.240281581878662,1.7515461444854736,-7.793423175811768
1490,82000.0,-7.22153902053833,-3.3714869022369385,-9.93260669708252
1491,82100.0,-7.22153902053833,-3.3714869022369385,-9.93260669708252
1492,82200.0,-13.12702465057373,-3.4073793888092037,-12.440284729003904
1493,82300.0,-13.12702465057373,-3.4073793888092037,-12.440284729003904
1494,82400.0,-8.063812255859375,-3.586841106414795,-5.247459888458252
1495,82500.0,-8.063812255859375,-3.586841106414795,-5.247459888458252
1496,82600.0,-11.365907669067385,4.689932346343994,-9.339186668395996
1497,82700.0,-11.365907669067385,4.689932346343994,-9.339186668395996
1498,82800.0,-11.365907669067385,4.689932346343994,-9.339186668395996
1499,82900.0,-13.96929931640625,-1.368694543838501,-8.898907661437988
1500,82000.0,-7.22153902053833,-3.3714869022369385,-9.93260669708252
1501,82100.0,-7.22153902053833,-3.3714869022369385,-9.93260669708252
1502,82200.0,-13.12702465057373,-3.4073793888092037,-12.440284729003904
1503,82300.0,-13.12702465057373,-3.4073793888092037,-12.440284729003904
1504,82400.0,-8.063812255859375,-3.586841106414795,-5.247459888458252
1505,82500.0,-8.063812255859375,-3.586841106414795,-5.247459888458252
1506,82600.0,-11.365907669067385,4.689932346343994,-9.339186668395996
1507,82700.0,-11.365907669067385,4.689932346343994,-9.339186668395996
1508,82800.0,-11.365907669067385,4.689932346343994,-9.339186668395996
1509,82900.0,-13.96929931640625,-1.368694543838501,-8.898907661437988
1510,83000.0,-13.96929931640625,-1.368694543838501,-8.898907661437988
1511,83100.0,-7.944170951843263,-0.7250252366065979,-2.3018953800201416
1512,83200.0,-7.944170951843263,-0.7250252366065979,-2.3018953800201416
1513,83300.0,-10.662418365478516,2.057827472686768,4.3166518211364755
1514,83400.0,-10.662418365478516,2.057827472686768,4.3166518211364755
1515,83500.0,-10.662418365478516,2.057827472686768,4.3166518211364755
1516,83600.0,-14.084153175354006,0.8159525394439697,1.84965181350708
1517,83700.0,-14.084153175354006,0.8159525394439697,1.84965181350708
1518,83800.0,-15.87398624420166,2.3856441974639893,0.8805587291717529
1519,83900.0,-15.87398624420166,2.3856441974639893,0.8805587291717529
1520,83000.0,-13.96929931640625,-1.368694543838501,-8.898907661437988
1521,83100.0,-7.944170951843263,-0.7250252366065979,-2.3018953800201416
1522,83200.0,-7.944170951843263,-0.7250252366065979,-2.3018953800201416
1523,83300.0,-10.662418365478516,2.057827472686768,4.3166518211364755
1524,83400.0,-10.662418365478516,2.057827472686768,4.3166518211364755
1525,83500.0,-10.662418365478516,2.057827472686768,4.3166518211364755
1526,83600.0,-14.084153175354006,0.8159525394439697,1.84965181350708
1527,83700.0,-14.084153175354006,0.8159525394439697,1.84965181350708
1528,83800.0,-15.87398624420166,2.3856441974639893,0.8805587291717529
1529,83900.0,-15.87398624420166,2.3856441974639893,0.8805587291717529
1530,84000.0,-2.8953151702880864,6.008377552032472,-8.286344528198242
1531,84100.0,-2.8953151702880864,6.008377552032472,-8.286344528198242
1532,84200.0,0.28235307335853577,8.181060791015625,-10.588239669799805
1533,84300.0,0.28235307335853577,8.181060791015625,-10.588239669799805
1534,84400.0,0.28235307335853577,8.181060791015625,-10.588239669799805
1535,84500.0,-7.034898281097412,-2.4502503871917725,-10.13599681854248
1536,84600.0,-7.034898281097412,-2.4502503871917725,-10.13599681854248
1537,84700.0,-7.987241268157959,1.2873386144638062,-7.496713638305664
1538,84800.0,-7.987241268157959,1.2873386144638062,-7.496713638305664
1539,84900.0,-7.987241268157959,1.2873386144638062,-7.496713638305664
1540,84000.0,-2.8953151702880864,6.008377552032472,-8.286344528198242
1541,84100.0,-2.8953151702880864,6.008377552032472,-8.286344528198242
1542,84200.0,0.28235307335853577,8.181060791015625,-10.588239669799805
1543,84300.0,0.28235307335853577,8.181060791015625,-10.588239669799805
1544,84400.0,0.28235307335853577,8.181060791015625,-10.588239669799805
1545,84500.0,-7.034898281097412,-2.4502503871917725,-10.13599681854248
1546,84600.0,-7.034898281097412,-2.4502503871917725,-10.13599681854248
1547,84700.0,-7.987241268157959,1.2873386144638062,-7.496713638305664
1548,84800.0,-7.987241268157959,1.2873386144638062,-7.496713638305664
1549,84900.0,-7.987241268157959,1.2873386144638062,-7.496713638305664
1550,85000.0,-8.154739379882812,-3.438485860824585,-4.283152580261231
1551,85100.0,-8.154739379882812,-3.438485860824585,-4.283152580261231
1552,85200.0,-6.73818826675415,2.177468776702881,-3.8500516414642334
1553,85300.0,-6.73818826675415,2.177468776702881,-3.8500516414642334
1554,85400.0,-11.404192924499512,-1.6199408769607544,3.3427734375
1555,85500.0,-11.404192924499512,-1.6199408769607544,3.3427734375
1556,85600.0,-6.302694320678711,4.29750919342041,1.00259268283844
1557,85700.0,-6.302694320678711,4.29750919342041,1.00259268283844
1558,85800.0,-6.302694320678711,4.29750919342041,1.00259268283844
1559,85900.0,-4.890929222106934,9.71485996246338,-2.612962245941162
1560,85000.0,-8.154739379882812,-3.438485860824585,-4.283152580261231
1561,85100.0,-8.154739379882812,-3.438485860824585,-4.283152580261231
1562,85200.0,-6.73818826675415,2.177468776702881,-3.8500516414642334
1563,85300.0,-6.73818826675415,2.177468776702881,-3.8500516414642334
1564,85400.0,-11.404192924499512,-1.6199408769607544,3.3427734375
1565,85500.0,-11.404192924499512,-1.6199408769607544,3.3427734375
1566,85600.0,-6.302694320678711,4.29750919342041,1.00259268283844
1567,85700.0,-6.302694320678711,4.29750919342041,1.00259268283844
1568,85800.0,-6.302694320678711,4.29750919342041,1.00259268283844
1569,85900.0,-4.890929222106934,9.71485996246338,-2.612962245941162
1570,86000.0,-4.890929222106934,9.71485996246338,-2.612962245941162
1571,86100.0,-6.8721866607666025,5.886343479156494,-0.08853443711996077
1572,86200.0,-6.8721866607666025,5.886343479156494,-0.08853443711996077
1573,86300.0,-6.8721866607666025,5.886343479156494,-0.08853443711996077
1574,86400.0,-10.011569023132324,-1.2825528383255005,-3.230310440063477
1575,86500.0,-10.011569023132324,-1.2825528383255005,-3.230310440063477
1576,86600.0,-13.777873039245605,0.430708110332489,5.434100151062012
1577,86700.0,-13.777873039245605,0.430708110332489,5.434100151062012
1578,86800.0,-12.385249137878418,-1.0791629552841189,5.333601474761963
1579,86900.0,-12.385249137878418,-1.0791629552841189,5.333601474761963
1580,86000.0,-4.890929222106934,9.71485996246338,-2.612962245941162
1581,86100.0,-6.8721866607666025,5.886343479156494,-0.08853443711996077
1582,86200.0,-6.8721866607666025,5.886343479156494,-0.08853443711996077
1583,86300.0,-6.8721866607666025,5.886343479156494,-0.08853443711996077
1584,86400.0,-10.011569023132324,-1.2825528383255005,-3.230310440063477
1585,86500.0,-10.011569023132324,-1.2825528383255005,-3.230310440063477
1586,86600.0,-13.777873039245605,0.430708110332489,5.434100151062012
1587,86700.0,-13.777873039245605,0.430708110332489,5.434100151062012
1588,86800.0,-12.385249137878418,-1.0791629552841189,5.333601474761963
1589,86900.0,-12.385249137878418,-1.0791629552841189,5.333601474761963
1590,87000.0,-15.132209777832033,-0.04785645008087158,3.665804386138916
1591,87100.0,-15.132209777832033,-0.04785645008087158,3.665804386138916
1592,87200.0,-11.968899726867676,6.206982612609862,-10.243673324584961
1593,87300.0,-11.968899726867676,6.206982612609862,-10.243673324584961
1594,87400.0,-11.968899726867676,6.206982612609862,-10.243673324584961
1595,87500.0,-9.174081802368164,0.0263210479170084,-4.7712883949279785
1596,87600.0,-9.174081802368164,0.0263210479170084,-4.7712883949279785
1597,87700.0,-8.197811126708983,-3.1345977783203125,-3.1369905471801762
1598,87800.0,-8.197811126708983,-3.1345977783203125,-3.1369905471801762
1599,87900.0,-8.197811126708983,-3.1345977783203125,-3.1369905471801762
1600,87000.0,-15.132209777832033,-0.04785645008087158,3.665804386138916
1601,87100.0,-15.132209777832033,-0.04785645008087158,3.665804386138916
1602,87200.0,-11.968899726867676,6.206982612609862,-10.243673324584961
1603,87300.0,-11.968899726867676,6.206982612609862,-10.243673324584961
1604,87400.0,-11.968899726867676,6.206982612609862,-10.243673324584961
1605,87500.0,-9.174081802368164,0.0263210479170084,-4.7712883949279785
1606,87600.0,-9.174081802368164,0.0263210479170084,-4.7712883949279785
1607,87700.0,-8.197811126708983,-3.1345977783203125,-3.1369905471801762
1608,87800.0,-8.197811126708983,-3.1345977783203125,-3.1369905471801762
1609,87900.0,-8.197811126708983,-3.1345977783203125,-3.1369905471801762
1610,88000.0,-6.905685901641847,-5.120640754699707,-0.5264209508895874
1611,88100.0,-6.905685901641847,-5.120640754699707,-0.5264209508895874
1612,88200.0,-5.249853134155273,-8.274380683898926,1.107876896858215
1613,88300.0,-5.249853134155273,-8.274380683898926,1.107876896858215
1614,88400.0,-6.905685901641847,7.056434154510497,-6.879364967346191
1615,88500.0,-6.905685901641847,7.056434154510497,-6.879364967346191
1616,88600.0,-6.790830135345459,6.620940208435059,-5.647061824798584
1617,88700.0,-6.790830135345459,6.620940208435059,-5.647061824798584
1618,88800.0,-6.790830135345459,6.620940208435059,-5.647061824798584
1619,88900.0,-4.321437358856201,5.228317260742188,-5.54177713394165
1620,88000.0,-6.905685901641847,-5.120640754699707,-0.5264209508895874
1621,88100.0,-6.905685901641847,-5.120640754699707,-0.5264209508895874
1622,88200.0,-5.249853134155273,-8.274380683898926,1.107876896858215
1623,88300.0,-5.249853134155273,-8.274380683898926,1.107876896858215
1624,88400.0,-6.905685901641847,7.056434154510497,-6.879364967346191
1625,88500.0,-6.905685901641847,7.056434154510497,-6.879364967346191
1626,88600.0,-6.790830135345459,6.620940208435059,-5.647061824798584
1627,88700.0,-6.790830135345459,6.620940208435059,-5.647061824798584
1628,88800.0,-6.790830135345459,6.620940208435059,-5.647061824798584
1629,88900.0,-4.321437358856201,5.228317260742188,-5.54177713394165
1630,89000.0,-4.321437358856201,5.228317260742188,-5.54177713394165
1631,89100.0,-4.704289436340332,5.790630340576173,-4.764110088348389
1632,89200.0,-4.704289436340332,5.790630340576173,-4.764110088348389
1633,89300.0,-8.930014610290527,4.929214477539063,-4.3932223320007315
1634,89400.0,-8.930014610290527,4.929214477539063,-4.3932223320007315
1635,89500.0,-8.930014610290527,4.929214477539063,-4.3932223320007315
1636,89600.0,-7.786244869232178,4.912464618682861,-2.648854732513428
1637,89700.0,-7.786244869232178,4.912464618682861,-2.648854732513428
1638,89800.0,-5.297709465026856,5.436492443084717,-2.6847469806671143
1639,89900.0,-5.297709465026856,5.436492443084717,-2.6847469806671143
1640,89000.0,-4.321437358856201,5.228317260742188,-5.54177713394165
1641,89100.0,-4.704289436340332,5.790630340576173,-4.764110088348389
1642,89200.0,-4.704289436340332,5.790630340576173,-4.764110088348389
1643,89300.0,-8.930014610290527,4.929214477539063,-4.3932223320007315
1644,89400.0,-8.930014610290527,4.929214477539063,-4.3932223320007315
1645,89500.0,-8.930014610290527,4.929214477539063,-4.3932223320007315
1646,89600.0,-7.786244869232178,4.912464618682861,-2.648854732513428
1647,89700.0,-7.786244869232178,4.912464618682861,-2.648854732513428
1648,89800.0,-5.297709465026856,5.436492443084717,-2.6847469806671143
1649,89900.0,-5.297709465026856,5.436492443084717,-2.6847469806671143
1650,90000.0,-11.030912399291992,8.980262756347656,1.641476273536682
1651,90100.0,-11.030912399291992,8.980262756347656,1.641476273536682
1652,90200.0,-0.25842484831810003,7.046862602233888,-6.9583282470703125
1653,90300.0,-0.25842484831810003,7.046862602233888,-6.9583282470703125
1654,90400.0,-0.25842484831810003,7.046862602233888,-6.9583282470703125
1655,90500.0,0.6699903011322021,5.773881435394287,-10.662418365478516
1656,90600.0,0.6699903011322021,5.773881435394287,-10.662418365478516
1657,90700.0,0.2440679222345352,7.896315097808838,-9.836893081665039
1658,90800.0,0.2440679222345352,7.896315097808838,-9.836893081665039
1659,90900.0,-3.0005996227264404,6.075376510620117,-11.198410987854004
1660,90000.0,-11.030912399291992,8.980262756347656,1.641476273536682
1661,90100.0,-11.030912399291992,8.980262756347656,1.641476273536682
1662,90200.0,-0.25842484831810003,7.046862602233888,-6.9583282470703125
1663,90300.0,-0.25842484831810003,7.046862602233888,-6.9583282470703125
1664,90400.0,-0.25842484831810003,7.046862602233888,-6.9583282470703125
1665,90500.0,0.6699903011322021,5.773881435394287,-10.662418365478516
1666,90600.0,0.6699903011322021,5.773881435394287,-10.662418365478516
1667,90700.0,0.2440679222345352,7.896315097808838,-9.836893081665039
1668,90800.0,0.2440679222345352,7.896315097808838,-9.836893081665039
1669,90900.0,-3.0005996227264404,6.075376510620117,-11.198410987854004
1670,91000.0,-3.0005996227264404,6.075376510620117,-11.198410987854004
1671,91100.0,-3.0005996227264404,6.075376510620117,-11.198410987854004
1672,91200.0,-4.517649173736572,1.5361920595169067,-10.514062881469727
1673,91300.0,-4.517649173736572,1.5361920595169067,-10.514062881469727
1674,91400.0,-3.211168050765991,-5.711667537689209,-10.023534774780273
1675,91500.0,-3.211168050765991,-5.711667537689209,-10.023534774780273
1676,91600.0,-2.416750907897949,-7.3842506408691415,-11.86122226715088
1677,91700.0,-2.416750907897949,-7.3842506408691415,-11.86122226715088
1678,91800.0,-2.416750907897949,-7.3842506408691415,-11.86122226715088
1679,91900.0,-6.455835819244385,-2.636890411376953,-4.223331928253174
1680,91000.0,-3.0005996227264404,6.075376510620117,-11.198410987854004
1681,91100.0,-3.0005996227264404,6.075376510620117,-11.198410987854004
1682,91200.0,-4.517649173736572,1.5361920595169067,-10.514062881469727
1683,91300.0,-4.517649173736572,1.5361920595169067,-10.514062881469727
1684,91400.0,-3.211168050765991,-5.711667537689209,-10.023534774780273
1685,91500.0,-3.211168050765991,-5.711667537689209,-10.023534774780273
1686,91600.0,-2.416750907897949,-7.3842506408691415,-11.86122226715088
1687,91700.0,-2.416750907897949,-7.3842506408691415,-11.86122226715088
1688,91800.0,-2.416750907897949,-7.3842506408691415,-11.86122226715088
1689,91900.0,-6.455835819244385,-2.636890411376953,-4.223331928253174
1690,92000.0,-6.455835819244385,-2.636890411376953,-4.223331928253174
1691,92100.0,-9.145368576049805,-0.7609176039695741,-2.0673987865448002
1692,92200.0,-9.145368576049805,-0.7609176039695741,-2.0673987865448002
1693,92300.0,-16.57747459411621,4.1563329696655265,4.642076015472412
1694,92400.0,-16.57747459411621,4.1563329696655265,4.642076015472412
1695,92500.0,-16.57747459411621,4.1563329696655265,4.642076015472412
1696,92600.0,-9.025726318359377,4.417150497436523,-2.4885356426239014
1697,92700.0,-9.025726318359377,4.417150497436523,-2.4885356426239014
1698,92800.0,-11.791830062866213,4.029513359069823,-3.0460631847381587
1699,92900.0,-11.791830062866213,4.029513359069823,-3.0460631847381587
1700,92000.0,-6.455835819244385,-2.636890411376953,-4.223331928253174
1701,92100.0,-9.145368576049805,-0.7609176039695741,-2.0673987865448002
1702,92200.0,-9.145368576049805,-0.7609176039695741,-2.0673987865448002
1703,92300.0,-16.57747459411621,4.1563329696655265,4.642076015472412
1704,92400.0,-16.57747459411621,4.1563329696655265,4.642076015472412
1705,92500.0,-16.57747459411621,4.1563329696655265,4.642076015472412
1706,92600.0,-9.025726318359377,4.417150497436523,-2.4885356426239014
1707,92700.0,-9.025726318359377,4.417150497436523,-2.4885356426239014
1708,92800.0,-11.791830062866213,4.029513359069823,-3.0460631847381587
1709,92900.0,-11.791830062866213,4.029513359069823,-3.0460631847381587
1710,93000.0,-8.298308372497559,4.19701099395752,-3.036492109298706
1711,93100.0,-8.298308372497559,4.19701099395752,-3.036492109298706
1712,93200.0,-8.298308372497559,4.19701099395752,-3.036492109298706
1713,93300.0,-6.7142601013183585,5.0871405601501465,0.5718846321105957
1714,93400.0,-6.7142601013183585,5.0871405601501465,0.5718846321105957
1715,93500.0,-11.35633659362793,0.6747759580612183,2.1607186794281006
1716,93600.0,-11.35633659362793,0.6747759580612183,2.1607186794281006
1717,93700.0,-12.074182510375975,5.845665454864503,1.581655740737915
1718,93800.0,-12.074182510375975,5.845665454864503,1.581655740737915
1719,93900.0,-13.189238548278807,6.443871021270753,2.266003131866455
1720,93000.0,-8.298308372497559,4.19701099395752,-3.036492109298706
1721,93100.0,-8.298308372497559,4.19701099395752,-3.036492109298706
1722,93200.0,-8.298308372497559,4.19701099395752,-3.036492109298706
