,timestamp,ax,ay,az
0,7000.0,-7.049255847930907,8.870193481445312,-6.7932233810424805
1,7100.0,-7.049255847930907,8.870193481445312,-6.7932233810424805
2,7200.0,-7.049255847930907,8.870193481445312,-6.7932233810424805
3,7300.0,-7.049255847930907,8.870193481445312,-6.7932233810424805
4,7400.0,-7.049255847930907,8.870193481445312,-6.7932233810424805
5,7500.0,-8.207381248474121,3.13938307762146,-5.757131576538086
6,7600.0,-8.207381248474121,3.13938307762146,-5.757131576538086
7,7700.0,-7.590033531188965,2.4646072387695312,-4.426721572875977
8,7800.0,-7.590033531188965,2.4646072387695312,-4.426721572875977
9,7900.0,-8.638089179992676,0.3852444589138031,-5.106283187866211
10,8000.0,-8.638089179992676,0.3852444589138031,-5.106283187866211
11,8100.0,-7.503891944885254,4.752145767211914,-7.829315185546875
12,8200.0,-7.503891944885254,4.752145767211914,-7.829315185546875
13,8300.0,-7.503891944885254,4.752145767211914,-7.829315185546875
14,8400.0,-4.6372904777526855,-3.2662029266357417,-6.1399827003479
15,8500.0,-4.6372904777526855,-3.2662029266357417,-6.1399827003479
16,8600.0,-15.73041534423828,-3.232703685760498,3.8500516414642334
17,8700.0,-15.73041534423828,-3.232703685760498,3.8500516414642334
18,8800.0,-15.73041534423828,-3.232703685760498,3.8500516414642334
19,8900.0,-1.3878371715545654,5.709274768829347,-12.720245361328125
20,9000.0,-1.3878371715545654,5.709274768829347,-12.720245361328125
21,9100.0,-2.0673987865448002,4.421936511993408,-12.796814918518065
22,9200.0,-2.0673987865448002,4.421936511993408,-12.796814918518065
23,9300.0,-8.575876235961914,1.7682960033416748,-3.988835573196411
24,9400.0,-8.575876235961914,1.7682960033416748,-3.988835573196411
25,9500.0,-10.24606704711914,-1.2251251935958862,-1.3950155973434448
26,9600.0,-10.24606704711914,-1.2251251935958862,-1.3950155973434448
27,9700.0,-10.24606704711914,-1.2251251935958862,-1.3950155973434448
28,9800.0,-5.034498691558838,-1.043270707130432,-12.576675415039062
29,9900.0,-5.034498691558838,-1.043270707130432,-12.576675415039062
30,8500.0,-4.6372904777526855,-3.2662029266357417,-6.1399827003479
31,8600.0,-15.73041534423828,-3.232703685760498,3.8500516414642334
32,8700.0,-15.73041534423828,-3.232703685760498,3.8500516414642334
33,8800.0,-15.73041534423828,-3.232703685760498,3.8500516414642334
34,8900.0,-1.3878371715545654,5.709274768829347,-12.720245361328125
35,9000.0,-1.3878371715545654,5.709274768829347,-12.720245361328125
36,9100.0,-2.0673987865448002,4.421936511993408,-12.796814918518065
37,9200.0,-2.0673987865448002,4.421936511993408,-12.796814918518065
38,9300.0,-8.575876235961914,1.7682960033416748,-3.988835573196411
39,9400.0,-8.575876235961914,1.7682960033416748,-3.988835573196411
40,9500.0,-10.24606704711914,-1.2251251935958862,-1.3950155973434448
41,9600.0,-10.24606704711914,-1.2251251935958862,-1.3950155973434448
42,9700.0,-10.24606704711914,-1.2251251935958862,-1.3950155973434448
43,9800.0,-5.034498691558838,-1.043270707130432,-12.576675415039062
44,9900.0,-5.034498691558838,-1.043270707130432,-12.576675415039062
45,10000.0,-12.189038276672365,0.9882357716560364,4.522434711456299
46,10100.0,-12.189038276672365,0.9882357716560364,4.522434711456299
47,10200.0,-9.848857879638672,4.589433670043945,4.189832210540772
48,10300.0,-9.848857879638672,4.589433670043945,4.189832210540772
49,10400.0,-12.748958587646484,4.9363932609558105,5.247459888458252
50,10500.0,-12.748958587646484,4.9363932609558105,5.247459888458252
51,10600.0,-12.748958587646484,4.9363932609558105,5.247459888458252
52,10700.0,-7.255037784576416,-0.6005984544754028,-4.960320949554443
53,10800.0,-7.255037784576416,-0.6005984544754028,-4.960320949554443
54,10900.0,-1.4069796800613403,-3.1274189949035645,-17.359928131103516
55,11000.0,-1.4069796800613403,-3.1274189949035645,-17.359928131103516
56,11100.0,-12.083754539489744,4.835894107818604,2.289931058883667
57,11200.0,-12.083754539489744,4.835894107818604,2.289931058883667
58,11300.0,-12.083754539489744,4.835894107818604,2.289931058883667
59,11400.0,-10.226923942565918,3.522234916687012,0.861416220664978
60,10000.0,-12.189038276672365,0.9882357716560364,4.522434711456299
61,10100.0,-12.189038276672365,0.9882357716560364,4.522434711456299
62,10200.0,-9.848857879638672,4.589433670043945,4.189832210540772
63,10300.0,-9.848857879638672,4.589433670043945,4.189832210540772
64,10400.0,-12.748958587646484,4.9363932609558105,5.247459888458252
65,10500.0,-12.748958587646484,4.9363932609558105,5.247459888458252
66,10600.0,-12.748958587646484,4.9363932609558105,5.247459888458252
67,10700.0,-7.255037784576416,-0.6005984544754028,-4.960320949554443
68,10800.0,-7.255037784576416,-0.6005984544754028,-4.960320949554443
69,10900.0,-1.4069796800613403,-3.1274189949035645,-17.359928131103516
70,11000.0,-1.4069796800613403,-3.1274189949035645,-17.359928131103516
71,11100.0,-12.083754539489744,4.835894107818604,2.289931058883667
72,11200.0,-12.083754539489744,4.835894107818604,2.289931058883667
73,11300.0,-12.083754539489744,4.835894107818604,2.289931058883667
74,11400.0,-10.226923942565918,3.522234916687012,0.861416220664978
75,11500.0,-10.226923942565918,3.522234916687012,0.861416220664978
76,11600.0,-2.579463005065918,-1.1868400573730469,-15.416956901550293
77,11700.0,-2.579463005065918,-1.1868400573730469,-15.416956901550293
78,11800.0,-5.139782905578613,-2.5986053943634038,-12.624531745910645
79,11900.0,-5.139782905578613,-2.5986053943634038,-12.624531745910645
80,12000.0,-4.981856822967528,1.4691929817199707,-9.968499183654783
81,12100.0,-4.981856822967528,1.4691929817199707,-9.968499183654783
82,12200.0,-4.981856822967528,1.4691929817199707,-9.968499183654783
83,12300.0,-12.212966918945312,4.7497525215148935,2.1822540760040283
84,12400.0,-12.212966918945312,4.7497525215148935,2.1822540760040283
85,12500.0,-11.787044525146484,2.931207656860352,3.3475589752197266
86,12600.0,-11.787044525146484,2.931207656860352,3.3475589752197266
87,12700.0,-13.112667083740234,9.265008926391602,4.264009952545166
88,12800.0,-13.112667083740234,9.265008926391602,4.264009952545166
89,12900.0,-10.767702102661133,9.501898765563963,1.588834285736084
90,11500.0,-10.226923942565918,3.522234916687012,0.861416220664978
91,11600.0,-2.579463005065918,-1.1868400573730469,-15.416956901550293
92,11700.0,-2.579463005065918,-1.1868400573730469,-15.416956901550293
93,11800.0,-5.139782905578613,-2.5986053943634038,-12.624531745910645
94,11900.0,-5.139782905578613,-2.5986053943634038,-12.624531745910645
95,12000.0,-4.981856822967528,1.4691929817199707,-9.968499183654783
96,12100.0,-4.981856822967528,1.4691929817199707,-9.968499183654783
97,12200.0,-4.981856822967528,1.4691929817199707,-9.968499183654783
98,12300.0,-12.212966918945312,4.7497525215148935,2.1822540760040283
99,12400.0,-12.212966918945312,4.7497525215148935,2.1822540760040283
100,12500.0,-11.787044525146484,2.931207656860352,3.3475589752197266
101,12600.0,-11.787044525146484,2.931207656860352,3.3475589752197266
102,12700.0,-13.112667083740234,9.265008926391602,4.264009952545166
103,12800.0,-13.112667083740234,9.265008926391602,4.264009952545166
104,12900.0,-10.767702102661133,9.501898765563963,1.588834285736084
105,13000.0,-10.767702102661133,9.501898765563963,1.588834285736084
106,13100.0,-10.767702102661133,9.501898765563963,1.588834285736084
107,13200.0,-7.747959613800049,4.993820667266847,-2.65842604637146
108,13300.0,-7.747959613800049,4.993820667266847,-2.65842604637146
109,13400.0,-8.97787094116211,6.463014125823975,1.4165509939193726
110,13500.0,-8.97787094116211,6.463014125823975,1.4165509939193726
111,13600.0,-6.417550563812256,-2.7182462215423584,-8.24566650390625
112,13700.0,-6.417550563812256,-2.7182462215423584,-8.24566650390625
113,13800.0,-7.0444698333740225,0.14117653667926788,-5.936593055725098
114,13900.0,-7.0444698333740225,0.14117653667926788,-5.936593055725098
115,14000.0,-7.049255847930907,-0.26560330390930176,-7.010970115661621
116,14100.0,-7.049255847930907,-0.26560330390930176,-7.010970115661621
117,14200.0,-7.049255847930907,-0.26560330390930176,-7.010970115661621
118,14300.0,-5.642275810241699,-17.29532241821289,-13.789836883544922
119,14400.0,-5.642275810241699,-17.29532241821289,-13.789836883544922
120,13000.0,-10.767702102661133,9.501898765563963,1.588834285736084
121,13100.0,-10.767702102661133,9.501898765563963,1.588834285736084
122,13200.0,-7.747959613800049,4.993820667266847,-2.65842604637146
123,13300.0,-7.747959613800049,4.993820667266847,-2.65842604637146
124,13400.0,-8.97787094116211,6.463014125823975,1.4165509939193726
125,13500.0,-8.97787094116211,6.463014125823975,1.4165509939193726
126,13600.0,-6.417550563812256,-2.7182462215423584,-8.24566650390625
127,13700.0,-6.417550563812256,-2.7182462215423584,-8.24566650390625
128,13800.0,-7.0444698333740225,0.14117653667926788,-5.936593055725098
129,13900.0,-7.0444698333740225,0.14117653667926788,-5.936593055725098
130,14000.0,-7.049255847930907,-0.26560330390930176,-7.010970115661621
131,14100.0,-7.049255847930907,-0.26560330390930176,-7.010970115661621
132,14200.0,-7.049255847930907,-0.26560330390930176,-7.010970115661621
133,14300.0,-5.642275810241699,-17.29532241821289,-13.789836883544922
134,14400.0,-5.642275810241699,-17.29532241821289,-13.789836883544922
135,14500.0,-5.776273727416992,-8.535198211669924,-14.981462478637695
136,14600.0,-5.776273727416992,-8.535198211669924,-14.981462478637695
137,14700.0,-5.149354457855225,-9.07119083404541,-15.680167198181152
138,14800.0,-5.149354457855225,-9.07119083404541,-15.680167198181152
139,14900.0,-7.0444698333740225,3.4241292476654053,-8.774479866027832
140,15000.0,-7.0444698333740225,3.4241292476654053,-8.774479866027832
141,15100.0,-9.647860527038574,5.603990077972412,1.0671988725662231
142,15200.0,-9.647860527038574,5.603990077972412,1.0671988725662231
143,15300.0,-9.647860527038574,5.603990077972412,1.0671988725662231
144,15400.0,-12.6676025390625,12.373285293579102,5.989234924316406
145,15500.0,-12.6676025390625,12.373285293579102,5.989234924316406
146,15600.0,-10.054640769958496,2.9527432918548584,0.2297109663486481
147,15700.0,-10.054640769958496,2.9527432918548584,0.2297109663486481
148,15800.0,-6.235695838928223,-3.881158351898194,-8.865407943725586
149,15900.0,-6.235695838928223,-3.881158351898194,-8.865407943725586
150,14500.0,-5.776273727416992,-8.535198211669924,-14.981462478637695
151,14600.0,-5.776273727416992,-8.535198211669924,-14.981462478637695
152,14700.0,-5.149354457855225,-9.07119083404541,-15.680167198181152
153,14800.0,-5.149354457855225,-9.07119083404541,-15.680167198181152
154,14900.0,-7.0444698333740225,3.4241292476654053,-8.774479866027832
155,15000.0,-7.0444698333740225,3.4241292476654053,-8.774479866027832
156,15100.0,-9.647860527038574,5.603990077972412,1.0671988725662231
157,15200.0,-9.647860527038574,5.603990077972412,1.0671988725662231
158,15300.0,-9.647860527038574,5.603990077972412,1.0671988725662231
159,15400.0,-12.6676025390625,12.373285293579102,5.989234924316406
160,15500.0,-12.6676025390625,12.373285293579102,5.989234924316406
161,15600.0,-10.054640769958496,2.9527432918548584,0.2297109663486481
162,15700.0,-10.054640769958496,2.9527432918548584,0.2297109663486481
163,15800.0,-6.235695838928223,-3.881158351898194,-8.865407943725586
164,15900.0,-6.235695838928223,-3.881158351898194,-8.865407943725586
165,16000.0,-6.235695838928223,-3.881158351898194,-8.865407943725586
166,16100.0,-13.241880416870115,1.227518081665039,5.137389659881592
167,16200.0,-13.241880416870115,1.227518081665039,5.137389659881592
168,16300.0,-11.71526050567627,0.4618147313594818,3.9792640209198
169,16400.0,-11.71526050567627,0.4618147313594818,3.9792640209198
170,16500.0,-4.627718925476074,0.6843472719192505,-7.680960178375244
171,16600.0,-4.627718925476074,0.6843472719192505,-7.680960178375244
172,16700.0,-3.2781667709350586,-2.3617160320281982,-10.983055114746094
173,16800.0,-3.2781667709350586,-2.3617160320281982,-10.983055114746094
174,16900.0,-3.2781667709350586,-2.3617160320281982,-10.983055114746094
175,17000.0,-15.079567909240724,-1.2658032178878784,4.2376885414123535
176,17100.0,-15.079567909240724,-1.2658032178878784,4.2376885414123535
177,17200.0,-9.839285850524902,3.089133977890014,1.4715858697891235
178,17300.0,-9.839285850524902,3.089133977890014,1.4715858697891235
179,17400.0,-7.5326056480407715,1.0504491329193115,-5.4795637130737305
180,16000.0,-6.235695838928223,-3.881158351898194,-8.865407943725586
181,16100.0,-13.241880416870115,1.227518081665039,5.137389659881592
182,16200.0,-13.241880416870115,1.227518081665039,5.137389659881592
183,16300.0,-11.71526050567627,0.4618147313594818,3.9792640209198
184,16400.0,-11.71526050567627,0.4618147313594818,3.9792640209198
185,16500.0,-4.627718925476074,0.6843472719192505,-7.680960178375244
186,16600.0,-4.627718925476074,0.6843472719192505,-7.680960178375244
187,16700.0,-3.2781667709350586,-2.3617160320281982,-10.983055114746094
188,16800.0,-3.2781667709350586,-2.3617160320281982,-10.983055114746094
189,16900.0,-3.2781667709350586,-2.3617160320281982,-10.983055114746094
190,17000.0,-15.079567909240724,-1.2658032178878784,4.2376885414123535
191,17100.0,-15.079567909240724,-1.2658032178878784,4.2376885414123535
192,17200.0,-9.839285850524902,3.089133977890014,1.4715858697891235
193,17300.0,-9.839285850524902,3.089133977890014,1.4715858697891235
194,17400.0,-7.5326056480407715,1.0504491329193115,-5.4795637130737305
195,17500.0,-7.5326056480407715,1.0504491329193115,-5.4795637130737305
196,17600.0,-7.5326056480407715,1.0504491329193115,-5.4795637130737305
197,17700.0,-5.986842632293701,4.649254322052002,-5.72841739654541
198,17800.0,-5.986842632293701,4.649254322052002,-5.72841739654541
199,17900.0,-5.178067684173584,-1.4165509939193726,-4.893322467803955
200,18000.0,-5.178067684173584,-1.4165509939193726,-4.893322467803955
201,18100.0,-5.178067684173584,-1.4165509939193726,-4.893322467803955
202,18200.0,-7.494320392608643,3.4983065128326416,-1.9070796966552732
203,18300.0,-7.494320392608643,3.4983065128326416,-1.9070796966552732
204,18400.0,-9.533005714416504,-0.3254238963127136,0.1938186287879944
205,18500.0,-9.533005714416504,-0.3254238963127136,0.1938186287879944
206,18600.0,-9.580862045288086,9.052047729492188,0.2297109663486481
207,18700.0,-9.580862045288086,9.052047729492188,0.2297109663486481
208,18800.0,-7.724031925201416,-0.3565305471420288,-2.117647886276245
209,18900.0,-7.724031925201416,-0.3565305471420288,-2.117647886276245
210,17500.0,-7.5326056480407715,1.0504491329193115,-5.4795637130737305
211,17600.0,-7.5326056480407715,1.0504491329193115,-5.4795637130737305
212,17700.0,-5.986842632293701,4.649254322052002,-5.72841739654541
213,17800.0,-5.986842632293701,4.649254322052002,-5.72841739654541
214,17900.0,-5.178067684173584,-1.4165509939193726,-4.893322467803955
215,18000.0,-5.178067684173584,-1.4165509939193726,-4.893322467803955
216,18100.0,-5.178067684173584,-1.4165509939193726,-4.893322467803955
217,18200.0,-7.494320392608643,3.4983065128326416,-1.9070796966552732
218,18300.0,-7.494320392608643,3.4983065128326416,-1.9070796966552732
219,18400.0,-9.533005714416504,-0.3254238963127136,0.1938186287879944
220,18500.0,-9.533005714416504,-0.3254238963127136,0.1938186287879944
221,18600.0,-9.580862045288086,9.052047729492188,0.2297109663486481
222,18700.0,-9.580862045288086,9.052047729492188,0.2297109663486481
223,18800.0,-7.724031925201416,-0.3565305471420288,-2.117647886276245
224,18900.0,-7.724031925201416,-0.3565305471420288,-2.117647886276245
225,19000.0,-6.92482852935791,-7.324430465698242,-6.336194515228272
226,19100.0,-6.92482852935791,-7.324430465698242,-6.336194515228272
227,19200.0,-7.111469268798827,-10.277173042297363,-6.771688461303711
228,19300.0,-7.111469268798827,-10.277173042297363,-6.771688461303711
229,19400.0,-7.111469268798827,-10.277173042297363,-6.771688461303711
230,19500.0,-7.6522464752197275,-3.522234916687012,-5.381458282470703
231,19600.0,-7.6522464752197275,-3.522234916687012,-5.381458282470703
232,19700.0,-7.3363938331604,4.584648132324219,-5.201996326446533
233,19800.0,-7.3363938331604,4.584648132324219,-5.201996326446533
234,19900.0,-8.934800148010254,3.799802303314209,-3.242274522781372
235,20000.0,-8.934800148010254,3.799802303314209,-3.242274522781372
236,20100.0,-8.934800148010254,3.799802303314209,-3.242274522781372
237,20200.0,-10.40877914428711,14.129618644714355,-1.4548362493515017
238,20300.0,-10.40877914428711,14.129618644714355,-1.4548362493515017
239,20400.0,-7.068397998809815,9.38943576812744,-4.469792366027832
240,19000.0,-6.92482852935791,-7.324430465698242,-6.336194515228272
241,19100.0,-6.92482852935791,-7.324430465698242,-6.336194515228272
242,19200.0,-7.111469268798827,-10.277173042297363,-6.771688461303711
243,19300.0,-7.111469268798827,-10.277173042297363,-6.771688461303711
244,19400.0,-7.111469268798827,-10.277173042297363,-6.771688461303711
245,19500.0,-7.6522464752197275,-3.522234916687012,-5.381458282470703
246,19600.0,-7.6522464752197275,-3.522234916687012,-5.381458282470703
247,19700.0,-7.3363938331604,4.584648132324219,-5.201996326446533
248,19800.0,-7.3363938331604,4.584648132324219,-5.201996326446533
249,19900.0,-8.934800148010254,3.799802303314209,-3.242274522781372
250,20000.0,-8.934800148010254,3.799802303314209,-3.242274522781372
251,20100.0,-8.934800148010254,3.799802303314209,-3.242274522781372
252,20200.0,-10.40877914428711,14.129618644714355,-1.4548362493515017
253,20300.0,-10.40877914428711,14.129618644714355,-1.4548362493515017
254,20400.0,-7.068397998809815,9.38943576812744,-4.469792366027832
255,20500.0,-7.068397998809815,9.38943576812744,-4.469792366027832
256,20600.0,-10.715059280395508,7.551748275756836,-1.7802598476409912
257,20700.0,-10.715059280395508,7.551748275756836,-1.7802598476409912
258,20800.0,-6.723831653594972,-2.091326951980591,-2.048256158828736
259,20900.0,-6.723831653594972,-2.091326951980591,-2.048256158828736
260,21000.0,-12.423534393310547,-0.9738788008689879,3.6323046684265137
261,21100.0,-12.423534393310547,-0.9738788008689879,3.6323046684265137
262,21200.0,-4.785645484924316,0.9667003750801086,-9.322437286376953
263,21300.0,-4.785645484924316,0.9667003750801086,-9.322437286376953
264,21400.0,-4.785645484924316,0.9667003750801086,-9.322437286376953
265,21500.0,-7.389035701751709,4.319044589996338,-8.099704742431639
266,21600.0,-7.389035701751709,4.319044589996338,-8.099704742431639
267,21700.0,-6.154339790344237,6.585048198699951,-5.860023021697997
268,21800.0,-6.154339790344237,6.585048198699951,-5.860023021697997
269,21900.0,-6.154339790344237,6.585048198699951,-5.860023021697997
270,20500.0,-7.068397998809815,9.38943576812744,-4.469792366027832
271,20600.0,-10.715059280395508,7.551748275756836,-1.7802598476409912
272,20700.0,-10.715059280395508,7.551748275756836,-1.7802598476409912
273,20800.0,-6.723831653594972,-2.091326951980591,-2.048256158828736
274,20900.0,-6.723831653594972,-2.091326951980591,-2.048256158828736
275,21000.0,-12.423534393310547,-0.9738788008689879,3.6323046684265137
276,21100.0,-12.423534393310547,-0.9738788008689879,3.6323046684265137
277,21200.0,-4.785645484924316,0.9667003750801086,-9.322437286376953
278,21300.0,-4.785645484924316,0.9667003750801086,-9.322437286376953
279,21400.0,-4.785645484924316,0.9667003750801086,-9.322437286376953
280,21500.0,-7.389035701751709,4.319044589996338,-8.099704742431639
281,21600.0,-7.389035701751709,4.319044589996338,-8.099704742431639
282,21700.0,-6.154339790344237,6.585048198699951,-5.860023021697997
283,21800.0,-6.154339790344237,6.585048198699951,-5.860023021697997
284,21900.0,-6.154339790344237,6.585048198699951,-5.860023021697997
285,22000.0,-3.7040894031524663,4.189832210540772,-8.338986396789549
286,22100.0,-3.7040894031524663,4.189832210540772,-8.338986396789549
287,22200.0,-6.206982612609862,4.101297855377196,-3.1585259437561035
288,22300.0,-6.206982612609862,4.101297855377196,-3.1585259437561035
289,22400.0,-9.054441452026367,3.081955671310425,0.28235307335853577
290,22500.0,-9.054441452026367,3.081955671310425,0.28235307335853577
291,22600.0,-11.57168960571289,6.403193473815918,2.912065029144287
292,22700.0,-11.57168960571289,6.403193473815918,2.912065029144287
293,22800.0,-11.57168960571289,6.403193473815918,2.912065029144287
294,22900.0,-11.2366943359375,7.539783954620361,1.710868239402771
295,23000.0,-11.2366943359375,7.539783954620361,1.710868239402771
296,23100.0,-6.996613025665282,4.721039295196533,-7.6522464752197275
297,23200.0,-6.996613025665282,4.721039295196533,-7.6522464752197275
298,23300.0,-6.996613025665282,4.721039295196533,-7.6522464752197275
299,23400.0,-7.039684295654298,0.3756731450557709,-3.232703685760498
300,22000.0,-3.7040894031524663,4.189832210540772,-8.338986396789549
301,22100.0,-3.7040894031524663,4.189832210540772,-8.338986396789549
302,22200.0,-6.206982612609862,4.101297855377196,-3.1585259437561035
303,22300.0,-6.206982612609862,4.101297855377196,-3.1585259437561035
304,22400.0,-9.054441452026367,3.081955671310425,0.28235307335853577
305,22500.0,-9.054441452026367,3.081955671310425,0.28235307335853577
306,22600.0,-11.57168960571289,6.403193473815918,2.912065029144287
307,22700.0,-11.57168960571289,6.403193473815918,2.912065029144287
308,22800.0,-11.57168960571289,6.403193473815918,2.912065029144287
309,22900.0,-11.2366943359375,7.539783954620361,1.710868239402771
310,23000.0,-11.2366943359375,7.539783954620361,1.710868239402771
311,23100.0,-6.996613025665282,4.721039295196533,-7.6522464752197275
312,23200.0,-6.996613025665282,4.721039295196533,-7.6522464752197275
313,23300.0,-6.996613025665282,4.721039295196533,-7.6522464752197275
314,23400.0,-7.039684295654298,0.3756731450557709,-3.232703685760498
315,23500.0,-7.039684295654298,0.3756731450557709,-3.232703685760498
316,23600.0,-1.674975872039795,1.0671988725662231,-12.50010585784912
317,23700.0,-1.674975872039795,1.0671988725662231,-12.50010585784912
318,23800.0,-5.656632423400879,0.4498506784439087,-8.554340362548826
319,23900.0,-5.656632423400879,0.4498506784439087,-8.554340362548826
320,24000.0,-9.336793899536133,3.572484016418457,-9.28893756866455
321,24100.0,-9.336793899536133,3.572484016418457,-9.28893756866455
322,24200.0,-2.622533798217773,0.9236294627189636,-13.416556358337402
323,24300.0,-2.622533798217773,0.9236294627189636,-13.416556358337402
324,24400.0,-2.622533798217773,0.9236294627189636,-13.416556358337402
325,24500.0,-4.29750919342041,-3.4025940895080566,-18.120845794677734
326,24600.0,-4.29750919342041,-3.4025940895080566,-18.120845794677734
327,24700.0,-6.245267391204834,-6.259624004364014,-16.859827041625973
328,24800.0,-6.245267391204834,-6.259624004364014,-16.859827041625973
329,24900.0,-6.245267391204834,-6.259624004364014,-16.859827041625973
330,23500.0,-7.039684295654298,0.3756731450557709,-3.232703685760498
331,23600.0,-1.674975872039795,1.0671988725662231,-12.50010585784912
332,23700.0,-1.674975872039795,1.0671988725662231,-12.50010585784912
333,23800.0,-5.656632423400879,0.4498506784439087,-8.554340362548826
334,23900.0,-5.656632423400879,0.4498506784439087,-8.554340362548826
335,24000.0,-9.336793899536133,3.572484016418457,-9.28893756866455
336,24100.0,-9.336793899536133,3.572484016418457,-9.28893756866455
337,24200.0,-2.622533798217773,0.9236294627189636,-13.416556358337402
338,24300.0,-2.622533798217773,0.9236294627189636,-13.416556358337402
339,24400.0,-2.622533798217773,0.9236294627189636,-13.416556358337402
340,24500.0,-4.29750919342041,-3.4025940895080566,-18.120845794677734
341,24600.0,-4.29750919342041,-3.4025940895080566,-18.120845794677734
342,24700.0,-6.245267391204834,-6.259624004364014,-16.859827041625973
343,24800.0,-6.245267391204834,-6.259624004364014,-16.859827041625973
344,24900.0,-6.245267391204834,-6.259624004364014,-16.859827041625973
345,25000.0,-8.269595146179201,3.041277408599853,-8.908478736877441
346,25100.0,-8.269595146179201,3.041277408599853,-8.908478736877441
347,25200.0,-9.284152030944824,3.7878382205963135,-7.121039390563965
348,25300.0,-9.284152030944824,3.7878382205963135,-7.121039390563965
349,25400.0,-10.14556884765625,6.317051887512207,0.4378865361213684
350,25500.0,-10.14556884765625,6.317051887512207,0.4378865361213684
351,25600.0,-10.14556884765625,6.317051887512207,0.4378865361213684
352,25700.0,-9.212367057800293,11.176874160766602,2.2683956623077397
353,25800.0,-9.212367057800293,11.176874160766602,2.2683956623077397
354,25900.0,-11.45205020904541,11.447263717651367,6.62333345413208
355,26000.0,-11.45205020904541,11.447263717651367,6.62333345413208
356,26100.0,-11.45205020904541,11.447263717651367,6.62333345413208
357,26200.0,-8.111669540405272,7.822136878967285,3.242274522781372
358,26300.0,-8.111669540405272,7.822136878967285,3.242274522781372
359,26400.0,-7.28375244140625,2.8594231605529785,-1.921436548233032
360,25000.0,-8.269595146179201,3.041277408599853,-8.908478736877441
361,25100.0,-8.269595146179201,3.041277408599853,-8.908478736877441
362,25200.0,-9.284152030944824,3.7878382205963135,-7.121039390563965
363,25300.0,-9.284152030944824,3.7878382205963135,-7.121039390563965
364,25400.0,-10.14556884765625,6.317051887512207,0.4378865361213684
365,25500.0,-10.14556884765625,6.317051887512207,0.4378865361213684
366,25600.0,-10.14556884765625,6.317051887512207,0.4378865361213684
367,25700.0,-9.212367057800293,11.176874160766602,2.2683956623077397
368,25800.0,-9.212367057800293,11.176874160766602,2.2683956623077397
369,25900.0,-11.45205020904541,11.447263717651367,6.62333345413208
370,26000.0,-11.45205020904541,11.447263717651367,6.62333345413208
371,26100.0,-11.45205020904541,11.447263717651367,6.62333345413208
372,26200.0,-8.111669540405272,7.822136878967285,3.242274522781372
373,26300.0,-8.111669540405272,7.822136878967285,3.242274522781372
374,26400.0,-7.28375244140625,2.8594231605529785,-1.921436548233032
375,26500.0,-7.28375244140625,2.8594231605529785,-1.921436548233032
376,26600.0,-7.4608211517333975,3.115455150604248,1.761117458343506
377,26700.0,-7.4608211517333975,3.115455150604248,1.761117458343506
378,26800.0,-10.494919776916504,4.0390844345092765,-1.1413763761520386
379,26900.0,-10.494919776916504,4.0390844345092765,-1.1413763761520386
380,27000.0,-10.494919776916504,4.0390844345092765,-1.1413763761520386
381,27100.0,-6.1399827003479,0.1986042857170105,-4.096512317657472
382,27200.0,-6.1399827003479,0.1986042857170105,-4.096512317657472
383,27300.0,-9.987641334533693,-0.3565305471420288,-5.072784423828125
384,27400.0,-9.987641334533693,-0.3565305471420288,-5.072784423828125
385,27500.0,-9.987641334533693,-0.3565305471420288,-5.072784423828125
386,27600.0,-8.925228118896484,9.24825954437256,1.9477576017379759
387,27700.0,-8.925228118896484,9.24825954437256,1.9477576017379759
388,27800.0,-8.666803359985353,12.727423667907715,1.6342979669570925
389,27900.0,-8.666803359985353,12.727423667907715,1.6342979669570925
390,26500.0,-7.28375244140625,2.8594231605529785,-1.921436548233032
391,26600.0,-7.4608211517333975,3.115455150604248,1.761117458343506
392,26700.0,-7.4608211517333975,3.115455150604248,1.761117458343506
393,26800.0,-10.494919776916504,4.0390844345092765,-1.1413763761520386
394,26900.0,-10.494919776916504,4.0390844345092765,-1.1413763761520386
395,27000.0,-10.494919776916504,4.0390844345092765,-1.1413763761520386
396,27100.0,-6.1399827003479,0.1986042857170105,-4.096512317657472
397,27200.0,-6.1399827003479,0.1986042857170105,-4.096512317657472
398,27300.0,-9.987641334533693,-0.3565305471420288,-5.072784423828125
399,27400.0,-9.987641334533693,-0.3565305471420288,-5.072784423828125
400,27500.0,-9.987641334533693,-0.3565305471420288,-5.072784423828125
401,27600.0,-8.925228118896484,9.24825954437256,1.9477576017379759
402,27700.0,-8.925228118896484,9.24825954437256,1.9477576017379759
403,27800.0,-8.666803359985353,12.727423667907715,1.6342979669570925
404,27900.0,-8.666803359985353,12.727423667907715,1.6342979669570925
405,28000.0,-7.28375244140625,15.19442367553711,0.2847459018230438
406,28100.0,-7.28375244140625,15.19442367553711,0.2847459018230438
407,28200.0,-7.422535419464111,5.960521221160889,-1.8664016723632808
408,28300.0,-7.422535419464111,5.960521221160889,-1.8664016723632808
409,28400.0,-7.422535419464111,5.960521221160889,-1.8664016723632808
410,28500.0,-7.456035614013673,8.47298526763916,-2.0865414142608643
411,28600.0,-7.456035614013673,8.47298526763916,-2.0865414142608643
412,28700.0,-7.154539585113525,15.129817008972168,-1.6223337650299072
413,28800.0,-7.154539585113525,15.129817008972168,-1.6223337650299072
414,28900.0,-7.154539585113525,15.129817008972168,-1.6223337650299072
415,29000.0,-8.934800148010254,5.003392219543457,-1.6271194219589231
416,29100.0,-8.934800148010254,5.003392219543457,-1.6271194219589231
417,29200.0,-7.968099594116211,15.967306137084961,1.4548362493515017
418,29300.0,-7.968099594116211,15.967306137084961,1.4548362493515017
419,29400.0,-7.590033531188965,14.098511695861815,0.3900300860404968
420,28000.0,-7.28375244140625,15.19442367553711,0.2847459018230438
421,28100.0,-7.28375244140625,15.19442367553711,0.2847459018230438
422,28200.0,-7.422535419464111,5.960521221160889,-1.8664016723632808
423,28300.0,-7.422535419464111,5.960521221160889,-1.8664016723632808
424,28400.0,-7.422535419464111,5.960521221160889,-1.8664016723632808
425,28500.0,-7.456035614013673,8.47298526763916,-2.0865414142608643
426,28600.0,-7.456035614013673,8.47298526763916,-2.0865414142608643
427,28700.0,-7.154539585113525,15.129817008972168,-1.6223337650299072
428,28800.0,-7.154539585113525,15.129817008972168,-1.6223337650299072
429,28900.0,-7.154539585113525,15.129817008972168,-1.6223337650299072
430,29000.0,-8.934800148010254,5.003392219543457,-1.6271194219589231
431,29100.0,-8.934800148010254,5.003392219543457,-1.6271194219589231
432,29200.0,-7.968099594116211,15.967306137084961,1.4548362493515017
433,29300.0,-7.968099594116211,15.967306137084961,1.4548362493515017
434,29400.0,-7.590033531188965,14.098511695861815,0.3900300860404968
435,29500.0,-7.590033531188965,14.098511695861815,0.3900300860404968
436,29600.0,-7.465606689453125,12.66999626159668,-0.6340980529785156
437,29700.0,-7.465606689453125,12.66999626159668,-0.6340980529785156
438,29800.0,-8.130810737609862,5.175675392150879,-2.548356056213379
439,29900.0,-8.130810737609862,5.175675392150879,-2.548356056213379
440,30000.0,-7.518248558044434,7.2263240814208975,-1.8305093050003047
441,30100.0,-7.518248558044434,7.2263240814208975,-1.8305093050003047
442,30200.0,-7.518248558044434,7.2263240814208975,-1.8305093050003047
443,30300.0,-8.202595710754395,15.471990585327148,-0.9427721500396729
444,30400.0,-8.202595710754395,15.471990585327148,-0.9427721500396729
445,30500.0,-8.709875106811522,13.677373886108398,-0.7250252366065979
446,30600.0,-8.709875106811522,13.677373886108398,-0.7250252366065979
447,30700.0,-8.709875106811522,13.677373886108398,-0.7250252366065979
448,30800.0,-8.95394229888916,4.737788677215576,-0.969093143939972
449,30900.0,-8.95394229888916,4.737788677215576,-0.969093143939972
450,29500.0,-7.590033531188965,14.098511695861815,0.3900300860404968
451,29600.0,-7.465606689453125,12.66999626159668,-0.6340980529785156
452,29700.0,-7.465606689453125,12.66999626159668,-0.6340980529785156
453,29800.0,-8.130810737609862,5.175675392150879,-2.548356056213379
454,29900.0,-8.130810737609862,5.175675392150879,-2.548356056213379
455,30000.0,-7.518248558044434,7.2263240814208975,-1.8305093050003047
456,30100.0,-7.518248558044434,7.2263240814208975,-1.8305093050003047
457,30200.0,-7.518248558044434,7.2263240814208975,-1.8305093050003047
458,30300.0,-8.202595710754395,15.471990585327148,-0.9427721500396729
459,30400.0,-8.202595710754395,15.471990585327148,-0.9427721500396729
460,30500.0,-8.709875106811522,13.677373886108398,-0.7250252366065979
461,30600.0,-8.709875106811522,13.677373886108398,-0.7250252366065979
462,30700.0,-8.709875106811522,13.677373886108398,-0.7250252366065979
463,30800.0,-8.95394229888916,4.737788677215576,-0.969093143939972
464,30900.0,-8.95394229888916,4.737788677215576,-0.969093143939972
465,31000.0,-8.126025199890138,-0.607776939868927,-1.998006820678711
466,31100.0,-8.126025199890138,-0.607776939868927,-1.998006820678711
467,31200.0,-10.040283203125,5.967699527740479,-0.5694918036460876
468,31300.0,-10.040283203125,5.967699527740479,-0.5694918036460876
469,31400.0,-8.207381248474121,1.7802598476409912,-1.6247265338897705
470,31500.0,-8.207381248474121,1.7802598476409912,-1.6247265338897705
471,31600.0,-9.71485996246338,-7.855636119842528,-4.778466701507568
472,31700.0,-9.71485996246338,-7.855636119842528,-4.778466701507568
473,31800.0,-9.71485996246338,-7.855636119842528,-4.778466701507568
474,31900.0,-10.107282638549805,-15.99362564086914,-2.6560330390930176
475,32000.0,-10.107282638549805,-15.99362564086914,-2.6560330390930176
476,32100.0,-8.796016693115233,-8.38444995880127,-8.647661209106445
477,32200.0,-8.796016693115233,-8.38444995880127,-8.647661209106445
478,32300.0,-9.274580955505373,-3.2542388439178467,-5.929414749145508
479,32400.0,-9.274580955505373,-3.2542388439178467,-5.929414749145508
480,31000.0,-8.126025199890138,-0.607776939868927,-1.998006820678711
481,31100.0,-8.126025199890138,-0.607776939868927,-1.998006820678711
482,31200.0,-10.040283203125,5.967699527740479,-0.5694918036460876
483,31300.0,-10.040283203125,5.967699527740479,-0.5694918036460876
484,31400.0,-8.207381248474121,1.7802598476409912,-1.6247265338897705
485,31500.0,-8.207381248474121,1.7802598476409912,-1.6247265338897705
486,31600.0,-9.71485996246338,-7.855636119842528,-4.778466701507568
487,31700.0,-9.71485996246338,-7.855636119842528,-4.778466701507568
488,31800.0,-9.71485996246338,-7.855636119842528,-4.778466701507568
489,31900.0,-10.107282638549805,-15.99362564086914,-2.6560330390930176
490,32000.0,-10.107282638549805,-15.99362564086914,-2.6560330390930176
491,32100.0,-8.796016693115233,-8.38444995880127,-8.647661209106445
492,32200.0,-8.796016693115233,-8.38444995880127,-8.647661209106445
493,32300.0,-9.274580955505373,-3.2542388439178467,-5.929414749145508
494,32400.0,-9.274580955505373,-3.2542388439178467,-5.929414749145508
495,32500.0,-9.274580955505373,-3.2542388439178467,-5.929414749145508
496,32600.0,-9.226724624633787,3.90987229347229,-3.2662029266357417
497,32700.0,-9.226724624633787,3.90987229347229,-3.2662029266357417
498,32800.0,-8.145168304443361,-3.541377305984497,-6.671189785003662
499,32900.0,-8.145168304443361,-3.541377305984497,-6.671189785003662
500,33000.0,-10.939985275268556,-17.012968063354492,-3.9003009796142583
501,33100.0,-10.939985275268556,-17.012968063354492,-3.9003009796142583
502,33200.0,-9.394222259521484,-14.639288902282715,-3.5054850578308105
503,33300.0,-9.394222259521484,-14.639288902282715,-3.5054850578308105
504,33400.0,-9.394222259521484,-14.639288902282715,-3.5054850578308105
505,33500.0,-9.265008926391602,3.0939197540283203,-2.541177749633789
506,33600.0,-9.265008926391602,3.0939197540283203,-2.541177749633789
507,33700.0,-6.5084776878356925,7.740781307220459,-5.7954163551330575
508,33800.0,-6.5084776878356925,7.740781307220459,-5.7954163551330575
509,33900.0,-6.5084776878356925,7.740781307220459,-5.7954163551330575
510,32500.0,-9.274580955505373,-3.2542388439178467,-5.929414749145508
511,32600.0,-9.226724624633787,3.90987229347229,-3.2662029266357417
512,32700.0,-9.226724624633787,3.90987229347229,-3.2662029266357417
513,32800.0,-8.145168304443361,-3.541377305984497,-6.671189785003662
514,32900.0,-8.145168304443361,-3.541377305984497,-6.671189785003662
515,33000.0,-10.939985275268556,-17.012968063354492,-3.9003009796142583
516,33100.0,-10.939985275268556,-17.012968063354492,-3.9003009796142583
517,33200.0,-9.394222259521484,-14.639288902282715,-3.5054850578308105
518,33300.0,-9.394222259521484,-14.639288902282715,-3.5054850578308105
519,33400.0,-9.394222259521484,-14.639288902282715,-3.5054850578308105
520,33500.0,-9.265008926391602,3.0939197540283203,-2.541177749633789
521,33600.0,-9.265008926391602,3.0939197540283203,-2.541177749633789
522,33700.0,-6.5084776878356925,7.740781307220459,-5.7954163551330575
523,33800.0,-6.5084776878356925,7.740781307220459,-5.7954163551330575
524,33900.0,-6.5084776878356925,7.740781307220459,-5.7954163551330575
525,34000.0,-10.62413215637207,0.7010970115661621,-4.264009952545166
526,34100.0,-10.62413215637207,0.7010970115661621,-4.264009952545166
527,34200.0,-10.317852020263672,-0.2392822504043579,-1.284945726394653
528,34300.0,-10.317852020263672,-0.2392822504043579,-1.284945726394653
529,34400.0,-8.834300994873047,2.232503652572632,-4.517649173736572
530,34500.0,-8.834300994873047,2.232503652572632,-4.517649173736572
531,34600.0,-10.786844253540039,-2.950350284576416,-5.8097734451293945
532,34700.0,-10.786844253540039,-2.950350284576416,-5.8097734451293945
533,34800.0,-10.786844253540039,-2.950350284576416,-5.8097734451293945
534,34900.0,-7.671389579772949,-6.451050281524657,-9.578469276428224
535,35000.0,-7.671389579772949,-6.451050281524657,-9.578469276428224
536,35100.0,-7.001399040222168,-6.776473522186278,-9.69093132019043
537,35200.0,-7.001399040222168,-6.776473522186278,-9.69093132019043
538,35300.0,-6.403193473815918,-2.526820659637451,-8.398807525634767
539,35400.0,-6.403193473815918,-2.526820659637451,-8.398807525634767
540,34000.0,-10.62413215637207,0.7010970115661621,-4.264009952545166
541,34100.0,-10.62413215637207,0.7010970115661621,-4.264009952545166
542,34200.0,-10.317852020263672,-0.2392822504043579,-1.284945726394653
543,34300.0,-10.317852020263672,-0.2392822504043579,-1.284945726394653
544,34400.0,-8.834300994873047,2.232503652572632,-4.517649173736572
545,34500.0,-8.834300994873047,2.232503652572632,-4.517649173736572
546,34600.0,-10.786844253540039,-2.950350284576416,-5.8097734451293945
547,34700.0,-10.786844253540039,-2.950350284576416,-5.8097734451293945
548,34800.0,-10.786844253540039,-2.950350284576416,-5.8097734451293945
549,34900.0,-7.671389579772949,-6.451050281524657,-9.578469276428224
550,35000.0,-7.671389579772949,-6.451050281524657,-9.578469276428224
551,35100.0,-7.001399040222168,-6.776473522186278,-9.69093132019043
552,35200.0,-7.001399040222168,-6.776473522186278,-9.69093132019043
553,35300.0,-6.403193473815918,-2.526820659637451,-8.398807525634767
554,35400.0,-6.403193473815918,-2.526820659637451,-8.398807525634767
555,35500.0,-7.814958095550537,-2.620140790939331,-6.704688549041747
556,35600.0,-7.814958095550537,-2.620140790939331,-6.704688549041747
557,35700.0,-7.814958095550537,-2.620140790939331,-6.704688549041747
558,35800.0,-6.589833736419678,-4.862215518951416,-9.511469841003418
559,35900.0,-6.589833736419678,-4.862215518951416,-9.511469841003418
560,36000.0,-5.154139995574951,-1.9908283948898315,-10.152746200561523
561,36100.0,-5.154139995574951,-1.9908283948898315,-10.152746200561523
562,36200.0,-6.857830047607423,-0.4953142702579498,-6.2093749046325675
563,36300.0,-6.857830047607423,-0.4953142702579498,-6.2093749046325675
564,36400.0,-8.556733131408691,1.5864413976669312,-2.502892255783081
565,36500.0,-8.556733131408691,1.5864413976669312,-2.502892255783081
566,36600.0,-8.556733131408691,1.5864413976669312,-2.502892255783081
567,36700.0,-8.872586250305176,5.130211353302002,1.6007983684539795
568,36800.0,-8.872586250305176,5.130211353302002,1.6007983684539795
569,36900.0,-7.140182495117188,4.565505504608153,-4.754538536071777
570,35500.0,-7.814958095550537,-2.620140790939331,-6.704688549041747
571,35600.0,-7.814958095550537,-2.620140790939331,-6.704688549041747
572,35700.0,-7.814958095550537,-2.620140790939331,-6.704688549041747
573,35800.0,-6.589833736419678,-4.862215518951416,-9.511469841003418
574,35900.0,-6.589833736419678,-4.862215518951416,-9.511469841003418
575,36000.0,-5.154139995574951,-1.9908283948898315,-10.152746200561523
576,36100.0,-5.154139995574951,-1.9908283948898315,-10.152746200561523
577,36200.0,-6.857830047607423,-0.4953142702579498,-6.2093749046325675
578,36300.0,-6.857830047607423,-0.4953142702579498,-6.2093749046325675
579,36400.0,-8.556733131408691,1.5864413976669312,-2.502892255783081
580,36500.0,-8.556733131408691,1.5864413976669312,-2.502892255783081
581,36600.0,-8.556733131408691,1.5864413976669312,-2.502892255783081
582,36700.0,-8.872586250305176,5.130211353302002,1.6007983684539795
583,36800.0,-8.872586250305176,5.130211353302002,1.6007983684539795
584,36900.0,-7.140182495117188,4.565505504608153,-4.754538536071777
585,37000.0,-7.140182495117188,4.565505504608153,-4.754538536071777
586,37100.0,-5.513063907623291,-1.155733346939087,-8.00399112701416
587,37200.0,-5.513063907623291,-1.155733346939087,-8.00399112701416
588,37300.0,-6.293124198913574,0.3900300860404968,-9.499505043029783
589,37400.0,-6.293124198913574,0.3900300860404968,-9.499505043029783
590,37500.0,-6.293124198913574,0.3900300860404968,-9.499505043029783
591,37600.0,-11.423335075378418,-1.7156537771224976,-1.6247265338897705
592,37700.0,-11.423335075378418,-1.7156537771224976,-1.6247265338897705
593,37800.0,-11.629117965698242,3.1728827953338623,-0.8901299238204956
594,37900.0,-11.629117965698242,3.1728827953338623,-0.8901299238204956
595,38000.0,-3.780659914016724,2.651247262954712,-7.152146816253662
596,38100.0,-3.780659914016724,2.651247262954712,-7.152146816253662
597,38200.0,-8.781659126281737,3.5126638412475586,-3.1489543914794917
598,38300.0,-8.781659126281737,3.5126638412475586,-3.1489543914794917
599,38400.0,-9.418149948120117,0.9762716889381408,-2.7900311946868896
600,37000.0,-7.140182495117188,4.565505504608153,-4.754538536071777
601,37100.0,-5.513063907623291,-1.155733346939087,-8.00399112701416
602,37200.0,-5.513063907623291,-1.155733346939087,-8.00399112701416
603,37300.0,-6.293124198913574,0.3900300860404968,-9.499505043029783
604,37400.0,-6.293124198913574,0.3900300860404968,-9.499505043029783
605,37500.0,-6.293124198913574,0.3900300860404968,-9.499505043029783
606,37600.0,-11.423335075378418,-1.7156537771224976,-1.6247265338897705
607,37700.0,-11.423335075378418,-1.7156537771224976,-1.6247265338897705
608,37800.0,-11.629117965698242,3.1728827953338623,-0.8901299238204956
609,37900.0,-11.629117965698242,3.1728827953338623,-0.8901299238204956
610,38000.0,-3.780659914016724,2.651247262954712,-7.152146816253662
611,38100.0,-3.780659914016724,2.651247262954712,-7.152146816253662
612,38200.0,-8.781659126281737,3.5126638412475586,-3.1489543914794917
613,38300.0,-8.781659126281737,3.5126638412475586,-3.1489543914794917
614,38400.0,-9.418149948120117,0.9762716889381408,-2.7900311946868896
615,38500.0,-9.418149948120117,0.9762716889381408,-2.7900311946868896
616,38600.0,-9.418149948120117,0.9762716889381408,-2.7900311946868896
617,38700.0,-10.810771942138672,5.9700927734375,-1.8975083827972408
618,38800.0,-10.810771942138672,5.9700927734375,-1.8975083827972408
619,38900.0,-8.791230201721191,9.372685432434082,-2.376072883605957
620,39000.0,-8.791230201721191,9.372685432434082,-2.376072883605957
621,39100.0,-8.791230201721191,9.372685432434082,-2.376072883605957
622,39200.0,-8.59501838684082,2.9264223575592037,-3.273381233215332
623,39300.0,-8.59501838684082,2.9264223575592037,-3.273381233215332
624,39400.0,-8.767301559448242,-6.2500529289245605,-6.8721866607666025
625,39500.0,-8.767301559448242,-6.2500529289245605,-6.8721866607666025
626,39600.0,-8.461020469665527,-6.764510154724121,-4.527220726013184
627,39700.0,-8.461020469665527,-6.764510154724121,-4.527220726013184
628,39800.0,-9.035298347473145,-8.389235496520996,-3.5820553302764893
629,39900.0,-9.035298347473145,-8.389235496520996,-3.5820553302764893
630,38500.0,-9.418149948120117,0.9762716889381408,-2.7900311946868896
631,38600.0,-9.418149948120117,0.9762716889381408,-2.7900311946868896
632,38700.0,-10.810771942138672,5.9700927734375,-1.8975083827972408
633,38800.0,-10.810771942138672,5.9700927734375,-1.8975083827972408
634,38900.0,-8.791230201721191,9.372685432434082,-2.376072883605957
635,39000.0,-8.791230201721191,9.372685432434082,-2.376072883605957
636,39100.0,-8.791230201721191,9.372685432434082,-2.376072883605957
637,39200.0,-8.59501838684082,2.9264223575592037,-3.273381233215332
638,39300.0,-8.59501838684082,2.9264223575592037,-3.273381233215332
639,39400.0,-8.767301559448242,-6.2500529289245605,-6.8721866607666025
640,39500.0,-8.767301559448242,-6.2500529289245605,-6.8721866607666025
641,39600.0,-8.461020469665527,-6.764510154724121,-4.527220726013184
642,39700.0,-8.461020469665527,-6.764510154724121,-4.527220726013184
643,39800.0,-9.035298347473145,-8.389235496520996,-3.5820553302764893
644,39900.0,-9.035298347473145,-8.389235496520996,-3.5820553302764893
645,40000.0,-8.939584732055664,-8.300702095031737,-2.6967110633850098
646,40100.0,-8.939584732055664,-8.300702095031737,-2.6967110633850098
647,40200.0,-8.729016304016112,-4.438685894012451,-4.067798614501953
648,40300.0,-8.729016304016112,-4.438685894012451,-4.067798614501953
649,40400.0,-8.729016304016112,-4.438685894012451,-4.067798614501953
650,40500.0,-8.561518669128418,0.04307081177830696,-4.328616142272948
651,40600.0,-8.561518669128418,0.04307081177830696,-4.328616142272948
652,40700.0,-7.77188777923584,-7.728816509246826,-3.8356947898864746
653,40800.0,-7.77188777923584,-7.728816509246826,-3.8356947898864746
654,40900.0,-7.77188777923584,-7.728816509246826,-3.8356947898864746
655,41000.0,-7.001399040222168,-3.2039895057678223,-4.242474555969238
656,41100.0,-7.001399040222168,-3.2039895057678223,-4.242474555969238
657,41200.0,-7.987241268157959,2.682354211807251,-5.417350769042969
658,41300.0,-7.987241268157959,2.682354211807251,-5.417350769042969
659,41400.0,-7.925028324127197,2.9814569950103764,-4.589433670043945
660,40000.0,-8.939584732055664,-8.300702095031737,-2.6967110633850098
661,40100.0,-8.939584732055664,-8.300702095031737,-2.6967110633850098
662,40200.0,-8.729016304016112,-4.438685894012451,-4.067798614501953
663,40300.0,-8.729016304016112,-4.438685894012451,-4.067798614501953
664,40400.0,-8.729016304016112,-4.438685894012451,-4.067798614501953
665,40500.0,-8.561518669128418,0.04307081177830696,-4.328616142272948
666,40600.0,-8.561518669128418,0.04307081177830696,-4.328616142272948
667,40700.0,-7.77188777923584,-7.728816509246826,-3.8356947898864746
668,40800.0,-7.77188777923584,-7.728816509246826,-3.8356947898864746
669,40900.0,-7.77188777923584,-7.728816509246826,-3.8356947898864746
670,41000.0,-7.001399040222168,-3.2039895057678223,-4.242474555969238
671,41100.0,-7.001399040222168,-3.2039895057678223,-4.242474555969238
672,41200.0,-7.987241268157959,2.682354211807251,-5.417350769042969
673,41300.0,-7.987241268157959,2.682354211807251,-5.417350769042969
674,41400.0,-7.925028324127197,2.9814569950103764,-4.589433670043945
675,41500.0,-7.925028324127197,2.9814569950103764,-4.589433670043945
676,41600.0,-7.877171993255615,14.694323539733887,-4.7569313049316415
677,41700.0,-7.877171993255615,14.694323539733887,-4.7569313049316415
678,41800.0,-8.403593063354492,13.14138126373291,-2.455036163330078
679,41900.0,-8.403593063354492,13.14138126373291,-2.455036163330078
680,42000.0,-8.403593063354492,13.14138126373291,-2.455036163330078
681,42100.0,-10.040283203125,11.787044525146484,-1.832902193069458
682,42200.0,-10.040283203125,11.787044525146484,-1.832902193069458
683,42300.0,-9.480363845825195,6.740581512451173,-1.2634103298187256
684,42400.0,-9.480363845825195,6.740581512451173,-1.2634103298187256
685,42500.0,-9.480363845825195,6.740581512451173,-1.2634103298187256
686,42600.0,-9.456435203552246,10.214959144592283,-1.8759729862213133
687,42700.0,-9.456435203552246,10.214959144592283,-1.8759729862213133
688,42800.0,-9.255437850952148,4.479363918304443,-1.6869399547576904
689,42900.0,-9.255437850952148,4.479363918304443,-1.6869399547576904
690,41500.0,-7.925028324127197,2.9814569950103764,-4.589433670043945
691,41600.0,-7.877171993255615,14.694323539733887,-4.7569313049316415
692,41700.0,-7.877171993255615,14.694323539733887,-4.7569313049316415
693,41800.0,-8.403593063354492,13.14138126373291,-2.455036163330078
694,41900.0,-8.403593063354492,13.14138126373291,-2.455036163330078
695,42000.0,-8.403593063354492,13.14138126373291,-2.455036163330078
696,42100.0,-10.040283203125,11.787044525146484,-1.832902193069458
697,42200.0,-10.040283203125,11.787044525146484,-1.832902193069458
698,42300.0,-9.480363845825195,6.740581512451173,-1.2634103298187256
699,42400.0,-9.480363845825195,6.740581512451173,-1.2634103298187256
700,42500.0,-9.480363845825195,6.740581512451173,-1.2634103298187256
701,42600.0,-9.456435203552246,10.214959144592283,-1.8759729862213133
702,42700.0,-9.456435203552246,10.214959144592283,-1.8759729862213133
703,42800.0,-9.255437850952148,4.479363918304443,-1.6869399547576904
704,42900.0,-9.255437850952148,4.479363918304443,-1.6869399547576904
705,43000.0,-8.676375389099121,12.859027862548828,-2.4717857837677
706,43100.0,-8.676375389099121,12.859027862548828,-2.4717857837677
707,43200.0,-8.992227554321289,14.06261920928955,-3.881158351898194
708,43300.0,-8.992227554321289,14.06261920928955,-3.881158351898194
709,43400.0,-8.992227554321289,14.06261920928955,-3.881158351898194
710,43500.0,-8.992227554321289,16.247264862060547,-1.7467604875564575
711,43600.0,-8.992227554321289,16.247264862060547,-1.7467604875564575
712,43700.0,-9.360722541809082,10.387242317199707,-1.7204395532608032
713,43800.0,-9.360722541809082,10.387242317199707,-1.7204395532608032
714,43900.0,-9.360722541809082,10.387242317199707,-1.7204395532608032
715,44000.0,-9.954142570495604,10.301101684570312,-1.7180466651916504
716,44100.0,-9.954142570495604,10.301101684570312,-1.7180466651916504
717,44200.0,-9.21715259552002,8.061419486999513,-1.706082463264465
718,44300.0,-9.21715259552002,8.061419486999513,-1.706082463264465
719,44400.0,-7.642674922943115,5.498706817626953,-3.589233875274658
720,43000.0,-8.676375389099121,12.859027862548828,-2.4717857837677
721,43100.0,-8.676375389099121,12.859027862548828,-2.4717857837677
722,43200.0,-8.992227554321289,14.06261920928955,-3.881158351898194
723,43300.0,-8.992227554321289,14.06261920928955,-3.881158351898194
724,43400.0,-8.992227554321289,14.06261920928955,-3.881158351898194
725,43500.0,-8.992227554321289,16.247264862060547,-1.7467604875564575
726,43600.0,-8.992227554321289,16.247264862060547,-1.7467604875564575
727,43700.0,-9.360722541809082,10.387242317199707,-1.7204395532608032
728,43800.0,-9.360722541809082,10.387242317199707,-1.7204395532608032
729,43900.0,-9.360722541809082,10.387242317199707,-1.7204395532608032
730,44000.0,-9.954142570495604,10.301101684570312,-1.7180466651916504
731,44100.0,-9.954142570495604,10.301101684570312,-1.7180466651916504
732,44200.0,-9.21715259552002,8.061419486999513,-1.706082463264465
733,44300.0,-9.21715259552002,8.061419486999513,-1.706082463264465
734,44400.0,-7.642674922943115,5.498706817626953,-3.589233875274658
735,44500.0,-7.642674922943115,5.498706817626953,-3.589233875274658
736,44600.0,-11.600403785705565,3.13220477104187,-1.84965181350708
737,44700.0,-11.600403785705565,3.13220477104187,-1.84965181350708
738,44800.0,-11.600403785705565,3.13220477104187,-1.84965181350708
739,44900.0,-15.50549030303955,-0.6532405614852905,7.168896198272705
740,45000.0,-15.50549030303955,-0.6532405614852905,7.168896198272705
741,45100.0,-7.934599876403809,-0.4354937374591827,-5.776273727416992
742,45200.0,-7.934599876403809,-0.4354937374591827,-5.776273727416992
743,45300.0,-9.145368576049805,0.9140582084655762,-4.381258487701416
744,45400.0,-9.145368576049805,0.9140582084655762,-4.381258487701416
745,45500.0,-9.145368576049805,0.9140582084655762,-4.381258487701416
746,45600.0,-9.762716293334961,-1.3950155973434448,-0.7489535212516785
747,45700.0,-9.762716293334961,-1.3950155973434448,-0.7489535212516785
748,45800.0,-9.28893756866455,5.8097734451293945,-2.8761727809906006
749,45900.0,-9.28893756866455,5.8097734451293945,-2.8761727809906006
750,44500.0,-7.642674922943115,5.498706817626953,-3.589233875274658
751,44600.0,-11.600403785705565,3.13220477104187,-1.84965181350708
752,44700.0,-11.600403785705565,3.13220477104187,-1.84965181350708
753,44800.0,-11.600403785705565,3.13220477104187,-1.84965181350708
754,44900.0,-15.50549030303955,-0.6532405614852905,7.168896198272705
755,45000.0,-15.50549030303955,-0.6532405614852905,7.168896198272705
756,45100.0,-7.934599876403809,-0.4354937374591827,-5.776273727416992
757,45200.0,-7.934599876403809,-0.4354937374591827,-5.776273727416992
758,45300.0,-9.145368576049805,0.9140582084655762,-4.381258487701416
759,45400.0,-9.145368576049805,0.9140582084655762,-4.381258487701416
760,45500.0,-9.145368576049805,0.9140582084655762,-4.381258487701416
761,45600.0,-9.762716293334961,-1.3950155973434448,-0.7489535212516785
762,45700.0,-9.762716293334961,-1.3950155973434448,-0.7489535212516785
763,45800.0,-9.28893756866455,5.8097734451293945,-2.8761727809906006
764,45900.0,-9.28893756866455,5.8097734451293945,-2.8761727809906006
765,46000.0,-6.594619274139403,-3.5605196952819824,-5.278566360473633
766,46100.0,-6.594619274139403,-3.5605196952819824,-5.278566360473633
767,46200.0,-6.594619274139403,-3.5605196952819824,-5.278566360473633
768,46300.0,-8.255237579345701,4.070191383361816,-3.3762726783752437
769,46400.0,-8.255237579345701,4.070191383361816,-3.3762726783752437
770,46500.0,-8.264809608459473,3.6610186100006095,-2.823530912399292
771,46600.0,-8.264809608459473,3.6610186100006095,-2.823530912399292
772,46700.0,-9.63828945159912,13.454841613769533,-3.1728827953338623
773,46800.0,-9.63828945159912,13.454841613769533,-3.1728827953338623
774,46900.0,-8.389235496520996,14.510075569152832,-4.1587257385253915
775,47000.0,-8.389235496520996,14.510075569152832,-4.1587257385253915
776,47100.0,-8.389235496520996,14.510075569152832,-4.1587257385253915
777,47200.0,-7.676175117492676,0.016749758273363113,-5.639883518218994
778,47300.0,-7.676175117492676,0.016749758273363113,-5.639883518218994
779,47400.0,-7.690531730651855,-0.4211367666721344,-5.414957523345947
780,46000.0,-6.594619274139403,-3.5605196952819824,-5.278566360473633
781,46100.0,-6.594619274139403,-3.5605196952819824,-5.278566360473633
782,46200.0,-6.594619274139403,-3.5605196952819824,-5.278566360473633
783,46300.0,-8.255237579345701,4.070191383361816,-3.3762726783752437
784,46400.0,-8.255237579345701,4.070191383361816,-3.3762726783752437
785,46500.0,-8.264809608459473,3.6610186100006095,-2.823530912399292
786,46600.0,-8.264809608459473,3.6610186100006095,-2.823530912399292
787,46700.0,-9.63828945159912,13.454841613769533,-3.1728827953338623
788,46800.0,-9.63828945159912,13.454841613769533,-3.1728827953338623
789,46900.0,-8.389235496520996,14.510075569152832,-4.1587257385253915
790,47000.0,-8.389235496520996,14.510075569152832,-4.1587257385253915
791,47100.0,-8.389235496520996,14.510075569152832,-4.1587257385253915
792,47200.0,-7.676175117492676,0.016749758273363113,-5.639883518218994
793,47300.0,-7.676175117492676,0.016749758273363113,-5.639883518218994
794,47400.0,-7.690531730651855,-0.4211367666721344,-5.414957523345947
795,47500.0,-7.690531730651855,-0.4211367666721344,-5.414957523345947
796,47600.0,-7.934599876403809,-8.001599311828612,-3.1537401676177983
797,47700.0,-7.934599876403809,-8.001599311828612,-3.1537401676177983
798,47800.0,-7.968099594116211,-7.2813591957092285,-4.187439441680908
799,47900.0,-7.968099594116211,-7.2813591957092285,-4.187439441680908
800,48000.0,-7.968099594116211,-7.2813591957092285,-4.187439441680908
801,48100.0,-8.872586250305176,-7.47517728805542,-2.203789472579956
802,48200.0,-8.872586250305176,-7.47517728805542,-2.203789472579956
803,48300.0,-11.643473625183105,2.2157537937164307,-6.460620880126952
804,48400.0,-11.643473625183105,2.2157537937164307,-6.460620880126952
805,48500.0,-11.643473625183105,2.2157537937164307,-6.460620880126952
806,48600.0,-0.9188438653945924,1.5529417991638184,-6.372087001800537
807,48700.0,-0.9188438653945924,1.5529417991638184,-6.372087001800537
808,48800.0,-9.944571495056152,5.058426856994629,-3.562912940979004
809,48900.0,-9.944571495056152,5.058426856994629,-3.562912940979004
810,47500.0,-7.690531730651855,-0.4211367666721344,-5.414957523345947
811,47600.0,-7.934599876403809,-8.001599311828612,-3.1537401676177983
812,47700.0,-7.934599876403809,-8.001599311828612,-3.1537401676177983
813,47800.0,-7.968099594116211,-7.2813591957092285,-4.187439441680908
814,47900.0,-7.968099594116211,-7.2813591957092285,-4.187439441680908
815,48000.0,-7.968099594116211,-7.2813591957092285,-4.187439441680908
816,48100.0,-8.872586250305176,-7.47517728805542,-2.203789472579956
817,48200.0,-8.872586250305176,-7.47517728805542,-2.203789472579956
818,48300.0,-11.643473625183105,2.2157537937164307,-6.460620880126952
819,48400.0,-11.643473625183105,2.2157537937164307,-6.460620880126952
820,48500.0,-11.643473625183105,2.2157537937164307,-6.460620880126952
821,48600.0,-0.9188438653945924,1.5529417991638184,-6.372087001800537
822,48700.0,-0.9188438653945924,1.5529417991638184,-6.372087001800537
823,48800.0,-9.944571495056152,5.058426856994629,-3.562912940979004
824,48900.0,-9.944571495056152,5.058426856994629,-3.562912940979004
825,49000.0,-13.117453575134276,2.2779672145843506,4.19701099395752
826,49100.0,-13.117453575134276,2.2779672145843506,4.19701099395752
827,49200.0,-3.6562328338623047,1.8209381103515625,-9.023333549499512
828,49300.0,-3.6562328338623047,1.8209381103515625,-9.023333549499512
829,49400.0,-3.6562328338623047,1.8209381103515625,-9.023333549499512
830,49500.0,-14.816357612609865,2.9383859634399414,4.687539577484131
831,49600.0,-14.816357612609865,2.9383859634399414,4.687539577484131
832,49700.0,-13.931013107299805,6.1471614837646475,4.785645484924316
833,49800.0,-13.931013107299805,6.1471614837646475,4.785645484924316
834,49900.0,-13.931013107299805,6.1471614837646475,4.785645484924316
835,50000.0,-12.174681663513185,6.388835906982423,5.6997032165527335
836,50100.0,-12.174681663513185,6.388835906982423,5.6997032165527335
837,50200.0,-12.830314636230467,11.803793907165527,7.817351341247559
838,50300.0,-12.830314636230467,11.803793907165527,7.817351341247559
839,50400.0,-11.509476661682127,8.834300994873047,6.553941249847412
840,49000.0,-13.117453575134276,2.2779672145843506,4.19701099395752
841,49100.0,-13.117453575134276,2.2779672145843506,4.19701099395752
842,49200.0,-3.6562328338623047,1.8209381103515625,-9.023333549499512
843,49300.0,-3.6562328338623047,1.8209381103515625,-9.023333549499512
844,49400.0,-3.6562328338623047,1.8209381103515625,-9.023333549499512
845,49500.0,-14.816357612609865,2.9383859634399414,4.687539577484131
846,49600.0,-14.816357612609865,2.9383859634399414,4.687539577484131
847,49700.0,-13.931013107299805,6.1471614837646475,4.785645484924316
848,49800.0,-13.931013107299805,6.1471614837646475,4.785645484924316
849,49900.0,-13.931013107299805,6.1471614837646475,4.785645484924316
850,50000.0,-12.174681663513185,6.388835906982423,5.6997032165527335
851,50100.0,-12.174681663513185,6.388835906982423,5.6997032165527335
852,50200.0,-12.830314636230467,11.803793907165527,7.817351341247559
853,50300.0,-12.830314636230467,11.803793907165527,7.817351341247559
854,50400.0,-11.509476661682127,8.834300994873047,6.553941249847412
855,50500.0,-11.509476661682127,8.834300994873047,6.553941249847412
856,50600.0,-11.509476661682127,8.834300994873047,6.553941249847412
857,50700.0,-7.901099681854247,5.237888813018799,2.115255117416382
858,50800.0,-7.901099681854247,5.237888813018799,2.115255117416382
859,50900.0,-4.871786594390869,-3.684947013854981,-14.840286254882812
860,51000.0,-4.871786594390869,-3.684947013854981,-14.840286254882812
861,51100.0,-4.240081787109375,-3.8572301864624015,-18.05145263671875
862,51200.0,-4.240081787109375,-3.8572301864624015,-18.05145263671875
863,51300.0,-4.240081787109375,-3.8572301864624015,-18.05145263671875
864,51400.0,-6.10169792175293,3.1178479194641118,-6.477370738983153
865,51500.0,-6.10169792175293,3.1178479194641118,-6.477370738983153
866,51600.0,-8.532805442810059,0.6771688461303711,-5.429314613342285
867,51700.0,-8.532805442810059,0.6771688461303711,-5.429314613342285
868,51800.0,-9.561718940734863,4.4027934074401855,-3.749552965164185
869,51900.0,-9.561718940734863,4.4027934074401855,-3.749552965164185
870,50500.0,-11.509476661682127,8.834300994873047,6.553941249847412
871,50600.0,-11.509476661682127,8.834300994873047,6.553941249847412
872,50700.0,-7.901099681854247,5.237888813018799,2.115255117416382
873,50800.0,-7.901099681854247,5.237888813018799,2.115255117416382
874,50900.0,-4.871786594390869,-3.684947013854981,-14.840286254882812
875,51000.0,-4.871786594390869,-3.684947013854981,-14.840286254882812
876,51100.0,-4.240081787109375,-3.8572301864624015,-18.05145263671875
877,51200.0,-4.240081787109375,-3.8572301864624015,-18.05145263671875
878,51300.0,-4.240081787109375,-3.8572301864624015,-18.05145263671875
879,51400.0,-6.10169792175293,3.1178479194641118,-6.477370738983153
880,51500.0,-6.10169792175293,3.1178479194641118,-6.477370738983153
881,51600.0,-8.532805442810059,0.6771688461303711,-5.429314613342285
882,51700.0,-8.532805442810059,0.6771688461303711,-5.429314613342285
883,51800.0,-9.561718940734863,4.4027934074401855,-3.749552965164185
884,51900.0,-9.561718940734863,4.4027934074401855,-3.749552965164185
885,52000.0,-6.80040168762207,-4.4721856117248535,-4.335794448852538
886,52100.0,-6.80040168762207,-4.4721856117248535,-4.335794448852538
887,52200.0,-6.80040168762207,-4.4721856117248535,-4.335794448852538
888,52300.0,-7.642674922943115,-1.5314064025878906,-3.768695831298828
889,52400.0,-7.642674922943115,-1.5314064025878906,-3.768695831298828
890,52500.0,-7.781459331512451,7.39860725402832,-4.0941195487976065
891,52600.0,-7.781459331512451,7.39860725402832,-4.0941195487976065
892,52700.0,-8.202595710754395,8.202595710754395,-3.682554006576538
893,52800.0,-8.202595710754395,8.202595710754395,-3.682554006576538
894,52900.0,-8.202595710754395,8.202595710754395,-3.682554006576538
895,53000.0,-8.920442581176758,1.289731502532959,-3.94097900390625
896,53100.0,-8.920442581176758,1.289731502532959,-3.94097900390625
897,53200.0,-9.236295700073242,-6.0538411140441895,-4.890929222106934
898,53300.0,-9.236295700073242,-6.0538411140441895,-4.890929222106934
899,53400.0,-8.585447311401367,-1.442872166633606,-4.1659040451049805
900,52000.0,-6.80040168762207,-4.4721856117248535,-4.335794448852538
901,52100.0,-6.80040168762207,-4.4721856117248535,-4.335794448852538
902,52200.0,-6.80040168762207,-4.4721856117248535,-4.335794448852538
903,52300.0,-7.642674922943115,-1.5314064025878906,-3.768695831298828
904,52400.0,-7.642674922943115,-1.5314064025878906,-3.768695831298828
905,52500.0,-7.781459331512451,7.39860725402832,-4.0941195487976065
906,52600.0,-7.781459331512451,7.39860725402832,-4.0941195487976065
907,52700.0,-8.202595710754395,8.202595710754395,-3.682554006576538
908,52800.0,-8.202595710754395,8.202595710754395,-3.682554006576538
909,52900.0,-8.202595710754395,8.202595710754395,-3.682554006576538
910,53000.0,-8.920442581176758,1.289731502532959,-3.94097900390625
911,53100.0,-8.920442581176758,1.289731502532959,-3.94097900390625
912,53200.0,-9.236295700073242,-6.0538411140441895,-4.890929222106934
913,53300.0,-9.236295700073242,-6.0538411140441895,-4.890929222106934
914,53400.0,-8.585447311401367,-1.442872166633606,-4.1659040451049805
915,53500.0,-8.585447311401367,-1.442872166633606,-4.1659040451049805
916,53600.0,-8.585447311401367,-1.442872166633606,-4.1659040451049805
917,53700.0,-8.590232849121094,0.6484549045562744,-4.362115383148193
918,53800.0,-8.590232849121094,0.6484549045562744,-4.362115383148193
919,53900.0,-9.054441452026367,2.050648927688598,-5.414957523345947
920,54000.0,-9.054441452026367,2.050648927688598,-5.414957523345947
921,54100.0,-7.810173511505128,11.765508651733398,-5.5896339416503915
922,54200.0,-7.810173511505128,11.765508651733398,-5.5896339416503915
923,54300.0,-8.044669151306152,11.468798637390135,-4.431507587432861
924,54400.0,-8.044669151306152,11.468798637390135,-4.431507587432861
925,54500.0,-8.044669151306152,11.468798637390135,-4.431507587432861
926,54600.0,-8.733802795410156,1.2251251935958862,-4.572684288024902
927,54700.0,-8.733802795410156,1.2251251935958862,-4.572684288024902
928,54800.0,-7.8245296478271475,5.462814331054688,-3.924229145050049
929,54900.0,-7.8245296478271475,5.462814331054688,-3.924229145050049
930,53500.0,-8.585447311401367,-1.442872166633606,-4.1659040451049805
931,53600.0,-8.585447311401367,-1.442872166633606,-4.1659040451049805
932,53700.0,-8.590232849121094,0.6484549045562744,-4.362115383148193
933,53800.0,-8.590232849121094,0.6484549045562744,-4.362115383148193
934,53900.0,-9.054441452026367,2.050648927688598,-5.414957523345947
935,54000.0,-9.054441452026367,2.050648927688598,-5.414957523345947
936,54100.0,-7.810173511505128,11.765508651733398,-5.5896339416503915
937,54200.0,-7.810173511505128,11.765508651733398,-5.5896339416503915
938,54300.0,-8.044669151306152,11.468798637390135,-4.431507587432861
939,54400.0,-8.044669151306152,11.468798637390135,-4.431507587432861
940,54500.0,-8.044669151306152,11.468798637390135,-4.431507587432861
941,54600.0,-8.733802795410156,1.2251251935958862,-4.572684288024902
942,54700.0,-8.733802795410156,1.2251251935958862,-4.572684288024902
943,54800.0,-7.8245296478271475,5.462814331054688,-3.924229145050049
944,54900.0,-7.8245296478271475,5.462814331054688,-3.924229145050049
945,55000.0,-8.102097511291504,10.499706268310547,-2.3784656524658203
946,55100.0,-8.102097511291504,10.499706268310547,-2.3784656524658203
947,55200.0,-8.102097511291504,10.499706268310547,-2.3784656524658203
948,55300.0,-7.963313579559326,15.19442367553711,-2.069791555404663
949,55400.0,-7.963313579559326,15.19442367553711,-2.069791555404663
950,55500.0,-8.97787094116211,9.822537422180176,-0.2632104754447937
951,55600.0,-8.97787094116211,9.822537422180176,-0.2632104754447937
952,55700.0,-8.97787094116211,9.822537422180176,-0.2632104754447937
953,55800.0,-8.71944522857666,5.659025192260742,-0.7393822073936462
954,55900.0,-8.71944522857666,5.659025192260742,-0.7393822073936462
955,56000.0,-8.202595710754395,2.2061824798583984,-2.0793628692626958
956,56100.0,-8.202595710754395,2.2061824798583984,-2.0793628692626958
957,56200.0,-9.322437286376953,7.903492927551269,0.04785645008087158
958,56300.0,-9.322437286376953,7.903492927551269,0.04785645008087158
959,56400.0,-8.365307807922362,-0.5072783827781677,-3.1130621433258057
960,55000.0,-8.102097511291504,10.499706268310547,-2.3784656524658203
961,55100.0,-8.102097511291504,10.499706268310547,-2.3784656524658203
962,55200.0,-8.102097511291504,10.499706268310547,-2.3784656524658203
963,55300.0,-7.963313579559326,15.19442367553711,-2.069791555404663
964,55400.0,-7.963313579559326,15.19442367553711,-2.069791555404663
965,55500.0,-8.97787094116211,9.822537422180176,-0.2632104754447937
966,55600.0,-8.97787094116211,9.822537422180176,-0.2632104754447937
967,55700.0,-8.97787094116211,9.822537422180176,-0.2632104754447937
968,55800.0,-8.71944522857666,5.659025192260742,-0.7393822073936462
969,55900.0,-8.71944522857666,5.659025192260742,-0.7393822073936462
970,56000.0,-8.202595710754395,2.2061824798583984,-2.0793628692626958
971,56100.0,-8.202595710754395,2.2061824798583984,-2.0793628692626958
972,56200.0,-9.322437286376953,7.903492927551269,0.04785645008087158
973,56300.0,-9.322437286376953,7.903492927551269,0.04785645008087158
974,56400.0,-8.365307807922362,-0.5072783827781677,-3.1130621433258057
975,56500.0,-8.365307807922362,-0.5072783827781677,-3.1130621433258057
976,56600.0,-8.365307807922362,-0.5072783827781677,-3.1130621433258057
977,56700.0,-7.441678524017334,-6.903293132781982,-4.517649173736572
978,56800.0,-7.441678524017334,-6.903293132781982,-4.517649173736572
979,56900.0,-8.896513938903809,-13.160524368286133,-4.192224979400635
980,57000.0,-8.896513938903809,-13.160524368286133,-4.192224979400635
981,57100.0,-8.264809608459473,-5.97727108001709,-5.757131576538086
982,57200.0,-8.264809608459473,-5.97727108001709,-5.757131576538086
983,57300.0,-8.642874717712402,-10.05224895477295,-3.2662029266357417
984,57400.0,-8.642874717712402,-10.05224895477295,-3.2662029266357417
985,57500.0,-8.642874717712402,-10.05224895477295,-3.2662029266357417
986,57600.0,-8.949156761169434,-2.833101987838745,-4.3310089111328125
987,57700.0,-8.949156761169434,-2.833101987838745,-4.3310089111328125
988,57800.0,-8.791230201721191,7.334001541137695,-4.886143684387207
989,57900.0,-8.791230201721191,7.334001541137695,-4.886143684387207
990,56500.0,-8.365307807922362,-0.5072783827781677,-3.1130621433258057
991,56600.0,-8.365307807922362,-0.5072783827781677,-3.1130621433258057
992,56700.0,-7.441678524017334,-6.903293132781982,-4.517649173736572
993,56800.0,-7.441678524017334,-6.903293132781982,-4.517649173736572
994,56900.0,-8.896513938903809,-13.160524368286133,-4.192224979400635
995,57000.0,-8.896513938903809,-13.160524368286133,-4.192224979400635
996,57100.0,-8.264809608459473,-5.97727108001709,-5.757131576538086
997,57200.0,-8.264809608459473,-5.97727108001709,-5.757131576538086
998,57300.0,-8.642874717712402,-10.05224895477295,-3.2662029266357417
999,57400.0,-8.642874717712402,-10.05224895477295,-3.2662029266357417
1000,57500.0,-8.642874717712402,-10.05224895477295,-3.2662029266357417
1001,57600.0,-8.949156761169434,-2.833101987838745,-4.3310089111328125
1002,57700.0,-8.949156761169434,-2.833101987838745,-4.3310089111328125
1003,57800.0,-8.791230201721191,7.334001541137695,-4.886143684387207
1004,57900.0,-8.791230201721191,7.334001541137695,-4.886143684387207
1005,58000.0,-10.85862922668457,3.3332018852233887,-2.53399920463562
1006,58100.0,-10.85862922668457,3.3332018852233887,-2.53399920463562
1007,58200.0,-9.91107177734375,-1.5457634925842283,-5.132604122161865
1008,58300.0,-9.91107177734375,-1.5457634925842283,-5.132604122161865
1009,58400.0,-9.91107177734375,-1.5457634925842283,-5.132604122161865
1010,58500.0,-8.776873588562013,1.4739787578582764,-2.775674343109131
1011,58600.0,-8.776873588562013,1.4739787578582764,-2.775674343109131
1012,58700.0,-7.207180976867676,-1.1509476900100708,-3.744767427444458
1013,58800.0,-7.207180976867676,-1.1509476900100708,-3.744767427444458
1014,58900.0,-7.207180976867676,-1.1509476900100708,-3.744767427444458
1015,59000.0,-8.422735214233397,-2.1583259105682373,-3.3523442745208736
1016,59100.0,-8.422735214233397,-2.1583259105682373,-3.3523442745208736
1017,59200.0,-8.173882484436035,-1.057627558708191,-3.3978083133697514
1018,59300.0,-8.173882484436035,-1.057627558708191,-3.3978083133697514
1019,59400.0,-9.72921657562256,2.1990041732788086,-4.170689582824707
1020,58000.0,-10.85862922668457,3.3332018852233887,-2.53399920463562
1021,58100.0,-10.85862922668457,3.3332018852233887,-2.53399920463562
1022,58200.0,-9.91107177734375,-1.5457634925842283,-5.132604122161865
1023,58300.0,-9.91107177734375,-1.5457634925842283,-5.132604122161865
1024,58400.0,-9.91107177734375,-1.5457634925842283,-5.132604122161865
1025,58500.0,-8.776873588562013,1.4739787578582764,-2.775674343109131
1026,58600.0,-8.776873588562013,1.4739787578582764,-2.775674343109131
1027,58700.0,-7.207180976867676,-1.1509476900100708,-3.744767427444458
1028,58800.0,-7.207180976867676,-1.1509476900100708,-3.744767427444458
1029,58900.0,-7.207180976867676,-1.1509476900100708,-3.744767427444458
1030,59000.0,-8.422735214233397,-2.1583259105682373,-3.3523442745208736
1031,59100.0,-8.422735214233397,-2.1583259105682373,-3.3523442745208736
1032,59200.0,-8.173882484436035,-1.057627558708191,-3.3978083133697514
1033,59300.0,-8.173882484436035,-1.057627558708191,-3.3978083133697514
1034,59400.0,-9.72921657562256,2.1990041732788086,-4.170689582824707
1035,59500.0,-9.72921657562256,2.1990041732788086,-4.170689582824707
1036,59600.0,-9.72921657562256,2.1990041732788086,-4.170689582824707
1037,59700.0,-10.724631309509276,7.884350299835205,-2.754138946533203
1038,59800.0,-10.724631309509276,7.884350299835205,-2.754138946533203
1039,59900.0,-11.825328826904295,11.69851016998291,-2.44067907333374
1040,60000.0,-11.825328826904295,11.69851016998291,-2.44067907333374
1041,60100.0,-11.825328826904295,11.69851016998291,-2.44067907333374
1042,60200.0,-11.164910316467283,6.161518096923827,-3.5676987171173096
1043,60300.0,-11.164910316467283,6.161518096923827,-3.5676987171173096
1044,60400.0,-9.121439933776855,4.902893543243408,-3.426522016525269
1045,60500.0,-9.121439933776855,4.902893543243408,-3.426522016525269
1046,60600.0,-6.379265785217285,-0.7561319470405579,-4.230510234832764
1047,60700.0,-6.379265785217285,-0.7561319470405579,-4.230510234832764
1048,60800.0,-6.379265785217285,-0.7561319470405579,-4.230510234832764
1049,60900.0,-6.561119556427003,-1.983649969100952,-4.278366565704347
1050,59500.0,-9.72921657562256,2.1990041732788086,-4.170689582824707
1051,59600.0,-9.72921657562256,2.1990041732788086,-4.170689582824707
1052,59700.0,-10.724631309509276,7.884350299835205,-2.754138946533203
1053,59800.0,-10.724631309509276,7.884350299835205,-2.754138946533203
1054,59900.0,-11.825328826904295,11.69851016998291,-2.44067907333374
1055,60000.0,-11.825328826904295,11.69851016998291,-2.44067907333374
1056,60100.0,-11.825328826904295,11.69851016998291,-2.44067907333374
1057,60200.0,-11.164910316467283,6.161518096923827,-3.5676987171173096
1058,60300.0,-11.164910316467283,6.161518096923827,-3.5676987171173096
1059,60400.0,-9.121439933776855,4.902893543243408,-3.426522016525269
1060,60500.0,-9.121439933776855,4.902893543243408,-3.426522016525269
1061,60600.0,-6.379265785217285,-0.7561319470405579,-4.230510234832764
1062,60700.0,-6.379265785217285,-0.7561319470405579,-4.230510234832764
1063,60800.0,-6.379265785217285,-0.7561319470405579,-4.230510234832764
1064,60900.0,-6.561119556427003,-1.983649969100952,-4.278366565704347
1065,61000.0,-6.561119556427003,-1.983649969100952,-4.278366565704347
1066,61100.0,-6.159125804901122,-3.476771354675293,-4.381258487701416
1067,61200.0,-6.159125804901122,-3.476771354675293,-4.381258487701416
1068,61300.0,-7.379465103149414,-3.32602334022522,-3.6634113788604736
1069,61400.0,-7.379465103149414,-3.32602334022522,-3.6634113788604736
1070,61500.0,-8.930014610290527,-1.3136597871780396,-2.8929224014282227
1071,61600.0,-8.930014610290527,-1.3136597871780396,-2.8929224014282227
1072,61700.0,-11.911470413208008,9.456435203552246,-1.4739787578582764
1073,61800.0,-11.911470413208008,9.456435203552246,-1.4739787578582764
1074,61900.0,-11.911470413208008,9.456435203552246,-1.4739787578582764
1075,62000.0,-12.346964836120605,6.850651264190674,-2.868994235992432
1076,62100.0,-12.346964836120605,6.850651264190674,-2.868994235992432
1077,62200.0,-12.811171531677244,1.0887343883514404,-1.4811571836471558
1078,62300.0,-12.811171531677244,1.0887343883514404,-1.4811571836471558
1079,62400.0,-10.403992652893066,0.014356935396790503,-3.129812002182007
1080,61000.0,-6.561119556427003,-1.983649969100952,-4.278366565704347
1081,61100.0,-6.159125804901122,-3.476771354675293,-4.381258487701416
1082,61200.0,-6.159125804901122,-3.476771354675293,-4.381258487701416
1083,61300.0,-7.379465103149414,-3.32602334022522,-3.6634113788604736
1084,61400.0,-7.379465103149414,-3.32602334022522,-3.6634113788604736
1085,61500.0,-8.930014610290527,-1.3136597871780396,-2.8929224014282227
1086,61600.0,-8.930014610290527,-1.3136597871780396,-2.8929224014282227
1087,61700.0,-11.911470413208008,9.456435203552246,-1.4739787578582764
1088,61800.0,-11.911470413208008,9.456435203552246,-1.4739787578582764
1089,61900.0,-11.911470413208008,9.456435203552246,-1.4739787578582764
1090,62000.0,-12.346964836120605,6.850651264190674,-2.868994235992432
1091,62100.0,-12.346964836120605,6.850651264190674,-2.868994235992432
1092,62200.0,-12.811171531677244,1.0887343883514404,-1.4811571836471558
1093,62300.0,-12.811171531677244,1.0887343883514404,-1.4811571836471558
1094,62400.0,-10.403992652893066,0.014356935396790503,-3.129812002182007
1095,62500.0,-10.403992652893066,0.014356935396790503,-3.129812002182007
1096,62600.0,-10.403992652893066,0.014356935396790503,-3.129812002182007
1097,62700.0,-8.135597229003906,2.2013967037200928,-2.644068956375122
1098,62800.0,-8.135597229003906,2.2013967037200928,-2.644068956375122
1099,62900.0,-4.2687954902648935,-0.9762716889381408,-5.644669055938722
1100,63000.0,-4.2687954902648935,-0.9762716889381408,-5.644669055938722
1101,63100.0,-6.599405288696289,-3.4959137439727783,-6.656832218170166
1102,63200.0,-6.599405288696289,-3.4959137439727783,-6.656832218170166
1103,63300.0,-6.599405288696289,-3.4959137439727783,-6.656832218170166
1104,63400.0,-9.016156196594238,-0.4905286431312561,-3.500699520111084
1105,63500.0,-9.016156196594238,-0.4905286431312561,-3.500699520111084
1106,63600.0,-12.31346607208252,4.335794448852538,-2.3473589420318604
1107,63700.0,-12.31346607208252,4.335794448852538,-2.3473589420318604
1108,63800.0,-12.983454704284668,2.021935224533081,-2.395215511322021
1109,63900.0,-12.983454704284668,2.021935224533081,-2.395215511322021
1110,62500.0,-10.403992652893066,0.014356935396790503,-3.129812002182007
1111,62600.0,-10.403992652893066,0.014356935396790503,-3.129812002182007
1112,62700.0,-8.135597229003906,2.2013967037200928,-2.644068956375122
1113,62800.0,-8.135597229003906,2.2013967037200928,-2.644068956375122
1114,62900.0,-4.2687954902648935,-0.9762716889381408,-5.644669055938722
1115,63000.0,-4.2687954902648935,-0.9762716889381408,-5.644669055938722
1116,63100.0,-6.599405288696289,-3.4959137439727783,-6.656832218170166
1117,63200.0,-6.599405288696289,-3.4959137439727783,-6.656832218170166
1118,63300.0,-6.599405288696289,-3.4959137439727783,-6.656832218170166
1119,63400.0,-9.016156196594238,-0.4905286431312561,-3.500699520111084
1120,63500.0,-9.016156196594238,-0.4905286431312561,-3.500699520111084
1121,63600.0,-12.31346607208252,4.335794448852538,-2.3473589420318604
1122,63700.0,-12.31346607208252,4.335794448852538,-2.3473589420318604
1123,63800.0,-12.983454704284668,2.021935224533081,-2.395215511322021
1124,63900.0,-12.983454704284668,2.021935224533081,-2.395215511322021
1125,64000.0,-10.63848876953125,2.7254250049591064,-2.7349963188171387
1126,64100.0,-10.63848876953125,2.7254250049591064,-2.7349963188171387
1127,64200.0,-10.63848876953125,2.7254250049591064,-2.7349963188171387
1128,64300.0,-6.92482852935791,0.5192425251007079,-4.790431022644043
1129,64400.0,-6.92482852935791,0.5192425251007079,-4.790431022644043
1130,64500.0,-4.254438400268556,-0.2273181527853012,-5.608776092529297
1131,64600.0,-4.254438400268556,-0.2273181527853012,-5.608776092529297
1132,64700.0,-4.254438400268556,-0.2273181527853012,-5.608776092529297
1133,64800.0,-5.115854740142822,-1.1868400573730469,-4.687539577484131
1134,64900.0,-5.115854740142822,-1.1868400573730469,-4.687539577484131
1135,65000.0,-8.327022552490233,1.3663017749786377,-3.6610186100006095
1136,65100.0,-8.327022552490233,1.3663017749786377,-3.6610186100006095
1137,65200.0,-11.06919765472412,2.414358139038086,-3.034099102020264
1138,65300.0,-11.06919765472412,2.414358139038086,-3.034099102020264
1139,65400.0,-11.06919765472412,2.414358139038086,-3.034099102020264
1140,64000.0,-10.63848876953125,2.7254250049591064,-2.7349963188171387
1141,64100.0,-10.63848876953125,2.7254250049591064,-2.7349963188171387
1142,64200.0,-10.63848876953125,2.7254250049591064,-2.7349963188171387
1143,64300.0,-6.92482852935791,0.5192425251007079,-4.790431022644043
1144,64400.0,-6.92482852935791,0.5192425251007079,-4.790431022644043
1145,64500.0,-4.254438400268556,-0.2273181527853012,-5.608776092529297
1146,64600.0,-4.254438400268556,-0.2273181527853012,-5.608776092529297
1147,64700.0,-4.254438400268556,-0.2273181527853012,-5.608776092529297
1148,64800.0,-5.115854740142822,-1.1868400573730469,-4.687539577484131
1149,64900.0,-5.115854740142822,-1.1868400573730469,-4.687539577484131
1150,65000.0,-8.327022552490233,1.3663017749786377,-3.6610186100006095
1151,65100.0,-8.327022552490233,1.3663017749786377,-3.6610186100006095
1152,65200.0,-11.06919765472412,2.414358139038086,-3.034099102020264
1153,65300.0,-11.06919765472412,2.414358139038086,-3.034099102020264
1154,65400.0,-11.06919765472412,2.414358139038086,-3.034099102020264
1155,65500.0,-12.01675510406494,6.195017814636231,-0.7178468108177185
1156,65600.0,-12.01675510406494,6.195017814636231,-0.7178468108177185
1157,65700.0,-10.724631309509276,8.025527954101562,-3.38823676109314
1158,65800.0,-10.724631309509276,8.025527954101562,-3.38823676109314
1159,65900.0,-6.8721866607666025,0.4354937374591827,-4.271188735961913
1160,66000.0,-6.8721866607666025,0.4354937374591827,-4.271188735961913
1161,66100.0,-6.8721866607666025,0.4354937374591827,-4.271188735961913
1162,66200.0,-10.834701538085938,2.754138946533203,-2.4095723628997803
1163,66300.0,-10.834701538085938,2.754138946533203,-2.4095723628997803
1164,66400.0,-9.164510726928713,1.4931212663650513,-2.462214469909668
1165,66500.0,-9.164510726928713,1.4931212663650513,-2.462214469909668
1166,66600.0,-5.800201892852782,1.3160523176193235,-6.771688461303711
1167,66700.0,-5.800201892852782,1.3160523176193235,-6.771688461303711
1168,66800.0,-9.57607650756836,3.3403804302215576,-1.5936198234558103
1169,66900.0,-9.57607650756836,3.3403804302215576,-1.5936198234558103
1170,65500.0,-12.01675510406494,6.195017814636231,-0.7178468108177185
1171,65600.0,-12.01675510406494,6.195017814636231,-0.7178468108177185
1172,65700.0,-10.724631309509276,8.025527954101562,-3.38823676109314
1173,65800.0,-10.724631309509276,8.025527954101562,-3.38823676109314
1174,65900.0,-6.8721866607666025,0.4354937374591827,-4.271188735961913
1175,66000.0,-6.8721866607666025,0.4354937374591827,-4.271188735961913
1176,66100.0,-6.8721866607666025,0.4354937374591827,-4.271188735961913
1177,66200.0,-10.834701538085938,2.754138946533203,-2.4095723628997803
1178,66300.0,-10.834701538085938,2.754138946533203,-2.4095723628997803
1179,66400.0,-9.164510726928713,1.4931212663650513,-2.462214469909668
1180,66500.0,-9.164510726928713,1.4931212663650513,-2.462214469909668
1181,66600.0,-5.800201892852782,1.3160523176193235,-6.771688461303711
1182,66700.0,-5.800201892852782,1.3160523176193235,-6.771688461303711
1183,66800.0,-9.57607650756836,3.3403804302215576,-1.5936198234558103
1184,66900.0,-9.57607650756836,3.3403804302215576,-1.5936198234558103
1185,67000.0,-9.57607650756836,3.3403804302215576,-1.5936198234558103
1186,67100.0,-10.217352867126463,4.242474555969238,-1.1006983518600464
1187,67200.0,-10.217352867126463,4.242474555969238,-1.1006983518600464
1188,67300.0,-6.905685901641847,5.309673309326172,-4.814359188079834
1189,67400.0,-6.905685901641847,5.309673309326172,-4.814359188079834
1190,67500.0,-7.499105930328369,7.604390144348144,-2.900100946426392
1191,67600.0,-7.499105930328369,7.604390144348144,-2.900100946426392
1192,67700.0,-7.499105930328369,7.604390144348144,-2.900100946426392
1193,67800.0,-5.3551368713378915,5.024927616119385,-5.54177713394165
1194,67900.0,-5.3551368713378915,5.024927616119385,-5.54177713394165
1195,68000.0,-7.3124656677246085,4.3070807456970215,-2.8211379051208496
1196,68100.0,-7.3124656677246085,4.3070807456970215,-2.8211379051208496
1197,68200.0,-8.188239097595215,13.12463092803955,-0.3924228847026825
1198,68300.0,-8.188239097595215,13.12463092803955,-0.3924228847026825
1199,68400.0,-8.188239097595215,13.12463092803955,-0.3924228847026825
1200,67000.0,-9.57607650756836,3.3403804302215576,-1.5936198234558103
1201,67100.0,-10.217352867126463,4.242474555969238,-1.1006983518600464
1202,67200.0,-10.217352867126463,4.242474555969238,-1.1006983518600464
1203,67300.0,-6.905685901641847,5.309673309326172,-4.814359188079834
1204,67400.0,-6.905685901641847,5.309673309326172,-4.814359188079834
1205,67500.0,-7.499105930328369,7.604390144348144,-2.900100946426392
1206,67600.0,-7.499105930328369,7.604390144348144,-2.900100946426392
1207,67700.0,-7.499105930328369,7.604390144348144,-2.900100946426392
1208,67800.0,-5.3551368713378915,5.024927616119385,-5.54177713394165
1209,67900.0,-5.3551368713378915,5.024927616119385,-5.54177713394165
1210,68000.0,-7.3124656677246085,4.3070807456970215,-2.8211379051208496
1211,68100.0,-7.3124656677246085,4.3070807456970215,-2.8211379051208496
1212,68200.0,-8.188239097595215,13.12463092803955,-0.3924228847026825
1213,68300.0,-8.188239097595215,13.12463092803955,-0.3924228847026825
1214,68400.0,-8.188239097595215,13.12463092803955,-0.3924228847026825
1215,68500.0,-2.407179594039917,10.475777626037598,-2.8426735401153564
1216,68600.0,-2.407179594039917,10.475777626037598,-2.8426735401153564
1217,68700.0,-3.034099102020264,8.094919204711914,-2.7828526496887207
1218,68800.0,-3.034099102020264,8.094919204711914,-2.7828526496887207
1219,68900.0,-1.6223337650299072,9.001798629760742,-2.426322221755981
1220,69000.0,-1.6223337650299072,9.001798629760742,-2.426322221755981
1221,69100.0,-1.3016955852508545,9.614361763000488,-3.6370904445648193
1222,69200.0,-1.3016955852508545,9.614361763000488,-3.6370904445648193
1223,69300.0,-1.2538390159606934,10.080962181091307,-3.967299938201904
1224,69400.0,-1.2538390159606934,10.080962181091307,-3.967299938201904
1225,69500.0,-2.9623143672943115,9.76989459991455,-5.458028793334961
1226,69600.0,-2.9623143672943115,9.76989459991455,-5.458028793334961
1227,69700.0,-2.9623143672943115,9.76989459991455,-5.458028793334961
1228,69800.0,-5.158926010131836,7.080362319946289,-3.780659914016724
1229,69900.0,-5.158926010131836,7.080362319946289,-3.780659914016724
1230,68500.0,-2.407179594039917,10.475777626037598,-2.8426735401153564
1231,68600.0,-2.407179594039917,10.475777626037598,-2.8426735401153564
1232,68700.0,-3.034099102020264,8.094919204711914,-2.7828526496887207
1233,68800.0,-3.034099102020264,8.094919204711914,-2.7828526496887207
1234,68900.0,-1.6223337650299072,9.001798629760742,-2.426322221755981
1235,69000.0,-1.6223337650299072,9.001798629760742,-2.426322221755981
1236,69100.0,-1.3016955852508545,9.614361763000488,-3.6370904445648193
1237,69200.0,-1.3016955852508545,9.614361763000488,-3.6370904445648193
1238,69300.0,-1.2538390159606934,10.080962181091307,-3.967299938201904
1239,69400.0,-1.2538390159606934,10.080962181091307,-3.967299938201904
1240,69500.0,-2.9623143672943115,9.76989459991455,-5.458028793334961
1241,69600.0,-2.9623143672943115,9.76989459991455,-5.458028793334961
1242,69700.0,-2.9623143672943115,9.76989459991455,-5.458028793334961
1243,69800.0,-5.158926010131836,7.080362319946289,-3.780659914016724
1244,69900.0,-5.158926010131836,7.080362319946289,-3.780659914016724
1245,70000.0,-7.456035614013673,6.546762466430664,-2.1822540760040283
1246,70100.0,-7.456035614013673,6.546762466430664,-2.1822540760040283
1247,70200.0,-7.456035614013673,6.546762466430664,-2.1822540760040283
1248,70300.0,-7.135397434234619,-1.4404792785644531,-3.818945169448853
1249,70400.0,-7.135397434234619,-1.4404792785644531,-3.818945169448853
1250,70500.0,-6.455835819244385,-10.356135368347168,-4.859822750091553
1251,70600.0,-6.455835819244385,-10.356135368347168,-4.859822750091553
1252,70700.0,-7.99681282043457,-11.014162063598633,-3.981656789779663
1253,70800.0,-7.99681282043457,-11.014162063598633,-3.981656789779663
1254,70900.0,-7.99681282043457,-11.014162063598633,-3.981656789779663
1255,71000.0,-8.001599311828612,-7.869993209838867,-5.893522262573242
1256,71100.0,-8.001599311828612,-7.869993209838867,-5.893522262573242
1257,71200.0,-7.9585280418396,-1.361515998840332,-7.063612461090088
1258,71300.0,-7.9585280418396,-1.361515998840332,-7.063612461090088
1259,71400.0,-7.9585280418396,-1.361515998840332,-7.063612461090088
1260,70000.0,-7.456035614013673,6.546762466430664,-2.1822540760040283
1261,70100.0,-7.456035614013673,6.546762466430664,-2.1822540760040283
1262,70200.0,-7.456035614013673,6.546762466430664,-2.1822540760040283
1263,70300.0,-7.135397434234619,-1.4404792785644531,-3.818945169448853
1264,70400.0,-7.135397434234619,-1.4404792785644531,-3.818945169448853
1265,70500.0,-6.455835819244385,-10.356135368347168,-4.859822750091553
1266,70600.0,-6.455835819244385,-10.356135368347168,-4.859822750091553
1267,70700.0,-7.99681282043457,-11.014162063598633,-3.981656789779663
1268,70800.0,-7.99681282043457,-11.014162063598633,-3.981656789779663
1269,70900.0,-7.99681282043457,-11.014162063598633,-3.981656789779663
1270,71000.0,-8.001599311828612,-7.869993209838867,-5.893522262573242
1271,71100.0,-8.001599311828612,-7.869993209838867,-5.893522262573242
1272,71200.0,-7.9585280418396,-1.361515998840332,-7.063612461090088
1273,71300.0,-7.9585280418396,-1.361515998840332,-7.063612461090088
1274,71400.0,-7.9585280418396,-1.361515998840332,-7.063612461090088
1275,71500.0,-7.412964344024657,7.2263240814208975,-7.678568363189697
1276,71600.0,-7.412964344024657,7.2263240814208975,-7.678568363189697
1277,71700.0,-7.963313579559326,10.045069694519043,-7.477570533752441
1278,71800.0,-7.963313579559326,10.045069694519043,-7.477570533752441
1279,71900.0,-7.7048888206481925,3.002992391586304,-6.113661766052246
1280,72000.0,-7.7048888206481925,3.002992391586304,-6.113661766052246
1281,72100.0,-8.169095993041992,5.828916072845459,-8.827122688293457
1282,72200.0,-8.169095993041992,5.828916072845459,-8.827122688293457
1283,72300.0,-8.255237579345701,1.1868400573730469,-4.811966419219972
1284,72400.0,-8.255237579345701,1.1868400573730469,-4.811966419219972
1285,72500.0,-8.255237579345701,1.1868400573730469,-4.811966419219972
1286,72600.0,-7.513463020324707,4.716253280639648,-8.580661773681639
1287,72700.0,-7.513463020324707,4.716253280639648,-8.580661773681639
1288,72800.0,-8.886943817138672,9.8871431350708,-5.077569961547852
1289,72900.0,-8.886943817138672,9.8871431350708,-5.077569961547852
1290,71500.0,-7.412964344024657,7.2263240814208975,-7.678568363189697
1291,71600.0,-7.412964344024657,7.2263240814208975,-7.678568363189697
1292,71700.0,-7.963313579559326,10.045069694519043,-7.477570533752441
1293,71800.0,-7.963313579559326,10.045069694519043,-7.477570533752441
1294,71900.0,-7.7048888206481925,3.002992391586304,-6.113661766052246
1295,72000.0,-7.7048888206481925,3.002992391586304,-6.113661766052246
1296,72100.0,-8.169095993041992,5.828916072845459,-8.827122688293457
1297,72200.0,-8.169095993041992,5.828916072845459,-8.827122688293457
1298,72300.0,-8.255237579345701,1.1868400573730469,-4.811966419219972
1299,72400.0,-8.255237579345701,1.1868400573730469,-4.811966419219972
1300,72500.0,-8.255237579345701,1.1868400573730469,-4.811966419219972
1301,72600.0,-7.513463020324707,4.716253280639648,-8.580661773681639
1302,72700.0,-7.513463020324707,4.716253280639648,-8.580661773681639
1303,72800.0,-8.886943817138672,9.8871431350708,-5.077569961547852
1304,72900.0,-8.886943817138672,9.8871431350708,-5.077569961547852
1305,73000.0,-8.886943817138672,9.8871431350708,-5.077569961547852
1306,73100.0,-8.35573673248291,12.985848426818848,-4.407578945159912
1307,73200.0,-8.35573673248291,12.985848426818848,-4.407578945159912
1308,73300.0,-8.805586814880371,13.4763765335083,-3.3475589752197266
1309,73400.0,-8.805586814880371,13.4763765335083,-3.3475589752197266
1310,73500.0,-9.135796546936037,12.172287940979006,-3.3738799095153813
1311,73600.0,-9.135796546936037,12.172287940979006,-3.3738799095153813
1312,73700.0,-8.48016357421875,2.4646072387695312,-5.941378593444824
1313,73800.0,-8.48016357421875,2.4646072387695312,-5.941378593444824
1314,73900.0,-8.48016357421875,2.4646072387695312,-5.941378593444824
1315,74000.0,-9.083154678344727,5.307280540466309,-4.252045631408691
1316,74100.0,-9.083154678344727,5.307280540466309,-4.252045631408691
1317,74200.0,-8.001599311828612,8.413164138793945,-6.436692714691162
1318,74300.0,-8.001599311828612,8.413164138793945,-6.436692714691162
1319,74400.0,-8.001599311828612,8.413164138793945,-6.436692714691162
1320,73000.0,-8.886943817138672,9.8871431350708,-5.077569961547852
1321,73100.0,-8.35573673248291,12.985848426818848,-4.407578945159912
1322,73200.0,-8.35573673248291,12.985848426818848,-4.407578945159912
1323,73300.0,-8.805586814880371,13.4763765335083,-3.3475589752197266
1324,73400.0,-8.805586814880371,13.4763765335083,-3.3475589752197266
1325,73500.0,-9.135796546936037,12.172287940979006,-3.3738799095153813
1326,73600.0,-9.135796546936037,12.172287940979006,-3.3738799095153813
1327,73700.0,-8.48016357421875,2.4646072387695312,-5.941378593444824
1328,73800.0,-8.48016357421875,2.4646072387695312,-5.941378593444824
1329,73900.0,-8.48016357421875,2.4646072387695312,-5.941378593444824
1330,74000.0,-9.083154678344727,5.307280540466309,-4.252045631408691
1331,74100.0,-9.083154678344727,5.307280540466309,-4.252045631408691
1332,74200.0,-8.001599311828612,8.413164138793945,-6.436692714691162
1333,74300.0,-8.001599311828612,8.413164138793945,-6.436692714691162
1334,74400.0,-8.001599311828612,8.413164138793945,-6.436692714691162
1335,74500.0,-8.437092781066895,7.604390144348144,-5.682953834533691
1336,74600.0,-8.437092781066895,7.604390144348144,-5.682953834533691
1337,74700.0,-8.70508861541748,-1.1700903177261353,-4.4961137771606445
1338,74800.0,-8.70508861541748,-1.1700903177261353,-4.4961137771606445
1339,74900.0,-8.489734649658201,-9.162117958068848,-4.366901397705078
1340,75000.0,-8.489734649658201,-9.162117958068848,-4.366901397705078
1341,75100.0,-8.279166221618652,-2.7086753845214844,-3.304487943649292
1342,75200.0,-8.279166221618652,-2.7086753845214844,-3.304487943649292
1343,75300.0,-9.284152030944824,5.570490837097168,-2.6057839393615723
1344,75400.0,-9.284152030944824,5.570490837097168,-2.6057839393615723
1345,75500.0,-8.575876235961914,11.423335075378418,-4.02472734451294
1346,75600.0,-8.575876235961914,11.423335075378418,-4.02472734451294
1347,75700.0,-8.575876235961914,11.423335075378418,-4.02472734451294
1348,75800.0,-8.260024070739746,6.338587284088135,-6.044269561767577
1349,75900.0,-8.260024070739746,6.338587284088135,-6.044269561767577
1350,74500.0,-8.437092781066895,7.604390144348144,-5.682953834533691
1351,74600.0,-8.437092781066895,7.604390144348144,-5.682953834533691
1352,74700.0,-8.70508861541748,-1.1700903177261353,-4.4961137771606445
1353,74800.0,-8.70508861541748,-1.1700903177261353,-4.4961137771606445
1354,74900.0,-8.489734649658201,-9.162117958068848,-4.366901397705078
1355,75000.0,-8.489734649658201,-9.162117958068848,-4.366901397705078
1356,75100.0,-8.279166221618652,-2.7086753845214844,-3.304487943649292
1357,75200.0,-8.279166221618652,-2.7086753845214844,-3.304487943649292
1358,75300.0,-9.284152030944824,5.570490837097168,-2.6057839393615723
1359,75400.0,-9.284152030944824,5.570490837097168,-2.6057839393615723
1360,75500.0,-8.575876235961914,11.423335075378418,-4.02472734451294
1361,75600.0,-8.575876235961914,11.423335075378418,-4.02472734451294
1362,75700.0,-8.575876235961914,11.423335075378418,-4.02472734451294
1363,75800.0,-8.260024070739746,6.338587284088135,-6.044269561767577
1364,75900.0,-8.260024070739746,6.338587284088135,-6.044269561767577
1365,76000.0,-8.585447311401367,6.3936219215393075,-6.096912384033202
1366,76100.0,-8.585447311401367,6.3936219215393075,-6.096912384033202
1367,76200.0,-8.585447311401367,6.3936219215393075,-6.096912384033202
1368,76300.0,-8.652446746826174,3.943371772766113,-5.706881999969482
1369,76400.0,-8.652446746826174,3.943371772766113,-5.706881999969482
1370,76500.0,-8.350951194763184,0.5623133182525635,-4.551148891448975
1371,76600.0,-8.350951194763184,0.5623133182525635,-4.551148891448975
1372,76700.0,-8.140382766723633,0.8303093910217285,-4.95792818069458
1373,76800.0,-8.140382766723633,0.8303093910217285,-4.95792818069458
1374,76900.0,-8.140382766723633,0.8303093910217285,-4.95792818069458
1375,77000.0,-7.853243827819824,1.1724830865859983,-4.800002098083496
1376,77100.0,-7.853243827819824,1.1724830865859983,-4.800002098083496
1377,77200.0,-7.671389579772949,-0.9379864931106568,-5.099104881286621
1378,77300.0,-7.671389579772949,-0.9379864931106568,-5.099104881286621
1379,77400.0,-7.671389579772949,-0.9379864931106568,-5.099104881286621
1380,76000.0,-8.585447311401367,6.3936219215393075,-6.096912384033202
1381,76100.0,-8.585447311401367,6.3936219215393075,-6.096912384033202
1382,76200.0,-8.585447311401367,6.3936219215393075,-6.096912384033202
1383,76300.0,-8.652446746826174,3.943371772766113,-5.706881999969482
1384,76400.0,-8.652446746826174,3.943371772766113,-5.706881999969482
1385,76500.0,-8.350951194763184,0.5623133182525635,-4.551148891448975
1386,76600.0,-8.350951194763184,0.5623133182525635,-4.551148891448975
1387,76700.0,-8.140382766723633,0.8303093910217285,-4.95792818069458
1388,76800.0,-8.140382766723633,0.8303093910217285,-4.95792818069458
1389,76900.0,-8.140382766723633,0.8303093910217285,-4.95792818069458
1390,77000.0,-7.853243827819824,1.1724830865859983,-4.800002098083496
1391,77100.0,-7.853243827819824,1.1724830865859983,-4.800002098083496
1392,77200.0,-7.671389579772949,-0.9379864931106568,-5.099104881286621
1393,77300.0,-7.671389579772949,-0.9379864931106568,-5.099104881286621
1394,77400.0,-7.671389579772949,-0.9379864931106568,-5.099104881286621
1395,77500.0,-8.580661773681639,-1.5744771957397459,-4.65643310546875
1396,77600.0,-8.580661773681639,-1.5744771957397459,-4.65643310546875
1397,77700.0,-8.298308372497559,1.146162033081055,-4.950750350952148
1398,77800.0,-8.298308372497559,1.146162033081055,-4.950750350952148
1399,77900.0,-8.652446746826174,-4.754538536071777,-4.613362312316895
1400,78000.0,-8.652446746826174,-4.754538536071777,-4.613362312316895
1401,78100.0,-7.867600917816162,-9.30329418182373,-2.5052852630615234
1402,78200.0,-7.867600917816162,-9.30329418182373,-2.5052852630615234
1403,78300.0,-7.867600917816162,-9.30329418182373,-2.5052852630615234
1404,78400.0,-12.035898208618164,-0.5718846321105957,-6.857830047607423
1405,78500.0,-12.035898208618164,-0.5718846321105957,-6.857830047607423
1406,78600.0,-2.699103832244873,3.4815566539764404,-6.2093749046325675
1407,78700.0,-2.699103832244873,3.4815566539764404,-6.2093749046325675
1408,78800.0,-2.699103832244873,3.4815566539764404,-6.2093749046325675
1409,78900.0,-8.484949111938478,2.256431579589844,-5.938986301422119
1410,77500.0,-8.580661773681639,-1.5744771957397459,-4.65643310546875
1411,77600.0,-8.580661773681639,-1.5744771957397459,-4.65643310546875
1412,77700.0,-8.298308372497559,1.146162033081055,-4.950750350952148
1413,77800.0,-8.298308372497559,1.146162033081055,-4.950750350952148
1414,77900.0,-8.652446746826174,-4.754538536071777,-4.613362312316895
1415,78000.0,-8.652446746826174,-4.754538536071777,-4.613362312316895
1416,78100.0,-7.867600917816162,-9.30329418182373,-2.5052852630615234
1417,78200.0,-7.867600917816162,-9.30329418182373,-2.5052852630615234
1418,78300.0,-7.867600917816162,-9.30329418182373,-2.5052852630615234
1419,78400.0,-12.035898208618164,-0.5718846321105957,-6.857830047607423
1420,78500.0,-12.035898208618164,-0.5718846321105957,-6.857830047607423
1421,78600.0,-2.699103832244873,3.4815566539764404,-6.2093749046325675
1422,78700.0,-2.699103832244873,3.4815566539764404,-6.2093749046325675
1423,78800.0,-2.699103832244873,3.4815566539764404,-6.2093749046325675
1424,78900.0,-8.484949111938478,2.256431579589844,-5.938986301422119
1425,79000.0,-8.484949111938478,2.256431579589844,-5.938986301422119
1426,79100.0,-3.259024381637573,2.7948169708251958,-7.8867435455322275
1427,79200.0,-3.259024381637573,2.7948169708251958,-7.8867435455322275
1428,79300.0,-10.351350784301758,-0.3278167247772217,-2.12961220741272
1429,79400.0,-10.351350784301758,-0.3278167247772217,-2.12961220741272
1430,79500.0,-9.954142570495604,-2.258824586868286,-4.426721572875977
1431,79600.0,-9.954142570495604,-2.258824586868286,-4.426721572875977
1432,79700.0,-9.954142570495604,-2.258824586868286,-4.426721572875977
1433,79800.0,-5.656632423400879,0.5718846321105957,-5.876771926879883
1434,79900.0,-5.656632423400879,0.5718846321105957,-5.876771926879883
1435,80000.0,-7.594818592071532,-1.2562319040298462,-5.742774486541747
1436,80100.0,-7.594818592071532,-1.2562319040298462,-5.742774486541747
1437,80200.0,-7.594818592071532,-1.2562319040298462,-5.742774486541747
1438,80300.0,-10.437491416931152,10.995020866394043,6.5730838775634775
1439,80400.0,-10.437491416931152,10.995020866394043,6.5730838775634775
1440,79000.0,-8.484949111938478,2.256431579589844,-5.938986301422119
1441,79100.0,-3.259024381637573,2.7948169708251958,-7.8867435455322275
1442,79200.0,-3.259024381637573,2.7948169708251958,-7.8867435455322275
1443,79300.0,-10.351350784301758,-0.3278167247772217,-2.12961220741272
1444,79400.0,-10.351350784301758,-0.3278167247772217,-2.12961220741272
1445,79500.0,-9.954142570495604,-2.258824586868286,-4.426721572875977
1446,79600.0,-9.954142570495604,-2.258824586868286,-4.426721572875977
1447,79700.0,-9.954142570495604,-2.258824586868286,-4.426721572875977
1448,79800.0,-5.656632423400879,0.5718846321105957,-5.876771926879883
1449,79900.0,-5.656632423400879,0.5718846321105957,-5.876771926879883
1450,80000.0,-7.594818592071532,-1.2562319040298462,-5.742774486541747
1451,80100.0,-7.594818592071532,-1.2562319040298462,-5.742774486541747
1452,80200.0,-7.594818592071532,-1.2562319040298462,-5.742774486541747
1453,80300.0,-10.437491416931152,10.995020866394043,6.5730838775634775
1454,80400.0,-10.437491416931152,10.995020866394043,6.5730838775634775
1455,80500.0,-11.12662410736084,8.484949111938478,5.223531246185303
1456,80600.0,-11.12662410736084,8.484949111938478,5.223531246185303
1457,80700.0,-6.63769006729126,0.7034898400306702,-6.841079711914063
1458,80800.0,-6.63769006729126,0.7034898400306702,-6.841079711914063
1459,80900.0,-6.63769006729126,0.7034898400306702,-6.841079711914063
1460,81000.0,-6.656832218170166,-2.069791555404663,-8.58305549621582
1461,81100.0,-6.656832218170166,-2.069791555404663,-8.58305549621582
1462,81200.0,-4.804787635803223,-9.363115310668944,-19.568504333496094
1463,81300.0,-4.804787635803223,-9.363115310668944,-19.568504333496094
1464,81400.0,-4.804787635803223,-9.363115310668944,-19.568504333496094
1465,81500.0,-9.705288887023926,6.269195556640625,0.18424734473228452
1466,81600.0,-9.705288887023926,6.269195556640625,0.18424734473228452
1467,81700.0,-10.77727222442627,10.097711563110352,7.927421569824219
1468,81800.0,-10.77727222442627,10.097711563110352,7.927421569824219
1469,81900.0,-8.461020469665527,3.931407451629639,3.34995174407959
1470,80500.0,-11.12662410736084,8.484949111938478,5.223531246185303
1471,80600.0,-11.12662410736084,8.484949111938478,5.223531246185303
1472,80700.0,-6.63769006729126,0.7034898400306702,-6.841079711914063
1473,80800.0,-6.63769006729126,0.7034898400306702,-6.841079711914063
1474,80900.0,-6.63769006729126,0.7034898400306702,-6.841079711914063
1475,81000.0,-6.656832218170166,-2.069791555404663,-8.58305549621582
1476,81100.0,-6.656832218170166,-2.069791555404663,-8.58305549621582
1477,81200.0,-4.804787635803223,-9.363115310668944,-19.568504333496094
1478,81300.0,-4.804787635803223,-9.363115310668944,-19.568504333496094
1479,81400.0,-4.804787635803223,-9.363115310668944,-19.568504333496094
1480,81500.0,-9.705288887023926,6.269195556640625,0.18424734473228452
1481,81600.0,-9.705288887023926,6.269195556640625,0.18424734473228452
1482,81700.0,-10.77727222442627,10.097711563110352,7.927421569824219
1483,81800.0,-10.77727222442627,10.097711563110352,7.927421569824219
1484,81900.0,-8.461020469665527,3.931407451629639,3.34995174407959
1485,82000.0,-8.461020469665527,3.931407451629639,3.34995174407959
1486,82100.0,-11.13619613647461,7.869993209838867,6.281159400939941
1487,82200.0,-11.13619613647461,7.869993209838867,6.281159400939941
1488,82300.0,-11.13619613647461,7.869993209838867,6.281159400939941
1489,82400.0,-8.183453559875487,4.043870449066162,0.7609176039695741
1490,82500.0,-8.183453559875487,4.043870449066162,0.7609176039695741
1491,82600.0,-9.528220176696776,6.10169792175293,4.182653903961182
1492,82700.0,-9.528220176696776,6.10169792175293,4.182653903961182
1493,82800.0,-7.3363938331604,3.3714869022369385,-0.12442677468061447
1494,82900.0,-7.3363938331604,3.3714869022369385,-0.12442677468061447
1495,83000.0,-7.3363938331604,3.3714869022369385,-0.12442677468061447
1496,83100.0,-6.010770320892334,-4.517649173736572,-16.118053436279293
1497,83200.0,-6.010770320892334,-4.517649173736572,-16.118053436279293
1498,83300.0,-5.474778175354004,-9.33440113067627,-17.414962768554688
1499,83400.0,-5.474778175354004,-9.33440113067627,-17.414962768554688
1500,82000.0,-8.461020469665527,3.931407451629639,3.34995174407959
1501,82100.0,-11.13619613647461,7.869993209838867,6.281159400939941
1502,82200.0,-11.13619613647461,7.869993209838867,6.281159400939941
1503,82300.0,-11.13619613647461,7.869993209838867,6.281159400939941
1504,82400.0,-8.183453559875487,4.043870449066162,0.7609176039695741
1505,82500.0,-8.183453559875487,4.043870449066162,0.7609176039695741
1506,82600.0,-9.528220176696776,6.10169792175293,4.182653903961182
1507,82700.0,-9.528220176696776,6.10169792175293,4.182653903961182
1508,82800.0,-7.3363938331604,3.3714869022369385,-0.12442677468061447
1509,82900.0,-7.3363938331604,3.3714869022369385,-0.12442677468061447
1510,83000.0,-7.3363938331604,3.3714869022369385,-0.12442677468061447
1511,83100.0,-6.010770320892334,-4.517649173736572,-16.118053436279293
1512,83200.0,-6.010770320892334,-4.517649173736572,-16.118053436279293
1513,83300.0,-5.474778175354004,-9.33440113067627,-17.414962768554688
1514,83400.0,-5.474778175354004,-9.33440113067627,-17.414962768554688
1515,83500.0,-6.130411148071289,-4.0941195487976065,-11.904292106628418
1516,83600.0,-6.130411148071289,-4.0941195487976065,-11.904292106628418
1517,83700.0,-6.010770320892334,-5.831308364868164,-16.2568359375
1518,83800.0,-6.010770320892334,-5.831308364868164,-16.2568359375
1519,83900.0,-6.010770320892334,-5.831308364868164,-16.2568359375
1520,84000.0,-9.241080284118652,2.380858421325684,-5.716453552246094
1521,84100.0,-9.241080284118652,2.380858421325684,-5.716453552246094
1522,84200.0,-10.901700019836426,-1.765903115272522,-2.833101987838745
1523,84300.0,-10.901700019836426,-1.765903115272522,-2.833101987838745
1524,84400.0,-5.603990077972412,0.4235295951366425,-11.057233810424805
1525,84500.0,-5.603990077972412,0.4235295951366425,-11.057233810424805
1526,84600.0,-5.603990077972412,0.4235295951366425,-11.057233810424805
1527,84700.0,-11.308479309082033,1.1126624345779421,-0.2967100143432617
1528,84800.0,-11.308479309082033,1.1126624345779421,-0.2967100143432617
1529,84900.0,-11.121840476989746,7.393822193145753,2.9168508052825928
1530,83500.0,-6.130411148071289,-4.0941195487976065,-11.904292106628418
1531,83600.0,-6.130411148071289,-4.0941195487976065,-11.904292106628418
1532,83700.0,-6.010770320892334,-5.831308364868164,-16.2568359375
1533,83800.0,-6.010770320892334,-5.831308364868164,-16.2568359375
1534,83900.0,-6.010770320892334,-5.831308364868164,-16.2568359375
1535,84000.0,-9.241080284118652,2.380858421325684,-5.716453552246094
1536,84100.0,-9.241080284118652,2.380858421325684,-5.716453552246094
1537,84200.0,-10.901700019836426,-1.765903115272522,-2.833101987838745
1538,84300.0,-10.901700019836426,-1.765903115272522,-2.833101987838745
1539,84400.0,-5.603990077972412,0.4235295951366425,-11.057233810424805
1540,84500.0,-5.603990077972412,0.4235295951366425,-11.057233810424805
1541,84600.0,-5.603990077972412,0.4235295951366425,-11.057233810424805
1542,84700.0,-11.308479309082033,1.1126624345779421,-0.2967100143432617
1543,84800.0,-11.308479309082033,1.1126624345779421,-0.2967100143432617
1544,84900.0,-11.121840476989746,7.393822193145753,2.9168508052825928
1545,85000.0,-11.121840476989746,7.393822193145753,2.9168508052825928
1546,85100.0,-11.121840476989746,7.393822193145753,2.9168508052825928
1547,85200.0,-8.226524353027344,1.3543376922607422,-4.634897232055664
1548,85300.0,-8.226524353027344,1.3543376922607422,-4.634897232055664
1549,85400.0,-4.53200626373291,0.5120640397071838,-6.544370174407959
1550,85500.0,-4.53200626373291,0.5120640397071838,-6.544370174407959
1551,85600.0,-3.9146575927734375,-3.4289150238037114,-11.782258987426758
1552,85700.0,-3.9146575927734375,-3.4289150238037114,-11.782258987426758
1553,85800.0,-3.9146575927734375,-3.4289150238037114,-11.782258987426758
1554,85900.0,-8.733802795410156,2.244467735290528,-1.9716858863830569
1555,86000.0,-8.733802795410156,2.244467735290528,-1.9716858863830569
1556,86100.0,-12.351749420166016,2.400001049041748,2.7972097396850586
1557,86200.0,-12.351749420166016,2.400001049041748,2.7972097396850586
1558,86300.0,-8.446663856506348,3.5126638412475586,-3.421736478805542
1559,86400.0,-8.446663856506348,3.5126638412475586,-3.421736478805542
1560,85000.0,-11.121840476989746,7.393822193145753,2.9168508052825928
1561,85100.0,-11.121840476989746,7.393822193145753,2.9168508052825928
1562,85200.0,-8.226524353027344,1.3543376922607422,-4.634897232055664
1563,85300.0,-8.226524353027344,1.3543376922607422,-4.634897232055664
1564,85400.0,-4.53200626373291,0.5120640397071838,-6.544370174407959
1565,85500.0,-4.53200626373291,0.5120640397071838,-6.544370174407959
1566,85600.0,-3.9146575927734375,-3.4289150238037114,-11.782258987426758
1567,85700.0,-3.9146575927734375,-3.4289150238037114,-11.782258987426758
1568,85800.0,-3.9146575927734375,-3.4289150238037114,-11.782258987426758
1569,85900.0,-8.733802795410156,2.244467735290528,-1.9716858863830569
1570,86000.0,-8.733802795410156,2.244467735290528,-1.9716858863830569
1571,86100.0,-12.351749420166016,2.400001049041748,2.7972097396850586
1572,86200.0,-12.351749420166016,2.400001049041748,2.7972097396850586
1573,86300.0,-8.446663856506348,3.5126638412475586,-3.421736478805542
1574,86400.0,-8.446663856506348,3.5126638412475586,-3.421736478805542
1575,86500.0,-8.446663856506348,3.5126638412475586,-3.421736478805542
1576,86600.0,-9.212367057800293,2.4191436767578125,-3.2781667709350586
1577,86700.0,-9.212367057800293,2.4191436767578125,-3.2781667709350586
1578,86800.0,-7.752745151519775,-1.3399806022644043,-3.2135608196258545
1579,86900.0,-7.752745151519775,-1.3399806022644043,-3.2135608196258545
1580,87000.0,-8.757731437683105,13.366307258605955,1.3399806022644043
1581,87100.0,-8.757731437683105,13.366307258605955,1.3399806022644043
1582,87200.0,-8.757731437683105,13.366307258605955,1.3399806022644043
1583,87300.0,-10.729416847229004,11.148160934448242,1.7706886529922483
1584,87400.0,-10.729416847229004,11.148160934448242,1.7706886529922483
1585,87500.0,-10.600205421447754,10.449455261230467,0.3756731450557709
1586,87600.0,-10.600205421447754,10.449455261230467,0.3756731450557709
1587,87700.0,-9.62393283843994,3.6610186100006095,-1.9740787744522093
1588,87800.0,-9.62393283843994,3.6610186100006095,-1.9740787744522093
1589,87900.0,-8.346165657043457,0.19621144235134125,-2.7876384258270264
1590,86500.0,-8.446663856506348,3.5126638412475586,-3.421736478805542
1591,86600.0,-9.212367057800293,2.4191436767578125,-3.2781667709350586
1592,86700.0,-9.212367057800293,2.4191436767578125,-3.2781667709350586
1593,86800.0,-7.752745151519775,-1.3399806022644043,-3.2135608196258545
1594,86900.0,-7.752745151519775,-1.3399806022644043,-3.2135608196258545
1595,87000.0,-8.757731437683105,13.366307258605955,1.3399806022644043
1596,87100.0,-8.757731437683105,13.366307258605955,1.3399806022644043
1597,87200.0,-8.757731437683105,13.366307258605955,1.3399806022644043
1598,87300.0,-10.729416847229004,11.148160934448242,1.7706886529922483
1599,87400.0,-10.729416847229004,11.148160934448242,1.7706886529922483
1600,87500.0,-10.600205421447754,10.449455261230467,0.3756731450557709
1601,87600.0,-10.600205421447754,10.449455261230467,0.3756731450557709
1602,87700.0,-9.62393283843994,3.6610186100006095,-1.9740787744522093
1603,87800.0,-9.62393283843994,3.6610186100006095,-1.9740787744522093
1604,87900.0,-8.346165657043457,0.19621144235134125,-2.7876384258270264
1605,88000.0,-8.346165657043457,0.19621144235134125,-2.7876384258270264
1606,88100.0,-8.346165657043457,0.19621144235134125,-2.7876384258270264
1607,88200.0,-8.015955924987793,-7.513463020324707,-5.752345561981201
1608,88300.0,-8.015955924987793,-7.513463020324707,-5.752345561981201
1609,88400.0,-8.781659126281737,-11.418549537658693,-3.9122648239135738
1610,88500.0,-8.781659126281737,-11.418549537658693,-3.9122648239135738
1611,88600.0,-8.781659126281737,-11.418549537658693,-3.9122648239135738
1612,88700.0,-8.216952323913574,-9.169296264648438,-5.26899528503418
1613,88800.0,-8.216952323913574,-9.169296264648438,-5.26899528503418
1614,88900.0,-6.920042991638184,-5.42692232131958,-7.4057860374450675
1615,89000.0,-6.920042991638184,-5.42692232131958,-7.4057860374450675
1616,89100.0,-6.604190349578857,-2.909672498703003,-5.0871405601501465
1617,89200.0,-6.604190349578857,-2.909672498703003,-5.0871405601501465
1618,89300.0,-6.752545356750487,-9.047262191772461,-5.460421085357666
1619,89400.0,-6.752545356750487,-9.047262191772461,-5.460421085357666
1620,88000.0,-8.346165657043457,0.19621144235134125,-2.7876384258270264
1621,88100.0,-8.346165657043457,0.19621144235134125,-2.7876384258270264
1622,88200.0,-8.015955924987793,-7.513463020324707,-5.752345561981201
1623,88300.0,-8.015955924987793,-7.513463020324707,-5.752345561981201
1624,88400.0,-8.781659126281737,-11.418549537658693,-3.9122648239135738
1625,88500.0,-8.781659126281737,-11.418549537658693,-3.9122648239135738
1626,88600.0,-8.781659126281737,-11.418549537658693,-3.9122648239135738
1627,88700.0,-8.216952323913574,-9.169296264648438,-5.26899528503418
1628,88800.0,-8.216952323913574,-9.169296264648438,-5.26899528503418
1629,88900.0,-6.920042991638184,-5.42692232131958,-7.4057860374450675
1630,89000.0,-6.920042991638184,-5.42692232131958,-7.4057860374450675
1631,89100.0,-6.604190349578857,-2.909672498703003,-5.0871405601501465
1632,89200.0,-6.604190349578857,-2.909672498703003,-5.0871405601501465
1633,89300.0,-6.752545356750487,-9.047262191772461,-5.460421085357666
1634,89400.0,-6.752545356750487,-9.047262191772461,-5.460421085357666
1635,89500.0,-6.752545356750487,-9.047262191772461,-5.460421085357666
1636,89600.0,-7.75753116607666,-12.196216583251953,-5.850451469421388
1637,89700.0,-7.75753116607666,-12.196216583251953,-5.850451469421388
1638,89800.0,-7.5661048889160165,-6.16391134262085,-8.061419486999513
1639,89900.0,-7.5661048889160165,-6.16391134262085,-8.061419486999513
1640,90000.0,-7.149754047393799,6.070591449737549,-6.494120597839356
1641,90100.0,-7.149754047393799,6.070591449737549,-6.494120597839356
1642,90200.0,-7.149754047393799,6.070591449737549,-6.494120597839356
1643,90300.0,-7.2263240814208975,5.489135265350342,-6.4869422912597665
1644,90400.0,-7.2263240814208975,5.489135265350342,-6.4869422912597665
1645,90500.0,-8.456235885620117,-4.474578380584717,-6.620940208435059
1646,90600.0,-8.456235885620117,-4.474578380584717,-6.620940208435059
1647,90700.0,-8.432307243347168,-3.414557933807373,-5.7930235862731925
1648,90800.0,-8.432307243347168,-3.414557933807373,-5.7930235862731925
1649,90900.0,-9.260223388671877,-10.068997383117676,-7.087540626525879
1650,89500.0,-6.752545356750487,-9.047262191772461,-5.460421085357666
1651,89600.0,-7.75753116607666,-12.196216583251953,-5.850451469421388
1652,89700.0,-7.75753116607666,-12.196216583251953,-5.850451469421388
1653,89800.0,-7.5661048889160165,-6.16391134262085,-8.061419486999513
1654,89900.0,-7.5661048889160165,-6.16391134262085,-8.061419486999513
1655,90000.0,-7.149754047393799,6.070591449737549,-6.494120597839356
1656,90100.0,-7.149754047393799,6.070591449737549,-6.494120597839356
1657,90200.0,-7.149754047393799,6.070591449737549,-6.494120597839356
1658,90300.0,-7.2263240814208975,5.489135265350342,-6.4869422912597665
1659,90400.0,-7.2263240814208975,5.489135265350342,-6.4869422912597665
1660,90500.0,-8.456235885620117,-4.474578380584717,-6.620940208435059
1661,90600.0,-8.456235885620117,-4.474578380584717,-6.620940208435059
1662,90700.0,-8.432307243347168,-3.414557933807373,-5.7930235862731925
1663,90800.0,-8.432307243347168,-3.414557933807373,-5.7930235862731925
1664,90900.0,-9.260223388671877,-10.068997383117676,-7.087540626525879
1665,91000.0,-9.260223388671877,-10.068997383117676,-7.087540626525879
1666,91100.0,-9.42772102355957,-8.86780071258545,-6.479763507843018
1667,91200.0,-9.42772102355957,-8.86780071258545,-6.479763507843018
1668,91300.0,-9.42772102355957,-8.86780071258545,-6.479763507843018
1669,91400.0,-10.29870891571045,-4.833501815795898,-5.158926010131836
1670,91500.0,-10.29870891571045,-4.833501815795898,-5.158926010131836
1671,91600.0,-8.537590980529785,-0.3924228847026825,-5.245067596435547
1672,91700.0,-8.537590980529785,-0.3924228847026825,-5.245067596435547
1673,91800.0,-8.537590980529785,-0.3924228847026825,-5.245067596435547
1674,91900.0,-9.20279598236084,-1.9908283948898315,-5.221138954162598
1675,92000.0,-9.20279598236084,-1.9908283948898315,-5.221138954162598
1676,92100.0,-9.049654960632324,-8.597411155700684,-6.941578388214111
1677,92200.0,-9.049654960632324,-8.597411155700684,-6.941578388214111
1678,92300.0,-8.791230201721191,1.0815558433532717,-6.305087566375732
1679,92400.0,-8.791230201721191,1.0815558433532717,-6.305087566375732
1680,91000.0,-9.260223388671877,-10.068997383117676,-7.087540626525879
1681,91100.0,-9.42772102355957,-8.86780071258545,-6.479763507843018
1682,91200.0,-9.42772102355957,-8.86780071258545,-6.479763507843018
1683,91300.0,-9.42772102355957,-8.86780071258545,-6.479763507843018
1684,91400.0,-10.29870891571045,-4.833501815795898,-5.158926010131836
1685,91500.0,-10.29870891571045,-4.833501815795898,-5.158926010131836
1686,91600.0,-8.537590980529785,-0.3924228847026825,-5.245067596435547
1687,91700.0,-8.537590980529785,-0.3924228847026825,-5.245067596435547
1688,91800.0,-8.537590980529785,-0.3924228847026825,-5.245067596435547
1689,91900.0,-9.20279598236084,-1.9908283948898315,-5.221138954162598
1690,92000.0,-9.20279598236084,-1.9908283948898315,-5.221138954162598
1691,92100.0,-9.049654960632324,-8.597411155700684,-6.941578388214111
1692,92200.0,-9.049654960632324,-8.597411155700684,-6.941578388214111
1693,92300.0,-8.791230201721191,1.0815558433532717,-6.305087566375732
1694,92400.0,-8.791230201721191,1.0815558433532717,-6.305087566375732
1695,92500.0,-8.178668022155763,0.3230310678482056,-5.37906551361084
1696,92600.0,-8.178668022155763,0.3230310678482056,-5.37906551361084
1697,92700.0,-8.178668022155763,0.3230310678482056,-5.37906551361084
1698,92800.0,-7.231109619140625,4.108476161956787,-5.48674201965332
1699,92900.0,-7.231109619140625,4.108476161956787,-5.48674201965332
1700,93000.0,-7.843672752380371,13.703696250915527,-6.362515449523926
1701,93100.0,-7.843672752380371,13.703696250915527,-6.362515449523926
1702,93200.0,-7.843672752380371,13.703696250915527,-6.362515449523926
1703,93300.0,-8.95394229888916,12.210573196411133,-3.0747771263122563
1704,93400.0,-8.95394229888916,12.210573196411133,-3.0747771263122563
1705,93500.0,-9.040083885192873,-0.7537391781806946,-5.462814331054688
1706,93600.0,-9.040083885192873,-0.7537391781806946,-5.462814331054688
1707,93700.0,-12.37567901611328,0.6245267391204834,1.8975083827972408
1708,93800.0,-12.37567901611328,0.6245267391204834,1.8975083827972408
1709,93900.0,-2.785245418548584,-1.7132610082626345,-13.100704193115234
1710,92500.0,-8.178668022155763,0.3230310678482056,-5.37906551361084
1711,92600.0,-8.178668022155763,0.3230310678482056,-5.37906551361084
1712,92700.0,-8.178668022155763,0.3230310678482056,-5.37906551361084
1713,92800.0,-7.231109619140625,4.108476161956787,-5.48674201965332
1714,92900.0,-7.231109619140625,4.108476161956787,-5.48674201965332
1715,93000.0,-7.843672752380371,13.703696250915527,-6.362515449523926
1716,93100.0,-7.843672752380371,13.703696250915527,-6.362515449523926
1717,93200.0,-7.843672752380371,13.703696250915527,-6.362515449523926
1718,93300.0,-8.95394229888916,12.210573196411133,-3.0747771263122563
1719,93400.0,-8.95394229888916,12.210573196411133,-3.0747771263122563
1720,93500.0,-9.040083885192873,-0.7537391781806946,-5.462814331054688
1721,93600.0,-9.040083885192873,-0.7537391781806946,-5.462814331054688
1722,93700.0,-12.37567901611328,0.6245267391204834,1.8975083827972408
1723,93800.0,-12.37567901611328,0.6245267391204834,1.8975083827972408
1724,93900.0,-2.785245418548584,-1.7132610082626345,-13.100704193115234
1725,94000.0,-2.785245418548584,-1.7132610082626345,-13.100704193115234
1726,94100.0,-2.785245418548584,-1.7132610082626345,-13.100704193115234
1727,94200.0,-14.179865837097168,2.0434706211090092,5.625525951385498
