,timestamp,ax,ay,az
0,7000.0,11.432907104492188,4.804787635803223,-0.9882357716560364
1,7100.0,11.432907104492188,4.804787635803223,-0.9882357716560364
2,7200.0,11.432907104492188,4.804787635803223,-0.9882357716560364
3,7300.0,11.432907104492188,4.804787635803223,-0.9882357716560364
4,7400.0,11.619546890258787,2.3258235454559326,-1.3519448041915894
5,7500.0,11.619546890258787,2.3258235454559326,-1.3519448041915894
6,7600.0,11.619546890258787,2.3258235454559326,-1.3519448041915894
7,7700.0,9.06401252746582,1.3974084854125977,-2.352144718170166
8,7800.0,9.06401252746582,1.3974084854125977,-2.352144718170166
9,7900.0,4.967499732971191,0.3278167247772217,-3.103491306304932
10,8000.0,4.967499732971191,0.3278167247772217,-3.103491306304932
11,8100.0,8.154739379882812,2.9240293502807617,-2.988635540008545
12,8200.0,8.154739379882812,2.9240293502807617,-2.988635540008545
13,8300.0,14.998211860656738,5.319244384765625,-1.0671988725662231
14,8400.0,14.998211860656738,5.319244384765625,-1.0671988725662231
15,8500.0,14.998211860656738,5.319244384765625,-1.0671988725662231
16,8600.0,10.207781791687012,1.2993026971817017,-1.9860427379608157
17,8700.0,10.207781791687012,1.2993026971817017,-1.9860427379608157
18,8800.0,9.394222259521484,1.5337992906570437,-2.7349963188171387
19,8900.0,9.394222259521484,1.5337992906570437,-2.7349963188171387
20,8000.0,4.967499732971191,0.3278167247772217,-3.103491306304932
21,8100.0,8.154739379882812,2.9240293502807617,-2.988635540008545
22,8200.0,8.154739379882812,2.9240293502807617,-2.988635540008545
23,8300.0,14.998211860656738,5.319244384765625,-1.0671988725662231
24,8400.0,14.998211860656738,5.319244384765625,-1.0671988725662231
25,8500.0,14.998211860656738,5.319244384765625,-1.0671988725662231
26,8600.0,10.207781791687012,1.2993026971817017,-1.9860427379608157
27,8700.0,10.207781791687012,1.2993026971817017,-1.9860427379608157
28,8800.0,9.394222259521484,1.5337992906570437,-2.7349963188171387
29,8900.0,9.394222259521484,1.5337992906570437,-2.7349963188171387
30,9000.0,10.351350784301758,-0.5551348924636841,-4.773681163787842
31,9100.0,10.351350784301758,-0.5551348924636841,-4.773681163787842
32,9200.0,8.925228118896484,3.7064821720123287,-3.433700561523437
33,9300.0,8.925228118896484,3.7064821720123287,-3.433700561523437
34,9400.0,10.413564682006836,3.5700912475585938,-1.9932212829589844
35,9500.0,10.413564682006836,3.5700912475585938,-1.9932212829589844
36,9600.0,10.413564682006836,3.5700912475585938,-1.9932212829589844
37,9700.0,8.508876800537111,1.1270195245742798,-0.9906285405158995
38,9800.0,8.508876800537111,1.1270195245742798,-0.9906285405158995
39,9900.0,12.59103298187256,0.6101697683334351,-2.280359983444214
40,9000.0,10.351350784301758,-0.5551348924636841,-4.773681163787842
41,9100.0,10.351350784301758,-0.5551348924636841,-4.773681163787842
42,9200.0,8.925228118896484,3.7064821720123287,-3.433700561523437
43,9300.0,8.925228118896484,3.7064821720123287,-3.433700561523437
44,9400.0,10.413564682006836,3.5700912475585938,-1.9932212829589844
45,9500.0,10.413564682006836,3.5700912475585938,-1.9932212829589844
46,9600.0,10.413564682006836,3.5700912475585938,-1.9932212829589844
47,9700.0,8.508876800537111,1.1270195245742798,-0.9906285405158995
48,9800.0,8.508876800537111,1.1270195245742798,-0.9906285405158995
49,9900.0,12.59103298187256,0.6101697683334351,-2.280359983444214
50,10000.0,12.59103298187256,0.6101697683334351,-2.280359983444214
51,10100.0,8.963513374328613,-0.0047856452874839315,-4.113262176513672
52,10200.0,8.963513374328613,-0.0047856452874839315,-4.113262176513672
53,10300.0,8.767301559448242,2.8043880462646484,-2.0362920761108403
54,10400.0,8.767301559448242,2.8043880462646484,-2.0362920761108403
55,10500.0,8.767301559448242,2.8043880462646484,-2.0362920761108403
56,10600.0,10.088139533996582,1.5936198234558103,-1.9908283948898315
57,10700.0,10.088139533996582,1.5936198234558103,-1.9908283948898315
58,10800.0,9.265008926391602,0.8901299238204956,-1.8735800981521609
59,10900.0,9.265008926391602,0.8901299238204956,-1.8735800981521609
60,10000.0,12.59103298187256,0.6101697683334351,-2.280359983444214
61,10100.0,8.963513374328613,-0.0047856452874839315,-4.113262176513672
62,10200.0,8.963513374328613,-0.0047856452874839315,-4.113262176513672
63,10300.0,8.767301559448242,2.8043880462646484,-2.0362920761108403
64,10400.0,8.767301559448242,2.8043880462646484,-2.0362920761108403
65,10500.0,8.767301559448242,2.8043880462646484,-2.0362920761108403
66,10600.0,10.088139533996582,1.5936198234558103,-1.9908283948898315
67,10700.0,10.088139533996582,1.5936198234558103,-1.9908283948898315
68,10800.0,9.265008926391602,0.8901299238204956,-1.8735800981521609
69,10900.0,9.265008926391602,0.8901299238204956,-1.8735800981521609
70,11000.0,12.634103775024414,1.1389836072921753,-1.0767701864242554
71,11100.0,12.634103775024414,1.1389836072921753,-1.0767701864242554
72,11200.0,12.634103775024414,1.1389836072921753,-1.0767701864242554
73,11300.0,7.905886173248291,0.17946170270442965,-2.6416761875152592
74,11400.0,7.905886173248291,0.17946170270442965,-2.6416761875152592
75,11500.0,7.944170951843263,3.7016968727111816,-1.9764715433120728
76,11600.0,7.944170951843263,3.7016968727111816,-1.9764715433120728
77,11700.0,7.709674835205077,1.5074783563613892,-3.847658634185791
78,11800.0,7.709674835205077,1.5074783563613892,-3.847658634185791
79,11900.0,9.260223388671877,1.411765456199646,-3.3236305713653564
80,11000.0,12.634103775024414,1.1389836072921753,-1.0767701864242554
81,11100.0,12.634103775024414,1.1389836072921753,-1.0767701864242554
82,11200.0,12.634103775024414,1.1389836072921753,-1.0767701864242554
83,11300.0,7.905886173248291,0.17946170270442965,-2.6416761875152592
84,11400.0,7.905886173248291,0.17946170270442965,-2.6416761875152592
85,11500.0,7.944170951843263,3.7016968727111816,-1.9764715433120728
86,11600.0,7.944170951843263,3.7016968727111816,-1.9764715433120728
87,11700.0,7.709674835205077,1.5074783563613892,-3.847658634185791
88,11800.0,7.709674835205077,1.5074783563613892,-3.847658634185791
89,11900.0,9.260223388671877,1.411765456199646,-3.3236305713653564
90,12000.0,9.260223388671877,1.411765456199646,-3.3236305713653564
91,12100.0,9.260223388671877,1.411765456199646,-3.3236305713653564
92,12200.0,11.097911834716797,1.519442439079285,-3.0221347808837886
93,12300.0,11.097911834716797,1.519442439079285,-3.0221347808837886
94,12400.0,8.70508861541748,1.4907284975051882,-5.376672744750977
95,12500.0,8.70508861541748,1.4907284975051882,-5.376672744750977
96,12600.0,7.8819580078125,2.914458036422729,-3.720839262008667
97,12700.0,7.8819580078125,2.914458036422729,-3.720839262008667
98,12800.0,8.729016304016112,2.902493953704834,-2.5076780319213867
99,12900.0,8.729016304016112,2.902493953704834,-2.5076780319213867
100,12000.0,9.260223388671877,1.411765456199646,-3.3236305713653564
101,12100.0,9.260223388671877,1.411765456199646,-3.3236305713653564
102,12200.0,11.097911834716797,1.519442439079285,-3.0221347808837886
103,12300.0,11.097911834716797,1.519442439079285,-3.0221347808837886
104,12400.0,8.70508861541748,1.4907284975051882,-5.376672744750977
105,12500.0,8.70508861541748,1.4907284975051882,-5.376672744750977
106,12600.0,7.8819580078125,2.914458036422729,-3.720839262008667
107,12700.0,7.8819580078125,2.914458036422729,-3.720839262008667
108,12800.0,8.729016304016112,2.902493953704834,-2.5076780319213867
109,12900.0,8.729016304016112,2.902493953704834,-2.5076780319213867
110,13000.0,8.910871505737305,2.1367905139923096,-1.6199408769607544
111,13100.0,8.910871505737305,2.1367905139923096,-1.6199408769607544
112,13200.0,8.910871505737305,2.1367905139923096,-1.6199408769607544
113,13300.0,10.447062492370604,1.5385849475860596,-6.206982612609862
114,13400.0,10.447062492370604,1.5385849475860596,-6.206982612609862
115,13500.0,8.159524917602539,2.5004994869232178,-2.3401806354522705
116,13600.0,8.159524917602539,2.5004994869232178,-2.3401806354522705
117,13700.0,9.853643417358398,4.220939159393311,-1.0528419017791748
118,13800.0,9.853643417358398,4.220939159393311,-1.0528419017791748
119,13900.0,9.853643417358398,4.220939159393311,-1.0528419017791748
120,13000.0,8.910871505737305,2.1367905139923096,-1.6199408769607544
121,13100.0,8.910871505737305,2.1367905139923096,-1.6199408769607544
122,13200.0,8.910871505737305,2.1367905139923096,-1.6199408769607544
123,13300.0,10.447062492370604,1.5385849475860596,-6.206982612609862
124,13400.0,10.447062492370604,1.5385849475860596,-6.206982612609862
125,13500.0,8.159524917602539,2.5004994869232178,-2.3401806354522705
126,13600.0,8.159524917602539,2.5004994869232178,-2.3401806354522705
127,13700.0,9.853643417358398,4.220939159393311,-1.0528419017791748
128,13800.0,9.853643417358398,4.220939159393311,-1.0528419017791748
129,13900.0,9.853643417358398,4.220939159393311,-1.0528419017791748
130,14000.0,11.724830627441404,1.6893328428268433,-2.9072794914245605
131,14100.0,11.724830627441404,1.6893328428268433,-2.9072794914245605
132,14200.0,9.107083320617676,0.7513462901115417,-2.543570280075073
133,14300.0,9.107083320617676,0.7513462901115417,-2.543570280075073
134,14400.0,6.474977493286133,0.014356935396790503,-5.065605640411377
135,14500.0,6.474977493286133,0.014356935396790503,-5.065605640411377
136,14600.0,7.814958095550537,2.5124638080596924,-3.689732551574707
137,14700.0,7.814958095550537,2.5124638080596924,-3.689732551574707
138,14800.0,7.814958095550537,2.5124638080596924,-3.689732551574707
139,14900.0,11.796616554260256,4.252045631408691,-3.4073793888092037
140,14000.0,11.724830627441404,1.6893328428268433,-2.9072794914245605
141,14100.0,11.724830627441404,1.6893328428268433,-2.9072794914245605
142,14200.0,9.107083320617676,0.7513462901115417,-2.543570280075073
143,14300.0,9.107083320617676,0.7513462901115417,-2.543570280075073
144,14400.0,6.474977493286133,0.014356935396790503,-5.065605640411377
145,14500.0,6.474977493286133,0.014356935396790503,-5.065605640411377
146,14600.0,7.814958095550537,2.5124638080596924,-3.689732551574707
147,14700.0,7.814958095550537,2.5124638080596924,-3.689732551574707
148,14800.0,7.814958095550537,2.5124638080596924,-3.689732551574707
149,14900.0,11.796616554260256,4.252045631408691,-3.4073793888092037
150,15000.0,11.796616554260256,4.252045631408691,-3.4073793888092037
151,15100.0,10.432705879211426,1.0743772983551023,-3.9122648239135738
152,15200.0,10.432705879211426,1.0743772983551023,-3.9122648239135738
153,15300.0,10.432705879211426,1.0743772983551023,-3.9122648239135738
154,15400.0,8.97787094116211,0.8542376756668091,-2.754138946533203
155,15500.0,8.97787094116211,0.8542376756668091,-2.754138946533203
156,15600.0,9.016156196594238,0.7010970115661621,-5.458028793334961
157,15700.0,9.016156196594238,0.7010970115661621,-5.458028793334961
158,15800.0,9.978070259094238,3.3379876613616943,-4.926821708679199
159,15900.0,9.978070259094238,3.3379876613616943,-4.926821708679199
160,15000.0,11.796616554260256,4.252045631408691,-3.4073793888092037
161,15100.0,10.432705879211426,1.0743772983551023,-3.9122648239135738
162,15200.0,10.432705879211426,1.0743772983551023,-3.9122648239135738
163,15300.0,10.432705879211426,1.0743772983551023,-3.9122648239135738
164,15400.0,8.97787094116211,0.8542376756668091,-2.754138946533203
165,15500.0,8.97787094116211,0.8542376756668091,-2.754138946533203
166,15600.0,9.016156196594238,0.7010970115661621,-5.458028793334961
167,15700.0,9.016156196594238,0.7010970115661621,-5.458028793334961
168,15800.0,9.978070259094238,3.3379876613616943,-4.926821708679199
169,15900.0,9.978070259094238,3.3379876613616943,-4.926821708679199
170,16000.0,7.99681282043457,3.273381233215332,-3.029313325881958
171,16100.0,7.99681282043457,3.273381233215332,-3.029313325881958
172,16200.0,7.99681282043457,3.273381233215332,-3.029313325881958
173,16300.0,10.69113063812256,0.5455635190010071,-3.2279179096221924
174,16400.0,10.69113063812256,0.5455635190010071,-3.2279179096221924
175,16500.0,10.322636604309082,0.7393822073936462,-4.091726779937743
176,16600.0,10.322636604309082,0.7393822073936462,-4.091726779937743
177,16700.0,10.322636604309082,0.7393822073936462,-4.091726779937743
178,16800.0,10.40877914428711,2.4095723628997803,-4.19701099395752
179,16900.0,10.40877914428711,2.4095723628997803,-4.19701099395752
180,16000.0,7.99681282043457,3.273381233215332,-3.029313325881958
181,16100.0,7.99681282043457,3.273381233215332,-3.029313325881958
182,16200.0,7.99681282043457,3.273381233215332,-3.029313325881958
183,16300.0,10.69113063812256,0.5455635190010071,-3.2279179096221924
184,16400.0,10.69113063812256,0.5455635190010071,-3.2279179096221924
185,16500.0,10.322636604309082,0.7393822073936462,-4.091726779937743
186,16600.0,10.322636604309082,0.7393822073936462,-4.091726779937743
187,16700.0,10.322636604309082,0.7393822073936462,-4.091726779937743
188,16800.0,10.40877914428711,2.4095723628997803,-4.19701099395752
189,16900.0,10.40877914428711,2.4095723628997803,-4.19701099395752
190,17000.0,12.887742042541506,5.273780822753906,-2.445464611053467
191,17100.0,12.887742042541506,5.273780822753906,-2.445464611053467
192,17200.0,10.815558433532717,2.1391832828521733,-1.0839486122131348
193,17300.0,10.815558433532717,2.1391832828521733,-1.0839486122131348
194,17400.0,10.552348136901855,0.6556334495544434,-1.9142580032348635
195,17500.0,10.552348136901855,0.6556334495544434,-1.9142580032348635
196,17600.0,9.360722541809082,1.2538390159606934,-5.900700569152832
197,17700.0,9.360722541809082,1.2538390159606934,-5.900700569152832
198,17800.0,9.360722541809082,1.2538390159606934,-5.900700569152832
199,17900.0,8.638089179992676,3.469593048095703,-5.2905311584472665
200,17000.0,12.887742042541506,5.273780822753906,-2.445464611053467
201,17100.0,12.887742042541506,5.273780822753906,-2.445464611053467
202,17200.0,10.815558433532717,2.1391832828521733,-1.0839486122131348
203,17300.0,10.815558433532717,2.1391832828521733,-1.0839486122131348
204,17400.0,10.552348136901855,0.6556334495544434,-1.9142580032348635
205,17500.0,10.552348136901855,0.6556334495544434,-1.9142580032348635
206,17600.0,9.360722541809082,1.2538390159606934,-5.900700569152832
207,17700.0,9.360722541809082,1.2538390159606934,-5.900700569152832
208,17800.0,9.360722541809082,1.2538390159606934,-5.900700569152832
209,17900.0,8.638089179992676,3.469593048095703,-5.2905311584472665
210,18000.0,8.638089179992676,3.469593048095703,-5.2905311584472665
211,18100.0,12.184252738952635,5.194818019866943,-1.2131611108779907
212,18200.0,12.184252738952635,5.194818019866943,-1.2131611108779907
213,18300.0,10.805987358093262,1.3040882349014282,-2.0961124897003174
214,18400.0,10.805987358093262,1.3040882349014282,-2.0961124897003174
215,18500.0,10.877771377563477,1.868794322013855,-1.4787644147872925
216,18600.0,10.877771377563477,1.868794322013855,-1.4787644147872925
217,18700.0,10.877771377563477,1.868794322013855,-1.4787644147872925
218,18800.0,8.001599311828612,-0.1698903888463974,-5.941378593444824
219,18900.0,8.001599311828612,-0.1698903888463974,-5.941378593444824
220,18000.0,8.638089179992676,3.469593048095703,-5.2905311584472665
221,18100.0,12.184252738952635,5.194818019866943,-1.2131611108779907
222,18200.0,12.184252738952635,5.194818019866943,-1.2131611108779907
223,18300.0,10.805987358093262,1.3040882349014282,-2.0961124897003174
224,18400.0,10.805987358093262,1.3040882349014282,-2.0961124897003174
225,18500.0,10.877771377563477,1.868794322013855,-1.4787644147872925
226,18600.0,10.877771377563477,1.868794322013855,-1.4787644147872925
227,18700.0,10.877771377563477,1.868794322013855,-1.4787644147872925
228,18800.0,8.001599311828612,-0.1698903888463974,-5.941378593444824
229,18900.0,8.001599311828612,-0.1698903888463974,-5.941378593444824
230,19000.0,9.10229778289795,2.57228422164917,-4.632504463195801
231,19100.0,9.10229778289795,2.57228422164917,-4.632504463195801
232,19200.0,9.10229778289795,2.57228422164917,-4.632504463195801
233,19300.0,11.461621284484865,2.8594231605529785,-0.22492533922195435
234,19400.0,11.461621284484865,2.8594231605529785,-0.22492533922195435
235,19500.0,9.93978500366211,1.9046868085861208,-0.7226324081420898
236,19600.0,9.93978500366211,1.9046868085861208,-0.7226324081420898
237,19700.0,9.93978500366211,1.9046868085861208,-0.7226324081420898
238,19800.0,5.670989990234375,2.031506299972534,-2.739781856536865
239,19900.0,5.670989990234375,2.031506299972534,-2.739781856536865
240,19000.0,9.10229778289795,2.57228422164917,-4.632504463195801
241,19100.0,9.10229778289795,2.57228422164917,-4.632504463195801
242,19200.0,9.10229778289795,2.57228422164917,-4.632504463195801
243,19300.0,11.461621284484865,2.8594231605529785,-0.22492533922195435
244,19400.0,11.461621284484865,2.8594231605529785,-0.22492533922195435
245,19500.0,9.93978500366211,1.9046868085861208,-0.7226324081420898
246,19600.0,9.93978500366211,1.9046868085861208,-0.7226324081420898
247,19700.0,9.93978500366211,1.9046868085861208,-0.7226324081420898
248,19800.0,5.670989990234375,2.031506299972534,-2.739781856536865
249,19900.0,5.670989990234375,2.031506299972534,-2.739781856536865
250,20000.0,9.241080284118652,2.400001049041748,-4.230510234832764
251,20100.0,9.241080284118652,2.400001049041748,-4.230510234832764
252,20200.0,10.461421012878418,3.206382274627685,-0.6675975918769836
253,20300.0,10.461421012878418,3.206382274627685,-0.6675975918769836
254,20400.0,10.461421012878418,3.206382274627685,-0.6675975918769836
255,20500.0,11.720046043395994,2.1894328594207764,-1.2131611108779907
256,20600.0,11.720046043395994,2.1894328594207764,-1.2131611108779907
257,20700.0,9.542576789855957,1.5649060010910034,-1.9046868085861208
258,20800.0,9.542576789855957,1.5649060010910034,-1.9046868085861208
259,20900.0,6.345765590667725,1.0169496536254885,-4.0462632179260245
260,20000.0,9.241080284118652,2.400001049041748,-4.230510234832764
261,20100.0,9.241080284118652,2.400001049041748,-4.230510234832764
262,20200.0,10.461421012878418,3.206382274627685,-0.6675975918769836
263,20300.0,10.461421012878418,3.206382274627685,-0.6675975918769836
264,20400.0,10.461421012878418,3.206382274627685,-0.6675975918769836
265,20500.0,11.720046043395994,2.1894328594207764,-1.2131611108779907
266,20600.0,11.720046043395994,2.1894328594207764,-1.2131611108779907
267,20700.0,9.542576789855957,1.5649060010910034,-1.9046868085861208
268,20800.0,9.542576789855957,1.5649060010910034,-1.9046868085861208
269,20900.0,6.345765590667725,1.0169496536254885,-4.0462632179260245
270,21000.0,6.345765590667725,1.0169496536254885,-4.0462632179260245
271,21100.0,7.575676441192628,0.9332008361816406,-3.510270833969116
272,21200.0,7.575676441192628,0.9332008361816406,-3.510270833969116
273,21300.0,7.575676441192628,0.9332008361816406,-3.510270833969116
274,21400.0,10.021141052246094,2.991028308868408,-2.68953275680542
275,21500.0,10.021141052246094,2.991028308868408,-2.68953275680542
276,21600.0,7.719245910644531,3.060420036315918,-2.3306093215942383
277,21700.0,7.719245910644531,3.060420036315918,-2.3306093215942383
278,21800.0,8.987441062927246,0.5766702890396118,-2.383251428604126
279,21900.0,8.987441062927246,0.5766702890396118,-2.383251428604126
280,21000.0,6.345765590667725,1.0169496536254885,-4.0462632179260245
281,21100.0,7.575676441192628,0.9332008361816406,-3.510270833969116
282,21200.0,7.575676441192628,0.9332008361816406,-3.510270833969116
283,21300.0,7.575676441192628,0.9332008361816406,-3.510270833969116
284,21400.0,10.021141052246094,2.991028308868408,-2.68953275680542
285,21500.0,10.021141052246094,2.991028308868408,-2.68953275680542
286,21600.0,7.719245910644531,3.060420036315918,-2.3306093215942383
287,21700.0,7.719245910644531,3.060420036315918,-2.3306093215942383
288,21800.0,8.987441062927246,0.5766702890396118,-2.383251428604126
289,21900.0,8.987441062927246,0.5766702890396118,-2.383251428604126
290,22000.0,8.987441062927246,0.5766702890396118,-2.383251428604126
291,22100.0,9.51386260986328,1.4691929817199707,-4.055834770202637
292,22200.0,9.51386260986328,1.4691929817199707,-4.055834770202637
293,22300.0,9.93978500366211,2.3066811561584477,-2.902493953704834
294,22400.0,9.93978500366211,2.3066811561584477,-2.902493953704834
295,22500.0,10.762916564941406,5.103890895843506,-1.8520447015762331
296,22600.0,10.762916564941406,5.103890895843506,-1.8520447015762331
297,22700.0,11.22233772277832,3.4073793888092037,-1.2705888748168943
298,22800.0,11.22233772277832,3.4073793888092037,-1.2705888748168943
299,22900.0,11.22233772277832,3.4073793888092037,-1.2705888748168943
300,22000.0,8.987441062927246,0.5766702890396118,-2.383251428604126
301,22100.0,9.51386260986328,1.4691929817199707,-4.055834770202637
302,22200.0,9.51386260986328,1.4691929817199707,-4.055834770202637
303,22300.0,9.93978500366211,2.3066811561584477,-2.902493953704834
304,22400.0,9.93978500366211,2.3066811561584477,-2.902493953704834
305,22500.0,10.762916564941406,5.103890895843506,-1.8520447015762331
306,22600.0,10.762916564941406,5.103890895843506,-1.8520447015762331
307,22700.0,11.22233772277832,3.4073793888092037,-1.2705888748168943
308,22800.0,11.22233772277832,3.4073793888092037,-1.2705888748168943
309,22900.0,11.22233772277832,3.4073793888092037,-1.2705888748168943
310,23000.0,9.135796546936037,1.146162033081055,-2.1367905139923096
311,23100.0,9.135796546936037,1.146162033081055,-2.1367905139923096
312,23200.0,8.336593627929688,1.0408778190612793,-4.9842495918273935
313,23300.0,8.336593627929688,1.0408778190612793,-4.9842495918273935
314,23400.0,8.518448829650879,1.9716858863830569,-3.0317063331604004
315,23500.0,8.518448829650879,1.9716858863830569,-3.0317063331604004
316,23600.0,9.485149383544922,4.25922441482544,-2.392822742462158
317,23700.0,9.485149383544922,4.25922441482544,-2.392822742462158
318,23800.0,9.485149383544922,4.25922441482544,-2.392822742462158
319,23900.0,10.724631309509276,2.833101987838745,-1.0193424224853516
320,23000.0,9.135796546936037,1.146162033081055,-2.1367905139923096
321,23100.0,9.135796546936037,1.146162033081055,-2.1367905139923096
322,23200.0,8.336593627929688,1.0408778190612793,-4.9842495918273935
323,23300.0,8.336593627929688,1.0408778190612793,-4.9842495918273935
324,23400.0,8.518448829650879,1.9716858863830569,-3.0317063331604004
325,23500.0,8.518448829650879,1.9716858863830569,-3.0317063331604004
326,23600.0,9.485149383544922,4.25922441482544,-2.392822742462158
327,23700.0,9.485149383544922,4.25922441482544,-2.392822742462158
328,23800.0,9.485149383544922,4.25922441482544,-2.392822742462158
329,23900.0,10.724631309509276,2.833101987838745,-1.0193424224853516
330,24000.0,10.724631309509276,2.833101987838745,-1.0193424224853516
331,24100.0,8.365307807922362,0.9140582084655762,-1.7754744291305542
332,24200.0,8.365307807922362,0.9140582084655762,-1.7754744291305542
333,24300.0,11.174481391906738,0.3326023519039154,-5.496313571929932
334,24400.0,11.174481391906738,0.3326023519039154,-5.496313571929932
335,24500.0,11.174481391906738,0.3326023519039154,-5.496313571929932
336,24600.0,7.599604606628418,2.5938196182250977,-2.9790639877319336
337,24700.0,7.599604606628418,2.5938196182250977,-2.9790639877319336
338,24800.0,10.987841606140137,3.627518892288208,-3.0173492431640625
339,24900.0,10.987841606140137,3.627518892288208,-3.0173492431640625
340,24000.0,10.724631309509276,2.833101987838745,-1.0193424224853516
341,24100.0,8.365307807922362,0.9140582084655762,-1.7754744291305542
342,24200.0,8.365307807922362,0.9140582084655762,-1.7754744291305542
343,24300.0,11.174481391906738,0.3326023519039154,-5.496313571929932
344,24400.0,11.174481391906738,0.3326023519039154,-5.496313571929932
345,24500.0,11.174481391906738,0.3326023519039154,-5.496313571929932
346,24600.0,7.599604606628418,2.5938196182250977,-2.9790639877319336
347,24700.0,7.599604606628418,2.5938196182250977,-2.9790639877319336
348,24800.0,10.987841606140137,3.627518892288208,-3.0173492431640625
349,24900.0,10.987841606140137,3.627518892288208,-3.0173492431640625
350,25000.0,7.393822193145753,3.0963122844696045,-2.8211379051208496
351,25100.0,7.393822193145753,3.0963122844696045,-2.8211379051208496
352,25200.0,8.542377471923826,1.643869161605835,-1.2801601886749268
353,25300.0,8.542377471923826,1.643869161605835,-1.2801601886749268
354,25400.0,10.346564292907717,1.9262222051620483,-2.060220241546631
355,25500.0,10.346564292907717,1.9262222051620483,-2.060220241546631
356,25600.0,10.346564292907717,1.9262222051620483,-2.060220241546631
357,25700.0,9.973284721374512,0.17228324711322784,-3.833301782608032
358,25800.0,9.973284721374512,0.17228324711322784,-3.833301782608032
359,25900.0,10.260422706604004,4.012763977050781,-3.1968109607696533
360,25000.0,7.393822193145753,3.0963122844696045,-2.8211379051208496
361,25100.0,7.393822193145753,3.0963122844696045,-2.8211379051208496
362,25200.0,8.542377471923826,1.643869161605835,-1.2801601886749268
363,25300.0,8.542377471923826,1.643869161605835,-1.2801601886749268
364,25400.0,10.346564292907717,1.9262222051620483,-2.060220241546631
365,25500.0,10.346564292907717,1.9262222051620483,-2.060220241546631
366,25600.0,10.346564292907717,1.9262222051620483,-2.060220241546631
367,25700.0,9.973284721374512,0.17228324711322784,-3.833301782608032
368,25800.0,9.973284721374512,0.17228324711322784,-3.833301782608032
369,25900.0,10.260422706604004,4.012763977050781,-3.1968109607696533
370,26000.0,10.260422706604004,4.012763977050781,-3.1968109607696533
371,26100.0,6.604190349578857,3.1585259437561035,-1.373480200767517
372,26200.0,6.604190349578857,3.1585259437561035,-1.373480200767517
373,26300.0,9.968499183654783,0.9810572862625122,-2.1200408935546875
374,26400.0,9.968499183654783,0.9810572862625122,-2.1200408935546875
375,26500.0,9.968499183654783,0.9810572862625122,-2.1200408935546875
376,26600.0,8.130810737609862,1.4835500717163086,-2.988635540008545
377,26700.0,8.130810737609862,1.4835500717163086,-2.988635540008545
378,26800.0,12.021540641784668,2.754138946533203,-3.905086755752564
379,26900.0,12.021540641784668,2.754138946533203,-3.905086755752564
380,26000.0,10.260422706604004,4.012763977050781,-3.1968109607696533
381,26100.0,6.604190349578857,3.1585259437561035,-1.373480200767517
382,26200.0,6.604190349578857,3.1585259437561035,-1.373480200767517
383,26300.0,9.968499183654783,0.9810572862625122,-2.1200408935546875
384,26400.0,9.968499183654783,0.9810572862625122,-2.1200408935546875
385,26500.0,9.968499183654783,0.9810572862625122,-2.1200408935546875
386,26600.0,8.130810737609862,1.4835500717163086,-2.988635540008545
387,26700.0,8.130810737609862,1.4835500717163086,-2.988635540008545
388,26800.0,12.021540641784668,2.754138946533203,-3.905086755752564
389,26900.0,12.021540641784668,2.754138946533203,-3.905086755752564
390,27000.0,9.308080673217773,4.500899314880371,-0.8901299238204956
391,27100.0,9.308080673217773,4.500899314880371,-0.8901299238204956
392,27200.0,9.308080673217773,4.500899314880371,-0.8901299238204956
393,27300.0,7.355536937713622,1.5553346872329712,-1.4763716459274292
394,27400.0,7.355536937713622,1.5553346872329712,-1.4763716459274292
395,27500.0,8.173882484436035,1.935793399810791,-0.5216353535652161
396,27600.0,8.173882484436035,1.935793399810791,-0.5216353535652161
397,27700.0,8.173882484436035,1.935793399810791,-0.5216353535652161
398,27800.0,11.184053421020508,1.0671988725662231,-3.426522016525269
399,27900.0,11.184053421020508,1.0671988725662231,-3.426522016525269
400,27000.0,9.308080673217773,4.500899314880371,-0.8901299238204956
401,27100.0,9.308080673217773,4.500899314880371,-0.8901299238204956
402,27200.0,9.308080673217773,4.500899314880371,-0.8901299238204956
403,27300.0,7.355536937713622,1.5553346872329712,-1.4763716459274292
404,27400.0,7.355536937713622,1.5553346872329712,-1.4763716459274292
405,27500.0,8.173882484436035,1.935793399810791,-0.5216353535652161
406,27600.0,8.173882484436035,1.935793399810791,-0.5216353535652161
407,27700.0,8.173882484436035,1.935793399810791,-0.5216353535652161
408,27800.0,11.184053421020508,1.0671988725662231,-3.426522016525269
409,27900.0,11.184053421020508,1.0671988725662231,-3.426522016525269
410,28000.0,8.566305160522461,2.0195422172546387,-3.644268989562988
411,28100.0,8.566305160522461,2.0195422172546387,-3.644268989562988
412,28200.0,9.255437850952148,3.1537401676177983,-1.8376877307891848
413,28300.0,9.255437850952148,3.1537401676177983,-1.8376877307891848
414,28400.0,10.74855899810791,1.2370892763137815,1.6390833854675293
415,28500.0,10.74855899810791,1.2370892763137815,1.6390833854675293
416,28600.0,8.523234367370605,8.011170387268066,2.392822742462158
417,28700.0,8.523234367370605,8.011170387268066,2.392822742462158
418,28800.0,8.102097511291504,3.1369905471801762,-1.710868239402771
419,28900.0,8.102097511291504,3.1369905471801762,-1.710868239402771
420,28000.0,8.566305160522461,2.0195422172546387,-3.644268989562988
421,28100.0,8.566305160522461,2.0195422172546387,-3.644268989562988
422,28200.0,9.255437850952148,3.1537401676177983,-1.8376877307891848
423,28300.0,9.255437850952148,3.1537401676177983,-1.8376877307891848
424,28400.0,10.74855899810791,1.2370892763137815,1.6390833854675293
425,28500.0,10.74855899810791,1.2370892763137815,1.6390833854675293
426,28600.0,8.523234367370605,8.011170387268066,2.392822742462158
427,28700.0,8.523234367370605,8.011170387268066,2.392822742462158
428,28800.0,8.102097511291504,3.1369905471801762,-1.710868239402771
429,28900.0,8.102097511291504,3.1369905471801762,-1.710868239402771
430,29000.0,8.102097511291504,3.1369905471801762,-1.710868239402771
431,29100.0,7.570890426635742,-0.02153540588915348,-3.7040894031524663
432,29200.0,7.570890426635742,-0.02153540588915348,-3.7040894031524663
433,29300.0,7.776673316955566,2.861815929412842,-4.271188735961913
434,29400.0,7.776673316955566,2.861815929412842,-4.271188735961913
435,29500.0,10.308279991149902,2.232503652572632,-2.9551358222961426
436,29600.0,10.308279991149902,2.232503652572632,-2.9551358222961426
437,29700.0,10.308279991149902,2.232503652572632,-2.9551358222961426
438,29800.0,9.17886734008789,2.0769701004028316,-1.8903299570083616
439,29900.0,9.17886734008789,2.0769701004028316,-1.8903299570083616
440,29000.0,8.102097511291504,3.1369905471801762,-1.710868239402771
441,29100.0,7.570890426635742,-0.02153540588915348,-3.7040894031524663
442,29200.0,7.570890426635742,-0.02153540588915348,-3.7040894031524663
443,29300.0,7.776673316955566,2.861815929412842,-4.271188735961913
444,29400.0,7.776673316955566,2.861815929412842,-4.271188735961913
445,29500.0,10.308279991149902,2.232503652572632,-2.9551358222961426
446,29600.0,10.308279991149902,2.232503652572632,-2.9551358222961426
447,29700.0,10.308279991149902,2.232503652572632,-2.9551358222961426
448,29800.0,9.17886734008789,2.0769701004028316,-1.8903299570083616
449,29900.0,9.17886734008789,2.0769701004028316,-1.8903299570083616
450,30000.0,7.36032247543335,1.246660590171814,-1.5457634925842283
451,30100.0,7.36032247543335,1.246660590171814,-1.5457634925842283
452,30200.0,15.71127223968506,2.53399920463562,-2.007578134536743
453,30300.0,15.71127223968506,2.53399920463562,-2.007578134536743
454,30400.0,8.762516975402832,2.543570280075073,-1.9142580032348635
455,30500.0,8.762516975402832,2.543570280075073,-1.9142580032348635
456,30600.0,8.762516975402832,2.543570280075073,-1.9142580032348635
457,30700.0,10.86341381072998,1.5912269353866575,-3.25663161277771
458,30800.0,10.86341381072998,1.5912269353866575,-3.25663161277771
459,30900.0,11.107483863830566,2.2253248691558842,-1.4644075632095337
460,30000.0,7.36032247543335,1.246660590171814,-1.5457634925842283
461,30100.0,7.36032247543335,1.246660590171814,-1.5457634925842283
462,30200.0,15.71127223968506,2.53399920463562,-2.007578134536743
463,30300.0,15.71127223968506,2.53399920463562,-2.007578134536743
464,30400.0,8.762516975402832,2.543570280075073,-1.9142580032348635
465,30500.0,8.762516975402832,2.543570280075073,-1.9142580032348635
466,30600.0,8.762516975402832,2.543570280075073,-1.9142580032348635
467,30700.0,10.86341381072998,1.5912269353866575,-3.25663161277771
468,30800.0,10.86341381072998,1.5912269353866575,-3.25663161277771
469,30900.0,11.107483863830566,2.2253248691558842,-1.4644075632095337
470,31000.0,11.107483863830566,2.2253248691558842,-1.4644075632095337
471,31100.0,7.666603565216064,1.5122638940811155,-0.5479563474655151
472,31200.0,7.666603565216064,1.5122638940811155,-0.5479563474655151
473,31300.0,7.666603565216064,1.5122638940811155,-0.5479563474655151
474,31400.0,7.422535419464111,2.2205395698547363,-2.8402805328369136
475,31500.0,7.422535419464111,2.2205395698547363,-2.8402805328369136
476,31600.0,8.772088050842285,2.3473589420318604,-2.380858421325684
477,31700.0,8.772088050842285,2.3473589420318604,-2.380858421325684
478,31800.0,11.241480827331543,3.641876220703125,-3.948157548904419
479,31900.0,11.241480827331543,3.641876220703125,-3.948157548904419
480,31000.0,11.107483863830566,2.2253248691558842,-1.4644075632095337
481,31100.0,7.666603565216064,1.5122638940811155,-0.5479563474655151
482,31200.0,7.666603565216064,1.5122638940811155,-0.5479563474655151
483,31300.0,7.666603565216064,1.5122638940811155,-0.5479563474655151
484,31400.0,7.422535419464111,2.2205395698547363,-2.8402805328369136
485,31500.0,7.422535419464111,2.2205395698547363,-2.8402805328369136
486,31600.0,8.772088050842285,2.3473589420318604,-2.380858421325684
487,31700.0,8.772088050842285,2.3473589420318604,-2.380858421325684
488,31800.0,11.241480827331543,3.641876220703125,-3.948157548904419
489,31900.0,11.241480827331543,3.641876220703125,-3.948157548904419
490,32000.0,12.351749420166016,3.1130621433258057,-2.720639228820801
491,32100.0,12.351749420166016,3.1130621433258057,-2.720639228820801
492,32200.0,12.351749420166016,3.1130621433258057,-2.720639228820801
493,32300.0,7.781459331512451,1.2179466485977173,-1.782652735710144
494,32400.0,7.781459331512451,1.2179466485977173,-1.782652735710144
495,32500.0,14.34736442565918,-0.34695929288864136,-4.780859470367432
496,32600.0,14.34736442565918,-0.34695929288864136,-4.780859470367432
497,32700.0,14.34736442565918,-0.34695929288864136,-4.780859470367432
498,32800.0,9.91107177734375,3.9146575927734375,-2.6967110633850098
499,32900.0,9.91107177734375,3.9146575927734375,-2.6967110633850098
500,32000.0,12.351749420166016,3.1130621433258057,-2.720639228820801
501,32100.0,12.351749420166016,3.1130621433258057,-2.720639228820801
502,32200.0,12.351749420166016,3.1130621433258057,-2.720639228820801
503,32300.0,7.781459331512451,1.2179466485977173,-1.782652735710144
504,32400.0,7.781459331512451,1.2179466485977173,-1.782652735710144
505,32500.0,14.34736442565918,-0.34695929288864136,-4.780859470367432
506,32600.0,14.34736442565918,-0.34695929288864136,-4.780859470367432
507,32700.0,14.34736442565918,-0.34695929288864136,-4.780859470367432
508,32800.0,9.91107177734375,3.9146575927734375,-2.6967110633850098
509,32900.0,9.91107177734375,3.9146575927734375,-2.6967110633850098
510,33000.0,6.747759819030763,3.5605196952819824,-2.3186452388763428
511,33100.0,6.747759819030763,3.5605196952819824,-2.3186452388763428
512,33200.0,9.437292098999023,0.5264209508895874,-3.838087558746338
513,33300.0,9.437292098999023,0.5264209508895874,-3.838087558746338
514,33400.0,9.437292098999023,0.5264209508895874,-3.838087558746338
515,33500.0,7.671389579772949,0.36370906233787537,-3.967299938201904
516,33600.0,7.671389579772949,0.36370906233787537,-3.967299938201904
517,33700.0,9.183652877807617,1.5864413976669312,-2.823530912399292
518,33800.0,9.183652877807617,1.5864413976669312,-2.823530912399292
519,33900.0,9.480363845825195,4.551148891448975,-2.0673987865448002
520,33000.0,6.747759819030763,3.5605196952819824,-2.3186452388763428
521,33100.0,6.747759819030763,3.5605196952819824,-2.3186452388763428
522,33200.0,9.437292098999023,0.5264209508895874,-3.838087558746338
523,33300.0,9.437292098999023,0.5264209508895874,-3.838087558746338
524,33400.0,9.437292098999023,0.5264209508895874,-3.838087558746338
525,33500.0,7.671389579772949,0.36370906233787537,-3.967299938201904
526,33600.0,7.671389579772949,0.36370906233787537,-3.967299938201904
527,33700.0,9.183652877807617,1.5864413976669312,-2.823530912399292
528,33800.0,9.183652877807617,1.5864413976669312,-2.823530912399292
529,33900.0,9.480363845825195,4.551148891448975,-2.0673987865448002
530,34000.0,9.480363845825195,4.551148891448975,-2.0673987865448002
531,34100.0,10.155139923095703,4.082155227661134,-1.5649060010910034
532,34200.0,10.155139923095703,4.082155227661134,-1.5649060010910034
533,34300.0,10.327423095703123,0.33738797903060913,-2.1224336624145512
534,34400.0,10.327423095703123,0.33738797903060913,-2.1224336624145512
535,34500.0,8.776873588562013,1.7347965240478516,-2.7661027908325195
536,34600.0,8.776873588562013,1.7347965240478516,-2.7661027908325195
537,34700.0,8.776873588562013,1.7347965240478516,-2.7661027908325195
538,34800.0,11.169696807861328,1.3016955852508545,-4.778466701507568
539,34900.0,11.169696807861328,1.3016955852508545,-4.778466701507568
540,34000.0,9.480363845825195,4.551148891448975,-2.0673987865448002
541,34100.0,10.155139923095703,4.082155227661134,-1.5649060010910034
542,34200.0,10.155139923095703,4.082155227661134,-1.5649060010910034
543,34300.0,10.327423095703123,0.33738797903060913,-2.1224336624145512
544,34400.0,10.327423095703123,0.33738797903060913,-2.1224336624145512
545,34500.0,8.776873588562013,1.7347965240478516,-2.7661027908325195
546,34600.0,8.776873588562013,1.7347965240478516,-2.7661027908325195
547,34700.0,8.776873588562013,1.7347965240478516,-2.7661027908325195
548,34800.0,11.169696807861328,1.3016955852508545,-4.778466701507568
549,34900.0,11.169696807861328,1.3016955852508545,-4.778466701507568
550,35000.0,9.016156196594238,4.395615100860597,-0.3517449200153351
551,35100.0,9.016156196594238,4.395615100860597,-0.3517449200153351
552,35200.0,12.43310546875,2.9551358222961426,0.3613162040710449
553,35300.0,12.43310546875,2.9551358222961426,0.3613162040710449
554,35400.0,12.43310546875,2.9551358222961426,0.3613162040710449
555,35500.0,10.892127990722656,0.8063812851905823,-1.6127625703811646
556,35600.0,10.892127990722656,0.8063812851905823,-1.6127625703811646
557,35700.0,8.456235885620117,0.3517449200153351,-4.070191383361816
558,35800.0,8.456235885620117,0.3517449200153351,-4.070191383361816
559,35900.0,8.456235885620117,0.3517449200153351,-4.070191383361816
560,35000.0,9.016156196594238,4.395615100860597,-0.3517449200153351
561,35100.0,9.016156196594238,4.395615100860597,-0.3517449200153351
562,35200.0,12.43310546875,2.9551358222961426,0.3613162040710449
563,35300.0,12.43310546875,2.9551358222961426,0.3613162040710449
564,35400.0,12.43310546875,2.9551358222961426,0.3613162040710449
565,35500.0,10.892127990722656,0.8063812851905823,-1.6127625703811646
566,35600.0,10.892127990722656,0.8063812851905823,-1.6127625703811646
567,35700.0,8.456235885620117,0.3517449200153351,-4.070191383361816
568,35800.0,8.456235885620117,0.3517449200153351,-4.070191383361816
569,35900.0,8.456235885620117,0.3517449200153351,-4.070191383361816
570,36000.0,10.112068176269533,3.369094133377075,-3.493520975112915
571,36100.0,10.112068176269533,3.369094133377075,-3.493520975112915
572,36200.0,10.719844818115234,5.467599868774414,-1.4476575851440432
573,36300.0,10.719844818115234,5.467599868774414,-1.4476575851440432
574,36400.0,11.399406433105467,1.368694543838501,-0.902094066143036
575,36500.0,11.399406433105467,1.368694543838501,-0.902094066143036
576,36600.0,11.399406433105467,1.368694543838501,-0.902094066143036
577,36700.0,8.48016357421875,1.026520848274231,-1.1940184831619265
578,36800.0,8.48016357421875,1.026520848274231,-1.1940184831619265
579,36900.0,10.37527847290039,-0.8422735333442688,-6.522834300994872
580,36000.0,10.112068176269533,3.369094133377075,-3.493520975112915
581,36100.0,10.112068176269533,3.369094133377075,-3.493520975112915
582,36200.0,10.719844818115234,5.467599868774414,-1.4476575851440432
583,36300.0,10.719844818115234,5.467599868774414,-1.4476575851440432
584,36400.0,11.399406433105467,1.368694543838501,-0.902094066143036
585,36500.0,11.399406433105467,1.368694543838501,-0.902094066143036
586,36600.0,11.399406433105467,1.368694543838501,-0.902094066143036
587,36700.0,8.48016357421875,1.026520848274231,-1.1940184831619265
588,36800.0,8.48016357421875,1.026520848274231,-1.1940184831619265
589,36900.0,10.37527847290039,-0.8422735333442688,-6.522834300994872
590,37000.0,10.37527847290039,-0.8422735333442688,-6.522834300994872
591,37100.0,9.408578872680664,2.5076780319213867,-5.051248073577881
592,37200.0,9.408578872680664,2.5076780319213867,-5.051248073577881
593,37300.0,11.45205020904541,4.6301116943359375,-1.9046868085861208
594,37400.0,11.45205020904541,4.6301116943359375,-1.9046868085861208
595,37500.0,11.45205020904541,4.6301116943359375,-1.9046868085861208
596,37600.0,10.17906665802002,0.8374879360198975,-0.9236294627189636
597,37700.0,10.17906665802002,0.8374879360198975,-0.9236294627189636
598,37800.0,8.86780071258545,1.191625714302063,-0.3206382095813751
599,37900.0,8.86780071258545,1.191625714302063,-0.3206382095813751
600,37000.0,10.37527847290039,-0.8422735333442688,-6.522834300994872
601,37100.0,9.408578872680664,2.5076780319213867,-5.051248073577881
602,37200.0,9.408578872680664,2.5076780319213867,-5.051248073577881
603,37300.0,11.45205020904541,4.6301116943359375,-1.9046868085861208
604,37400.0,11.45205020904541,4.6301116943359375,-1.9046868085861208
605,37500.0,11.45205020904541,4.6301116943359375,-1.9046868085861208
606,37600.0,10.17906665802002,0.8374879360198975,-0.9236294627189636
607,37700.0,10.17906665802002,0.8374879360198975,-0.9236294627189636
608,37800.0,8.86780071258545,1.191625714302063,-0.3206382095813751
609,37900.0,8.86780071258545,1.191625714302063,-0.3206382095813751
610,38000.0,8.489734649658201,2.029113531112671,-6.757331371307372
611,38100.0,8.489734649658201,2.029113531112671,-6.757331371307372
612,38200.0,9.001798629760742,2.47896409034729,-4.381258487701416
613,38300.0,9.001798629760742,2.47896409034729,-4.381258487701416
614,38400.0,9.001798629760742,2.47896409034729,-4.381258487701416
615,38500.0,8.441878318786621,4.1587257385253915,-0.8398807048797607
616,38600.0,8.441878318786621,4.1587257385253915,-0.8398807048797607
617,38700.0,10.351350784301758,1.5481561422348022,-1.146162033081055
618,38800.0,10.351350784301758,1.5481561422348022,-1.146162033081055
619,38900.0,10.351350784301758,1.5481561422348022,-1.146162033081055
620,38000.0,8.489734649658201,2.029113531112671,-6.757331371307372
621,38100.0,8.489734649658201,2.029113531112671,-6.757331371307372
622,38200.0,9.001798629760742,2.47896409034729,-4.381258487701416
623,38300.0,9.001798629760742,2.47896409034729,-4.381258487701416
624,38400.0,9.001798629760742,2.47896409034729,-4.381258487701416
625,38500.0,8.441878318786621,4.1587257385253915,-0.8398807048797607
626,38600.0,8.441878318786621,4.1587257385253915,-0.8398807048797607
627,38700.0,10.351350784301758,1.5481561422348022,-1.146162033081055
628,38800.0,10.351350784301758,1.5481561422348022,-1.146162033081055
629,38900.0,10.351350784301758,1.5481561422348022,-1.146162033081055
630,39000.0,8.283952713012695,1.2729815244674685,-3.146562099456787
631,39100.0,8.283952713012695,1.2729815244674685,-3.146562099456787
632,39200.0,10.384849548339844,2.297109842300415,-2.785245418548584
633,39300.0,10.384849548339844,2.297109842300415,-2.785245418548584
634,39400.0,10.681561470031738,3.2039895057678223,-2.737389087677002
635,39500.0,10.681561470031738,3.2039895057678223,-2.737389087677002
636,39600.0,10.681561470031738,3.2039895057678223,-2.737389087677002
637,39700.0,7.9585280418396,3.4193434715271,-3.510270833969116
638,39800.0,7.9585280418396,3.4193434715271,-3.510270833969116
639,39900.0,9.743573188781738,1.3232309818267822,-2.1200408935546875
640,39000.0,8.283952713012695,1.2729815244674685,-3.146562099456787
641,39100.0,8.283952713012695,1.2729815244674685,-3.146562099456787
642,39200.0,10.384849548339844,2.297109842300415,-2.785245418548584
643,39300.0,10.384849548339844,2.297109842300415,-2.785245418548584
644,39400.0,10.681561470031738,3.2039895057678223,-2.737389087677002
645,39500.0,10.681561470031738,3.2039895057678223,-2.737389087677002
646,39600.0,10.681561470031738,3.2039895057678223,-2.737389087677002
647,39700.0,7.9585280418396,3.4193434715271,-3.510270833969116
648,39800.0,7.9585280418396,3.4193434715271,-3.510270833969116
649,39900.0,9.743573188781738,1.3232309818267822,-2.1200408935546875
650,40000.0,9.743573188781738,1.3232309818267822,-2.1200408935546875
651,40100.0,8.796016693115233,1.2323036193847656,-2.541177749633789
652,40200.0,8.796016693115233,1.2323036193847656,-2.541177749633789
653,40300.0,8.796016693115233,1.2323036193847656,-2.541177749633789
654,40400.0,10.920842170715332,-0.12681959569454193,-4.761716842651367
655,40500.0,10.920842170715332,-0.12681959569454193,-4.761716842651367
656,40600.0,10.978270530700684,4.6995038986206055,-2.9240293502807617
657,40700.0,10.978270530700684,4.6995038986206055,-2.9240293502807617
658,40800.0,9.647860527038574,3.4073793888092037,-1.3208380937576294
659,40900.0,9.647860527038574,3.4073793888092037,-1.3208380937576294
660,40000.0,9.743573188781738,1.3232309818267822,-2.1200408935546875
661,40100.0,8.796016693115233,1.2323036193847656,-2.541177749633789
662,40200.0,8.796016693115233,1.2323036193847656,-2.541177749633789
663,40300.0,8.796016693115233,1.2323036193847656,-2.541177749633789
664,40400.0,10.920842170715332,-0.12681959569454193,-4.761716842651367
665,40500.0,10.920842170715332,-0.12681959569454193,-4.761716842651367
666,40600.0,10.978270530700684,4.6995038986206055,-2.9240293502807617
667,40700.0,10.978270530700684,4.6995038986206055,-2.9240293502807617
668,40800.0,9.647860527038574,3.4073793888092037,-1.3208380937576294
669,40900.0,9.647860527038574,3.4073793888092037,-1.3208380937576294
670,41000.0,9.647860527038574,3.4073793888092037,-1.3208380937576294
671,41100.0,9.55214786529541,0.20338992774486545,-2.995814085006714
672,41200.0,9.55214786529541,0.20338992774486545,-2.995814085006714
673,41300.0,11.054840087890623,0.5455635190010071,-4.1730828285217285
674,41400.0,11.054840087890623,0.5455635190010071,-4.1730828285217285
675,41500.0,8.408378601074219,1.9501504898071291,-2.9671001434326167
676,41600.0,8.408378601074219,1.9501504898071291,-2.9671001434326167
677,41700.0,8.408378601074219,1.9501504898071291,-2.9671001434326167
678,41800.0,11.274980545043945,4.199403762817384,-2.6847469806671143
679,41900.0,11.274980545043945,4.199403762817384,-2.6847469806671143
680,41000.0,9.647860527038574,3.4073793888092037,-1.3208380937576294
681,41100.0,9.55214786529541,0.20338992774486545,-2.995814085006714
682,41200.0,9.55214786529541,0.20338992774486545,-2.995814085006714
683,41300.0,11.054840087890623,0.5455635190010071,-4.1730828285217285
684,41400.0,11.054840087890623,0.5455635190010071,-4.1730828285217285
685,41500.0,8.408378601074219,1.9501504898071291,-2.9671001434326167
686,41600.0,8.408378601074219,1.9501504898071291,-2.9671001434326167
687,41700.0,8.408378601074219,1.9501504898071291,-2.9671001434326167
688,41800.0,11.274980545043945,4.199403762817384,-2.6847469806671143
689,41900.0,11.274980545043945,4.199403762817384,-2.6847469806671143
690,42000.0,8.078168869018555,3.1752755641937256,-2.648854732513428
691,42100.0,8.078168869018555,3.1752755641937256,-2.648854732513428
692,42200.0,9.375079154968262,1.124626636505127,-1.3878371715545654
693,42300.0,9.375079154968262,1.124626636505127,-1.3878371715545654
694,42400.0,9.375079154968262,1.124626636505127,-1.3878371715545654
695,42500.0,9.030512809753418,1.7539390325546265,-1.8544375896453855
696,42600.0,9.030512809753418,1.7539390325546265,-1.8544375896453855
697,42700.0,9.891928672790527,1.1150553226470947,-4.859822750091553
698,42800.0,9.891928672790527,1.1150553226470947,-4.859822750091553
699,42900.0,9.585646629333496,4.6851468086242685,-1.0360921621322632
700,42000.0,8.078168869018555,3.1752755641937256,-2.648854732513428
701,42100.0,8.078168869018555,3.1752755641937256,-2.648854732513428
702,42200.0,9.375079154968262,1.124626636505127,-1.3878371715545654
703,42300.0,9.375079154968262,1.124626636505127,-1.3878371715545654
704,42400.0,9.375079154968262,1.124626636505127,-1.3878371715545654
705,42500.0,9.030512809753418,1.7539390325546265,-1.8544375896453855
706,42600.0,9.030512809753418,1.7539390325546265,-1.8544375896453855
707,42700.0,9.891928672790527,1.1150553226470947,-4.859822750091553
708,42800.0,9.891928672790527,1.1150553226470947,-4.859822750091553
709,42900.0,9.585646629333496,4.6851468086242685,-1.0360921621322632
710,43000.0,9.585646629333496,4.6851468086242685,-1.0360921621322632
711,43100.0,8.24566650390625,2.4646072387695312,-1.2251251935958862
712,43200.0,8.24566650390625,2.4646072387695312,-1.2251251935958862
713,43300.0,8.24566650390625,2.4646072387695312,-1.2251251935958862
714,43400.0,10.930414199829102,0.0263210479170084,-1.9716858863830569
715,43500.0,10.930414199829102,0.0263210479170084,-1.9716858863830569
716,43600.0,7.47517728805542,1.411765456199646,-1.835294842720032
717,43700.0,7.47517728805542,1.411765456199646,-1.835294842720032
718,43800.0,10.212566375732422,1.4859429597854614,-4.029513359069823
719,43900.0,10.212566375732422,1.4859429597854614,-4.029513359069823
720,43000.0,9.585646629333496,4.6851468086242685,-1.0360921621322632
721,43100.0,8.24566650390625,2.4646072387695312,-1.2251251935958862
722,43200.0,8.24566650390625,2.4646072387695312,-1.2251251935958862
723,43300.0,8.24566650390625,2.4646072387695312,-1.2251251935958862
724,43400.0,10.930414199829102,0.0263210479170084,-1.9716858863830569
725,43500.0,10.930414199829102,0.0263210479170084,-1.9716858863830569
726,43600.0,7.47517728805542,1.411765456199646,-1.835294842720032
727,43700.0,7.47517728805542,1.411765456199646,-1.835294842720032
728,43800.0,10.212566375732422,1.4859429597854614,-4.029513359069823
729,43900.0,10.212566375732422,1.4859429597854614,-4.029513359069823
730,44000.0,10.212566375732422,1.4859429597854614,-4.029513359069823
731,44100.0,9.226724624633787,8.01356315612793,-2.7182462215423584
732,44200.0,9.226724624633787,8.01356315612793,-2.7182462215423584
733,44300.0,10.394421577453613,2.493321180343628,-1.0289137363433838
734,44400.0,10.394421577453613,2.493321180343628,-1.0289137363433838
735,44500.0,9.054441452026367,1.3974084854125977,-0.2632104754447937
736,44600.0,9.054441452026367,1.3974084854125977,-0.2632104754447937
737,44700.0,9.054441452026367,1.3974084854125977,-0.2632104754447937
738,44800.0,12.342178344726562,2.3234307765960693,-1.9908283948898315
739,44900.0,12.342178344726562,2.3234307765960693,-1.9908283948898315
740,44000.0,10.212566375732422,1.4859429597854614,-4.029513359069823
741,44100.0,9.226724624633787,8.01356315612793,-2.7182462215423584
742,44200.0,9.226724624633787,8.01356315612793,-2.7182462215423584
743,44300.0,10.394421577453613,2.493321180343628,-1.0289137363433838
744,44400.0,10.394421577453613,2.493321180343628,-1.0289137363433838
745,44500.0,9.054441452026367,1.3974084854125977,-0.2632104754447937
746,44600.0,9.054441452026367,1.3974084854125977,-0.2632104754447937
747,44700.0,9.054441452026367,1.3974084854125977,-0.2632104754447937
748,44800.0,12.342178344726562,2.3234307765960693,-1.9908283948898315
749,44900.0,12.342178344726562,2.3234307765960693,-1.9908283948898315
750,45000.0,7.968099594116211,2.177468776702881,-4.811966419219972
751,45100.0,7.968099594116211,2.177468776702881,-4.811966419219972
752,45200.0,8.815157890319824,3.486342430114746,-2.0865414142608643
753,45300.0,8.815157890319824,3.486342430114746,-2.0865414142608643
754,45400.0,12.571890830993652,1.3399806022644043,2.6249265670776367
755,45500.0,12.571890830993652,1.3399806022644043,2.6249265670776367
756,45600.0,12.571890830993652,1.3399806022644043,2.6249265670776367
757,45700.0,8.638089179992676,2.033899307250977,2.931207656860352
758,45800.0,8.638089179992676,2.033899307250977,2.931207656860352
759,45900.0,8.638089179992676,2.033899307250977,2.931207656860352
760,45000.0,7.968099594116211,2.177468776702881,-4.811966419219972
761,45100.0,7.968099594116211,2.177468776702881,-4.811966419219972
762,45200.0,8.815157890319824,3.486342430114746,-2.0865414142608643
763,45300.0,8.815157890319824,3.486342430114746,-2.0865414142608643
764,45400.0,12.571890830993652,1.3399806022644043,2.6249265670776367
765,45500.0,12.571890830993652,1.3399806022644043,2.6249265670776367
766,45600.0,12.571890830993652,1.3399806022644043,2.6249265670776367
767,45700.0,8.638089179992676,2.033899307250977,2.931207656860352
768,45800.0,8.638089179992676,2.033899307250977,2.931207656860352
769,45900.0,8.638089179992676,2.033899307250977,2.931207656860352
770,46000.0,12.863814353942873,1.6941183805465698,0.6364907622337341
771,46100.0,12.863814353942873,1.6941183805465698,0.6364907622337341
772,46200.0,10.169495582580566,0.10049854964017868,-3.0556347370147705
773,46300.0,10.169495582580566,0.10049854964017868,-3.0556347370147705
774,46400.0,7.9106712341308585,1.514656662940979,-1.9812570810317995
775,46500.0,7.9106712341308585,1.514656662940979,-1.9812570810317995
776,46600.0,9.298508644104004,3.3308091163635254,-2.2612173557281494
777,46700.0,9.298508644104004,3.3308091163635254,-2.2612173557281494
778,46800.0,7.977671146392822,3.919443368911743,-3.438485860824585
779,46900.0,7.977671146392822,3.919443368911743,-3.438485860824585
780,46000.0,12.863814353942873,1.6941183805465698,0.6364907622337341
781,46100.0,12.863814353942873,1.6941183805465698,0.6364907622337341
782,46200.0,10.169495582580566,0.10049854964017868,-3.0556347370147705
783,46300.0,10.169495582580566,0.10049854964017868,-3.0556347370147705
784,46400.0,7.9106712341308585,1.514656662940979,-1.9812570810317995
785,46500.0,7.9106712341308585,1.514656662940979,-1.9812570810317995
786,46600.0,9.298508644104004,3.3308091163635254,-2.2612173557281494
787,46700.0,9.298508644104004,3.3308091163635254,-2.2612173557281494
788,46800.0,7.977671146392822,3.919443368911743,-3.438485860824585
789,46900.0,7.977671146392822,3.919443368911743,-3.438485860824585
790,47000.0,7.977671146392822,3.919443368911743,-3.438485860824585
791,47100.0,15.610774993896484,1.4739787578582764,-2.957528829574585
792,47200.0,15.610774993896484,1.4739787578582764,-2.957528829574585
793,47300.0,8.642874717712402,-1.813759446144104,-2.4358932971954346
794,47400.0,8.642874717712402,-1.813759446144104,-2.4358932971954346
795,47500.0,13.366307258605955,1.8281164169311523,-3.938585996627808
796,47600.0,13.366307258605955,1.8281164169311523,-3.938585996627808
797,47700.0,13.366307258605955,1.8281164169311523,-3.938585996627808
798,47800.0,6.441478729248048,4.1563329696655265,-1.289731502532959
799,47900.0,6.441478729248048,4.1563329696655265,-1.289731502532959
800,47000.0,7.977671146392822,3.919443368911743,-3.438485860824585
801,47100.0,15.610774993896484,1.4739787578582764,-2.957528829574585
802,47200.0,15.610774993896484,1.4739787578582764,-2.957528829574585
803,47300.0,8.642874717712402,-1.813759446144104,-2.4358932971954346
804,47400.0,8.642874717712402,-1.813759446144104,-2.4358932971954346
805,47500.0,13.366307258605955,1.8281164169311523,-3.938585996627808
806,47600.0,13.366307258605955,1.8281164169311523,-3.938585996627808
807,47700.0,13.366307258605955,1.8281164169311523,-3.938585996627808
808,47800.0,6.441478729248048,4.1563329696655265,-1.289731502532959
809,47900.0,6.441478729248048,4.1563329696655265,-1.289731502532959
810,48000.0,10.84427261352539,1.0695916414260864,-1.4787644147872925
811,48100.0,10.84427261352539,1.0695916414260864,-1.4787644147872925
812,48200.0,9.81535816192627,1.94297194480896,-3.7663028240203857
813,48300.0,9.81535816192627,1.94297194480896,-3.7663028240203857
814,48400.0,8.896513938903809,-0.5000999569892883,-3.9505498409271236
815,48500.0,8.896513938903809,-0.5000999569892883,-3.9505498409271236
816,48600.0,8.896513938903809,-0.5000999569892883,-3.9505498409271236
817,48700.0,12.059826850891113,7.2813591957092285,-0.6508477926254272
818,48800.0,12.059826850891113,7.2813591957092285,-0.6508477926254272
819,48900.0,5.886343479156494,4.25922441482544,-2.4981069564819336
820,48000.0,10.84427261352539,1.0695916414260864,-1.4787644147872925
821,48100.0,10.84427261352539,1.0695916414260864,-1.4787644147872925
822,48200.0,9.81535816192627,1.94297194480896,-3.7663028240203857
823,48300.0,9.81535816192627,1.94297194480896,-3.7663028240203857
824,48400.0,8.896513938903809,-0.5000999569892883,-3.9505498409271236
825,48500.0,8.896513938903809,-0.5000999569892883,-3.9505498409271236
826,48600.0,8.896513938903809,-0.5000999569892883,-3.9505498409271236
827,48700.0,12.059826850891113,7.2813591957092285,-0.6508477926254272
828,48800.0,12.059826850891113,7.2813591957092285,-0.6508477926254272
829,48900.0,5.886343479156494,4.25922441482544,-2.4981069564819336
830,49000.0,5.886343479156494,4.25922441482544,-2.4981069564819336
831,49100.0,11.284551620483398,-1.3232309818267822,-4.0175490379333505
832,49200.0,11.284551620483398,-1.3232309818267822,-4.0175490379333505
833,49300.0,8.901299476623535,0.7704889178276062,-2.617748022079468
834,49400.0,8.901299476623535,0.7704889178276062,-2.617748022079468
835,49500.0,11.73440170288086,0.2105683833360672,-3.3164520263671875
836,49600.0,11.73440170288086,0.2105683833360672,-3.3164520263671875
837,49700.0,12.16032600402832,3.976871252059937,-2.031506299972534
838,49800.0,12.16032600402832,3.976871252059937,-2.031506299972534
839,49900.0,12.16032600402832,3.976871252059937,-2.031506299972534
840,49000.0,5.886343479156494,4.25922441482544,-2.4981069564819336
841,49100.0,11.284551620483398,-1.3232309818267822,-4.0175490379333505
842,49200.0,11.284551620483398,-1.3232309818267822,-4.0175490379333505
843,49300.0,8.901299476623535,0.7704889178276062,-2.617748022079468
844,49400.0,8.901299476623535,0.7704889178276062,-2.617748022079468
845,49500.0,11.73440170288086,0.2105683833360672,-3.3164520263671875
846,49600.0,11.73440170288086,0.2105683833360672,-3.3164520263671875
847,49700.0,12.16032600402832,3.976871252059937,-2.031506299972534
848,49800.0,12.16032600402832,3.976871252059937,-2.031506299972534
849,49900.0,12.16032600402832,3.976871252059937,-2.031506299972534
850,50000.0,7.2263240814208975,2.8953151702880864,-1.2969098091125488
851,50100.0,7.2263240814208975,2.8953151702880864,-1.2969098091125488
852,50200.0,13.653446197509766,-0.6269195079803467,-2.3569302558898926
853,50300.0,13.653446197509766,-0.6269195079803467,-2.3569302558898926
854,50400.0,8.504091262817383,1.105484127998352,-2.502892255783081
855,50500.0,8.504091262817383,1.105484127998352,-2.502892255783081
856,50600.0,11.150553703308104,1.3471590280532837,-3.184847116470337
857,50700.0,11.150553703308104,1.3471590280532837,-3.184847116470337
858,50800.0,11.150553703308104,1.3471590280532837,-3.184847116470337
859,50900.0,11.174481391906738,5.659025192260742,-0.4594219326972962
860,50000.0,7.2263240814208975,2.8953151702880864,-1.2969098091125488
861,50100.0,7.2263240814208975,2.8953151702880864,-1.2969098091125488
862,50200.0,13.653446197509766,-0.6269195079803467,-2.3569302558898926
863,50300.0,13.653446197509766,-0.6269195079803467,-2.3569302558898926
864,50400.0,8.504091262817383,1.105484127998352,-2.502892255783081
865,50500.0,8.504091262817383,1.105484127998352,-2.502892255783081
866,50600.0,11.150553703308104,1.3471590280532837,-3.184847116470337
867,50700.0,11.150553703308104,1.3471590280532837,-3.184847116470337
868,50800.0,11.150553703308104,1.3471590280532837,-3.184847116470337
869,50900.0,11.174481391906738,5.659025192260742,-0.4594219326972962
870,51000.0,11.174481391906738,5.659025192260742,-0.4594219326972962
871,51100.0,12.294322967529295,2.2085752487182617,-1.765903115272522
872,51200.0,12.294322967529295,2.2085752487182617,-1.765903115272522
873,51300.0,9.609575271606444,1.1772687435150146,-0.6532405614852905
874,51400.0,9.609575271606444,1.1772687435150146,-0.6532405614852905
875,51500.0,9.609575271606444,1.1772687435150146,-0.6532405614852905
876,51600.0,8.633303642272951,-0.6364907622337341,-4.479363918304443
877,51700.0,8.633303642272951,-0.6364907622337341,-4.479363918304443
878,51800.0,9.96371364593506,3.2853453159332275,-3.45045018196106
879,51900.0,9.96371364593506,3.2853453159332275,-3.45045018196106
880,51000.0,11.174481391906738,5.659025192260742,-0.4594219326972962
881,51100.0,12.294322967529295,2.2085752487182617,-1.765903115272522
882,51200.0,12.294322967529295,2.2085752487182617,-1.765903115272522
883,51300.0,9.609575271606444,1.1772687435150146,-0.6532405614852905
884,51400.0,9.609575271606444,1.1772687435150146,-0.6532405614852905
885,51500.0,9.609575271606444,1.1772687435150146,-0.6532405614852905
886,51600.0,8.633303642272951,-0.6364907622337341,-4.479363918304443
887,51700.0,8.633303642272951,-0.6364907622337341,-4.479363918304443
888,51800.0,9.96371364593506,3.2853453159332275,-3.45045018196106
889,51900.0,9.96371364593506,3.2853453159332275,-3.45045018196106
890,52000.0,10.121639251708984,4.989035129547119,0.2679961323738098
891,52100.0,10.121639251708984,4.989035129547119,0.2679961323738098
892,52200.0,10.121639251708984,4.989035129547119,0.2679961323738098
893,52300.0,13.442877769470215,1.6462620496749878,-1.0743772983551023
894,52400.0,13.442877769470215,1.6462620496749878,-1.0743772983551023
895,52500.0,7.743173599243164,1.978864312171936,-1.4333008527755735
896,52600.0,7.743173599243164,1.978864312171936,-1.4333008527755735
897,52700.0,7.743173599243164,1.978864312171936,-1.4333008527755735
898,52800.0,13.792229652404785,2.0003998279571533,-5.48674201965332
899,52900.0,13.792229652404785,2.0003998279571533,-5.48674201965332
900,52000.0,10.121639251708984,4.989035129547119,0.2679961323738098
901,52100.0,10.121639251708984,4.989035129547119,0.2679961323738098
902,52200.0,10.121639251708984,4.989035129547119,0.2679961323738098
903,52300.0,13.442877769470215,1.6462620496749878,-1.0743772983551023
904,52400.0,13.442877769470215,1.6462620496749878,-1.0743772983551023
905,52500.0,7.743173599243164,1.978864312171936,-1.4333008527755735
906,52600.0,7.743173599243164,1.978864312171936,-1.4333008527755735
907,52700.0,7.743173599243164,1.978864312171936,-1.4333008527755735
908,52800.0,13.792229652404785,2.0003998279571533,-5.48674201965332
909,52900.0,13.792229652404785,2.0003998279571533,-5.48674201965332
910,53000.0,9.21715259552002,6.017949104309082,-2.7732813358306885
911,53100.0,9.21715259552002,6.017949104309082,-2.7732813358306885
912,53200.0,9.987641334533693,2.483749866485596,-0.6604190468788147
913,53300.0,9.987641334533693,2.483749866485596,-0.6604190468788147
914,53400.0,12.777671813964846,2.311466693878174,-0.02153540588915348
915,53500.0,12.777671813964846,2.311466693878174,-0.02153540588915348
916,53600.0,8.939584732055664,1.6965112686157229,-0.3326023519039154
917,53700.0,8.939584732055664,1.6965112686157229,-0.3326023519039154
918,53800.0,8.939584732055664,1.6965112686157229,-0.3326023519039154
919,53900.0,6.814758777618407,0.0263210479170084,-6.56829833984375
920,53000.0,9.21715259552002,6.017949104309082,-2.7732813358306885
921,53100.0,9.21715259552002,6.017949104309082,-2.7732813358306885
922,53200.0,9.987641334533693,2.483749866485596,-0.6604190468788147
923,53300.0,9.987641334533693,2.483749866485596,-0.6604190468788147
924,53400.0,12.777671813964846,2.311466693878174,-0.02153540588915348
925,53500.0,12.777671813964846,2.311466693878174,-0.02153540588915348
926,53600.0,8.939584732055664,1.6965112686157229,-0.3326023519039154
927,53700.0,8.939584732055664,1.6965112686157229,-0.3326023519039154
928,53800.0,8.939584732055664,1.6965112686157229,-0.3326023519039154
929,53900.0,6.814758777618407,0.0263210479170084,-6.56829833984375
930,54000.0,6.814758777618407,0.0263210479170084,-6.56829833984375
931,54100.0,10.064212799072266,3.641876220703125,-3.1728827953338623
932,54200.0,10.064212799072266,3.641876220703125,-3.1728827953338623
933,54300.0,8.709875106811522,3.9218363761901855,-1.2610174417495728
934,54400.0,8.709875106811522,3.9218363761901855,-1.2610174417495728
935,54500.0,8.709875106811522,3.9218363761901855,-1.2610174417495728
936,54600.0,12.131609916687012,2.0027925968170166,0.2273181527853012
937,54700.0,12.131609916687012,2.0027925968170166,0.2273181527853012
938,54800.0,11.461621284484865,2.7589242458343506,-0.11724831163883208
939,54900.0,11.461621284484865,2.7589242458343506,-0.11724831163883208
940,54000.0,6.814758777618407,0.0263210479170084,-6.56829833984375
941,54100.0,10.064212799072266,3.641876220703125,-3.1728827953338623
942,54200.0,10.064212799072266,3.641876220703125,-3.1728827953338623
943,54300.0,8.709875106811522,3.9218363761901855,-1.2610174417495728
944,54400.0,8.709875106811522,3.9218363761901855,-1.2610174417495728
945,54500.0,8.709875106811522,3.9218363761901855,-1.2610174417495728
946,54600.0,12.131609916687012,2.0027925968170166,0.2273181527853012
947,54700.0,12.131609916687012,2.0027925968170166,0.2273181527853012
948,54800.0,11.461621284484865,2.7589242458343506,-0.11724831163883208
949,54900.0,11.461621284484865,2.7589242458343506,-0.11724831163883208
950,55000.0,11.461621284484865,2.7589242458343506,-0.11724831163883208
951,55100.0,5.331209182739258,1.294516921043396,-3.38105845451355
952,55200.0,5.331209182739258,1.294516921043396,-3.38105845451355
953,55300.0,10.954340934753418,0.7513462901115417,-4.634897232055664
954,55400.0,10.954340934753418,0.7513462901115417,-4.634897232055664
955,55500.0,10.499706268310547,1.56969153881073,-2.974278450012207
956,55600.0,10.499706268310547,1.56969153881073,-2.974278450012207
957,55700.0,11.131410598754883,2.2085752487182617,-1.146162033081055
958,55800.0,11.131410598754883,2.2085752487182617,-1.146162033081055
959,55900.0,11.131410598754883,2.2085752487182617,-1.146162033081055
960,55000.0,11.461621284484865,2.7589242458343506,-0.11724831163883208
961,55100.0,5.331209182739258,1.294516921043396,-3.38105845451355
962,55200.0,5.331209182739258,1.294516921043396,-3.38105845451355
963,55300.0,10.954340934753418,0.7513462901115417,-4.634897232055664
964,55400.0,10.954340934753418,0.7513462901115417,-4.634897232055664
965,55500.0,10.499706268310547,1.56969153881073,-2.974278450012207
966,55600.0,10.499706268310547,1.56969153881073,-2.974278450012207
967,55700.0,11.131410598754883,2.2085752487182617,-1.146162033081055
968,55800.0,11.131410598754883,2.2085752487182617,-1.146162033081055
969,55900.0,11.131410598754883,2.2085752487182617,-1.146162033081055
970,56000.0,10.116853713989258,1.1270195245742798,-0.5934200286865234
971,56100.0,10.116853713989258,1.1270195245742798,-0.5934200286865234
972,56200.0,8.236095428466799,2.636890411376953,-5.56331205368042
973,56300.0,8.236095428466799,2.636890411376953,-5.56331205368042
974,56400.0,8.236095428466799,2.636890411376953,-5.56331205368042
975,56500.0,12.16989517211914,3.2805597782135014,-1.2227323055267334
976,56600.0,12.16989517211914,3.2805597782135014,-1.2227323055267334
977,56700.0,9.38943576812744,4.465007305145264,-1.1341978311538696
978,56800.0,9.38943576812744,4.465007305145264,-1.1341978311538696
979,56900.0,13.911870002746582,4.02472734451294,-1.6893328428268433
980,56000.0,10.116853713989258,1.1270195245742798,-0.5934200286865234
981,56100.0,10.116853713989258,1.1270195245742798,-0.5934200286865234
982,56200.0,8.236095428466799,2.636890411376953,-5.56331205368042
983,56300.0,8.236095428466799,2.636890411376953,-5.56331205368042
984,56400.0,8.236095428466799,2.636890411376953,-5.56331205368042
985,56500.0,12.16989517211914,3.2805597782135014,-1.2227323055267334
986,56600.0,12.16989517211914,3.2805597782135014,-1.2227323055267334
987,56700.0,9.38943576812744,4.465007305145264,-1.1341978311538696
988,56800.0,9.38943576812744,4.465007305145264,-1.1341978311538696
989,56900.0,13.911870002746582,4.02472734451294,-1.6893328428268433
990,57000.0,13.911870002746582,4.02472734451294,-1.6893328428268433
991,57100.0,10.064212799072266,0.6484549045562744,-1.0863415002822876
992,57200.0,10.064212799072266,0.6484549045562744,-1.0863415002822876
993,57300.0,8.288737297058105,-0.26560330390930176,-2.988635540008545
994,57400.0,8.288737297058105,-0.26560330390930176,-2.988635540008545
995,57500.0,12.361321449279785,1.887937068939209,-1.706082463264465
996,57600.0,12.361321449279785,1.887937068939209,-1.706082463264465
997,57700.0,12.361321449279785,1.887937068939209,-1.706082463264465
998,57800.0,9.332008361816406,5.362315654754639,-0.6005984544754028
999,57900.0,9.332008361816406,5.362315654754639,-0.6005984544754028
1000,57000.0,13.911870002746582,4.02472734451294,-1.6893328428268433
1001,57100.0,10.064212799072266,0.6484549045562744,-1.0863415002822876
1002,57200.0,10.064212799072266,0.6484549045562744,-1.0863415002822876
1003,57300.0,8.288737297058105,-0.26560330390930176,-2.988635540008545
1004,57400.0,8.288737297058105,-0.26560330390930176,-2.988635540008545
1005,57500.0,12.361321449279785,1.887937068939209,-1.706082463264465
1006,57600.0,12.361321449279785,1.887937068939209,-1.706082463264465
1007,57700.0,12.361321449279785,1.887937068939209,-1.706082463264465
1008,57800.0,9.332008361816406,5.362315654754639,-0.6005984544754028
1009,57900.0,9.332008361816406,5.362315654754639,-0.6005984544754028
1010,58000.0,9.15493869781494,3.682554006576538,-0.7393822073936462
1011,58100.0,9.15493869781494,3.682554006576538,-0.7393822073936462
1012,58200.0,12.083754539489744,0.7034898400306702,-1.983649969100952
1013,58300.0,12.083754539489744,0.7034898400306702,-1.983649969100952
1014,58400.0,12.083754539489744,0.7034898400306702,-1.983649969100952
1015,58500.0,7.896315097808838,0.3852444589138031,-3.9744782447814937
1016,58600.0,7.896315097808838,0.3852444589138031,-3.9744782447814937
1017,58700.0,11.93061351776123,3.517449140548706,-2.155933380126953
1018,58800.0,11.93061351776123,3.517449140548706,-2.155933380126953
1019,58900.0,9.882357597351074,6.03230619430542,-1.0360921621322632
1020,58000.0,9.15493869781494,3.682554006576538,-0.7393822073936462
1021,58100.0,9.15493869781494,3.682554006576538,-0.7393822073936462
1022,58200.0,12.083754539489744,0.7034898400306702,-1.983649969100952
1023,58300.0,12.083754539489744,0.7034898400306702,-1.983649969100952
1024,58400.0,12.083754539489744,0.7034898400306702,-1.983649969100952
1025,58500.0,7.896315097808838,0.3852444589138031,-3.9744782447814937
1026,58600.0,7.896315097808838,0.3852444589138031,-3.9744782447814937
1027,58700.0,11.93061351776123,3.517449140548706,-2.155933380126953
1028,58800.0,11.93061351776123,3.517449140548706,-2.155933380126953
1029,58900.0,9.882357597351074,6.03230619430542,-1.0360921621322632
1030,59000.0,9.882357597351074,6.03230619430542,-1.0360921621322632
1031,59100.0,9.882357597351074,6.03230619430542,-1.0360921621322632
1032,59200.0,12.294322967529295,3.13220477104187,-0.2679961323738098
1033,59300.0,12.294322967529295,3.13220477104187,-0.2679961323738098
1034,59400.0,8.858229637145996,1.0073783397674558,-1.2921242713928225
1035,59500.0,8.858229637145996,1.0073783397674558,-1.2921242713928225
1036,59600.0,8.858229637145996,1.0073783397674558,-1.2921242713928225
1037,59700.0,10.04985523223877,0.5647061467170715,-4.615755081176758
1038,59800.0,10.04985523223877,0.5647061467170715,-4.615755081176758
1039,59900.0,8.580661773681639,4.0414772033691415,-3.081955671310425
1040,59000.0,9.882357597351074,6.03230619430542,-1.0360921621322632
1041,59100.0,9.882357597351074,6.03230619430542,-1.0360921621322632
1042,59200.0,12.294322967529295,3.13220477104187,-0.2679961323738098
1043,59300.0,12.294322967529295,3.13220477104187,-0.2679961323738098
1044,59400.0,8.858229637145996,1.0073783397674558,-1.2921242713928225
1045,59500.0,8.858229637145996,1.0073783397674558,-1.2921242713928225
1046,59600.0,8.858229637145996,1.0073783397674558,-1.2921242713928225
1047,59700.0,10.04985523223877,0.5647061467170715,-4.615755081176758
1048,59800.0,10.04985523223877,0.5647061467170715,-4.615755081176758
1049,59900.0,8.580661773681639,4.0414772033691415,-3.081955671310425
1050,60000.0,8.580661773681639,4.0414772033691415,-3.081955671310425
1051,60100.0,9.442078590393066,3.31884503364563,-2.5986053943634038
1052,60200.0,9.442078590393066,3.31884503364563,-2.5986053943634038
1053,60300.0,10.356135368347168,2.423929214477539,-2.244467735290528
1054,60400.0,10.356135368347168,2.423929214477539,-2.244467735290528
1055,60500.0,9.518648147583008,1.7084753513336182,-1.8831514120101929
1056,60600.0,9.518648147583008,1.7084753513336182,-1.8831514120101929
1057,60700.0,8.839086532592773,1.9501504898071291,-1.730010747909546
1058,60800.0,8.839086532592773,1.9501504898071291,-1.730010747909546
1059,60900.0,8.063812255859375,2.244467735290528,-3.395415067672729
1060,60000.0,8.580661773681639,4.0414772033691415,-3.081955671310425
1061,60100.0,9.442078590393066,3.31884503364563,-2.5986053943634038
1062,60200.0,9.442078590393066,3.31884503364563,-2.5986053943634038
1063,60300.0,10.356135368347168,2.423929214477539,-2.244467735290528
1064,60400.0,10.356135368347168,2.423929214477539,-2.244467735290528
1065,60500.0,9.518648147583008,1.7084753513336182,-1.8831514120101929
1066,60600.0,9.518648147583008,1.7084753513336182,-1.8831514120101929
1067,60700.0,8.839086532592773,1.9501504898071291,-1.730010747909546
1068,60800.0,8.839086532592773,1.9501504898071291,-1.730010747909546
1069,60900.0,8.063812255859375,2.244467735290528,-3.395415067672729
1070,61000.0,8.063812255859375,2.244467735290528,-3.395415067672729
1071,61100.0,8.063812255859375,2.244467735290528,-3.395415067672729
1072,61200.0,7.503891944885254,3.8213374614715576,-2.577069997787476
1073,61300.0,7.503891944885254,3.8213374614715576,-2.577069997787476
1074,61400.0,13.332807540893555,3.838087558746338,-2.4909284114837646
1075,61500.0,13.332807540893555,3.838087558746338,-2.4909284114837646
1076,61600.0,7.427321434020996,2.0410776138305664,-1.6342979669570925
1077,61700.0,7.427321434020996,2.0410776138305664,-1.6342979669570925
1078,61800.0,7.427321434020996,2.0410776138305664,-1.6342979669570925
1079,61900.0,10.585847854614258,1.5002998113632202,-2.5292134284973145
1080,61000.0,8.063812255859375,2.244467735290528,-3.395415067672729
1081,61100.0,8.063812255859375,2.244467735290528,-3.395415067672729
1082,61200.0,7.503891944885254,3.8213374614715576,-2.577069997787476
1083,61300.0,7.503891944885254,3.8213374614715576,-2.577069997787476
1084,61400.0,13.332807540893555,3.838087558746338,-2.4909284114837646
1085,61500.0,13.332807540893555,3.838087558746338,-2.4909284114837646
1086,61600.0,7.427321434020996,2.0410776138305664,-1.6342979669570925
1087,61700.0,7.427321434020996,2.0410776138305664,-1.6342979669570925
1088,61800.0,7.427321434020996,2.0410776138305664,-1.6342979669570925
1089,61900.0,10.585847854614258,1.5002998113632202,-2.5292134284973145
1090,62000.0,10.585847854614258,1.5002998113632202,-2.5292134284973145
1091,62100.0,8.690732002258299,2.909672498703003,-3.919443368911743
1092,62200.0,8.690732002258299,2.909672498703003,-3.919443368911743
1093,62300.0,6.776473522186278,2.2995026111602783,-2.9240293502807617
1094,62400.0,6.776473522186278,2.2995026111602783,-2.9240293502807617
1095,62500.0,10.604989051818848,4.319044589996338,0.22013968229293826
1096,62600.0,10.604989051818848,4.319044589996338,0.22013968229293826
1097,62700.0,10.604989051818848,4.319044589996338,0.22013968229293826
1098,62800.0,11.839686393737793,2.048256158828736,1.3399806022644043
1099,62900.0,11.839686393737793,2.048256158828736,1.3399806022644043
1100,62000.0,10.585847854614258,1.5002998113632202,-2.5292134284973145
1101,62100.0,8.690732002258299,2.909672498703003,-3.919443368911743
1102,62200.0,8.690732002258299,2.909672498703003,-3.919443368911743
1103,62300.0,6.776473522186278,2.2995026111602783,-2.9240293502807617
1104,62400.0,6.776473522186278,2.2995026111602783,-2.9240293502807617
1105,62500.0,10.604989051818848,4.319044589996338,0.22013968229293826
1106,62600.0,10.604989051818848,4.319044589996338,0.22013968229293826
1107,62700.0,10.604989051818848,4.319044589996338,0.22013968229293826
1108,62800.0,11.839686393737793,2.048256158828736,1.3399806022644043
1109,62900.0,11.839686393737793,2.048256158828736,1.3399806022644043
1110,63000.0,11.428120613098145,1.1724830865859983,-0.8398807048797607
1111,63100.0,11.428120613098145,1.1724830865859983,-0.8398807048797607
1112,63200.0,11.428120613098145,1.1724830865859983,-0.8398807048797607
1113,63300.0,8.662017822265625,1.8855443000793457,-1.5792629718780518
1114,63400.0,8.662017822265625,1.8855443000793457,-1.5792629718780518
1115,63500.0,9.652647018432617,3.089133977890014,-0.3086740970611572
1116,63600.0,9.652647018432617,3.089133977890014,-0.3086740970611572
1117,63700.0,7.345965385437013,1.4883356094360352,-1.8400806188583372
1118,63800.0,7.345965385437013,1.4883356094360352,-1.8400806188583372
1119,63900.0,8.240880966186522,3.0963122844696045,-2.2683956623077397
1120,63000.0,11.428120613098145,1.1724830865859983,-0.8398807048797607
1121,63100.0,11.428120613098145,1.1724830865859983,-0.8398807048797607
1122,63200.0,11.428120613098145,1.1724830865859983,-0.8398807048797607
1123,63300.0,8.662017822265625,1.8855443000793457,-1.5792629718780518
1124,63400.0,8.662017822265625,1.8855443000793457,-1.5792629718780518
1125,63500.0,9.652647018432617,3.089133977890014,-0.3086740970611572
1126,63600.0,9.652647018432617,3.089133977890014,-0.3086740970611572
1127,63700.0,7.345965385437013,1.4883356094360352,-1.8400806188583372
1128,63800.0,7.345965385437013,1.4883356094360352,-1.8400806188583372
1129,63900.0,8.240880966186522,3.0963122844696045,-2.2683956623077397
1130,64000.0,8.240880966186522,3.0963122844696045,-2.2683956623077397
1131,64100.0,11.255837440490724,1.6797614097595217,-2.5363922119140625
1132,64200.0,11.255837440490724,1.6797614097595217,-2.5363922119140625
1133,64300.0,11.255837440490724,1.6797614097595217,-2.5363922119140625
1134,64400.0,8.164310455322267,1.7563319206237793,-2.9264223575592037
1135,64500.0,8.164310455322267,1.7563319206237793,-2.9264223575592037
1136,64600.0,10.939985275268556,7.465606689453125,-4.295116424560547
1137,64700.0,10.939985275268556,7.465606689453125,-4.295116424560547
1138,64800.0,10.939985275268556,7.465606689453125,-4.295116424560547
1139,64900.0,8.23130989074707,0.9236294627189636,-1.3232309818267822
1140,64000.0,8.240880966186522,3.0963122844696045,-2.2683956623077397
1141,64100.0,11.255837440490724,1.6797614097595217,-2.5363922119140625
1142,64200.0,11.255837440490724,1.6797614097595217,-2.5363922119140625
1143,64300.0,11.255837440490724,1.6797614097595217,-2.5363922119140625
1144,64400.0,8.164310455322267,1.7563319206237793,-2.9264223575592037
1145,64500.0,8.164310455322267,1.7563319206237793,-2.9264223575592037
1146,64600.0,10.939985275268556,7.465606689453125,-4.295116424560547
1147,64700.0,10.939985275268556,7.465606689453125,-4.295116424560547
1148,64800.0,10.939985275268556,7.465606689453125,-4.295116424560547
1149,64900.0,8.23130989074707,0.9236294627189636,-1.3232309818267822
1150,65000.0,8.23130989074707,0.9236294627189636,-1.3232309818267822
1151,65100.0,6.5659050941467285,1.919043779373169,0.3158525824546814
1152,65200.0,6.5659050941467285,1.919043779373169,0.3158525824546814
1153,65300.0,16.070196151733402,3.3020951747894287,-3.1178479194641118
1154,65400.0,16.070196151733402,3.3020951747894287,-3.1178479194641118
1155,65500.0,7.8819580078125,4.153940200805663,-2.0554347038269043
1156,65600.0,7.8819580078125,4.153940200805663,-2.0554347038269043
1157,65700.0,11.026127815246582,-0.7752745151519775,-3.3858442306518555
1158,65800.0,11.026127815246582,-0.7752745151519775,-3.3858442306518555
1159,65900.0,11.107483863830566,0.04785645008087158,-1.4835500717163086
1160,65000.0,8.23130989074707,0.9236294627189636,-1.3232309818267822
1161,65100.0,6.5659050941467285,1.919043779373169,0.3158525824546814
1162,65200.0,6.5659050941467285,1.919043779373169,0.3158525824546814
1163,65300.0,16.070196151733402,3.3020951747894287,-3.1178479194641118
1164,65400.0,16.070196151733402,3.3020951747894287,-3.1178479194641118
1165,65500.0,7.8819580078125,4.153940200805663,-2.0554347038269043
1166,65600.0,7.8819580078125,4.153940200805663,-2.0554347038269043
1167,65700.0,11.026127815246582,-0.7752745151519775,-3.3858442306518555
1168,65800.0,11.026127815246582,-0.7752745151519775,-3.3858442306518555
1169,65900.0,11.107483863830566,0.04785645008087158,-1.4835500717163086
1170,66000.0,11.107483863830566,0.04785645008087158,-1.4835500717163086
1171,66100.0,11.107483863830566,0.04785645008087158,-1.4835500717163086
1172,66200.0,7.733603000640869,1.105484127998352,-1.5122638940811155
1173,66300.0,7.733603000640869,1.105484127998352,-1.5122638940811155
1174,66400.0,7.341179370880128,1.8448662757873533,-3.802195072174072
1175,66500.0,7.341179370880128,1.8448662757873533,-3.802195072174072
1176,66600.0,7.341179370880128,1.8448662757873533,-3.802195072174072
1177,66700.0,6.293124198913574,3.4169507026672363,-1.7706886529922483
1178,66800.0,6.293124198913574,3.4169507026672363,-1.7706886529922483
1179,66900.0,9.930214881896973,5.209175109863281,-0.9786643981933594
1180,66000.0,11.107483863830566,0.04785645008087158,-1.4835500717163086
1181,66100.0,11.107483863830566,0.04785645008087158,-1.4835500717163086
1182,66200.0,7.733603000640869,1.105484127998352,-1.5122638940811155
1183,66300.0,7.733603000640869,1.105484127998352,-1.5122638940811155
1184,66400.0,7.341179370880128,1.8448662757873533,-3.802195072174072
1185,66500.0,7.341179370880128,1.8448662757873533,-3.802195072174072
1186,66600.0,7.341179370880128,1.8448662757873533,-3.802195072174072
1187,66700.0,6.293124198913574,3.4169507026672363,-1.7706886529922483
1188,66800.0,6.293124198913574,3.4169507026672363,-1.7706886529922483
1189,66900.0,9.930214881896973,5.209175109863281,-0.9786643981933594
1190,67000.0,9.930214881896973,5.209175109863281,-0.9786643981933594
1191,67100.0,10.083355903625488,1.215553879737854,-2.256431579589844
1192,67200.0,10.083355903625488,1.215553879737854,-2.256431579589844
1193,67300.0,9.446864128112793,1.3782659769058228,-2.263610363006592
1194,67400.0,9.446864128112793,1.3782659769058228,-2.263610363006592
1195,67500.0,8.02074146270752,0.2560320198535919,-4.752145767211914
1196,67600.0,8.02074146270752,0.2560320198535919,-4.752145767211914
1197,67700.0,8.02074146270752,0.2560320198535919,-4.752145767211914
1198,67800.0,10.212566375732422,3.9505498409271236,-4.2759737968444815
1199,67900.0,10.212566375732422,3.9505498409271236,-4.2759737968444815
1200,67000.0,9.930214881896973,5.209175109863281,-0.9786643981933594
1201,67100.0,10.083355903625488,1.215553879737854,-2.256431579589844
1202,67200.0,10.083355903625488,1.215553879737854,-2.256431579589844
1203,67300.0,9.446864128112793,1.3782659769058228,-2.263610363006592
1204,67400.0,9.446864128112793,1.3782659769058228,-2.263610363006592
1205,67500.0,8.02074146270752,0.2560320198535919,-4.752145767211914
1206,67600.0,8.02074146270752,0.2560320198535919,-4.752145767211914
1207,67700.0,8.02074146270752,0.2560320198535919,-4.752145767211914
1208,67800.0,10.212566375732422,3.9505498409271236,-4.2759737968444815
1209,67900.0,10.212566375732422,3.9505498409271236,-4.2759737968444815
1210,68000.0,6.20219612121582,4.934000015258789,-1.107876896858215
1211,68100.0,6.20219612121582,4.934000015258789,-1.107876896858215
1212,68200.0,12.504892349243164,-1.0528419017791748,-2.3736801147460938
1213,68300.0,12.504892349243164,-1.0528419017791748,-2.3736801147460938
1214,68400.0,12.504892349243164,-1.0528419017791748,-2.3736801147460938
1215,68500.0,7.992027282714844,2.8809585571289062,-4.2041893005371085
1216,68600.0,7.992027282714844,2.8809585571289062,-4.2041893005371085
1217,68700.0,11.825328826904295,2.833101987838745,-3.16331148147583
1218,68800.0,11.825328826904295,2.833101987838745,-3.16331148147583
1219,68900.0,9.241080284118652,2.7972097396850586,-2.380858421325684
1220,68000.0,6.20219612121582,4.934000015258789,-1.107876896858215
1221,68100.0,6.20219612121582,4.934000015258789,-1.107876896858215
1222,68200.0,12.504892349243164,-1.0528419017791748,-2.3736801147460938
1223,68300.0,12.504892349243164,-1.0528419017791748,-2.3736801147460938
1224,68400.0,12.504892349243164,-1.0528419017791748,-2.3736801147460938
1225,68500.0,7.992027282714844,2.8809585571289062,-4.2041893005371085
1226,68600.0,7.992027282714844,2.8809585571289062,-4.2041893005371085
1227,68700.0,11.825328826904295,2.833101987838745,-3.16331148147583
1228,68800.0,11.825328826904295,2.833101987838745,-3.16331148147583
1229,68900.0,9.241080284118652,2.7972097396850586,-2.380858421325684
1230,69000.0,9.241080284118652,2.7972097396850586,-2.380858421325684
1231,69100.0,10.432705879211426,1.459621787071228,-1.7682960033416748
1232,69200.0,10.432705879211426,1.459621787071228,-1.7682960033416748
1233,69300.0,10.432705879211426,1.459621787071228,-1.7682960033416748
1234,69400.0,10.542776107788086,0.4211367666721344,-1.0695916414260864
1235,69500.0,10.542776107788086,0.4211367666721344,-1.0695916414260864
1236,69600.0,7.097111701965332,-0.35413774847984314,-6.63051176071167
1237,69700.0,7.097111701965332,-0.35413774847984314,-6.63051176071167
1238,69800.0,8.700303077697754,3.615554809570313,-3.4289150238037114
1239,69900.0,8.700303077697754,3.615554809570313,-3.4289150238037114
1240,69000.0,9.241080284118652,2.7972097396850586,-2.380858421325684
1241,69100.0,10.432705879211426,1.459621787071228,-1.7682960033416748
1242,69200.0,10.432705879211426,1.459621787071228,-1.7682960033416748
1243,69300.0,10.432705879211426,1.459621787071228,-1.7682960033416748
1244,69400.0,10.542776107788086,0.4211367666721344,-1.0695916414260864
1245,69500.0,10.542776107788086,0.4211367666721344,-1.0695916414260864
1246,69600.0,7.097111701965332,-0.35413774847984314,-6.63051176071167
1247,69700.0,7.097111701965332,-0.35413774847984314,-6.63051176071167
1248,69800.0,8.700303077697754,3.615554809570313,-3.4289150238037114
1249,69900.0,8.700303077697754,3.615554809570313,-3.4289150238037114
1250,70000.0,8.700303077697754,3.615554809570313,-3.4289150238037114
1251,70100.0,9.528220176696776,3.3068809509277344,-1.9070796966552732
1252,70200.0,9.528220176696776,3.3068809509277344,-1.9070796966552732
1253,70300.0,8.733802795410156,1.1030912399291992,-1.306481122970581
1254,70400.0,8.733802795410156,1.1030912399291992,-1.306481122970581
1255,70500.0,9.55214786529541,1.2035897970199585,-2.7589242458343506
1256,70600.0,9.55214786529541,1.2035897970199585,-2.7589242458343506
1257,70700.0,9.55214786529541,1.2035897970199585,-2.7589242458343506
1258,70800.0,12.825529098510742,3.799802303314209,-5.1732821464538565
1259,70900.0,12.825529098510742,3.799802303314209,-5.1732821464538565
1260,70000.0,8.700303077697754,3.615554809570313,-3.4289150238037114
1261,70100.0,9.528220176696776,3.3068809509277344,-1.9070796966552732
1262,70200.0,9.528220176696776,3.3068809509277344,-1.9070796966552732
1263,70300.0,8.733802795410156,1.1030912399291992,-1.306481122970581
1264,70400.0,8.733802795410156,1.1030912399291992,-1.306481122970581
1265,70500.0,9.55214786529541,1.2035897970199585,-2.7589242458343506
1266,70600.0,9.55214786529541,1.2035897970199585,-2.7589242458343506
1267,70700.0,9.55214786529541,1.2035897970199585,-2.7589242458343506
1268,70800.0,12.825529098510742,3.799802303314209,-5.1732821464538565
1269,70900.0,12.825529098510742,3.799802303314209,-5.1732821464538565
1270,71000.0,8.437092781066895,4.072584152221681,-1.1365907192230225
1271,71100.0,8.437092781066895,4.072584152221681,-1.1365907192230225
1272,71200.0,11.858829498291016,4.5032920837402335,-1.361515998840332
1273,71300.0,11.858829498291016,4.5032920837402335,-1.361515998840332
1274,71400.0,9.174081802368164,1.5385849475860596,-0.6005984544754028
1275,71500.0,9.174081802368164,1.5385849475860596,-0.6005984544754028
1276,71600.0,9.174081802368164,1.5385849475860596,-0.6005984544754028
1277,71700.0,9.241080284118652,1.84965181350708,-0.9834501147270204
1278,71800.0,9.241080284118652,1.84965181350708,-0.9834501147270204
1279,71900.0,7.934599876403809,2.0650060176849365,-5.1637115478515625
1280,71000.0,8.437092781066895,4.072584152221681,-1.1365907192230225
1281,71100.0,8.437092781066895,4.072584152221681,-1.1365907192230225
1282,71200.0,11.858829498291016,4.5032920837402335,-1.361515998840332
1283,71300.0,11.858829498291016,4.5032920837402335,-1.361515998840332
1284,71400.0,9.174081802368164,1.5385849475860596,-0.6005984544754028
1285,71500.0,9.174081802368164,1.5385849475860596,-0.6005984544754028
1286,71600.0,9.174081802368164,1.5385849475860596,-0.6005984544754028
1287,71700.0,9.241080284118652,1.84965181350708,-0.9834501147270204
1288,71800.0,9.241080284118652,1.84965181350708,-0.9834501147270204
1289,71900.0,7.934599876403809,2.0650060176849365,-5.1637115478515625
1290,72000.0,7.934599876403809,2.0650060176849365,-5.1637115478515625
1291,72100.0,7.934599876403809,2.0650060176849365,-5.1637115478515625
1292,72200.0,9.28893756866455,4.1659040451049805,-2.1511476039886475
1293,72300.0,9.28893756866455,4.1659040451049805,-2.1511476039886475
1294,72400.0,11.140981674194336,4.548755645751953,-1.3184452056884766
1295,72500.0,11.140981674194336,4.548755645751953,-1.3184452056884766
1296,72600.0,8.126025199890138,1.9118653535842896,-0.9308080077171326
1297,72700.0,8.126025199890138,1.9118653535842896,-0.9308080077171326
1298,72800.0,8.126025199890138,1.9118653535842896,-0.9308080077171326
1299,72900.0,11.22233772277832,0.5670989155769348,-2.414358139038086
1300,72000.0,7.934599876403809,2.0650060176849365,-5.1637115478515625
1301,72100.0,7.934599876403809,2.0650060176849365,-5.1637115478515625
1302,72200.0,9.28893756866455,4.1659040451049805,-2.1511476039886475
1303,72300.0,9.28893756866455,4.1659040451049805,-2.1511476039886475
1304,72400.0,11.140981674194336,4.548755645751953,-1.3184452056884766
1305,72500.0,11.140981674194336,4.548755645751953,-1.3184452056884766
1306,72600.0,8.126025199890138,1.9118653535842896,-0.9308080077171326
1307,72700.0,8.126025199890138,1.9118653535842896,-0.9308080077171326
1308,72800.0,8.126025199890138,1.9118653535842896,-0.9308080077171326
1309,72900.0,11.22233772277832,0.5670989155769348,-2.414358139038086
1310,73000.0,11.22233772277832,0.5670989155769348,-2.414358139038086
1311,73100.0,6.853044033050537,2.263610363006592,-2.675175428390503
1312,73200.0,6.853044033050537,2.263610363006592,-2.675175428390503
1313,73300.0,6.853044033050537,2.263610363006592,-2.675175428390503
1314,73400.0,8.71466064453125,2.589033842086792,-3.0173492431640625
1315,73500.0,8.71466064453125,2.589033842086792,-3.0173492431640625
1316,73600.0,11.026127815246582,1.9932212829589844,-3.4576287269592285
1317,73700.0,11.026127815246582,1.9932212829589844,-3.4576287269592285
1318,73800.0,9.848857879638672,2.1535403728485107,-1.442872166633606
1319,73900.0,9.848857879638672,2.1535403728485107,-1.442872166633606
1320,73000.0,11.22233772277832,0.5670989155769348,-2.414358139038086
1321,73100.0,6.853044033050537,2.263610363006592,-2.675175428390503
1322,73200.0,6.853044033050537,2.263610363006592,-2.675175428390503
1323,73300.0,6.853044033050537,2.263610363006592,-2.675175428390503
1324,73400.0,8.71466064453125,2.589033842086792,-3.0173492431640625
1325,73500.0,8.71466064453125,2.589033842086792,-3.0173492431640625
1326,73600.0,11.026127815246582,1.9932212829589844,-3.4576287269592285
1327,73700.0,11.026127815246582,1.9932212829589844,-3.4576287269592285
1328,73800.0,9.848857879638672,2.1535403728485107,-1.442872166633606
1329,73900.0,9.848857879638672,2.1535403728485107,-1.442872166633606
1330,74000.0,10.437491416931152,1.730010747909546,-2.148754596710205
1331,74100.0,10.437491416931152,1.730010747909546,-2.148754596710205
1332,74200.0,10.437491416931152,1.730010747909546,-2.148754596710205
1333,74300.0,10.963912963867188,1.9238293170928955,-4.012763977050781
1334,74400.0,10.963912963867188,1.9238293170928955,-4.012763977050781
1335,74500.0,7.369894027709961,3.0101709365844727,-3.840480089187622
1336,74600.0,7.369894027709961,3.0101709365844727,-3.840480089187622
1337,74700.0,15.845272064208984,5.331209182739258,-3.488735675811768
1338,74800.0,15.845272064208984,5.331209182739258,-3.488735675811768
1339,74900.0,8.336593627929688,2.4047868251800537,-3.3619158267974854
1340,74000.0,10.437491416931152,1.730010747909546,-2.148754596710205
1341,74100.0,10.437491416931152,1.730010747909546,-2.148754596710205
1342,74200.0,10.437491416931152,1.730010747909546,-2.148754596710205
1343,74300.0,10.963912963867188,1.9238293170928955,-4.012763977050781
1344,74400.0,10.963912963867188,1.9238293170928955,-4.012763977050781
1345,74500.0,7.369894027709961,3.0101709365844727,-3.840480089187622
1346,74600.0,7.369894027709961,3.0101709365844727,-3.840480089187622
1347,74700.0,15.845272064208984,5.331209182739258,-3.488735675811768
1348,74800.0,15.845272064208984,5.331209182739258,-3.488735675811768
1349,74900.0,8.336593627929688,2.4047868251800537,-3.3619158267974854
1350,75000.0,8.336593627929688,2.4047868251800537,-3.3619158267974854
1351,75100.0,8.336593627929688,2.4047868251800537,-3.3619158267974854
1352,75200.0,9.997212409973145,0.8303093910217285,-2.878565788269043
1353,75300.0,9.997212409973145,0.8303093910217285,-2.878565788269043
1354,75400.0,10.317852020263672,1.3543376922607422,-2.9288151264190674
1355,75500.0,10.317852020263672,1.3543376922607422,-2.9288151264190674
1356,75600.0,9.738788604736328,4.161118507385254,-1.5481561422348022
1357,75700.0,9.738788604736328,4.161118507385254,-1.5481561422348022
1358,75800.0,9.738788604736328,4.161118507385254,-1.5481561422348022
1359,75900.0,4.823930263519287,-0.7369893789291382,-3.268595933914185
1360,75000.0,8.336593627929688,2.4047868251800537,-3.3619158267974854
1361,75100.0,8.336593627929688,2.4047868251800537,-3.3619158267974854
1362,75200.0,9.997212409973145,0.8303093910217285,-2.878565788269043
1363,75300.0,9.997212409973145,0.8303093910217285,-2.878565788269043
1364,75400.0,10.317852020263672,1.3543376922607422,-2.9288151264190674
1365,75500.0,10.317852020263672,1.3543376922607422,-2.9288151264190674
1366,75600.0,9.738788604736328,4.161118507385254,-1.5481561422348022
1367,75700.0,9.738788604736328,4.161118507385254,-1.5481561422348022
1368,75800.0,9.738788604736328,4.161118507385254,-1.5481561422348022
1369,75900.0,4.823930263519287,-0.7369893789291382,-3.268595933914185
1370,76000.0,4.823930263519287,-0.7369893789291382,-3.268595933914185
1371,76100.0,8.307880401611326,1.3375877141952517,-1.7682960033416748
1372,76200.0,8.307880401611326,1.3375877141952517,-1.7682960033416748
1373,76300.0,8.767301559448242,2.0123636722564697,-1.8400806188583372
1374,76400.0,8.767301559448242,2.0123636722564697,-1.8400806188583372
1375,76500.0,9.107083320617676,0.16510476171970367,-3.7782666683197017
1376,76600.0,9.107083320617676,0.16510476171970367,-3.7782666683197017
1377,76700.0,9.107083320617676,0.16510476171970367,-3.7782666683197017
1378,76800.0,8.35573673248291,2.179861307144165,-3.2757742404937744
1379,76900.0,8.35573673248291,2.179861307144165,-3.2757742404937744
1380,76000.0,4.823930263519287,-0.7369893789291382,-3.268595933914185
1381,76100.0,8.307880401611326,1.3375877141952517,-1.7682960033416748
1382,76200.0,8.307880401611326,1.3375877141952517,-1.7682960033416748
1383,76300.0,8.767301559448242,2.0123636722564697,-1.8400806188583372
1384,76400.0,8.767301559448242,2.0123636722564697,-1.8400806188583372
1385,76500.0,9.107083320617676,0.16510476171970367,-3.7782666683197017
1386,76600.0,9.107083320617676,0.16510476171970367,-3.7782666683197017
1387,76700.0,9.107083320617676,0.16510476171970367,-3.7782666683197017
1388,76800.0,8.35573673248291,2.179861307144165,-3.2757742404937744
1389,76900.0,8.35573673248291,2.179861307144165,-3.2757742404937744
1390,77000.0,9.446864128112793,1.5672988891601562,-2.0650060176849365
1391,77100.0,9.446864128112793,1.5672988891601562,-2.0650060176849365
1392,77200.0,9.446864128112793,1.5672988891601562,-2.0650060176849365
1393,77300.0,10.202995300292967,2.4023938179016118,-2.0865414142608643
1394,77400.0,10.202995300292967,2.4023938179016118,-2.0865414142608643
1395,77500.0,5.800201892852782,2.933600425720215,-4.5104708671569815
1396,77600.0,5.800201892852782,2.933600425720215,-4.5104708671569815
1397,77700.0,6.790830135345459,1.3950155973434448,-3.811766624450684
1398,77800.0,6.790830135345459,1.3950155973434448,-3.811766624450684
1399,77900.0,9.533005714416504,2.8522443771362305,-2.2157537937164307
1400,77000.0,9.446864128112793,1.5672988891601562,-2.0650060176849365
1401,77100.0,9.446864128112793,1.5672988891601562,-2.0650060176849365
1402,77200.0,9.446864128112793,1.5672988891601562,-2.0650060176849365
1403,77300.0,10.202995300292967,2.4023938179016118,-2.0865414142608643
1404,77400.0,10.202995300292967,2.4023938179016118,-2.0865414142608643
1405,77500.0,5.800201892852782,2.933600425720215,-4.5104708671569815
1406,77600.0,5.800201892852782,2.933600425720215,-4.5104708671569815
1407,77700.0,6.790830135345459,1.3950155973434448,-3.811766624450684
1408,77800.0,6.790830135345459,1.3950155973434448,-3.811766624450684
1409,77900.0,9.533005714416504,2.8522443771362305,-2.2157537937164307
1410,78000.0,9.533005714416504,2.8522443771362305,-2.2157537937164307
1411,78100.0,10.475777626037598,3.1585259437561035,-2.3976082801818848
1412,78200.0,10.475777626037598,3.1585259437561035,-2.3976082801818848
1413,78300.0,10.475777626037598,3.1585259437561035,-2.3976082801818848
1414,78400.0,7.733603000640869,1.0336993932724001,-2.390429735183716
1415,78500.0,7.733603000640869,1.0336993932724001,-2.390429735183716
1416,78600.0,13.758729934692385,2.062613010406494,-4.486542701721191
1417,78700.0,13.758729934692385,2.062613010406494,-4.486542701721191
1418,78800.0,7.867600917816162,3.615554809570313,-3.680161237716675
1419,78900.0,7.867600917816162,3.615554809570313,-3.680161237716675
1420,78000.0,9.533005714416504,2.8522443771362305,-2.2157537937164307
1421,78100.0,10.475777626037598,3.1585259437561035,-2.3976082801818848
1422,78200.0,10.475777626037598,3.1585259437561035,-2.3976082801818848
1423,78300.0,10.475777626037598,3.1585259437561035,-2.3976082801818848
1424,78400.0,7.733603000640869,1.0336993932724001,-2.390429735183716
1425,78500.0,7.733603000640869,1.0336993932724001,-2.390429735183716
1426,78600.0,13.758729934692385,2.062613010406494,-4.486542701721191
1427,78700.0,13.758729934692385,2.062613010406494,-4.486542701721191
1428,78800.0,7.867600917816162,3.615554809570313,-3.680161237716675
1429,78900.0,7.867600917816162,3.615554809570313,-3.680161237716675
1430,79000.0,13.624732971191404,4.153940200805663,-1.557727575302124
1431,79100.0,13.624732971191404,4.153940200805663,-1.557727575302124
1432,79200.0,13.624732971191404,4.153940200805663,-1.557727575302124
1433,79300.0,8.729016304016112,2.380858421325684,-0.8087739944458008
1434,79400.0,8.729016304016112,2.380858421325684,-0.8087739944458008
1435,79500.0,9.561718940734863,1.5912269353866575,-1.0408778190612793
1436,79600.0,9.561718940734863,1.5912269353866575,-1.0408778190612793
1437,79700.0,6.709475040435791,3.3164520263671875,-3.684947013854981
1438,79800.0,6.709475040435791,3.3164520263671875,-3.684947013854981
1439,79900.0,8.642874717712402,4.012763977050781,-1.8951154947280884
1440,79000.0,13.624732971191404,4.153940200805663,-1.557727575302124
1441,79100.0,13.624732971191404,4.153940200805663,-1.557727575302124
1442,79200.0,13.624732971191404,4.153940200805663,-1.557727575302124
1443,79300.0,8.729016304016112,2.380858421325684,-0.8087739944458008
1444,79400.0,8.729016304016112,2.380858421325684,-0.8087739944458008
1445,79500.0,9.561718940734863,1.5912269353866575,-1.0408778190612793
1446,79600.0,9.561718940734863,1.5912269353866575,-1.0408778190612793
1447,79700.0,6.709475040435791,3.3164520263671875,-3.684947013854981
1448,79800.0,6.709475040435791,3.3164520263671875,-3.684947013854981
1449,79900.0,8.642874717712402,4.012763977050781,-1.8951154947280884
1450,80000.0,8.642874717712402,4.012763977050781,-1.8951154947280884
1451,80100.0,8.642874717712402,4.012763977050781,-1.8951154947280884
1452,80200.0,11.99761199951172,2.557927370071411,-0.20817556977272034
1453,80300.0,11.99761199951172,2.557927370071411,-0.20817556977272034
1454,80400.0,8.681159973144531,1.8424735069274905,0.8135597109794617
1455,80500.0,8.681159973144531,1.8424735069274905,0.8135597109794617
1456,80600.0,8.681159973144531,1.8424735069274905,0.8135597109794617
1457,80700.0,11.619546890258787,2.502892255783081,-0.6149553656578064
1458,80800.0,11.619546890258787,2.502892255783081,-0.6149553656578064
1459,80900.0,9.025726318359377,0.8327022790908813,-4.29750919342041
1460,80000.0,8.642874717712402,4.012763977050781,-1.8951154947280884
1461,80100.0,8.642874717712402,4.012763977050781,-1.8951154947280884
1462,80200.0,11.99761199951172,2.557927370071411,-0.20817556977272034
1463,80300.0,11.99761199951172,2.557927370071411,-0.20817556977272034
1464,80400.0,8.681159973144531,1.8424735069274905,0.8135597109794617
1465,80500.0,8.681159973144531,1.8424735069274905,0.8135597109794617
1466,80600.0,8.681159973144531,1.8424735069274905,0.8135597109794617
1467,80700.0,11.619546890258787,2.502892255783081,-0.6149553656578064
1468,80800.0,11.619546890258787,2.502892255783081,-0.6149553656578064
1469,80900.0,9.025726318359377,0.8327022790908813,-4.29750919342041
1470,81000.0,9.025726318359377,0.8327022790908813,-4.29750919342041
1471,81100.0,7.891529560089111,3.811766624450684,-2.0410776138305664
1472,81200.0,7.891529560089111,3.811766624450684,-2.0410776138305664
1473,81300.0,7.891529560089111,3.811766624450684,-2.0410776138305664
1474,81400.0,9.432506561279297,3.10109806060791,-3.7064821720123287
1475,81500.0,9.432506561279297,3.10109806060791,-3.7064821720123287
1476,81600.0,10.600205421447754,3.0556347370147705,-4.0175490379333505
1477,81700.0,10.600205421447754,3.0556347370147705,-4.0175490379333505
1478,81800.0,7.29810905456543,1.4548362493515017,-1.9262222051620483
1479,81900.0,7.29810905456543,1.4548362493515017,-1.9262222051620483
1480,81000.0,9.025726318359377,0.8327022790908813,-4.29750919342041
1481,81100.0,7.891529560089111,3.811766624450684,-2.0410776138305664
1482,81200.0,7.891529560089111,3.811766624450684,-2.0410776138305664
1483,81300.0,7.891529560089111,3.811766624450684,-2.0410776138305664
1484,81400.0,9.432506561279297,3.10109806060791,-3.7064821720123287
1485,81500.0,9.432506561279297,3.10109806060791,-3.7064821720123287
1486,81600.0,10.600205421447754,3.0556347370147705,-4.0175490379333505
1487,81700.0,10.600205421447754,3.0556347370147705,-4.0175490379333505
1488,81800.0,7.29810905456543,1.4548362493515017,-1.9262222051620483
1489,81900.0,7.29810905456543,1.4548362493515017,-1.9262222051620483
1490,82000.0,7.29810905456543,1.4548362493515017,-1.9262222051620483
1491,82100.0,9.628718376159668,1.8759729862213133,-2.6608188152313232
1492,82200.0,9.628718376159668,1.8759729862213133,-2.6608188152313232
1493,82300.0,10.25563907623291,1.902293920516968,-3.5676987171173096
1494,82400.0,10.25563907623291,1.902293920516968,-3.5676987171173096
1495,82500.0,8.580661773681639,3.1274189949035645,-3.072384119033813
1496,82600.0,8.580661773681639,3.1274189949035645,-3.072384119033813
1497,82700.0,8.580661773681639,3.1274189949035645,-3.072384119033813
1498,82800.0,12.246465682983398,3.400200843811035,-2.426322221755981
1499,82900.0,12.246465682983398,3.400200843811035,-2.426322221755981
1500,82000.0,7.29810905456543,1.4548362493515017,-1.9262222051620483
1501,82100.0,9.628718376159668,1.8759729862213133,-2.6608188152313232
1502,82200.0,9.628718376159668,1.8759729862213133,-2.6608188152313232
1503,82300.0,10.25563907623291,1.902293920516968,-3.5676987171173096
1504,82400.0,10.25563907623291,1.902293920516968,-3.5676987171173096
1505,82500.0,8.580661773681639,3.1274189949035645,-3.072384119033813
1506,82600.0,8.580661773681639,3.1274189949035645,-3.072384119033813
1507,82700.0,8.580661773681639,3.1274189949035645,-3.072384119033813
1508,82800.0,12.246465682983398,3.400200843811035,-2.426322221755981
1509,82900.0,12.246465682983398,3.400200843811035,-2.426322221755981
1510,83000.0,9.628718376159668,1.919043779373169,-1.7706886529922483
1511,83100.0,9.628718376159668,1.919043779373169,-1.7706886529922483
1512,83200.0,9.408578872680664,1.5122638940811155,-2.8594231605529785
1513,83300.0,9.408578872680664,1.5122638940811155,-2.8594231605529785
1514,83400.0,6.98704195022583,-0.1220339611172676,-4.900500774383545
1515,83500.0,6.98704195022583,-0.1220339611172676,-4.900500774383545
1516,83600.0,6.98704195022583,-0.1220339611172676,-4.900500774383545
1517,83700.0,9.360722541809082,2.4574286937713623,-2.033899307250977
1518,83800.0,9.360722541809082,2.4574286937713623,-2.033899307250977
1519,83900.0,10.887343406677246,4.7569313049316415,-1.4620146751403809
1520,83000.0,9.628718376159668,1.919043779373169,-1.7706886529922483
1521,83100.0,9.628718376159668,1.919043779373169,-1.7706886529922483
1522,83200.0,9.408578872680664,1.5122638940811155,-2.8594231605529785
1523,83300.0,9.408578872680664,1.5122638940811155,-2.8594231605529785
1524,83400.0,6.98704195022583,-0.1220339611172676,-4.900500774383545
1525,83500.0,6.98704195022583,-0.1220339611172676,-4.900500774383545
1526,83600.0,6.98704195022583,-0.1220339611172676,-4.900500774383545
1527,83700.0,9.360722541809082,2.4574286937713623,-2.033899307250977
1528,83800.0,9.360722541809082,2.4574286937713623,-2.033899307250977
1529,83900.0,10.887343406677246,4.7569313049316415,-1.4620146751403809
1530,84000.0,10.887343406677246,4.7569313049316415,-1.4620146751403809
1531,84100.0,11.696117401123047,2.7278177738189697,-2.6703903675079346
1532,84200.0,11.696117401123047,2.7278177738189697,-2.6703903675079346
1533,84300.0,7.953742504119872,1.2586246728897097,-1.8783657550811768
1534,84400.0,7.953742504119872,1.2586246728897097,-1.8783657550811768
1535,84500.0,7.953742504119872,1.2586246728897097,-1.8783657550811768
1536,84600.0,8.288737297058105,0.7250252366065979,-3.8596229553222656
1537,84700.0,8.288737297058105,0.7250252366065979,-3.8596229553222656
1538,84800.0,8.973085403442383,3.893122434616089,-2.864208698272705
1539,84900.0,8.973085403442383,3.893122434616089,-2.864208698272705
1540,84000.0,10.887343406677246,4.7569313049316415,-1.4620146751403809
1541,84100.0,11.696117401123047,2.7278177738189697,-2.6703903675079346
1542,84200.0,11.696117401123047,2.7278177738189697,-2.6703903675079346
1543,84300.0,7.953742504119872,1.2586246728897097,-1.8783657550811768
1544,84400.0,7.953742504119872,1.2586246728897097,-1.8783657550811768
1545,84500.0,7.953742504119872,1.2586246728897097,-1.8783657550811768
1546,84600.0,8.288737297058105,0.7250252366065979,-3.8596229553222656
1547,84700.0,8.288737297058105,0.7250252366065979,-3.8596229553222656
1548,84800.0,8.973085403442383,3.893122434616089,-2.864208698272705
1549,84900.0,8.973085403442383,3.893122434616089,-2.864208698272705
1550,85000.0,9.456435203552246,3.838087558746338,-2.337787628173828
1551,85100.0,9.456435203552246,3.838087558746338,-2.337787628173828
1552,85200.0,9.456435203552246,3.838087558746338,-2.337787628173828
1553,85300.0,10.356135368347168,1.308874011039734,-2.959921598434448
1554,85400.0,10.356135368347168,1.308874011039734,-2.959921598434448
1555,85500.0,8.437092781066895,1.0289137363433838,-1.0791629552841189
1556,85600.0,8.437092781066895,1.0289137363433838,-1.0791629552841189
1557,85700.0,7.513463020324707,-0.1220339611172676,-4.220939159393311
1558,85800.0,7.513463020324707,-0.1220339611172676,-4.220939159393311
1559,85900.0,11.217552185058594,4.098905563354491,-0.7992027401924133
1560,85000.0,9.456435203552246,3.838087558746338,-2.337787628173828
1561,85100.0,9.456435203552246,3.838087558746338,-2.337787628173828
1562,85200.0,9.456435203552246,3.838087558746338,-2.337787628173828
1563,85300.0,10.356135368347168,1.308874011039734,-2.959921598434448
1564,85400.0,10.356135368347168,1.308874011039734,-2.959921598434448
1565,85500.0,8.437092781066895,1.0289137363433838,-1.0791629552841189
1566,85600.0,8.437092781066895,1.0289137363433838,-1.0791629552841189
1567,85700.0,7.513463020324707,-0.1220339611172676,-4.220939159393311
1568,85800.0,7.513463020324707,-0.1220339611172676,-4.220939159393311
1569,85900.0,11.217552185058594,4.098905563354491,-0.7992027401924133
1570,86000.0,11.217552185058594,4.098905563354491,-0.7992027401924133
1571,86100.0,11.217552185058594,4.098905563354491,-0.7992027401924133
1572,86200.0,9.145368576049805,2.462214469909668,-0.41156551241874695
1573,86300.0,9.145368576049805,2.462214469909668,-0.41156551241874695
1574,86400.0,9.054441452026367,0.7896314859390259,-2.0123636722564697
1575,86500.0,9.054441452026367,0.7896314859390259,-2.0123636722564697
1576,86600.0,9.322437286376953,2.768495798110962,-3.658626079559326
1577,86700.0,9.322437286376953,2.768495798110962,-3.658626079559326
1578,86800.0,8.834300994873047,4.953143119812012,-2.00518536567688
1579,86900.0,8.834300994873047,4.953143119812012,-2.00518536567688
1580,86000.0,11.217552185058594,4.098905563354491,-0.7992027401924133
1581,86100.0,11.217552185058594,4.098905563354491,-0.7992027401924133
1582,86200.0,9.145368576049805,2.462214469909668,-0.41156551241874695
1583,86300.0,9.145368576049805,2.462214469909668,-0.41156551241874695
1584,86400.0,9.054441452026367,0.7896314859390259,-2.0123636722564697
1585,86500.0,9.054441452026367,0.7896314859390259,-2.0123636722564697
1586,86600.0,9.322437286376953,2.768495798110962,-3.658626079559326
1587,86700.0,9.322437286376953,2.768495798110962,-3.658626079559326
1588,86800.0,8.834300994873047,4.953143119812012,-2.00518536567688
1589,86900.0,8.834300994873047,4.953143119812012,-2.00518536567688
1590,87000.0,13.045668601989744,4.589433670043945,-1.969292998313904
1591,87100.0,13.045668601989744,4.589433670043945,-1.969292998313904
1592,87200.0,13.045668601989744,4.589433670043945,-1.969292998313904
1593,87300.0,10.52363395690918,2.395215511322021,-1.8257235288619995
1594,87400.0,10.52363395690918,2.395215511322021,-1.8257235288619995
1595,87500.0,9.944571495056152,0.5216353535652161,-2.96949315071106
1596,87600.0,9.944571495056152,0.5216353535652161,-2.96949315071106
1597,87700.0,8.240880966186522,0.5455635190010071,-4.993820667266847
1598,87800.0,8.240880966186522,0.5455635190010071,-4.993820667266847
1599,87900.0,8.240880966186522,0.5455635190010071,-4.993820667266847
1600,87000.0,13.045668601989744,4.589433670043945,-1.969292998313904
1601,87100.0,13.045668601989744,4.589433670043945,-1.969292998313904
1602,87200.0,13.045668601989744,4.589433670043945,-1.969292998313904
1603,87300.0,10.52363395690918,2.395215511322021,-1.8257235288619995
1604,87400.0,10.52363395690918,2.395215511322021,-1.8257235288619995
1605,87500.0,9.944571495056152,0.5216353535652161,-2.96949315071106
1606,87600.0,9.944571495056152,0.5216353535652161,-2.96949315071106
1607,87700.0,8.240880966186522,0.5455635190010071,-4.993820667266847
1608,87800.0,8.240880966186522,0.5455635190010071,-4.993820667266847
1609,87900.0,8.240880966186522,0.5455635190010071,-4.993820667266847
1610,88000.0,8.350951194763184,8.391629219055176,-0.7824530005455017
1611,88100.0,8.350951194763184,8.391629219055176,-0.7824530005455017
1612,88200.0,9.609575271606444,3.603590488433838,0.11485548317432405
1613,88300.0,9.609575271606444,3.603590488433838,0.11485548317432405
1614,88400.0,10.48534870147705,1.146162033081055,-1.4524433612823486
1615,88500.0,10.48534870147705,1.146162033081055,-1.4524433612823486
1616,88600.0,10.48534870147705,1.146162033081055,-1.4524433612823486
1617,88700.0,7.5804619789123535,0.4833501875400543,-5.778666496276856
1618,88800.0,7.5804619789123535,0.4833501875400543,-5.778666496276856
1619,88900.0,10.791629791259766,3.99362063407898,-3.847658634185791
1620,88000.0,8.350951194763184,8.391629219055176,-0.7824530005455017
1621,88100.0,8.350951194763184,8.391629219055176,-0.7824530005455017
1622,88200.0,9.609575271606444,3.603590488433838,0.11485548317432405
1623,88300.0,9.609575271606444,3.603590488433838,0.11485548317432405
1624,88400.0,10.48534870147705,1.146162033081055,-1.4524433612823486
1625,88500.0,10.48534870147705,1.146162033081055,-1.4524433612823486
1626,88600.0,10.48534870147705,1.146162033081055,-1.4524433612823486
1627,88700.0,7.5804619789123535,0.4833501875400543,-5.778666496276856
1628,88800.0,7.5804619789123535,0.4833501875400543,-5.778666496276856
1629,88900.0,10.791629791259766,3.99362063407898,-3.847658634185791
1630,89000.0,10.791629791259766,3.99362063407898,-3.847658634185791
1631,89100.0,13.088740348815918,5.31685209274292,-0.08614162355661392
1632,89200.0,13.088740348815918,5.31685209274292,-0.08614162355661392
1633,89300.0,13.088740348815918,5.31685209274292,-0.08614162355661392
1634,89400.0,11.810973167419435,1.2035897970199585,-1.026520848274231
1635,89500.0,11.810973167419435,1.2035897970199585,-1.026520848274231
1636,89600.0,10.834701538085938,1.9764715433120728,-0.3278167247772217
1637,89700.0,10.834701538085938,1.9764715433120728,-0.3278167247772217
1638,89800.0,7.140182495117188,-0.8853443264961243,-5.8480587005615225
1639,89900.0,7.140182495117188,-0.8853443264961243,-5.8480587005615225
1640,89000.0,10.791629791259766,3.99362063407898,-3.847658634185791
1641,89100.0,13.088740348815918,5.31685209274292,-0.08614162355661392
1642,89200.0,13.088740348815918,5.31685209274292,-0.08614162355661392
1643,89300.0,13.088740348815918,5.31685209274292,-0.08614162355661392
1644,89400.0,11.810973167419435,1.2035897970199585,-1.026520848274231
1645,89500.0,11.810973167419435,1.2035897970199585,-1.026520848274231
1646,89600.0,10.834701538085938,1.9764715433120728,-0.3278167247772217
1647,89700.0,10.834701538085938,1.9764715433120728,-0.3278167247772217
1648,89800.0,7.140182495117188,-0.8853443264961243,-5.8480587005615225
1649,89900.0,7.140182495117188,-0.8853443264961243,-5.8480587005615225
1650,90000.0,7.140182495117188,-0.8853443264961243,-5.8480587005615225
1651,90100.0,8.571090698242188,3.0221347808837886,-3.6011981964111333
1652,90200.0,8.571090698242188,3.0221347808837886,-3.6011981964111333
1653,90300.0,8.499305725097656,3.156132936477661,0.16510476171970367
1654,90400.0,8.499305725097656,3.156132936477661,0.16510476171970367
1655,90500.0,10.466205596923828,0.7992027401924133,-1.7012970447540283
1656,90600.0,10.466205596923828,0.7992027401924133,-1.7012970447540283
1657,90700.0,8.465806007385254,1.392622709274292,-1.9908283948898315
1658,90800.0,8.465806007385254,1.392622709274292,-1.9908283948898315
1659,90900.0,8.465806007385254,1.392622709274292,-1.9908283948898315
1660,90000.0,7.140182495117188,-0.8853443264961243,-5.8480587005615225
1661,90100.0,8.571090698242188,3.0221347808837886,-3.6011981964111333
1662,90200.0,8.571090698242188,3.0221347808837886,-3.6011981964111333
1663,90300.0,8.499305725097656,3.156132936477661,0.16510476171970367
1664,90400.0,8.499305725097656,3.156132936477661,0.16510476171970367
1665,90500.0,10.466205596923828,0.7992027401924133,-1.7012970447540283
1666,90600.0,10.466205596923828,0.7992027401924133,-1.7012970447540283
1667,90700.0,8.465806007385254,1.392622709274292,-1.9908283948898315
1668,90800.0,8.465806007385254,1.392622709274292,-1.9908283948898315
1669,90900.0,8.465806007385254,1.392622709274292,-1.9908283948898315
1670,91000.0,9.968499183654783,2.3306093215942383,-2.809173583984375
1671,91100.0,9.968499183654783,2.3306093215942383,-2.809173583984375
1672,91200.0,10.652846336364746,3.359522819519043,-2.4598214626312256
1673,91300.0,10.652846336364746,3.359522819519043,-2.4598214626312256
1674,91400.0,9.63828945159912,3.5294132232666016,-3.2446675300598145
1675,91500.0,9.63828945159912,3.5294132232666016,-3.2446675300598145
1676,91600.0,10.336994171142578,1.8759729862213133,-1.8999011516571045
1677,91700.0,10.336994171142578,1.8759729862213133,-1.8999011516571045
1678,91800.0,10.336994171142578,1.8759729862213133,-1.8999011516571045
1679,91900.0,9.322437286376953,1.2562319040298462,-1.392622709274292
1680,91000.0,9.968499183654783,2.3306093215942383,-2.809173583984375
1681,91100.0,9.968499183654783,2.3306093215942383,-2.809173583984375
1682,91200.0,10.652846336364746,3.359522819519043,-2.4598214626312256
1683,91300.0,10.652846336364746,3.359522819519043,-2.4598214626312256
1684,91400.0,9.63828945159912,3.5294132232666016,-3.2446675300598145
1685,91500.0,9.63828945159912,3.5294132232666016,-3.2446675300598145
1686,91600.0,10.336994171142578,1.8759729862213133,-1.8999011516571045
1687,91700.0,10.336994171142578,1.8759729862213133,-1.8999011516571045
1688,91800.0,10.336994171142578,1.8759729862213133,-1.8999011516571045
1689,91900.0,9.322437286376953,1.2562319040298462,-1.392622709274292
1690,92000.0,9.322437286376953,1.2562319040298462,-1.392622709274292
1691,92100.0,11.050054550170898,1.794616937637329,-3.7734813690185542
1692,92200.0,11.050054550170898,1.794616937637329,-3.7734813690185542
1693,92300.0,11.050054550170898,1.794616937637329,-3.7734813690185542
1694,92400.0,10.241281509399414,3.845265865325928,-2.029113531112671
1695,92500.0,10.241281509399414,3.845265865325928,-2.029113531112671
1696,92600.0,7.451249599456787,2.723031997680664,-1.3184452056884766
1697,92700.0,7.451249599456787,2.723031997680664,-1.3184452056884766
1698,92800.0,10.006784439086914,0.21774686872959134,-2.062613010406494
1699,92900.0,10.006784439086914,0.21774686872959134,-2.062613010406494
1700,92000.0,9.322437286376953,1.2562319040298462,-1.392622709274292
1701,92100.0,11.050054550170898,1.794616937637329,-3.7734813690185542
1702,92200.0,11.050054550170898,1.794616937637329,-3.7734813690185542
1703,92300.0,11.050054550170898,1.794616937637329,-3.7734813690185542
1704,92400.0,10.241281509399414,3.845265865325928,-2.029113531112671
1705,92500.0,10.241281509399414,3.845265865325928,-2.029113531112671
1706,92600.0,7.451249599456787,2.723031997680664,-1.3184452056884766
1707,92700.0,7.451249599456787,2.723031997680664,-1.3184452056884766
1708,92800.0,10.006784439086914,0.21774686872959134,-2.062613010406494
1709,92900.0,10.006784439086914,0.21774686872959134,-2.062613010406494
1710,93000.0,7.944170951843263,1.3878371715545654,-2.057827472686768
1711,93100.0,7.944170951843263,1.3878371715545654,-2.057827472686768
1712,93200.0,7.944170951843263,1.3878371715545654,-2.057827472686768
1713,93300.0,10.351350784301758,1.526620864868164,-3.335594892501831
1714,93400.0,10.351350784301758,1.526620864868164,-3.335594892501831
1715,93500.0,9.743573188781738,4.460221290588379,-0.8135597109794617
1716,93600.0,9.743573188781738,4.460221290588379,-0.8135597109794617
1717,93700.0,9.743573188781738,4.460221290588379,-0.8135597109794617
1718,93800.0,7.537391662597656,3.268595933914185,-2.050648927688598
1719,93900.0,7.537391662597656,3.268595933914185,-2.050648927688598
1720,93000.0,7.944170951843263,1.3878371715545654,-2.057827472686768
1721,93100.0,7.944170951843263,1.3878371715545654,-2.057827472686768
1722,93200.0,7.944170951843263,1.3878371715545654,-2.057827472686768
1723,93300.0,10.351350784301758,1.526620864868164,-3.335594892501831
1724,93400.0,10.351350784301758,1.526620864868164,-3.335594892501831
1725,93500.0,9.743573188781738,4.460221290588379,-0.8135597109794617
1726,93600.0,9.743573188781738,4.460221290588379,-0.8135597109794617
1727,93700.0,9.743573188781738,4.460221290588379,-0.8135597109794617
1728,93800.0,7.537391662597656,3.268595933914185,-2.050648927688598
1729,93900.0,7.537391662597656,3.268595933914185,-2.050648927688598
1730,94000.0,9.121439933776855,0.5766702890396118,-2.522034883499145
1731,94100.0,9.121439933776855,0.5766702890396118,-2.522034883499145
1732,94200.0,7.293323516845702,1.459621787071228,-2.2157537937164307
1733,94300.0,7.293323516845702,1.459621787071228,-2.2157537937164307
1734,94400.0,12.174681663513185,2.617748022079468,-3.6921253204345694
1735,94500.0,12.174681663513185,2.617748022079468,-3.6921253204345694
1736,94600.0,9.355937004089355,4.6923251152038565,-0.7178468108177185
1737,94700.0,9.355937004089355,4.6923251152038565,-0.7178468108177185
1738,94800.0,9.355937004089355,4.6923251152038565,-0.7178468108177185
1739,94900.0,10.092925071716307,5.831308364868164,-0.7585247755050659
1740,94000.0,9.121439933776855,0.5766702890396118,-2.522034883499145
1741,94100.0,9.121439933776855,0.5766702890396118,-2.522034883499145
1742,94200.0,7.293323516845702,1.459621787071228,-2.2157537937164307
