timestamp,ax,ay,az
1481952845536,-8.628104209899902,-1.7405846118927002,4.265270233154297
1481952845716,-8.488641738891602,-1.5723919868469238,4.196436882019043
1481952845902,-8.4293851852417,-1.5047557353973389,4.203619480133057
1481952846098,-8.655038833618164,-1.634641170501709,3.862445831298828
1481952846260,-8.415019989013672,-1.4532804489135742,4.2509050369262695
1481952846441,-8.476072311401367,-1.5741876363754272,4.265270233154297
1481952846618,-8.219294548034668,-1.547252893447876,4.228758811950684
1481952846800,-8.218097686767578,-1.6328455209732056,4.2078094482421875
1481952846976,-8.413225173950195,-1.8010382652282715,4.308365821838379
1481952847159,-8.432378768920898,-1.7980455160140991,4.267664432525635
1481952847337,-8.422801971435547,-1.8471266031265259,4.2963948249816895
1481952847518,-8.432976722717285,-1.8483237028121948,4.259883403778076
1481952847699,-8.38449478149414,-1.823184609413147,4.288015365600586
1481952847878,-8.434772491455078,-1.8375498056411743,4.278438568115234
1481952848061,-8.416815757751465,-1.813009262084961,4.291606426239014
1481952848242,-8.409034729003906,-1.8189947605133057,4.3191399574279785
1481952848421,-8.4293851852417,-1.8058266639709473,4.307168960571289
1481952848599,-8.423998832702637,-1.8405425548553467,4.283825397491455
1481952848783,-8.422801971435547,-1.8237831592559814,4.316147327423096
1481952848958,-8.391676902770996,-1.8112136125564575,4.326322555541992
1481952849174,-8.40843677520752,-1.843535304069519,4.32991361618042
1481952849323,-8.40424633026123,-1.810615062713623,4.3179426193237305
1481952849505,-8.3922758102417,-1.8417396545410156,4.322731018066406
1481952849681,-8.398261070251465,-1.7962498664855957,4.304774761199951
1481952849865,-8.388684272766113,-1.8339585065841675,4.305373191833496
1481952850046,-8.411429405212402,-1.8363527059555054,4.302380561828613
1481952850222,-8.394071578979492,-1.835754156112671,4.325724124908447
1481952850400,-8.401253700256348,-1.856104850769043,4.331110954284668
1481952850581,-8.40963363647461,-1.8399440050125122,4.305373191833496
1481952850766,-8.382100105285645,-1.8381483554840088,4.320336818695068
1481952850943,-8.398261070251465,-1.8465280532836914,4.334103584289551
1481952851122,-8.389283180236816,-1.853710651397705,4.336497783660889
1481952851307,-8.40185260772705,-1.843535304069519,4.32871675491333
1481952851487,-8.373720169067383,-1.8291701078414917,4.3424835205078125
1481952851662,-8.37192440032959,-1.844732403755188,4.359242916107178
1481952851849,-8.373122215270996,-1.8339585065841675,4.355052947998047
1481952852025,-8.382100105285645,-1.8465280532836914,4.3640313148498535
1481952852202,-8.385092735290527,-1.8237831592559814,4.387973308563232
1481952852387,-8.346187591552734,-1.844732403755188,4.349666118621826
1481952852567,-8.40185260772705,-1.8531121015548706,4.332307815551758
1481952852748,-8.380903244018555,-1.834557056427002,4.3406877517700195
1481952852926,-8.382100105285645,-1.8489222526550293,4.340089321136475
1481952853107,-8.368931770324707,-1.845929503440857,4.372410774230957
1481952853284,-8.374319076538086,-1.857301950454712,4.347271919250488
1481952853468,-8.395268440246582,-1.8519150018692017,4.338891983032227
1481952853644,-8.347982406616211,-1.8608932495117188,4.340089321136475
1481952853829,-8.36953067779541,-1.8728642463684082,4.352060317993164
1481952854009,-8.374917984008789,-1.856104850769043,4.364629745483398
1481952854184,-8.377910614013672,-1.8543092012405396,4.3628339767456055
1481952854369,-8.406042098999023,-1.88782799243927,4.341884613037109
1481952854549,-8.373720169067383,-1.8704700469970703,4.367023944854736
1481952854726,-8.349180221557617,-1.8291701078414917,4.398746967315674
1481952854905,-8.379706382751465,-1.8602946996688843,4.368819713592529
1481952855090,-8.382100105285645,-1.8590975999832153,4.367023944854736
1481952855264,-8.409034729003906,-1.867477297782898,4.383783340454102
1481952855447,-8.348581314086914,-1.8399440050125122,4.377199172973633
1481952855634,-8.334216117858887,-1.8405425548553467,4.36343240737915
1481952855807,-8.358757019042969,-1.8148049116134644,4.359841346740723
1481952855991,-8.3707275390625,-1.867477297782898,4.368819713592529
1481952856165,-8.399457931518555,-1.878849744796753,4.355052947998047
1481952856351,-8.332420349121094,-1.8644845485687256,4.37420654296875
1481952856531,-8.389283180236816,-1.8806453943252563,4.358644008636475
1481952856706,-8.382699012756348,-1.8896236419677734,4.348468780517578
1481952856891,-8.375515937805176,-1.8818424940109253,4.358644008636475
1481952857065,-8.394669532775879,-1.8716671466827393,4.366425514221191
1481952857251,-8.364143371582031,-1.886630892753601,4.360439777374268
1481952857432,-8.347982406616211,-1.832162857055664,4.373009204864502
1481952857612,-8.358757019042969,-1.8519150018692017,4.387973308563232
1481952857792,-8.360552787780762,-1.832162857055664,4.39036750793457
1481952857972,-8.35336971282959,-1.8477251529693604,4.367622375488281
1481952858157,-8.361150741577148,-1.8495208024978638,4.367023944854736
1481952858333,-8.350377082824707,-1.853710651397705,4.373608112335205
1481952858512,-8.382100105285645,-1.8860323429107666,4.381389141082764
1481952858688,-8.347982406616211,-1.8555063009262085,4.367023944854736
1481952858873,-8.36833381652832,-1.86508309841156,4.371812343597412
1481952859053,-8.35336971282959,-1.8734627962112427,4.3628339767456055
1481952859229,-8.360552787780762,-1.8716671466827393,4.352060317993164
1481952859412,-8.37192440032959,-1.8800468444824219,4.366425514221191
1481952859593,-8.378508567810059,-1.8986018896102905,4.400542736053467
1481952859774,-8.372523307800293,-1.8363527059555054,4.352658748626709
1481952859950,-8.380304336547852,-1.8632874488830566,4.349067211151123
1481952860133,-8.396465301513672,-1.8842366933822632,4.357447147369385
1481952860316,-8.3707275390625,-1.8920178413391113,4.3640313148498535
1481952860493,-8.381501197814941,-1.8824410438537598,4.370016574859619
1481952860670,-8.376114845275879,-1.8698714971542358,4.347870349884033
1481952860856,-8.35336971282959,-1.8722656965255737,4.349067211151123
1481952861033,-8.364742279052734,-1.8513164520263672,4.3394904136657715
1481952861223,-8.33720874786377,-1.9889830350875854,4.371812343597412
1481952861396,-8.361150741577148,-1.8926163911819458,4.32871675491333
1481952861576,-8.434173583984375,-1.955464243888855,4.307168960571289
1481952861751,-8.312667846679688,-1.8722656965255737,4.294599533081055
1481952861937,-8.418611526489258,-1.98958158493042,4.331110954284668
1481952862116,-8.385092735290527,-1.899200439453125,4.302978992462158
1481952862295,-8.423399925231934,-1.9829975366592407,4.311957359313965
1481952862472,-8.340800285339355,-1.9369091987609863,4.2293572425842285
1481952862655,-8.274360656738281,-1.9518729448318481,4.325724124908447
1481952862837,-8.414422035217285,-1.9345149993896484,4.325125217437744
1481952863017,-8.523358345031738,-1.946485996246338,4.386775970458984
1481952863193,-8.454524993896484,-1.9602526426315308,4.416105270385742
1481952863376,-8.356362342834473,-1.809417963027954,4.303577423095703
1481952863556,-8.123526573181152,-1.8884265422821045,4.286219596862793
1481952863733,-8.346785545349121,-1.9620482921600342,4.351461410522461
1481952863918,-8.489839553833008,-1.8962076902389526,4.244320869445801
1481952864098,-8.414422035217285,-1.9249382019042969,4.3173441886901855
1481952864273,-8.440757751464844,-1.8824410438537598,4.2515034675598145
1481952864457,-8.516175270080566,-1.8944120407104492,4.253299236297607
1481952864638,-8.387487411499023,-1.8656816482543945,4.273650169372559
1481952864817,-8.432378768920898,-1.8926163911819458,4.224568843841553
1481952865000,-8.377311706542969,-1.8806453943252563,4.244919776916504
1481952865176,-8.431180953979492,-1.9153614044189453,4.2509050369262695
1481952865359,-8.409034729003906,-1.9033904075622559,4.253897666931152
1481952865539,-8.36833381652832,-1.8800468444824219,4.2550950050354
1481952865716,-8.400056838989258,-1.890222191810608,4.271854400634766
1481952865898,-8.413225173950195,-1.86508309841156,4.264073371887207
1481952866078,-8.3922758102417,-1.8746598958969116,4.275445461273193
1481952866255,-8.391676902770996,-1.8614917993545532,4.289810657501221
1481952866439,-8.38449478149414,-1.86508309841156,4.270058631896973
1481952866620,-8.443750381469727,-1.9285295009613037,4.2993879318237305
1481952866796,-8.416217803955078,-1.8722656965255737,4.2527008056640625
1481952866980,-8.423399925231934,-1.9027918577194214,4.288613796234131
1481952867161,-8.418611526489258,-1.8704700469970703,4.289810657501221
1481952867338,-8.424596786499023,-1.9087773561477661,4.289212226867676
1481952867521,-8.379706382751465,-1.867477297782898,4.308365821838379
1481952867701,-8.38688850402832,-1.9075802564620972,4.306570529937744
1481952867881,-8.396465301513672,-1.8740613460540771,4.275445461273193
1481952868061,-8.388684272766113,-1.9117701053619385,4.30058479309082
1481952868237,-8.407238960266113,-1.9045875072479248,4.281431198120117
1481952868422,-8.367136001586914,-1.8836381435394287,4.2760443687438965
1481952868601,-8.402450561523438,-1.9081788063049316,4.280233860015869
1481952868778,-8.387487411499023,-1.8884265422821045,4.290409564971924
1481952868962,-8.406641006469727,-1.9153614044189453,4.271854400634766
1481952869143,-8.459911346435547,-1.9141643047332764,4.292803764343262
1481952869318,-8.382699012756348,-1.8974047899246216,4.288015365600586
1481952869501,-8.397662162780762,-1.88782799243927,4.313753128051758
1481952869683,-8.380903244018555,-1.909974455833435,4.270058631896973
1481952869863,-8.38688850402832,-1.899200439453125,4.277839660644531
1481952870040,-8.414422035217285,-1.913565754890442,4.271255970001221
1481952870221,-8.40304946899414,-1.9033904075622559,4.26826286315918
1481952870404,-8.392873764038086,-1.9075802564620972,4.289212226867676
1481952870583,-8.415618896484375,-1.8956091403961182,4.275445461273193
1481952870760,-8.400056838989258,-1.8848352432250977,4.282029628753662
1481952870944,-8.40185260772705,-1.8944120407104492,4.277241230010986
1481952871123,-8.411429405212402,-1.900996208190918,4.288613796234131
1481952871300,-8.380304336547852,-1.8920178413391113,4.298190593719482
1481952871482,-8.416217803955078,-1.890222191810608,4.302380561828613
1481952871665,-8.398859977722168,-1.8830395936965942,4.305971622467041
1481952871840,-8.379706382751465,-1.886630892753601,4.279036998748779
1481952872026,-8.390480041503906,-1.9039889574050903,4.289810657501221
1481952872206,-8.394071578979492,-1.8842366933822632,4.284423828125
1481952872384,-8.386289596557617,-1.896806240081787,4.28322696685791
1481952872566,-8.383296966552734,-1.8740613460540771,4.259883403778076
1481952872741,-8.415019989013672,-1.9285295009613037,4.28322696685791
1481952872927,-8.414422035217285,-1.9219454526901245,4.281431198120117
1481952873105,-8.397064208984375,-1.898003339767456,4.290409564971924
1481952873283,-8.394071578979492,-1.9321208000183105,4.281431198120117
1481952873464,-8.402450561523438,-1.9081788063049316,4.286219596862793
1481952873647,-8.398261070251465,-1.8974047899246216,4.289810657501221
1481952873822,-8.4108304977417,-1.942894697189331,4.263474464416504
1481952874007,-8.401253700256348,-1.9231425523757935,4.305971622467041
1481952874185,-8.394669532775879,-1.889025092124939,4.302978992462158
1481952874363,-8.376114845275879,-1.8920178413391113,4.303577423095703
1481952874554,-8.38808536529541,-1.878849744796753,4.289212226867676
1481952874727,-8.398261070251465,-1.8704700469970703,4.277839660644531
1481952874908,-8.394071578979492,-1.9027918577194214,4.289810657501221
1481952875088,-8.401253700256348,-1.9177556037902832,4.2975921630859375
1481952875266,-8.40424633026123,-1.890222191810608,4.310760021209717
1481952875448,-8.411429405212402,-1.920149803161621,4.294599533081055
1481952875628,-8.401253700256348,-1.9357120990753174,4.268861770629883
1481952875805,-8.396465301513672,-1.9129672050476074,4.307168960571289
1481952875989,-8.383296966552734,-1.9369091987609863,4.2975921630859375
1481952876167,-8.394669532775879,-1.923741102218628,4.294000625610352
1481952876345,-8.407837867736816,-1.9177556037902832,4.282628059387207
1481952876529,-8.38808536529541,-1.913565754890442,4.286219596862793
1481952876709,-8.401253700256348,-1.9051860570907593,4.277241230010986
1481952876886,-8.406641006469727,-1.9129672050476074,4.296993732452393
1481952877070,-8.383895874023438,-1.9003976583480835,4.322132587432861
1481952877249,-8.395268440246582,-1.9075802564620972,4.331110954284668
1481952877430,-8.424596786499023,-1.920149803161621,4.287416458129883
1481952877606,-8.398859977722168,-1.9267338514328003,4.293402194976807
1481952877790,-8.362347602844238,-1.896806240081787,4.337695121765137
1481952877971,-8.383895874023438,-1.911171555519104,4.310760021209717
1481952878150,-8.391077995300293,-1.9243396520614624,4.304774761199951
1481952878327,-8.374319076538086,-1.9291280508041382,4.286219596862793
1481952878511,-8.418013572692871,-1.954267144203186,4.279036998748779
1481952878691,-8.370129585266113,-1.9476830959320068,4.265270233154297
1481952878867,-8.380304336547852,-1.912368655204773,4.306570529937744
1481952879052,-8.38688850402832,-1.9357120990753174,4.313753128051758
1481952879231,-8.394071578979492,-1.8956091403961182,4.298190593719482
1481952879408,-8.396465301513672,-1.9405004978179932,4.291007995605469
1481952879590,-8.382100105285645,-1.9381062984466553,4.310760021209717
1481952879772,-8.36953067779541,-1.9015947580337524,4.324526786804199
1481952879953,-8.379706382751465,-1.9267338514328003,4.3191399574279785
1481952880133,-8.389881134033203,-1.9015947580337524,4.319738388061523
1481952880311,-8.391676902770996,-1.9393033981323242,4.305971622467041
1481952880493,-8.42160415649414,-1.9512743949890137,4.307767391204834
1481952880672,-8.377311706542969,-1.953070044517517,4.304774761199951
1481952880849,-8.352770805358887,-1.9027918577194214,4.285022258758545
1481952881029,-8.40185260772705,-1.935113549232483,4.3191399574279785
1481952881215,-8.376114845275879,-1.932719349861145,4.320336818695068
1481952881389,-8.383895874023438,-1.9303251504898071,4.282628059387207
1481952881573,-8.399457931518555,-1.9494787454605103,4.2993879318237305
1481952881752,-8.367734909057617,-1.902193307876587,4.334103584289551
1481952881930,-8.380903244018555,-1.9285295009613037,4.341884613037109
1481952882114,-8.370129585266113,-1.9117701053619385,4.324526786804199
1481952882295,-8.362946510314941,-1.9165585041046143,4.350264549255371
1481952882473,-8.383296966552734,-1.9069817066192627,4.347870349884033
1481952882656,-8.391077995300293,-1.932719349861145,4.332307815551758
1481952882833,-8.380903244018555,-1.9219454526901245,4.367023944854736
1481952883016,-8.396465301513672,-1.953070044517517,4.343081951141357
1481952883193,-8.3306245803833,-1.922544002532959,4.284423828125
1481952883371,-8.428787231445313,-1.9752163887023926,4.319738388061523
1481952883553,-8.351573944091797,-1.9578584432601929,4.323329925537109
1481952883735,-8.296507835388184,-1.9931728839874268,4.349666118621826
1481952883911,-8.33601188659668,-2.0410568714141846,4.322731018066406
1481952884097,-8.356961250305176,-1.999756932258606,4.35684871673584
1481952884277,-8.35456657409668,-2.0015525817871094,4.3191399574279785
1481952884455,-8.376114845275879,-2.0236990451812744,4.332307815551758
1481952884635,-8.448538780212402,-2.078765630722046,4.301183223724365
1481952884817,-8.357559204101563,-1.985990285873413,4.31135892868042
1481952884997,-8.347384452819824,-2.0201077461242676,4.328118324279785
1481952885175,-8.38688850402832,-1.9955670833587646,4.302978992462158
1481952885356,-8.365939140319824,-1.9794062376022339,4.305971622467041
1481952885538,-8.3922758102417,-2.050633668899536,4.261679172515869
1481952885718,-8.289923667907715,-2.009333848953247,4.370615005493164
1481952885893,-8.416217803955078,-2.029684543609619,4.23893404006958
1481952886078,-8.3922758102417,-1.9889830350875854,4.258686065673828
1481952886258,-8.334216117858887,-2.072780132293701,4.2730512619018555
1481952886434,-8.393472671508789,-2.0189106464385986,4.203021049499512
1481952886617,-8.389881134033203,-2.0458452701568604,4.240131378173828
1481952886798,-8.33481502532959,-2.0482394695281982,4.262277603149414
1481952886979,-8.786720275878906,-2.211643934249878,4.479551315307617
1481952887159,-8.38688850402832,-2.074575662612915,4.3209357261657715
1481952887338,-8.440757751464844,-2.1164743900299072,4.298190593719482
1481952887520,-8.316858291625977,-2.0853497982025146,4.325125217437744
1481952887700,-8.355764389038086,-2.1308395862579346,4.318541526794434
1481952887877,-8.358757019042969,-2.103306293487549,4.323928356170654
1481952888057,-8.35097599029541,-2.0835540294647217,4.322731018066406
1481952888239,-8.313865661621094,-2.117072820663452,4.343081951141357
1481952888417,-8.343194007873535,-2.0458452701568604,4.277839660644531
1481952888601,-8.327631950378418,-2.0835540294647217,4.2963948249816895
1481952888780,-8.31865406036377,-2.0679917335510254,4.310161590576172
1481952888956,-8.332420349121094,-2.0919337272644043,4.3412861824035645
1481952889140,-8.335412979125977,-2.079962730407715,4.348468780517578
1481952889321,-8.4293851852417,-2.0883424282073975,4.308964729309082
1481952889499,-8.483255386352539,-2.1996726989746094,4.267664432525635
1481952889681,-8.409034729003906,-2.1541829109191895,4.303577423095703
1481952889860,-8.33481502532959,-2.1116859912872314,4.332307815551758
1481952890040,-8.341399192810059,-2.0626046657562256,4.319738388061523
1481952890223,-8.343194007873535,-2.101510524749756,4.326920986175537
1481952890398,-8.311470985412598,-2.1314380168914795,4.349666118621826
1481952890582,-8.371326446533203,-2.1487960815429688,4.367622375488281
1481952890762,-8.282740592956543,-2.074575662612915,4.3622355461120605
1481952890938,-8.358757019042969,-2.121262788772583,4.2951979637146
1481952891123,-8.3120698928833,-2.056619167327881,4.3209357261657715
1481952891299,-8.358757019042969,-2.0661959648132324,4.270657062530518
1481952891477,-8.332420349121094,-2.095525026321411,4.304774761199951
1481952891661,-8.413823127746582,-2.0889410972595215,4.225766181945801
1481952891843,-8.340201377868652,-2.072780132293701,4.298789024353027
1481952892020,-8.518569946289063,-2.124255418777466,4.17728328704834
1481952892198,-8.273163795471191,-2.205658197402954,4.393360137939453
1481952892379,-8.465298652648926,-2.0644004344940186,4.202422618865967
1481952892560,-8.33182144165039,-2.052429437637329,4.280832767486572
1481952892741,-8.455122947692871,-2.0835540294647217,4.2730512619018555
1481952892920,-8.374319076538086,-2.1086931228637695,4.259284973144531
1481952893105,-8.368931770324707,-2.137423515319824,4.275445461273193
1481952893285,-8.195352554321289,-1.9291280508041382,4.398746967315674
1481952893459,-8.283339500427246,-2.1122844219207764,4.256890773773193
1481952893647,-8.36833381652832,-2.1164743900299072,4.290409564971924
1481952893821,-8.385092735290527,-2.123058319091797,4.3412861824035645
1481952894003,-8.309077262878418,-2.1338322162628174,4.347271919250488
1481952894186,-8.347384452819824,-2.1128830909729004,4.313753128051758
1481952894366,-8.322843551635742,-2.168548107147217,4.324526786804199
1481952894546,-8.31326675415039,-2.139219284057617,4.332307815551758
1481952894727,-8.335412979125977,-2.1062989234924316,4.337096214294434
1481952894909,-8.309675216674805,-2.1164743900299072,4.336497783660889
1481952895082,-8.267178535461426,-2.0679917335510254,4.332307815551758
1481952895267,-8.359953880310059,-2.121262788772583,4.355052947998047
1481952895442,-8.330026626586914,-2.1134815216064453,4.310760021209717
1481952895627,-8.326435089111328,-2.1045033931732178,4.3209357261657715
1481952895812,-8.311470985412598,-2.0871453285217285,4.355052947998047
1481952895983,-8.324639320373535,-2.0859482288360596,4.355651378631592
1481952896167,-8.324040412902832,-2.120065689086914,4.337096214294434
1481952896348,-8.300697326660156,-2.0823569297790527,4.331709384918213
1481952896526,-8.327631950378418,-2.117671489715576,4.3628339767456055
1481952896708,-8.31985092163086,-2.101510524749756,4.3640313148498535
1481952896888,-8.322843551635742,-2.1086931228637695,4.325125217437744
1481952897068,-8.325238227844238,-2.096123695373535,4.3412861824035645
1481952897246,-8.33182144165039,-2.1332337856292725,4.345476150512695
1481952897428,-8.33481502532959,-2.1505916118621826,4.333505153656006
1481952897609,-8.341399192810059,-2.1320366859436035,4.331709384918213
1481952897789,-8.30249309539795,-2.120065689086914,4.349067211151123
1481952897965,-8.321646690368652,-2.103306293487549,4.374804973602295
1481952898149,-8.303091049194336,-2.1146786212921143,4.3191399574279785
1481952898329,-8.315062522888184,-2.0859482288360596,4.359841346740723
1481952898505,-8.31985092163086,-2.094327926635742,4.347870349884033
1481952898691,-8.31985092163086,-2.077568531036377,4.343680381774902
1481952898872,-8.330026626586914,-2.1140801906585693,4.371213912963867
1481952899048,-8.29830265045166,-2.077568531036377,4.340089321136475
1481952899232,-8.243236541748047,-2.1254525184631348,4.352658748626709
1481952899410,-8.383895874023438,-2.1709423065185547,4.331709384918213
1481952899591,-8.232462882995605,-2.050035238265991,4.37540340423584
1481952899771,-8.317456245422363,-2.1523873805999756,4.338293552398682
1481952899947,-8.310873031616211,-2.117072820663452,4.314949989318848
1481952900137,-8.312667846679688,-2.1529858112335205,4.314351558685303
1481952900305,-8.294113159179688,-2.1086931228637695,4.337096214294434
1481952900486,-8.336610794067383,-2.122459888458252,4.3173441886901855
1481952900672,-8.484452247619629,-2.1098902225494385,4.223970413208008
1481952900852,-8.365939140319824,-2.1577742099761963,4.319738388061523
1481952901027,-8.479663848876953,-2.214038133621216,4.2975921630859375
1481952901240,-8.312667846679688,-2.190095901489258,4.308365821838379
1481952901392,-8.31985092163086,-2.126051187515259,4.318541526794434
1481952901572,-8.36833381652832,-2.160767078399658,4.309563159942627
1481952901751,-8.358757019042969,-2.1787235736846924,4.31255578994751
1481952901930,-8.291719436645508,-2.1721394062042236,4.287416458129883
1481952902111,-8.351573944091797,-2.2002713680267334,4.304774761199951
1481952902293,-8.312667846679688,-2.187103271484375,4.296993732452393
1481952902469,-8.331223487854004,-2.1769278049468994,4.303577423095703
1481952902653,-8.312667846679688,-2.1781249046325684,4.321534156799316
1481952902833,-8.29590892791748,-2.1757307052612305,4.31255578994751
1481952903009,-8.294113159179688,-2.1775264739990234,4.327519416809082
1481952903192,-8.333019256591797,-2.189497470855713,4.325724124908447
1481952903368,-8.33840560913086,-2.207453966140747,4.337695121765137
1481952903550,-8.33840560913086,-2.2020668983459473,4.309563159942627
1481952903732,-8.300697326660156,-2.188898801803589,4.359242916107178
1481952903915,-8.31985092163086,-2.1978771686553955,4.334702014923096
1481952904092,-8.307879447937012,-2.181716203689575,4.37540340423584
1481952904281,-8.32104778289795,-2.1960813999176025,4.335899353027344
1481952904453,-8.297704696655273,-2.2200236320495605,4.2957963943481445
1481952904636,-8.31326675415039,-2.227206230163574,4.316147327423096
1481952904814,-8.276156425476074,-2.188898801803589,4.358644008636475
1481952904996,-8.291719436645508,-2.186504602432251,4.34607458114624
1481952905171,-8.289923667907715,-2.1787235736846924,4.336497783660889
1481952905356,-8.29710578918457,-2.1954829692840576,4.357447147369385
1481952905531,-8.29830265045166,-2.1793220043182373,4.357447147369385
1481952905716,-8.276156425476074,-2.1703438758850098,4.371213912963867
1481952905896,-8.312667846679688,-2.1805191040039063,4.369418144226074
1481952906072,-8.291719436645508,-2.2002713680267334,4.378396511077881
1481952906257,-8.273163795471191,-2.2002713680267334,4.392761707305908
1481952906432,-8.31446361541748,-2.1793220043182373,4.37540340423584
1481952906617,-8.284536361694336,-2.207453966140747,4.359242916107178
1481952906797,-8.31326675415039,-2.22660756111145,4.347870349884033
1481952906973,-8.303091049194336,-2.2385785579681396,4.355052947998047
1481952907158,-8.30249309539795,-2.2248120307922363,4.350264549255371
1481952907340,-8.295310020446777,-2.2224178314208984,4.347271919250488
1481952907515,-8.296507835388184,-2.182913303375244,4.367023944854736
1481952907698,-8.306682586669922,-2.2146365642547607,4.35804557800293
1481952907877,-8.300098419189453,-2.2212207317352295,4.360439777374268
1481952908053,-8.267777442932129,-2.188898801803589,4.368220806121826
1481952908237,-8.27855110168457,-2.1930887699127197,4.377797603607178
1481952908419,-8.282142639160156,-2.1912930011749268,4.34487771987915
1481952908594,-8.261791229248047,-2.211643934249878,4.370016574859619
1481952908779,-8.297704696655273,-2.1942858695983887,4.377797603607178
1481952908959,-8.273163795471191,-2.2014684677124023,4.370615005493164
1481952909139,-8.288127899169922,-2.191891670227051,4.3424835205078125
1481952909320,-8.285733222961426,-2.214038133621216,4.368819713592529
1481952909503,-8.283937454223633,-2.190095901489258,4.372410774230957
1481952909680,-8.30129623413086,-2.2451627254486084,4.367622375488281
1481952909860,-8.306682586669922,-2.2242133617401123,4.340089321136475
1481952910036,-8.29830265045166,-2.204461097717285,4.356249809265137
1481952910216,-8.29471206665039,-2.227804660797119,4.338293552398682
1481952910400,-8.29590892791748,-2.185906171798706,4.355052947998047
1481952910576,-8.272565841674805,-2.1948843002319336,4.367622375488281
1481952910760,-8.31326675415039,-2.209848165512085,4.37540340423584
1481952910940,-8.256404876708984,-2.190095901489258,4.349666118621826
1481952911117,-8.273762702941895,-2.1966800689697266,4.365826606750488
1481952911300,-8.293514251708984,-2.209848165512085,4.346673011779785
1481952911481,-8.288127899169922,-2.208052635192871,4.386775970458984
1481952911662,-8.282142639160156,-2.1990742683410645,4.398148536682129
1481952911842,-8.313865661621094,-2.2188265323638916,4.344278812408447
1481952912021,-8.306084632873535,-2.2248120307922363,4.3406877517700195
1481952912203,-8.285135269165039,-2.2170307636260986,4.374804973602295
1481952912386,-8.27855110168457,-2.1996726989746094,4.334103584289551
1481952912558,-8.309675216674805,-2.2170307636260986,4.350264549255371
1481952912743,-8.262989044189453,-2.2038626670837402,4.3843817710876465
1481952912923,-8.29590892791748,-2.233790159225464,4.350862979888916
1481952913098,-8.308478355407715,-2.2236149311065674,4.333505153656006
1481952913283,-8.273163795471191,-2.1960813999176025,4.389170169830322
1481952913464,-8.27974796295166,-2.2146365642547607,4.374804973602295
1481952913639,-8.27855110168457,-2.183511972427368,4.365826606750488
1481952913824,-8.273163795471191,-2.207453966140747,4.371213912963867
1481952914004,-8.282740592956543,-2.1775264739990234,4.390965938568115
1481952914184,-8.271966934204102,-2.2020668983459473,4.367622375488281
1481952914362,-8.294113159179688,-2.2176294326782227,4.350264549255371
1481952914540,-8.283339500427246,-2.205059766769409,4.378994941711426
1481952914722,-8.26478385925293,-2.227804660797119,4.34607458114624
1481952914902,-8.29710578918457,-2.2020668983459473,4.332906723022461
1481952915080,-8.282740592956543,-2.2188265323638916,4.332307815551758
1481952915263,-8.303091049194336,-2.185906171798706,4.337695121765137
1481952915441,-8.273163795471191,-2.228403329849243,4.336497783660889
1481952915621,-8.311470985412598,-2.233790159225464,4.347870349884033
1481952915803,-8.254010200500488,-2.186504602432251,4.365826606750488
1481952915986,-8.271368026733398,-2.2194249629974365,4.357447147369385
1481952916161,-8.265981674194336,-2.1996726989746094,4.377199172973633
1481952916340,-8.26358699798584,-2.20924973487854,4.361637115478516
1481952916521,-8.271966934204102,-2.1954829692840576,4.365228176116943
1481952916707,-8.255805969238281,-2.1984755992889404,4.376600742340088
1481952916882,-8.291719436645508,-2.2146365642547607,4.355651378631592
1481952917068,-8.283339500427246,-2.227206230163574,4.350862979888916
1481952917247,-8.298901557922363,-2.230797529220581,4.335899353027344
1481952917427,-8.310873031616211,-2.2194249629974365,4.35684871673584
1481952917603,-8.30129623413086,-2.2397756576538086,4.337695121765137
1481952917786,-8.320449829101563,-2.2415714263916016,4.326322555541992
1481952917967,-8.272565841674805,-2.233790159225464,4.341884613037109
1481952918143,-8.286332130432129,-2.2152352333068848,4.384980201721191
1481952918328,-8.274959564208984,-2.190095901489258,4.349666118621826
1481952918508,-8.292916297912598,-2.1978771686553955,4.3628339767456055
1481952918687,-8.285135269165039,-2.2158336639404297,4.347271919250488
1481952918868,-8.299500465393066,-2.208651065826416,4.360439777374268
1481952919048,-8.290521621704102,-2.211045265197754,4.36343240737915
1481952919228,-8.280346870422363,-2.210446834564209,4.367023944854736
1481952919409,-8.297704696655273,-2.206256866455078,4.377797603607178
1481952919585,-8.262989044189453,-2.2200236320495605,4.3610382080078125
1481952919768,-8.22767448425293,-2.1972784996032715,4.37420654296875
1481952919947,-8.27855110168457,-2.3092074394226074,4.414309501647949
1481952920125,-8.312667846679688,-2.123058319091797,4.3173441886901855
1481952920306,-8.282142639160156,-2.190694570541382,4.315548419952393
1481952920490,-8.178592681884766,-2.251746654510498,4.410717964172363
1481952920665,-8.289923667907715,-2.204461097717285,4.271854400634766
1481952920850,-8.32104778289795,-2.2008697986602783,4.261679172515869
1481952921030,-8.343194007873535,-2.18770170211792,4.2957963943481445
1481952921209,-8.348581314086914,-2.2248120307922363,4.292803764343262
1481952921389,-8.341399192810059,-2.189497470855713,4.280832767486572
1481952921569,-8.308478355407715,-2.1984755992889404,4.280832767486572
1481952921750,-8.339004516601563,-2.2146365642547607,4.286219596862793
1481952921931,-8.33720874786377,-2.2020668983459473,4.258686065673828
1481952922107,-8.328230857849121,-2.1972784996032715,4.3209357261657715
1481952922292,-8.425195693969727,-2.234987258911133,4.230554580688477
1481952922470,-8.287528991699219,-2.1577742099761963,4.278438568115234
1481952922647,-8.3120698928833,-2.209848165512085,4.319738388061523
1481952922831,-8.318055152893066,-2.203263998031616,4.286818027496338
1481952923012,-8.200738906860352,-2.141014814376831,4.290409564971924
1481952923190,-8.264185905456543,-2.2194249629974365,4.356249809265137
1481952923372,-8.343792915344238,-2.188300371170044,4.26826286315918
1481952923549,-8.336610794067383,-2.2206220626831055,4.281431198120117
1481952923731,-8.33481502532959,-2.20924973487854,4.291007995605469
1481952923913,-8.296507835388184,-2.2463598251342773,4.2730512619018555
1481952924090,-8.254609107971191,-2.1942858695983887,4.273650169372559
1481952924273,-8.270770072937012,-2.254140853881836,4.355052947998047
1481952924453,-8.305485725402832,-2.1045033931732178,4.325724124908447
1481952924629,-8.444948196411133,-2.255337953567505,4.255693435668945
1481952924814,-8.341997146606445,-2.210446834564209,4.306570529937744
1481952924994,-8.346785545349121,-2.214038133621216,4.258686065673828
1481952925169,-8.294113159179688,-2.2379801273345947,4.289212226867676
1481952925353,-8.294113159179688,-2.168548107147217,4.308964729309082
1481952925535,-8.315661430358887,-2.214038133621216,4.310161590576172
1481952925710,-8.309675216674805,-2.1954829692840576,4.302978992462158
1481952925892,-8.30129623413086,-2.235585927963257,4.301183223724365
1481952926076,-8.310274124145508,-2.229001760482788,4.3191399574279785
1481952926253,-8.285135269165039,-2.214038133621216,4.332307815551758
1481952926436,-8.304886817932129,-2.233191728591919,4.308964729309082
1481952926619,-8.280346870422363,-2.233191728591919,4.325125217437744
1481952926797,-8.303689956665039,-2.2487540245056152,4.337695121765137
1481952926976,-8.291120529174805,-2.2164323329925537,4.322731018066406
1481952927151,-8.292916297912598,-2.249951124191284,4.330512523651123
1481952927337,-8.296507835388184,-2.2254104614257813,4.319738388061523
1481952927517,-8.285135269165039,-2.2619221210479736,4.320336818695068
1481952927692,-8.286931037902832,-2.252943754196167,4.302978992462158
1481952927876,-8.312667846679688,-2.271498918533325,4.304774761199951
1481952928057,-8.29471206665039,-2.2679076194763184,4.330512523651123
1481952928232,-8.33481502532959,-2.2804770469665527,4.2993879318237305
1481952928417,-8.285733222961426,-2.251148223876953,4.310760021209717
1481952928596,-8.297704696655273,-2.2607250213623047,4.335300922393799
1481952928777,-8.275558471679688,-2.2409727573394775,4.343081951141357
1481952928957,-8.288725852966309,-2.2212207317352295,4.326920986175537
1481952929138,-8.297704696655273,-2.229001760482788,4.320336818695068
1481952929316,-8.3120698928833,-2.252943754196167,4.329315185546875
1481952929498,-8.268974304199219,-2.227804660797119,4.32871675491333
1481952929674,-8.287528991699219,-2.236783027648926,4.333505153656006
1481952929857,-8.31446361541748,-2.2487540245056152,4.34487771987915
1481952930038,-8.285733222961426,-2.2403743267059326,4.336497783660889
1481952930214,-8.344989776611328,-2.2673089504241943,4.325125217437744
1481952930396,-8.316259384155273,-2.27748441696167,4.299986362457275
1481952930577,-8.27974796295166,-2.231395959854126,4.316147327423096
1481952930757,-8.28094482421875,-2.255337953567505,4.3424835205078125
1481952930939,-8.327033042907715,-2.251148223876953,4.345476150512695
1481952931120,-8.30129623413086,-2.2469582557678223,4.325125217437744
1481952931300,-8.315062522888184,-2.2589292526245117,4.321534156799316
1481952931479,-8.307281494140625,-2.2619221210479736,4.303577423095703
1481952931664,-8.289923667907715,-2.2403743267059326,4.3173441886901855
1481952931840,-8.255805969238281,-2.212841033935547,4.330512523651123
1481952932020,-8.299500465393066,-2.2415714263916016,4.343680381774902
1481952932196,-8.29710578918457,-2.209848165512085,4.313154220581055
1481952932375,-8.265382766723633,-2.2577321529388428,4.326322555541992
1481952932560,-8.296507835388184,-2.2397756576538086,4.289810657501221
1481952932736,-8.307879447937012,-2.258330821990967,4.301183223724365
1481952932921,-8.29471206665039,-2.272696018218994,4.31255578994751
1481952933101,-8.306682586669922,-2.2589292526245117,4.318541526794434
1481952933282,-8.265981674194336,-2.2613234519958496,4.293402194976807
1481952933462,-8.234258651733398,-2.2170307636260986,4.332906723022461
1481952933642,-8.353968620300293,-2.273893117904663,4.325125217437744
1481952933822,-8.300098419189453,-2.248155355453491,4.305971622467041
1481952934003,-8.315661430358887,-2.279878616333008,4.314351558685303
1481952934181,-8.292916297912598,-2.2451627254486084,4.333505153656006
1481952934358,-8.296507835388184,-2.2445640563964844,4.332307815551758
1481952934536,-8.277952194213867,-2.2655134201049805,4.368819713592529
1481952934717,-8.311470985412598,-2.2589292526245117,4.331709384918213
1481952934898,-8.293514251708984,-2.254140853881836,4.334103584289551
1481952935077,-8.30249309539795,-2.2601263523101807,4.310161590576172
1481952935258,-8.324040412902832,-2.2918496131896973,4.3173441886901855
1481952935446,-8.288725852966309,-2.274491548538208,4.333505153656006
1481952935621,-8.277952194213867,-2.250549554824829,4.302978992462158
1481952935803,-8.282740592956543,-2.2834699153900146,4.322731018066406
1481952935983,-8.29590892791748,-2.2697031497955322,4.323329925537109
1481952936161,-8.310274124145508,-2.2804770469665527,4.321534156799316
1481952936341,-8.291719436645508,-2.272696018218994,4.341884613037109
1481952936525,-8.31865406036377,-2.2906525135040283,4.316745758056641
1481952936700,-8.303091049194336,-2.276885747909546,4.334702014923096
1481952936885,-8.280346870422363,-2.279878616333008,4.323329925537109
1481952937066,-8.282740592956543,-2.275090217590332,4.333505153656006
1481952937240,-8.283937454223633,-2.2433669567108154,4.337096214294434
1481952937425,-8.313865661621094,-2.2403743267059326,4.324526786804199
1481952937606,-8.292916297912598,-2.253542423248291,4.330512523651123
1481952937781,-8.311470985412598,-2.2912509441375732,4.315548419952393
1481952937966,-8.299500465393066,-2.2679076194763184,4.338891983032227
1481952938147,-8.301894187927246,-2.251148223876953,4.329315185546875
1481952938325,-8.28094482421875,-2.2643163204193115,4.351461410522461
1481952938507,-8.273762702941895,-2.2379801273345947,4.298789024353027
1481952938686,-8.299500465393066,-2.2828712463378906,4.304774761199951
1481952938867,-8.315661430358887,-2.2643163204193115,4.31135892868042
1481952939047,-8.283937454223633,-2.253542423248291,4.322132587432861
1481952939222,-8.306682586669922,-2.254140853881836,4.336497783660889
1481952939406,-8.300697326660156,-2.254140853881836,4.335899353027344
1481952939587,-8.280346870422363,-2.2415714263916016,4.334103584289551
1481952939763,-8.323442459106445,-2.2433669567108154,4.3191399574279785
1481952939946,-8.300098419189453,-2.2373814582824707,4.3209357261657715
1481952940124,-8.322843551635742,-2.230198860168457,4.298789024353027
1481952940310,-8.328230857849121,-2.2218191623687744,4.280832767486572
1481952940487,-8.29590892791748,-2.1972784996032715,4.335300922393799
1481952940668,-8.292916297912598,-2.22660756111145,4.3394904136657715
1481952940849,-8.289324760437012,-2.2182278633117676,4.308365821838379
1481952941029,-8.294113159179688,-2.254140853881836,4.353257179260254
1481952941206,-8.251616477966309,-2.2637176513671875,4.3640313148498535
1481952941389,-8.30129623413086,-2.2649147510528564,4.305373191833496
1481952941569,-8.270770072937012,-2.2679076194763184,4.328118324279785
1481952941745,-8.283339500427246,-2.2433669567108154,4.343081951141357
1481952941932,-8.284536361694336,-2.24935245513916,4.3412861824035645
1481952942110,-8.296507835388184,-2.255936622619629,4.338293552398682
1481952942285,-8.251017570495605,-2.2894554138183594,4.359841346740723
1481952942470,-8.319252014160156,-2.2457611560821533,4.395754337310791
1481952942647,-8.311470985412598,-2.2625205516815186,4.3406877517700195
1481952942826,-8.27974796295166,-2.2697031497955322,4.3622355461120605
1481952943010,-8.272565841674805,-2.2810757160186768,4.376600742340088
1481952943191,-8.251616477966309,-2.2595279216766357,4.3628339767456055
1481952943370,-8.29710578918457,-2.252943754196167,4.3622355461120605
1481952943551,-8.284536361694336,-2.2804770469665527,4.347271919250488
1481952943730,-8.267178535461426,-2.2661118507385254,4.343081951141357
1481952943911,-8.262989044189453,-2.2858641147613525,4.36343240737915
1481952944091,-8.293514251708984,-2.292448043823242,4.353257179260254
1481952944267,-8.296507835388184,-2.3098061084747314,4.337096214294434
1481952944450,-8.255207061767578,-2.2858641147613525,4.377199172973633
1481952944632,-8.252813339233398,-2.2649147510528564,4.34607458114624
1481952944807,-8.271966934204102,-2.2649147510528564,4.373608112335205
1481952944992,-8.251017570495605,-2.2631192207336426,4.402936935424805
1481952945172,-8.286931037902832,-2.271498918533325,4.377199172973633
1481952945348,-8.288127899169922,-2.2822728157043457,4.374804973602295
1481952945533,-8.237849235534668,-2.29484224319458,4.323329925537109
1481952945713,-8.268375396728516,-2.25473952293396,4.349666118621826
1481952945893,-8.26478385925293,-2.2451627254486084,4.364629745483398
1481952946073,-8.241440773010254,-2.252943754196167,4.318541526794434
1481952946253,-8.242039680480957,-2.234987258911133,4.328118324279785
1481952946433,-8.296507835388184,-2.2828712463378906,4.350862979888916
1481952946614,-8.272565841674805,-2.2870612144470215,4.353257179260254
1481952946789,-8.270770072937012,-2.255337953567505,4.280233860015869
1481952946972,-8.248623847961426,-2.2679076194763184,4.328118324279785
1481952947155,-8.282142639160156,-2.2379801273345947,4.345476150512695
1481952947330,-8.289324760437012,-2.252943754196167,4.353855609893799
1481952947514,-8.289923667907715,-2.2212207317352295,4.331709384918213
1481952947692,-8.297704696655273,-2.2661118507385254,4.331709384918213
1481952947872,-8.272565841674805,-2.253542423248291,4.352658748626709
1481952948056,-8.293514251708984,-2.213439464569092,4.34607458114624
1481952948236,-8.286931037902832,-2.2595279216766357,4.322731018066406
1481952948416,-8.27855110168457,-2.236783027648926,4.349067211151123
1481952948596,-8.257601737976074,-2.257133722305298,4.352658748626709
1481952948775,-8.342596054077148,-2.2852654457092285,4.320336818695068
1481952948955,-8.306084632873535,-2.279878616333008,4.347870349884033
1481952949137,-8.26478385925293,-2.2703018188476563,4.358644008636475
1481952949312,-8.327033042907715,-2.2822728157043457,4.306570529937744
1481952949496,-8.218097686767578,-2.211643934249878,4.319738388061523
1481952949677,-8.376114845275879,-2.3253684043884277,4.313154220581055
1481952949852,-8.292317390441895,-2.273294448852539,4.301782131195068
1481952950037,-8.24503231048584,-2.2637176513671875,4.313154220581055
1481952950217,-8.288725852966309,-2.2840683460235596,4.315548419952393
1481952950402,-8.333019256591797,-2.31758713722229,4.285022258758545
1481952950580,-8.26478385925293,-2.27209734916687,4.330512523651123
1481952950757,-8.295310020446777,-2.2667105197906494,4.37420654296875
1481952950938,-8.22887134552002,-2.2595279216766357,4.34487771987915
1481952951117,-8.216899871826172,-2.2589292526245117,4.366425514221191
1481952951301,-8.29830265045166,-2.316390037536621,4.338891983032227
1481952951478,-8.249221801757813,-2.276885747909546,4.357447147369385
1481952951655,-8.24742603302002,-2.293645143508911,4.331110954284668
1481952951834,-8.272565841674805,-2.27748441696167,4.351461410522461
1481952952019,-8.239047050476074,-2.299032211303711,4.343081951141357
1481952952198,-8.298901557922363,-2.2613234519958496,4.309563159942627
1481952952375,-8.26478385925293,-2.293046712875366,4.335300922393799
1481952952559,-8.285733222961426,-2.2703018188476563,4.352060317993164
1481952952739,-8.306084632873535,-2.2697031497955322,4.3191399574279785
1481952952918,-8.261791229248047,-2.276885747909546,4.350264549255371
1481952953100,-8.300697326660156,-2.2613234519958496,4.324526786804199
1481952953279,-8.26358699798584,-2.2840683460235596,4.3640313148498535
1481952953460,-8.311470985412598,-2.300827741622925,4.322132587432861
1481952953636,-8.288127899169922,-2.29484224319458,4.331110954284668
1481952953816,-8.270171165466309,-2.273893117904663,4.346673011779785
1481952954000,-8.272565841674805,-2.271498918533325,4.3173441886901855
1481952954181,-8.308478355407715,-2.275688648223877,4.305373191833496
1481952954357,-8.292916297912598,-2.301426410675049,4.325724124908447
1481952954539,-8.254010200500488,-2.2834699153900146,4.336497783660889
1481952954718,-8.267178535461426,-2.315192937850952,4.3173441886901855
1481952954897,-8.274959564208984,-2.2882583141326904,4.326920986175537
1481952955081,-8.26119327545166,-2.278082847595215,4.31135892868042
1481952955260,-8.300098419189453,-2.279878616333008,4.347271919250488
1481952955439,-8.282142639160156,-2.2900538444519043,4.326322555541992
1481952955622,-8.271966934204102,-2.2661118507385254,4.316745758056641
1481952955801,-8.274360656738281,-2.2691047191619873,4.3394904136657715
1481952955982,-8.258200645446777,-2.2828712463378906,4.354454517364502
1481952956162,-8.271368026733398,-2.252345323562622,4.356249809265137
1481952956338,-8.273762702941895,-2.2577321529388428,4.337096214294434
1481952956522,-8.283339500427246,-2.2655134201049805,4.341884613037109
1481952956702,-8.24383544921875,-2.2703018188476563,4.364629745483398
1481952956879,-8.286332130432129,-2.278681516647339,4.347870349884033
1481952957063,-8.29471206665039,-2.3056161403656006,4.3209357261657715
1481952957243,-8.293514251708984,-2.316988706588745,4.341884613037109
1481952957419,-8.32104778289795,-2.324171304702759,4.324526786804199
1481952957604,-8.324639320373535,-2.31758713722229,4.306570529937744
1481952957784,-8.304886817932129,-2.2691047191619873,4.344278812408447
1481952957963,-8.259397506713867,-2.292448043823242,4.308964729309082
1481952958145,-8.282142639160156,-2.2631192207336426,4.322731018066406
1481952958320,-8.286332130432129,-2.3026235103607178,4.288613796234131
1481952958503,-8.287528991699219,-2.299630641937256,4.314949989318848
1481952958686,-8.27735424041748,-2.3145945072174072,4.338293552398682
1481952958861,-8.273163795471191,-2.3277626037597656,4.32991361618042
1481952959042,-8.305485725402832,-2.322375535964966,4.308365821838379
1481952959226,-8.231863975524902,-2.279878616333008,4.292803764343262
1481952959401,-8.248623847961426,-2.272696018218994,4.296993732452393
1481952959587,-8.280346870422363,-2.3247697353363037,4.335300922393799
1481952959765,-8.325836181640625,-2.3020248413085938,4.319738388061523
1481952959944,-8.253412246704102,-2.31758713722229,4.341884613037109
1481952960120,-8.321646690368652,-2.315192937850952,4.2963948249816895
1481952960306,-8.339004516601563,-2.3247697353363037,4.305971622467041
1481952960484,-8.291719436645508,-2.294243812561035,4.322731018066406
1481952960667,-8.281543731689453,-2.315192937850952,4.326322555541992
1481952960844,-8.252214431762695,-2.2673089504241943,4.334103584289551
1481952961027,-8.282142639160156,-2.3038206100463867,4.314949989318848
1481952961207,-8.3120698928833,-2.3098061084747314,4.320336818695068
1481952961383,-8.274360656738281,-2.2649147510528564,4.326322555541992
1481952961567,-8.249820709228516,-2.2858641147613525,4.334103584289551
1481952961750,-8.257601737976074,-2.278082847595215,4.349666118621826
1481952961923,-8.255805969238281,-2.297835111618042,4.307168960571289
1481952962107,-8.310274124145508,-2.318784236907959,4.3406877517700195
1481952962285,-8.276755332946777,-2.296638011932373,4.310760021209717
1481952962464,-8.285733222961426,-2.292448043823242,4.345476150512695
1481952962648,-8.27735424041748,-2.3074119091033936,4.298190593719482
1481952962828,-8.27974796295166,-2.3122003078460693,4.333505153656006
1481952963008,-8.297704696655273,-2.3110032081604004,4.311957359313965
1481952963189,-8.294113159179688,-2.3050177097320557,4.301782131195068
1481952963368,-8.267178535461426,-2.30022931098938,4.335300922393799
1481952963549,-8.257601737976074,-2.3032219409942627,4.3394904136657715
1481952963729,-8.264185905456543,-2.29484224319458,4.325125217437744
1481952963905,-8.280346870422363,-2.294243812561035,4.3406877517700195
1481952964089,-8.292317390441895,-2.3265655040740967,4.332307815551758
1481952964268,-8.283937454223633,-2.3337481021881104,4.331110954284668
1481952964446,-8.283339500427246,-2.3044190406799316,4.334103584289551
1481952964630,-8.267777442932129,-2.3086090087890625,4.3394904136657715
1481952964810,-8.289324760437012,-2.3044190406799316,4.3191399574279785
1481952964990,-8.265981674194336,-2.324171304702759,4.325125217437744
1481952965172,-8.274360656738281,-2.3116016387939453,4.327519416809082
1481952965345,-8.277952194213867,-2.3026235103607178,4.331709384918213
1481952965531,-8.265382766723633,-2.3092074394226074,4.341884613037109
1481952965711,-8.289923667907715,-2.296638011932373,4.332906723022461
1481952965893,-8.27855110168457,-2.3098061084747314,4.3406877517700195
1481952966070,-8.276156425476074,-2.322375535964966,4.345476150512695
1481952966252,-8.262989044189453,-2.313995838165283,4.347271919250488
1481952966427,-8.241440773010254,-2.2840683460235596,4.356249809265137
1481952966612,-8.26239013671875,-2.316390037536621,4.34487771987915
1481952966790,-8.309675216674805,-2.313995838165283,4.320336818695068
1481952966968,-8.282142639160156,-2.3133974075317383,4.325724124908447
1481952967153,-8.265981674194336,-2.3032219409942627,4.313753128051758
1481952967333,-8.276755332946777,-2.3277626037597656,4.327519416809082
1481952967512,-8.27974796295166,-2.3020248413085938,4.3209357261657715
1481952967693,-8.292916297912598,-2.3265655040740967,4.336497783660889
1481952967873,-8.294113159179688,-2.3235726356506348,4.328118324279785
1481952968049,-8.270770072937012,-2.3038206100463867,4.357447147369385
1481952968234,-8.268974304199219,-2.3116016387939453,4.335899353027344
1481952968409,-8.281543731689453,-2.299032211303711,4.3424835205078125
1481952968592,-8.26239013671875,-2.315791606903076,4.365228176116943
1481952968773,-8.296507835388184,-2.2607250213623047,4.343680381774902
1481952968950,-8.258798599243164,-2.2637176513671875,4.330512523651123
1481952969133,-8.38569164276123,-2.25473952293396,4.310161590576172
1481952969315,-8.271966934204102,-2.2391772270202637,4.337096214294434
1481952969490,-8.313865661621094,-2.299630641937256,4.276642799377441
1481952969676,-8.292317390441895,-2.293645143508911,4.316147327423096
1481952969856,-8.29590892791748,-2.3020248413085938,4.279635429382324
1481952970034,-8.340201377868652,-2.3481132984161377,4.249109268188477
1481952970214,-8.317456245422363,-2.2655134201049805,4.274847030639648
1481952970391,-8.27974796295166,-2.279279947280884,4.326322555541992
1481952970577,-8.324040412902832,-2.315791606903076,4.282628059387207
1481952970757,-8.225279808044434,-2.2391772270202637,4.313154220581055
1481952970932,-8.352770805358887,-2.3325510025024414,4.243722438812256
1481952971117,-8.233659744262695,-2.297835111618042,4.298190593719482
1481952971292,-8.310873031616211,-2.275090217590332,4.2975921630859375
1481952971472,-8.31446361541748,-2.2679076194763184,4.283825397491455
1481952971653,-8.359354972839355,-2.258330821990967,4.294000625610352
1481952971835,-8.289324760437012,-2.272696018218994,4.326920986175537
1481952972012,-8.289324760437012,-2.341529369354248,4.273650169372559
1481952972193,-8.260594367980957,-2.184110403060913,4.3394904136657715
1481952972374,-8.318055152893066,-2.3319525718688965,4.293402194976807
1481952972553,-8.365939140319824,-2.2463598251342773,4.314351558685303
1481952972736,-8.315661430358887,-2.271498918533325,4.247912406921387
1481952972914,-8.29710578918457,-2.2888567447662354,4.2951979637146
1481952973094,-8.340800285339355,-2.299032211303711,4.2951979637146
1481952973274,-8.325836181640625,-2.2894554138183594,4.3191399574279785
1481952973454,-8.274959564208984,-2.29484224319458,4.32871675491333
1481952973639,-8.276755332946777,-2.2649147510528564,4.313753128051758
1481952973819,-8.267777442932129,-2.2667105197906494,4.326920986175537
1481952973994,-8.303091049194336,-2.276287317276001,4.316745758056641
1481952974178,-8.279149055480957,-2.3074119091033936,4.322731018066406
1481952974359,-8.254609107971191,-2.2607250213623047,4.31255578994751
1481952974537,-8.256404876708984,-2.3104045391082764,4.333505153656006
1481952974720,-8.311470985412598,-2.3038206100463867,4.307168960571289
1481952974899,-8.306682586669922,-2.2816741466522217,4.333505153656006
1481952975076,-8.319252014160156,-2.3020248413085938,4.309563159942627
1481952975260,-8.28094482421875,-2.2876596450805664,4.320336818695068
1481952975448,-8.282740592956543,-2.299032211303711,4.331110954284668
1481952975618,-8.26478385925293,-2.2804770469665527,4.350862979888916
1481952975801,-8.267777442932129,-2.2876596450805664,4.354454517364502
1481952975977,-8.285135269165039,-2.2703018188476563,4.340089321136475
1481952976161,-8.282740592956543,-2.297236442565918,4.336497783660889
1481952976341,-8.268375396728516,-2.293046712875366,4.338293552398682
1481952976517,-8.27974796295166,-2.3110032081604004,4.332307815551758
1481952976702,-8.286332130432129,-2.2870612144470215,4.352060317993164
1481952976882,-8.285733222961426,-2.3092074394226074,4.321534156799316
1481952977056,-8.336610794067383,-2.3277626037597656,4.315548419952393
1481952977242,-8.27974796295166,-2.3056161403656006,4.341884613037109
1481952977422,-8.276156425476074,-2.315791606903076,4.321534156799316
1481952977602,-8.294113159179688,-2.3026235103607178,4.334103584289551
1481952977782,-8.24742603302002,-2.297236442565918,4.372410774230957
1481952977958,-8.280346870422363,-2.3026235103607178,4.336497783660889
1481952978137,-8.277952194213867,-2.3032219409942627,4.350862979888916
1481952978321,-8.26478385925293,-2.294243812561035,4.335300922393799
1481952978498,-8.24742603302002,-2.3104045391082764,4.346673011779785
1481952978682,-8.273163795471191,-2.274491548538208,4.332307815551758
1481952978863,-8.298901557922363,-2.337938070297241,4.334702014923096
1481952979039,-8.304886817932129,-2.3110032081604004,4.304176330566406
1481952979223,-8.351573944091797,-2.2577321529388428,4.3640313148498535
1481952979404,-8.259397506713867,-2.2804770469665527,4.34487771987915
1481952979579,-8.254010200500488,-2.2038626670837402,4.381389141082764
1481952979764,-8.323442459106445,-2.3020248413085938,4.343680381774902
1481952979939,-8.290521621704102,-2.228403329849243,4.3173441886901855
1481952980121,-8.38569164276123,-2.299630641937256,4.189254283905029
1481952980305,-8.26478385925293,-2.1972784996032715,4.350264549255371
1481952980482,-8.074444770812988,-2.256535053253174,4.445434093475342
1481952980674,-8.361150741577148,-2.25473952293396,4.238335609436035
1481952980846,-8.35336971282959,-2.2703018188476563,4.250306606292725
1481952981038,-8.26358699798584,-2.2888567447662354,4.346673011779785
1481952981199,-8.333617210388184,-2.258330821990967,4.294599533081055
1481952981385,-8.286332130432129,-2.2619221210479736,4.314949989318848
1481952981560,-8.282142639160156,-2.227206230163574,4.324526786804199
1481952981746,-8.33601188659668,-2.233790159225464,4.259284973144531
1481952981923,-8.268974304199219,-2.29484224319458,4.337695121765137
1481952982105,-8.374917984008789,-2.2840683460235596,4.246715068817139
1481952982286,-8.296507835388184,-2.2667105197906494,4.3173441886901855
1481952982465,-8.27855110168457,-2.209848165512085,4.331110954284668
1481952982647,-8.330026626586914,-2.2451627254486084,4.277839660644531
1481952982827,-8.245630264282227,-2.279279947280884,4.337096214294434
1481952983003,-8.251017570495605,-2.2248120307922363,4.392162799835205
1481952983187,-8.328828811645508,-2.27748441696167,4.271854400634766
1481952983366,-8.31865406036377,-2.2254104614257813,4.262876033782959
1481952983543,-8.250418663024902,-2.207453966140747,4.371812343597412
1481952983728,-8.418611526489258,-2.300827741622925,4.333505153656006
1481952983908,-8.291120529174805,-2.1954829692840576,4.261679172515869
1481952984084,-8.360552787780762,-2.3720552921295166,4.285621166229248
1481952984265,-8.226476669311523,-2.313995838165283,4.399944305419922
1481952984449,-8.284536361694336,-2.3092074394226074,4.298190593719482
1481952984627,-8.251616477966309,-2.3235726356506348,4.307168960571289
1481952984809,-8.234856605529785,-2.3271639347076416,4.337096214294434
1481952984988,-8.256404876708984,-2.3259668350219727,4.341884613037109
1481952985167,-8.24742603302002,-2.2882583141326904,4.3424835205078125
1481952985349,-8.26119327545166,-2.319981336593628,4.335899353027344
1481952985533,-8.261791229248047,-2.318784236907959,4.329315185546875
1481952985710,-8.304288864135742,-2.3098061084747314,4.313753128051758
1481952985890,-8.266579627990723,-2.3259668350219727,4.359242916107178
1481952986066,-8.264185905456543,-2.318185806274414,4.337096214294434
1481952986251,-8.283937454223633,-2.3283610343933105,4.332906723022461
1481952986430,-8.248623847961426,-2.3325510025024414,4.308365821838379
1481952986607,-8.262989044189453,-2.344521999359131,4.3628339767456055
1481952986791,-8.24383544921875,-2.3145945072174072,4.349666118621826
1481952986970,-8.273163795471191,-2.337339401245117,4.3424835205078125
1481952987149,-8.268375396728516,-2.321777105331421,4.337695121765137
1481952987330,-8.264185905456543,-2.3594858646392822,4.326920986175537
1481952987508,-8.253412246704102,-2.3523032665252686,4.337096214294434
1481952987692,-8.258200645446777,-2.3337481021881104,4.368819713592529
1481952987872,-8.267777442932129,-2.340332269668579,4.3424835205078125
1481952988048,-8.265981674194336,-2.337938070297241,4.366425514221191
1481952988232,-8.237251281738281,-2.3475148677825928,4.347271919250488
1481952988411,-8.264185905456543,-2.360084295272827,4.3610382080078125
1481952988588,-8.249820709228516,-2.358887195587158,4.359242916107178
1481952988772,-8.246828079223633,-2.324171304702759,4.347870349884033
1481952988955,-8.241440773010254,-2.322375535964966,4.373009204864502
1481952989128,-8.244433403015137,-2.3301568031311035,4.356249809265137
1481952989313,-8.255207061767578,-2.3481132984161377,4.346673011779785
1481952989493,-8.266579627990723,-2.341529369354248,4.349067211151123
1481952989673,-8.221090316772461,-2.32297420501709,4.333505153656006
1481952989853,-8.250418663024902,-2.3552958965301514,4.3610382080078125
1481952990031,-8.234258651733398,-2.3546974658966064,4.344278812408447
1481952990219,-8.236053466796875,-2.3780407905578613,4.341884613037109
1481952990392,-8.22228717803955,-2.343324899673462,4.353257179260254
1481952990609,-8.205527305603027,-2.3367409706115723,4.353257179260254
1481952990754,-8.273762702941895,-2.3684639930725098,4.346673011779785
1481952990935,-8.220491409301758,-2.3529016971588135,4.3628339767456055
1481952991110,-8.227075576782227,-2.386420488357544,4.366425514221191
1481952991316,-8.249820709228516,-2.3481132984161377,4.354454517364502
1481952991476,-8.24084186553955,-2.3762452602386475,4.35684871673584
1481952991652,-8.248623847961426,-2.340930700302124,4.349666118621826
1481952991836,-8.242039680480957,-2.388216257095337,4.370016574859619
1481952992016,-8.231863975524902,-2.3523032665252686,4.357447147369385
1481952992193,-8.265981674194336,-2.362478494644165,4.331709384918213
1481952992374,-8.261791229248047,-2.361281394958496,4.347870349884033
1481952992556,-8.190564155578613,-2.3517045974731445,4.355651378631592
1481952992737,-8.240243911743164,-2.3971943855285645,4.3179426193237305
1481952992917,-8.274360656738281,-2.3965959548950195,4.347271919250488
1481952993091,-8.252214431762695,-2.390011787414551,4.330512523651123
1481952993279,-8.214506149291992,-2.3511061668395996,4.3610382080078125
1481952993457,-8.252813339233398,-2.406771183013916,4.3394904136657715
1481952993632,-8.26478385925293,-2.3546974658966064,4.343680381774902
1481952993817,-8.24503231048584,-2.386420488357544,4.319738388061523
1481952994026,-8.215105056762695,-2.364274263381958,4.3610382080078125
1481952994176,-8.237849235534668,-2.3738510608673096,4.358644008636475
1481952994358,-8.243236541748047,-2.3798365592956543,4.368819713592529
1481952994538,-8.208520889282227,-2.3546974658966064,4.347870349884033
1481952994718,-8.230667114257813,-2.382230758666992,4.355052947998047
1481952994898,-8.251616477966309,-2.362478494644165,4.366425514221191
1481952995076,-8.215703010559082,-2.3983914852142334,4.3412861824035645
1481952995257,-8.225279808044434,-2.3774423599243164,4.359242916107178
1481952995437,-8.225878715515137,-2.4151508808135986,4.355651378631592
1481952995613,-8.24383544921875,-2.386420488357544,4.352060317993164
1481952995799,-8.249221801757813,-2.410362482070923,4.329315185546875
1481952995977,-8.251616477966309,-2.388814687728882,4.34487771987915
1481952996155,-8.261791229248047,-2.4127566814422607,4.32991361618042
1481952996337,-8.242637634277344,-2.3930046558380127,4.352658748626709
1481952996519,-8.21151351928711,-2.3558945655822754,4.392162799835205
1481952996697,-8.240243911743164,-2.3594858646392822,4.353257179260254
1481952996880,-8.233659744262695,-2.3499090671539307,4.36343240737915
1481952997058,-8.239645004272461,-2.3726539611816406,4.348468780517578
1481952997237,-8.241440773010254,-2.3493103981018066,4.373608112335205
1481952997420,-8.22228717803955,-2.3499090671539307,4.383184909820557
1481952997597,-8.251616477966309,-2.369062662124634,4.353855609893799
1481952997781,-8.232462882995605,-2.360682964324951,4.397550106048584
1481952997961,-8.239645004272461,-2.382230758666992,4.37540340423584
1481952998137,-8.27974796295166,-2.3953988552093506,4.309563159942627
1481952998322,-8.246828079223633,-2.3768436908721924,4.334702014923096
1481952998501,-8.231863975524902,-2.382829189300537,4.355052947998047
1481952998677,-8.235455513000488,-2.4007856845855713,4.359242916107178
1481952998862,-8.250418663024902,-2.382230758666992,4.328118324279785
1481952999043,-8.236652374267578,-2.382230758666992,4.3640313148498535
1481952999222,-8.225878715515137,-2.3702597618103027,4.3640313148498535
1481952999397,-8.02416706085205,-2.2840683460235596,4.343680381774902
1481952999580,-8.299500465393066,-2.4145524501800537,4.293402194976807
1481952999763,-8.206725120544434,-2.3989901542663574,4.352060317993164
1481952999943,-8.250418663024902,-2.404975652694702,4.40233850479126
1481953000123,-8.309675216674805,-2.344521999359131,4.285621166229248
1481953000303,-8.23006820678711,-2.3977930545806885,4.341884613037109
1481953000483,-8.233060836791992,-2.432508945465088,4.337096214294434
1481953000657,-8.337807655334473,-2.3959972858428955,4.25629186630249
1481953000842,-8.191761016845703,-2.428318977355957,4.292803764343262
1481953001024,-8.197746276855469,-2.383427858352661,4.3825860023498535
1481953001199,-8.253412246704102,-2.5103204250335693,4.283825397491455
1481953001383,-8.26358699798584,-2.3283610343933105,4.335300922393799
1481953001565,-8.24622917175293,-2.4468741416931152,4.313154220581055
1481953001742,-8.241440773010254,-2.3750481605529785,4.248510837554932
1481953001925,-8.22228717803955,-2.4181437492370605,4.368220806121826
1481953002105,-8.272565841674805,-2.4199392795562744,4.302380561828613
1481953002282,-8.27735424041748,-2.4187421798706055,4.266467571258545
1481953002460,-8.213907241821289,-2.450465440750122,4.310161590576172
1481953002641,-8.309675216674805,-2.454655408859253,4.2515034675598145
1481953002826,-8.145073890686035,-2.433706045150757,4.352658748626709
1481953003006,-8.30129623413086,-2.408566951751709,4.240131378173828
1481953003181,-8.218097686767578,-2.449866771697998,4.345476150512695
1481953003367,-8.230667114257813,-2.404975652694702,4.2509050369262695
1481953003547,-8.260594367980957,-2.4588451385498047,4.3191399574279785
1481953003722,-8.27735424041748,-2.4444799423217773,4.313154220581055
1481953003906,-8.315062522888184,-2.3912088871002197,4.257489204406738
1481953004085,-8.230667114257813,-2.4468741416931152,4.360439777374268
1481953004267,-8.317456245422363,-2.404975652694702,4.267664432525635
1481953004447,-8.201936721801758,-2.4199392795562744,4.364629745483398
1481953004622,-8.239645004272461,-2.380434989929199,4.304176330566406
1481953004807,-8.22767448425293,-2.4229321479797363,4.319738388061523
1481953004987,-8.231863975524902,-2.4444799423217773,4.32991361618042
1481953005164,-8.289324760437012,-2.4169466495513916,4.31135892868042
1481953005348,-8.208520889282227,-2.448071241378784,4.335899353027344
1481953005526,-8.281543731689453,-2.4414870738983154,4.264073371887207
1481953005703,-8.216301918029785,-2.431311845779419,4.315548419952393
1481953005888,-8.249221801757813,-2.3918075561523438,4.292205333709717
1481953006069,-8.308478355407715,-2.4384944438934326,4.278438568115234
1481953006244,-8.14028549194336,-2.425326347351074,4.389768600463867
1481953006428,-8.322843551635742,-2.4229321479797363,4.19224739074707
1481953006609,-8.322843551635742,-2.5300726890563965,4.411316394805908
1481953006787,-8.351573944091797,-2.448071241378784,4.335899353027344
1481953006969,-8.284536361694336,-2.4193408489227295,4.24970817565918
1481953007148,-8.15524959564209,-2.3762452602386475,4.458003520965576
1481953007328,-8.231863975524902,-2.382829189300537,4.222174644470215
1481953007510,-8.33840560913086,-2.3546974658966064,4.276642799377441
1481953007686,-8.29590892791748,-2.3540987968444824,4.163516521453857
1481953007868,-8.274959564208984,-2.3762452602386475,4.20541524887085
1481953008050,-8.31865406036377,-2.3930046558380127,4.23893404006958
1481953008226,-8.286332130432129,-2.367865562438965,4.255693435668945
1481953008407,-8.331223487854004,-2.3774423599243164,4.198831081390381
1481953008590,-8.251017570495605,-2.390011787414551,4.265868663787842
1481953008770,-8.331223487854004,-2.387617588043213,4.23893404006958
1481953008951,-8.307879447937012,-2.3738510608673096,4.2329487800598145
1481953009131,-8.259397506713867,-2.4127566814422607,4.264073371887207
1481953009309,-8.32104778289795,-2.363675594329834,4.241328239440918
1481953009491,-8.306084632873535,-2.380434989929199,4.229955673217773
1481953009670,-8.276156425476074,-2.4468741416931152,4.233547210693359
1481953009852,-8.328230857849121,-2.4229321479797363,4.198831081390381
1481953010032,-8.29471206665039,-2.433107376098633,4.265270233154297
1481953010208,-8.281543731689453,-2.337339401245117,4.243124008178711
1481953010391,-8.286332130432129,-2.3475148677825928,4.225167274475098
1481953010573,-8.266579627990723,-2.4223334789276123,4.332307815551758
1481953010748,-8.288127899169922,-2.4402899742126465,4.191648483276367
1481953010932,-8.258200645446777,-2.3469161987304688,4.260481834411621
1481953011108,-8.312667846679688,-2.4235305786132813,4.223970413208008
1481953011293,-8.33182144165039,-2.364274263381958,4.289212226867676
1481953011469,-8.46170711517334,-2.3953988552093506,4.282628059387207
1481953011653,-8.199542045593262,-2.2631192207336426,4.206612586975098
1481953011834,-8.274959564208984,-2.3959972858428955,4.238335609436035
1481953012014,-8.320449829101563,-2.4205379486083984,4.214992046356201
1481953012201,-8.225279808044434,-2.362478494644165,4.333505153656006
1481953012372,-8.236652374267578,-2.3780407905578613,4.258686065673828
1481953012556,-8.254010200500488,-2.3989901542663574,4.301183223724365
1481953012730,-8.320449829101563,-2.406771183013916,4.258686065673828
1481953012916,-8.33720874786377,-2.476801633834839,4.246116638183594
1481953013095,-8.235455513000488,-2.4648306369781494,4.265270233154297
1481953013270,-8.232462882995605,-2.455253839492798,4.256890773773193
1481953013454,-8.253412246704102,-2.4666264057159424,4.269460201263428
1481953013636,-8.259995460510254,-2.4606409072875977,4.282628059387207
1481953013812,-8.26358699798584,-2.4217350482940674,4.2724528312683105
1481953013996,-8.242039680480957,-2.4444799423217773,4.2544965744018555
1481953014177,-8.229470252990723,-2.455852508544922,4.271854400634766
1481953014356,-8.253412246704102,-2.457049608230591,4.26826286315918
1481953014537,-8.26119327545166,-2.455253839492798,4.2724528312683105
1481953014713,-8.248623847961426,-2.453458309173584,4.313753128051758
1481953014895,-8.249820709228516,-2.4199392795562744,4.304176330566406
1481953015075,-8.26358699798584,-2.429516077041626,4.298789024353027
1481953015252,-8.240243911743164,-2.403778553009033,4.327519416809082
1481953015437,-8.26119327545166,-2.431311845779419,4.294599533081055
1481953015613,-8.27855110168457,-2.40736985206604,4.3173441886901855
1481953015793,-8.260594367980957,-2.431311845779419,4.303577423095703
1481953015977,-8.271368026733398,-2.42472767829895,4.291606426239014
1481953016156,-8.276755332946777,-2.455852508544922,4.305373191833496
1481953016337,-8.310873031616211,-2.432508945465088,4.301183223724365
1481953016518,-8.276156425476074,-2.3959972858428955,4.303577423095703
1481953016698,-8.243236541748047,-2.4205379486083984,4.294000625610352
1481953016878,-8.282142639160156,-2.3714568614959717,4.308365821838379
1481953017058,-8.33601188659668,-2.4145524501800537,4.253299236297607
1481953017235,-8.264185905456543,-2.456450939178467,4.253897666931152
1481953017417,-8.303091049194336,-2.432508945465088,4.343680381774902
1481953017599,-8.218097686767578,-2.4169466495513916,4.2550950050354
1481953017774,-8.296507835388184,-2.428917646408081,4.299986362457275
1481953017959,-8.255207061767578,-2.476801633834839,4.289212226867676
1481953018139,-8.292916297912598,-2.381632089614868,4.265868663787842
1481953018316,-8.259995460510254,-2.432508945465088,4.288613796234131
1481953018500,-8.274959564208984,-2.428917646408081,4.305971622467041
1481953018680,-8.270171165466309,-2.4169466495513916,4.305373191833496
1481953018860,-8.222886085510254,-2.4139537811279297,4.308365821838379
1481953019040,-8.27735424041748,-2.4151508808135986,4.31135892868042
1481953019224,-8.210914611816406,-2.3959972858428955,4.32991361618042
1481953019398,-8.271368026733398,-2.407968282699585,4.310760021209717
1481953019580,-8.246828079223633,-2.455852508544922,4.304774761199951
1481953019757,-8.268974304199219,-2.43011474609375,4.285621166229248
1481953019941,-8.237849235534668,-2.4127566814422607,4.309563159942627
1481953020116,-8.244433403015137,-2.450465440750122,4.313753128051758
1481953020296,-8.267178535461426,-2.431910276412964,4.3173441886901855
1481953020482,-8.253412246704102,-2.4396915435791016,4.302380561828613
1481953020657,-8.240243911743164,-2.449268341064453,4.298789024353027
1481953020837,-8.253412246704102,-2.479794502258301,4.268861770629883
1481953021022,-8.279149055480957,-2.4396915435791016,4.306570529937744
1481953021202,-8.266579627990723,-2.477400302886963,4.288015365600586
1481953021378,-8.270171165466309,-2.4444799423217773,4.292803764343262
1481953021563,-8.235455513000488,-2.3977930545806885,4.307767391204834
1481953021740,-8.277952194213867,-2.425924777984619,4.298190593719482
1481953021923,-8.26239013671875,-2.4235305786132813,4.304176330566406
1481953022102,-8.291719436645508,-2.4157495498657227,4.288015365600586
1481953022279,-8.274959564208984,-2.360682964324951,4.3191399574279785
1481953022462,-8.268974304199219,-2.344521999359131,4.282029628753662
1481953022644,-8.236652374267578,-2.403179883956909,4.334103584289551
1481953022819,-8.271966934204102,-2.385822057723999,4.273650169372559
1481953023004,-8.259995460510254,-2.429516077041626,4.338293552398682
1481953023182,-8.20732307434082,-2.387019157409668,4.313154220581055
1481953023360,-8.31446361541748,-2.4582467079162598,4.240131378173828
1481953023545,-8.22767448425293,-2.4343044757843018,4.335300922393799
1481953023725,-8.225878715515137,-2.4139537811279297,4.3191399574279785
1481953023900,-8.24742603302002,-2.428318977355957,4.316745758056641
1481953024086,-8.209118843078613,-2.411559581756592,4.31255578994751
1481953024264,-8.264185905456543,-2.4426841735839844,4.299986362457275
1481953024446,-8.24084186553955,-2.3930046558380127,4.329315185546875
1481953024626,-8.236652374267578,-2.449268341064453,4.310161590576172
1481953024801,-8.27735424041748,-2.40736985206604,4.332906723022461
1481953024986,-8.221688270568848,-2.4343044757843018,4.330512523651123
1481953025166,-8.216899871826172,-2.4378957748413086,4.320336818695068
1481953025342,-8.246828079223633,-2.4157495498657227,4.314351558685303
1481953025521,-8.262989044189453,-2.45285964012146,4.283825397491455
1481953025706,-8.249221801757813,-2.430713176727295,4.264671802520752
1481953025885,-8.218695640563965,-2.431311845779419,4.282029628753662
1481953026065,-8.209717750549316,-2.411559581756592,4.253897666931152
1481953026247,-8.254609107971191,-2.4361002445220947,4.274847030639648
1481953026423,-8.267178535461426,-2.4378957748413086,4.287416458129883
1481953026607,-8.256404876708984,-2.428318977355957,4.287416458129883
1481953026787,-8.26119327545166,-2.4175450801849365,4.278438568115234
1481953026963,-8.281543731689453,-2.4229321479797363,4.2993879318237305
1481953027148,-8.265382766723633,-2.433107376098633,4.283825397491455
1481953027323,-8.283937454223633,-2.433107376098633,4.264671802520752
1481953027508,-8.271368026733398,-2.4444799423217773,4.292803764343262
1481953027688,-8.26478385925293,-2.4468741416931152,4.313753128051758
1481953027864,-8.20732307434082,-2.3726539611816406,4.332906723022461
1481953028049,-8.326435089111328,-2.4660277366638184,4.293402194976807
1481953028229,-8.268974304199219,-2.455253839492798,4.271854400634766
1481953028409,-8.252214431762695,-2.452261209487915,4.294599533081055
1481953028589,-8.250418663024902,-2.44747257232666,4.301782131195068
1481953028769,-8.267178535461426,-2.429516077041626,4.293402194976807
1481953028950,-8.237251281738281,-2.4594438076019287,4.298190593719482
1481953029130,-8.259397506713867,-2.4402899742126465,4.294000625610352
1481953029307,-8.24383544921875,-2.4630351066589355,4.307168960571289
1481953029490,-8.27855110168457,-2.454056739807129,4.2742486000061035
1481953029670,-8.252214431762695,-2.454655408859253,4.291007995605469
1481953029846,-8.26358699798584,-2.4199392795562744,4.290409564971924
1481953030026,-8.229470252990723,-2.453458309173584,4.275445461273193
1481953030207,-8.237849235534668,-2.4378957748413086,4.309563159942627
1481953030386,-8.246828079223633,-2.432508945465088,4.306570529937744
1481953030567,-8.24383544921875,-2.4624364376068115,4.306570529937744
1481953030751,-8.26358699798584,-2.4624364376068115,4.274847030639648
1481953030932,-8.242637634277344,-2.4588451385498047,4.277241230010986
1481953031112,-8.236652374267578,-2.452261209487915,4.280233860015869
1481953031291,-8.226476669311523,-2.4468741416931152,4.288613796234131
1481953031470,-8.226476669311523,-2.430713176727295,4.279635429382324
1481953031652,-8.256404876708984,-2.473210334777832,4.281431198120117
1481953031832,-8.26239013671875,-2.455852508544922,4.276642799377441
1481953032012,-8.245630264282227,-2.4390928745269775,4.316147327423096
1481953032192,-8.238448143005371,-2.4582467079162598,4.301782131195068
1481953032368,-8.235455513000488,-2.4163479804992676,4.301782131195068
1481953032553,-8.258798599243164,-2.4396915435791016,4.305971622467041
1481953032733,-8.235455513000488,-2.4408886432647705,4.288015365600586
1481953032912,-8.256404876708984,-2.456450939178467,4.30058479309082
1481953033092,-8.222886085510254,-2.4355015754699707,4.302978992462158
1481953033273,-8.239047050476074,-2.450465440750122,4.304176330566406
1481953033453,-8.231863975524902,-2.4438812732696533,4.282029628753662
1481953033634,-8.258200645446777,-2.473809003829956,4.279036998748779
1481953033812,-8.268974304199219,-2.476801633834839,4.275445461273193
1481953033994,-8.237251281738281,-2.4666264057159424,4.282628059387207
1481953034172,-8.242039680480957,-2.4582467079162598,4.26706600189209
1481953034350,-8.24383544921875,-2.4468741416931152,4.279036998748779
1481953034535,-8.228272438049316,-2.4666264057159424,4.289810657501221
1481953034716,-8.246828079223633,-2.455253839492798,4.269460201263428
1481953034891,-8.271368026733398,-2.472013235092163,4.265270233154297
1481953035076,-8.272565841674805,-2.4468741416931152,4.308964729309082
1481953035253,-8.234258651733398,-2.454056739807129,4.275445461273193
1481953035431,-8.186972618103027,-2.4211363792419434,4.353257179260254
