,timestamp,ax,ay,az
0,7000.0,2.7661027908325195,9.559326171875,-1.373480200767517
1,7100.0,2.7661027908325195,9.559326171875,-1.373480200767517
2,7200.0,2.7661027908325195,9.559326171875,-1.373480200767517
3,7300.0,2.7661027908325195,9.559326171875,-1.373480200767517
4,7400.0,2.7661027908325195,9.559326171875,-1.373480200767517
5,7500.0,7.178467750549316,5.37188720703125,-4.6372904777526855
6,7600.0,7.178467750549316,5.37188720703125,-4.6372904777526855
7,7700.0,2.416750907897949,10.705488204956056,-0.413958340883255
8,7800.0,2.416750907897949,10.705488204956056,-0.413958340883255
9,7900.0,2.416750907897949,10.705488204956056,-0.413958340883255
10,8000.0,-0.0813559740781784,8.023134231567383,-1.581655740737915
11,8100.0,-0.0813559740781784,8.023134231567383,-1.581655740737915
12,8200.0,0.014356935396790503,6.824329853057861,-4.060619831085205
13,8300.0,0.014356935396790503,6.824329853057861,-4.060619831085205
14,8400.0,3.168097257614136,3.6945178508758554,-6.38165807723999
15,8500.0,3.168097257614136,3.6945178508758554,-6.38165807723999
16,8600.0,3.168097257614136,3.6945178508758554,-6.38165807723999
17,8700.0,3.5748770236968994,8.922836303710938,-5.824130058288574
18,8800.0,3.5748770236968994,8.922836303710938,-5.824130058288574
19,8900.0,8.767301559448242,9.518648147583008,0.4522434771060944
20,9000.0,8.767301559448242,9.518648147583008,0.4522434771060944
21,9100.0,8.767301559448242,9.518648147583008,0.4522434771060944
22,9200.0,1.4356936216354368,9.650253295898438,4.0869412422180185
23,9300.0,1.4356936216354368,9.650253295898438,4.0869412422180185
24,9400.0,0.0813559740781784,4.9387855529785165,-5.831308364868164
25,9500.0,0.0813559740781784,4.9387855529785165,-5.831308364868164
26,9600.0,7.948956489562987,7.764709949493407,-9.351150512695312
27,9700.0,7.948956489562987,7.764709949493407,-9.351150512695312
28,9800.0,3.3643085956573486,7.953742504119872,-6.26440954208374
29,9900.0,3.3643085956573486,7.953742504119872,-6.26440954208374
30,10000.0,3.3643085956573486,7.953742504119872,-6.26440954208374
31,10100.0,3.69930362701416,6.003591537475586,-6.087340831756593
32,10200.0,3.69930362701416,6.003591537475586,-6.087340831756593
33,10300.0,7.551748275756836,3.4289150238037114,-6.336194515228272
34,10400.0,7.551748275756836,3.4289150238037114,-6.336194515228272
35,10500.0,5.508277893066406,6.283552646636963,-5.816952228546143
36,10600.0,5.508277893066406,6.283552646636963,-5.816952228546143
37,10700.0,4.0869412422180185,4.3238306045532235,-7.082754611968994
38,10800.0,4.0869412422180185,4.3238306045532235,-7.082754611968994
39,10900.0,4.0869412422180185,4.3238306045532235,-7.082754611968994
40,11000.0,5.216352939605713,6.38165807723999,-10.576275825500488
41,11100.0,5.216352939605713,6.38165807723999,-10.576275825500488
42,11200.0,2.2061824798583984,8.463413238525389,-0.07657032459974289
43,11300.0,2.2061824798583984,8.463413238525389,-0.07657032459974289
44,11400.0,2.2061824798583984,8.463413238525389,-0.07657032459974289
45,11500.0,0.18185453116893768,6.1399827003479,2.7349963188171387
46,11600.0,0.18185453116893768,6.1399827003479,2.7349963188171387
47,11700.0,5.048855781555176,11.717653274536133,-1.1509476900100708
48,11800.0,5.048855781555176,11.717653274536133,-1.1509476900100708
49,11900.0,2.8378877639770512,8.84626579284668,-1.3950155973434448
50,12000.0,2.8378877639770512,8.84626579284668,-1.3950155973434448
51,12100.0,2.8378877639770512,8.84626579284668,-1.3950155973434448
52,12200.0,6.776473522186278,8.48016357421875,-13.074383735656738
53,12300.0,6.776473522186278,8.48016357421875,-13.074383735656738
54,12400.0,-2.273181438446045,8.992227554321289,1.9812570810317995
55,12500.0,-2.273181438446045,8.992227554321289,1.9812570810317995
56,12600.0,-3.0101709365844727,4.9363932609558105,-5.051248073577881
57,12700.0,-3.0101709365844727,4.9363932609558105,-5.051248073577881
58,12800.0,-3.0101709365844727,4.9363932609558105,-5.051248073577881
59,12900.0,-5.053641319274902,3.2709887027740483,-6.362515449523926
60,13000.0,-5.053641319274902,3.2709887027740483,-6.362515449523926
61,13100.0,-5.66620397567749,3.548555850982666,-6.8650078773498535
62,13200.0,-5.66620397567749,3.548555850982666,-6.8650078773498535
63,13300.0,-5.364708423614502,-2.988635540008545,-9.410971641540527
64,13400.0,-5.364708423614502,-2.988635540008545,-9.410971641540527
65,13500.0,-5.364708423614502,-2.988635540008545,-9.410971641540527
66,13600.0,-5.608776092529297,6.905685901641847,-5.484349250793457
67,13700.0,-5.608776092529297,6.905685901641847,-5.484349250793457
68,13800.0,-8.772088050842285,3.129812002182007,-4.395615100860597
69,13900.0,-8.772088050842285,3.129812002182007,-4.395615100860597
70,14000.0,-8.772088050842285,3.129812002182007,-4.395615100860597
71,14100.0,1.2634103298187256,-0.3302095234394073,-12.882957458496096
72,14200.0,1.2634103298187256,-0.3302095234394073,-12.882957458496096
73,14300.0,-0.9427721500396729,-3.0269205570220947,-7.1066832542419425
74,14400.0,-0.9427721500396729,-3.0269205570220947,-7.1066832542419425
75,14500.0,-0.9427721500396729,-3.0269205570220947,-7.1066832542419425
76,14600.0,-2.100898265838623,-1.739582061767578,-7.47517728805542
77,14700.0,-2.100898265838623,-1.739582061767578,-7.47517728805542
78,14800.0,4.369294166564941,-0.4689932465553284,-10.609774589538574
79,14900.0,4.369294166564941,-0.4689932465553284,-10.609774589538574
80,15000.0,5.642275810241699,2.1439690589904785,-8.00399112701416
81,15100.0,5.642275810241699,2.1439690589904785,-8.00399112701416
82,15200.0,6.0921263694763175,3.5581274032592773,-6.817151546478272
83,15300.0,6.0921263694763175,3.5581274032592773,-6.817151546478272
84,15400.0,6.111269474029541,2.2612173557281494,-7.094719409942628
85,15500.0,6.111269474029541,2.2612173557281494,-7.094719409942628
86,15600.0,6.111269474029541,2.2612173557281494,-7.094719409942628
87,15700.0,7.977671146392822,0.6699903011322021,-5.91505765914917
88,15800.0,7.977671146392822,0.6699903011322021,-5.91505765914917
89,15900.0,6.8721866607666025,3.122633695602417,-6.577868938446045
90,16000.0,6.8721866607666025,3.122633695602417,-6.577868938446045
91,16100.0,6.8721866607666025,3.122633695602417,-6.577868938446045
92,16200.0,6.345765590667725,2.00518536567688,-6.8650078773498535
93,16300.0,6.345765590667725,2.00518536567688,-6.8650078773498535
94,16400.0,6.98704195022583,4.2041893005371085,-6.1256256103515625
95,16500.0,6.98704195022583,4.2041893005371085,-6.1256256103515625
96,16600.0,5.221138954162598,0.00957129057496786,-10.219745635986328
97,16700.0,5.221138954162598,0.00957129057496786,-10.219745635986328
98,16800.0,4.407578945159912,2.421536445617676,-7.666603565216064
99,16900.0,4.407578945159912,2.421536445617676,-7.666603565216064
100,17000.0,4.6851468086242685,-1.0504491329193115,-7.975277900695801
101,17100.0,4.6851468086242685,-1.0504491329193115,-7.975277900695801
102,17200.0,4.6851468086242685,-1.0504491329193115,-7.975277900695801
103,17300.0,4.091726779937743,-2.486142873764038,-8.027919769287111
104,17400.0,4.091726779937743,-2.486142873764038,-8.027919769287111
105,17500.0,6.795616626739503,-1.1341978311538696,-6.874579429626465
106,17600.0,6.795616626739503,-1.1341978311538696,-6.874579429626465
107,17700.0,6.795616626739503,-1.1341978311538696,-6.874579429626465
108,17800.0,4.536791324615479,4.074976921081543,-7.556533336639403
109,17900.0,4.536791324615479,4.074976921081543,-7.556533336639403
110,18000.0,7.307680606842041,6.625725746154785,1.6295121908187866
111,18100.0,7.307680606842041,6.625725746154785,1.6295121908187866
112,18200.0,10.02592658996582,5.548955917358398,0.9475577473640442
113,18300.0,10.02592658996582,5.548955917358398,0.9475577473640442
114,18400.0,7.278966426849365,5.347958564758301,-0.4785645008087158
115,18500.0,7.278966426849365,5.347958564758301,-0.4785645008087158
116,18600.0,7.987241268157959,5.984449863433838,-0.6699903011322021
117,18700.0,7.987241268157959,5.984449863433838,-0.6699903011322021
118,18800.0,7.987241268157959,5.984449863433838,-0.6699903011322021
119,18900.0,7.939385414123535,6.058626651763916,-1.3351951837539673
120,19000.0,7.939385414123535,6.058626651763916,-1.3351951837539673
121,19100.0,7.4703922271728525,5.733203411102295,-1.5864413976669312
122,19200.0,7.4703922271728525,5.733203411102295,-1.5864413976669312
123,19300.0,7.068397998809815,5.778666496276856,-2.050648927688598
124,19400.0,7.068397998809815,5.778666496276856,-2.050648927688598
125,19500.0,7.020541667938232,6.190232276916504,-2.108076810836792
126,19600.0,7.020541667938232,6.190232276916504,-2.108076810836792
127,19700.0,7.020541667938232,6.190232276916504,-2.108076810836792
128,19800.0,7.097111701965332,6.419942855834961,-1.8209381103515625
129,19900.0,7.097111701965332,6.419942855834961,-1.8209381103515625
130,20000.0,7.245467185974121,6.671189785003662,-1.8400806188583372
131,20100.0,7.245467185974121,6.671189785003662,-1.8400806188583372
132,20200.0,7.049255847930907,6.307480335235597,-2.421536445617676
133,20300.0,7.049255847930907,6.307480335235597,-2.421536445617676
134,20400.0,7.374679565429687,5.12303352355957,-4.170689582824707
135,20500.0,7.374679565429687,5.12303352355957,-4.170689582824707
136,20600.0,7.494320392608643,6.443871021270753,-5.905486583709718
137,20700.0,7.494320392608643,6.443871021270753,-5.905486583709718
138,20800.0,7.494320392608643,6.443871021270753,-5.905486583709718
139,20900.0,3.684947013854981,6.221338748931885,-5.319244384765625
140,21000.0,3.684947013854981,6.221338748931885,-5.319244384765625
141,21100.0,1.5218352079391482,5.264209270477295,-4.335794448852538
142,21200.0,1.5218352079391482,5.264209270477295,-4.335794448852538
143,21300.0,1.5218352079391482,5.264209270477295,-4.335794448852538
144,21400.0,7.7048888206481925,4.405186176300049,-8.599804878234862
145,21500.0,7.7048888206481925,4.405186176300049,-8.599804878234862
146,21600.0,5.273780822753906,4.780859470367432,-7.508677005767822
147,21700.0,5.273780822753906,4.780859470367432,-7.508677005767822
148,21800.0,5.058426856994629,3.9122648239135738,-7.5326056480407715
149,21900.0,5.058426856994629,3.9122648239135738,-7.5326056480407715
150,22000.0,5.058426856994629,3.9122648239135738,-7.5326056480407715
151,22100.0,4.73300313949585,3.7280178070068364,-7.664210796356201
152,22200.0,4.73300313949585,3.7280178070068364,-7.664210796356201
153,22300.0,4.6995038986206055,3.579662799835205,-7.6522464752197275
154,22400.0,4.6995038986206055,3.579662799835205,-7.6522464752197275
155,22500.0,4.6995038986206055,3.579662799835205,-7.6522464752197275
156,22600.0,4.67078971862793,3.45045018196106,-7.8652076721191415
157,22700.0,4.67078971862793,3.45045018196106,-7.8652076721191415
158,22800.0,4.59421968460083,3.7040894031524663,-7.219145774841309
159,22900.0,4.59421968460083,3.7040894031524663,-7.219145774841309
160,23000.0,4.278366565704347,2.5292134284973145,-8.606983184814451
161,23100.0,4.278366565704347,2.5292134284973145,-8.606983184814451
162,23200.0,4.766502857208252,1.1629117727279663,-8.3629150390625
163,23300.0,4.766502857208252,1.1629117727279663,-8.3629150390625
164,23400.0,5.302494525909424,2.526820659637451,-8.300702095031737
165,23500.0,5.302494525909424,2.526820659637451,-8.300702095031737
166,23600.0,4.666004180908203,2.8713872432708736,-5.879165172576903
167,23700.0,4.666004180908203,2.8713872432708736,-5.879165172576903
168,23800.0,4.666004180908203,2.8713872432708736,-5.879165172576903
169,23900.0,3.445664882659912,1.0073783397674558,-9.710074424743652
170,24000.0,3.445664882659912,1.0073783397674558,-9.710074424743652
171,24100.0,5.757131576538086,0.2560320198535919,-8.496913909912111
172,24200.0,5.757131576538086,0.2560320198535919,-8.496913909912111
173,24300.0,5.757131576538086,0.2560320198535919,-8.496913909912111
174,24400.0,7.451249599456787,-1.356730580329895,-9.784252166748047
175,24500.0,7.451249599456787,-1.356730580329895,-9.784252166748047
176,24600.0,5.1637115478515625,1.0600204467773438,-7.831708431243896
177,24700.0,5.1637115478515625,1.0600204467773438,-7.831708431243896
178,24800.0,5.441278457641602,0.5024927258491516,-7.508677005767822
179,24900.0,5.441278457641602,0.5024927258491516,-7.508677005767822
180,25000.0,6.001199245452881,0.27278175950050354,-9.138189315795898
181,25100.0,6.001199245452881,0.27278175950050354,-9.138189315795898
182,25200.0,6.001199245452881,0.27278175950050354,-9.138189315795898
183,25300.0,5.757131576538086,4.175475597381592,-9.11426067352295
184,25400.0,5.757131576538086,4.175475597381592,-9.11426067352295
185,25500.0,5.321637630462647,2.998206615447998,-8.484949111938478
186,25600.0,5.321637630462647,2.998206615447998,-8.484949111938478
187,25700.0,6.905685901641847,8.051848411560059,-3.4097721576690674
188,25800.0,6.905685901641847,8.051848411560059,-3.4097721576690674
189,25900.0,6.905685901641847,8.051848411560059,-3.4097721576690674
190,26000.0,1.6941183805465698,10.437491416931152,1.4045867919921875
191,26100.0,1.6941183805465698,10.437491416931152,1.4045867919921875
192,26200.0,-0.6747759580612183,4.438685894012451,-1.428515076637268
193,26300.0,-0.6747759580612183,4.438685894012451,-1.428515076637268
194,26400.0,12.260822296142578,11.31565761566162,-12.04068374633789
195,26500.0,12.260822296142578,11.31565761566162,-12.04068374633789
196,26600.0,1.4739787578582764,4.677968502044678,-7.22871732711792
197,26700.0,1.4739787578582764,4.677968502044678,-7.22871732711792
198,26800.0,4.6372904777526855,10.846665382385254,3.103491306304932
199,26900.0,4.6372904777526855,10.846665382385254,3.103491306304932
200,27000.0,7.776673316955566,14.603395462036133,4.65643310546875
201,27100.0,7.776673316955566,14.603395462036133,4.65643310546875
202,27200.0,7.776673316955566,14.603395462036133,4.65643310546875
203,27300.0,-0.6460621356964111,9.671788215637207,6.821937084197997
204,27400.0,-0.6460621356964111,9.671788215637207,6.821937084197997
205,27500.0,-1.804188132286072,3.3762726783752437,-3.1130621433258057
206,27600.0,-1.804188132286072,3.3762726783752437,-3.1130621433258057
207,27700.0,-1.804188132286072,3.3762726783752437,-3.1130621433258057
208,27800.0,5.422136306762695,11.95932674407959,-10.750951766967773
209,27900.0,5.422136306762695,11.95932674407959,-10.750951766967773
210,28000.0,3.177668571472168,3.160918712615967,-8.657232284545897
211,28100.0,3.177668571472168,3.160918712615967,-8.657232284545897
212,28200.0,3.747160196304321,3.44327163696289,-8.379664421081543
213,28300.0,3.747160196304321,3.44327163696289,-8.379664421081543
214,28400.0,3.747160196304321,3.44327163696289,-8.379664421081543
215,28500.0,4.225724697113037,2.9814569950103764,-8.133204460144043
216,28600.0,4.225724697113037,2.9814569950103764,-8.133204460144043
217,28700.0,4.321437358856201,2.057827472686768,-8.221738815307617
218,28800.0,4.321437358856201,2.057827472686768,-8.221738815307617
219,28900.0,4.522434711456299,4.680361270904541,-6.106483459472656
220,29000.0,4.522434711456299,4.680361270904541,-6.106483459472656
221,29100.0,4.522434711456299,4.680361270904541,-6.106483459472656
222,29200.0,5.819344997406006,7.338787078857423,-6.494120597839356
223,29300.0,5.819344997406006,7.338787078857423,-6.494120597839356
224,29400.0,2.3736801147460938,1.8903299570083616,-11.758330345153807
225,29500.0,2.3736801147460938,1.8903299570083616,-11.758330345153807
226,29600.0,1.1581261157989502,7.99681282043457,-1.4261221885681152
227,29700.0,1.1581261157989502,7.99681282043457,-1.4261221885681152
228,29800.0,0.97148597240448,10.226923942565918,-7.7599239349365225
229,29900.0,0.97148597240448,10.226923942565918,-7.7599239349365225
230,30000.0,0.97148597240448,10.226923942565918,-7.7599239349365225
231,30100.0,-2.3162522315979004,7.877171993255615,-5.347958564758301
232,30200.0,-2.3162522315979004,7.877171993255615,-5.347958564758301
233,30300.0,-3.6323046684265137,-1.9764715433120728,-7.862814903259277
234,30400.0,-3.6323046684265137,-1.9764715433120728,-7.862814903259277
235,30500.0,-3.6323046684265137,-1.9764715433120728,-7.862814903259277
236,30600.0,-2.6560330390930176,-1.3328022956848145,-7.487142086029053
237,30700.0,-2.6560330390930176,-1.3328022956848145,-7.487142086029053
238,30800.0,-4.163511276245116,-0.7489535212516785,-8.853443145751953
239,30900.0,-4.163511276245116,-0.7489535212516785,-8.853443145751953
240,31000.0,-3.565305471420288,4.170689582824707,-8.484949111938478
241,31100.0,-3.565305471420288,4.170689582824707,-8.484949111938478
242,31200.0,-3.565305471420288,4.170689582824707,-8.484949111938478
243,31300.0,-10.85862922668457,1.0959126949310305,-2.3234307765960693
244,31400.0,-10.85862922668457,1.0959126949310305,-2.3234307765960693
245,31500.0,-2.364108800888061,0.1627119481563568,-4.807180881500244
246,31600.0,-2.364108800888061,0.1627119481563568,-4.807180881500244
247,31700.0,2.335394859313965,0.2416750937700272,-9.712467193603516
248,31800.0,2.335394859313965,0.2416750937700272,-9.712467193603516
249,31900.0,7.111469268798827,-3.6011981964111333,-10.932806968688963
250,32000.0,7.111469268798827,-3.6011981964111333,-10.932806968688963
251,32100.0,7.111469268798827,-3.6011981964111333,-10.932806968688963
252,32200.0,2.2157537937164307,5.187639236450195,-8.669197082519531
253,32300.0,2.2157537937164307,5.187639236450195,-8.669197082519531
254,32400.0,4.4506497383117685,3.2207393646240234,-11.023734092712402
255,32500.0,4.4506497383117685,3.2207393646240234,-11.023734092712402
256,32600.0,5.0201416015625,3.589233875274658,-7.190432548522949
257,32700.0,5.0201416015625,3.589233875274658,-7.190432548522949
258,32800.0,5.0201416015625,3.589233875274658,-7.190432548522949
259,32900.0,5.359922409057617,1.6103696823120115,-7.822136878967285
260,33000.0,5.359922409057617,1.6103696823120115,-7.822136878967285
261,33100.0,4.747360229492188,3.620340585708618,-7.814958095550537
262,33200.0,4.747360229492188,3.620340585708618,-7.814958095550537
263,33300.0,4.53200626373291,2.739781856536865,-7.920242786407472
264,33400.0,4.53200626373291,2.739781856536865,-7.920242786407472
265,33500.0,4.53200626373291,2.739781856536865,-7.920242786407472
266,33600.0,4.5032920837402335,2.6632115840911865,-8.145168304443361
267,33700.0,4.5032920837402335,2.6632115840911865,-8.145168304443361
268,33800.0,4.599005222320557,2.9838497638702397,-8.334200859069824
269,33900.0,4.599005222320557,2.9838497638702397,-8.334200859069824
270,34000.0,4.599005222320557,2.9838497638702397,-8.334200859069824
271,34100.0,3.5365920066833496,1.392622709274292,-8.623733520507812
272,34200.0,3.5365920066833496,1.392622709274292,-8.623733520507812
273,34300.0,3.996013641357422,-2.057827472686768,-8.358129501342772
274,34400.0,3.996013641357422,-2.057827472686768,-8.358129501342772
275,34500.0,4.867001533508301,0.2105683833360672,-6.920042991638184
276,34600.0,4.867001533508301,0.2105683833360672,-6.920042991638184
277,34700.0,4.867001533508301,0.2105683833360672,-6.920042991638184
278,34800.0,1.4548362493515017,9.078369140625,-4.953143119812012
279,34900.0,1.4548362493515017,9.078369140625,-4.953143119812012
280,35000.0,7.427321434020996,8.271987915039062,-4.551148891448975
281,35100.0,7.427321434020996,8.271987915039062,-4.551148891448975
282,35200.0,5.737988471984862,6.946363925933838,-1.2921242713928225
283,35300.0,5.737988471984862,6.946363925933838,-1.2921242713928225
284,35400.0,5.718846321105957,9.55214786529541,-0.4666004180908203
285,35500.0,5.718846321105957,9.55214786529541,-0.4666004180908203
286,35600.0,5.718846321105957,9.55214786529541,-0.4666004180908203
287,35700.0,6.183053970336914,5.218745708465576,-4.194617748260498
288,35800.0,6.183053970336914,5.218745708465576,-4.194617748260498
289,35900.0,6.082554817199707,6.766902446746826,-2.132004976272583
290,36000.0,6.082554817199707,6.766902446746826,-2.132004976272583
291,36100.0,5.31685209274292,5.9198431968688965,-1.804188132286072
292,36200.0,5.31685209274292,5.9198431968688965,-1.804188132286072
293,36300.0,5.31685209274292,5.9198431968688965,-1.804188132286072
294,36400.0,7.843672752380371,6.836294651031494,-2.380858421325684
295,36500.0,7.843672752380371,6.836294651031494,-2.380858421325684
296,36600.0,7.929814338684082,6.262016773223878,-2.2253248691558842
297,36700.0,7.929814338684082,6.262016773223878,-2.2253248691558842
298,36800.0,7.929814338684082,6.262016773223878,-2.2253248691558842
299,36900.0,7.049255847930907,5.465207099914551,-3.081955671310425
300,37000.0,7.049255847930907,5.465207099914551,-3.081955671310425
301,37100.0,6.781259536743164,6.697510242462157,-2.723031997680664
302,37200.0,6.781259536743164,6.697510242462157,-2.723031997680664
303,37300.0,6.32662296295166,5.946164608001709,-3.8668015003204346
304,37400.0,6.32662296295166,5.946164608001709,-3.8668015003204346
305,37500.0,4.776073932647705,5.438885688781738,-4.1180477142333975
306,37600.0,4.776073932647705,5.438885688781738,-4.1180477142333975
307,37700.0,4.776073932647705,5.438885688781738,-4.1180477142333975
308,37800.0,6.824329853057861,6.51326322555542,-3.936193227767944
309,37900.0,6.824329853057861,6.51326322555542,-3.936193227767944
310,38000.0,6.752545356750487,5.496313571929932,-4.2759737968444815
311,38100.0,6.752545356750487,5.496313571929932,-4.2759737968444815
312,38200.0,6.910471439361572,5.362315654754639,-3.433700561523437
313,38300.0,6.910471439361572,5.362315654754639,-3.433700561523437
314,38400.0,6.910471439361572,5.362315654754639,-3.433700561523437
315,38500.0,7.3124656677246085,5.285745620727539,-3.8500516414642334
316,38600.0,7.3124656677246085,5.285745620727539,-3.8500516414642334
317,38700.0,7.178467750549316,4.613362312316895,-4.180261135101318
318,38800.0,7.178467750549316,4.613362312316895,-4.180261135101318
319,38900.0,7.685746192932129,5.816952228546143,-3.88594388961792
320,39000.0,7.685746192932129,5.816952228546143,-3.88594388961792
321,39100.0,7.685746192932129,5.816952228546143,-3.88594388961792
322,39200.0,6.881758213043213,4.5032920837402335,-3.6514470577239986
323,39300.0,6.881758213043213,4.5032920837402335,-3.6514470577239986
324,39400.0,7.647461414337157,4.852644443511963,-4.515256404876709
325,39500.0,7.647461414337157,4.852644443511963,-4.515256404876709
326,39600.0,7.647461414337157,4.852644443511963,-4.515256404876709
327,39700.0,7.269395351409912,4.426721572875977,-4.084547996520996
328,39800.0,7.269395351409912,4.426721572875977,-4.084547996520996
329,39900.0,7.518248558044434,4.366901397705078,-4.642076015472412
330,40000.0,7.518248558044434,4.366901397705078,-4.642076015472412
331,40100.0,7.23589563369751,5.661418437957764,-5.66620397567749
332,40200.0,7.23589563369751,5.661418437957764,-5.66620397567749
333,40300.0,7.23589563369751,5.661418437957764,-5.66620397567749
334,40400.0,3.90987229347229,6.51326322555542,-3.936193227767944
335,40500.0,3.90987229347229,6.51326322555542,-3.936193227767944
336,40600.0,1.2346963882446291,7.255037784576416,-1.2370892763137815
337,40700.0,1.2346963882446291,7.255037784576416,-1.2370892763137815
338,40800.0,10.054640769958496,9.51386260986328,-2.778067111968994
339,40900.0,10.054640769958496,9.51386260986328,-2.778067111968994
340,41000.0,10.054640769958496,9.51386260986328,-2.778067111968994
341,41100.0,4.163511276245116,7.22153902053833,-3.8261232376098633
342,41200.0,4.163511276245116,7.22153902053833,-3.8261232376098633
343,41300.0,5.345565319061278,6.845865249633789,-4.6061835289001465
344,41400.0,5.345565319061278,6.845865249633789,-4.6061835289001465
345,41500.0,5.345565319061278,6.845865249633789,-4.6061835289001465
346,41600.0,4.986642360687256,7.913064479827881,-4.189832210540772
347,41700.0,4.986642360687256,7.913064479827881,-4.189832210540772
348,41800.0,4.962714195251465,7.037291049957275,-4.309473514556885
349,41900.0,4.962714195251465,7.037291049957275,-4.309473514556885
350,42000.0,4.780859470367432,7.41535758972168,-4.280759334564209
351,42100.0,4.780859470367432,7.41535758972168,-4.280759334564209
352,42200.0,4.780859470367432,7.41535758972168,-4.280759334564209
353,42300.0,5.024927616119385,7.451249599456787,-4.1587257385253915
354,42400.0,5.024927616119385,7.451249599456787,-4.1587257385253915
355,42500.0,5.0201416015625,7.817351341247559,-4.357330322265625
356,42600.0,5.0201416015625,7.817351341247559,-4.357330322265625
357,42700.0,5.0201416015625,7.817351341247559,-4.357330322265625
358,42800.0,6.2117671966552725,6.266802310943604,-4.840680122375488
359,42900.0,6.2117671966552725,6.266802310943604,-4.840680122375488
360,43000.0,5.651846885681152,0.28953152894973755,-8.324630737304688
361,43100.0,5.651846885681152,0.28953152894973755,-8.324630737304688
362,43200.0,6.853044033050537,-3.9744782447814937,-8.176274299621582
363,43300.0,6.853044033050537,-3.9744782447814937,-8.176274299621582
364,43400.0,6.853044033050537,-3.9744782447814937,-8.176274299621582
365,43500.0,4.790431022644043,0.10049854964017868,-6.845865249633789
366,43600.0,4.790431022644043,0.10049854964017868,-6.845865249633789
367,43700.0,3.192025184631348,-2.053041696548462,-8.738588333129883
368,43800.0,3.192025184631348,-2.053041696548462,-8.738588333129883
369,43900.0,3.192025184631348,-2.053041696548462,-8.738588333129883
370,44000.0,6.790830135345459,-2.4502503871917725,-10.442277908325195
371,44100.0,6.790830135345459,-2.4502503871917725,-10.442277908325195
372,44200.0,3.2542388439178467,3.603590488433838,-6.350551128387451
373,44300.0,3.2542388439178467,3.603590488433838,-6.350551128387451
374,44400.0,5.1637115478515625,2.038684844970703,-7.590033531188965
375,44500.0,5.1637115478515625,2.038684844970703,-7.590033531188965
376,44600.0,5.1637115478515625,2.038684844970703,-7.590033531188965
377,44700.0,7.140182495117188,7.960920810699463,-4.7234320640563965
378,44800.0,7.140182495117188,7.960920810699463,-4.7234320640563965
379,44900.0,2.5555346012115483,9.896714210510254,-1.9908283948898315
380,45000.0,2.5555346012115483,9.896714210510254,-1.9908283948898315
381,45100.0,0.7226324081420898,7.104290962219237,-1.8065810203552248
382,45200.0,0.7226324081420898,7.104290962219237,-1.8065810203552248
383,45300.0,0.7226324081420898,7.104290962219237,-1.8065810203552248
384,45400.0,0.3302095234394073,5.764309883117676,-6.434299945831299
385,45500.0,0.3302095234394073,5.764309883117676,-6.434299945831299
386,45600.0,3.249453067779541,2.7589242458343506,-9.030512809753418
387,45700.0,3.249453067779541,2.7589242458343506,-9.030512809753418
388,45800.0,4.843072891235352,9.437292098999023,-5.61116886138916
389,45900.0,4.843072891235352,9.437292098999023,-5.61116886138916
390,46000.0,3.90987229347229,7.051648139953612,-3.3786656856536865
391,46100.0,3.90987229347229,7.051648139953612,-3.3786656856536865
392,46200.0,3.90987229347229,7.051648139953612,-3.3786656856536865
393,46300.0,4.383650779724121,8.484949111938478,-4.058227062225342
394,46400.0,4.383650779724121,8.484949111938478,-4.058227062225342
395,46500.0,3.32602334022522,9.339186668395996,0.5886343717575073
396,46600.0,3.32602334022522,9.339186668395996,0.5886343717575073
397,46700.0,4.6851468086242685,7.0133628845214835,7.850851535797119
398,46800.0,4.6851468086242685,7.0133628845214835,7.850851535797119
399,46900.0,4.6851468086242685,7.0133628845214835,7.850851535797119
400,47000.0,8.039883613586426,1.801795244216919,6.2500529289245605
401,47100.0,8.039883613586426,1.801795244216919,6.2500529289245605
402,47200.0,3.259024381637573,8.573483467102049,7.0133628845214835
403,47300.0,3.259024381637573,8.573483467102049,7.0133628845214835
404,47400.0,3.617947816848755,7.618747234344482,-1.0695916414260864
405,47500.0,3.617947816848755,7.618747234344482,-1.0695916414260864
406,47600.0,3.617947816848755,7.618747234344482,-1.0695916414260864
407,47700.0,9.17886734008789,2.4909284114837646,-3.034099102020264
408,47800.0,9.17886734008789,2.4909284114837646,-3.034099102020264
409,47900.0,7.39860725402832,2.4670000076293945,-6.458228588104247
410,48000.0,7.39860725402832,2.4670000076293945,-6.458228588104247
411,48100.0,8.159524917602539,2.665604591369629,-4.752145767211914
412,48200.0,8.159524917602539,2.665604591369629,-4.752145767211914
413,48300.0,8.159524917602539,2.665604591369629,-4.752145767211914
414,48400.0,8.236095428466799,2.9527432918548584,-4.90528678894043
415,48500.0,8.236095428466799,2.9527432918548584,-4.90528678894043
416,48600.0,8.839086532592773,2.445464611053467,-4.536791324615479
417,48700.0,8.839086532592773,2.445464611053467,-4.536791324615479
418,48800.0,8.839086532592773,2.445464611053467,-4.536791324615479
419,48900.0,7.4081788063049325,7.6833534240722665,-2.493321180343628
420,49000.0,7.4081788063049325,7.6833534240722665,-2.493321180343628
421,49100.0,7.877171993255615,6.922436237335205,-1.588834285736084
422,49200.0,7.877171993255615,6.922436237335205,-1.588834285736084
423,49300.0,7.389035701751709,5.965306758880615,-3.2614171504974365
424,49400.0,7.389035701751709,5.965306758880615,-3.2614171504974365
425,49500.0,7.030113220214844,6.364907741546631,-4.797609329223633
426,49600.0,7.030113220214844,6.364907741546631,-4.797609329223633
427,49700.0,3.641876220703125,6.685546875,-4.175475597381592
428,49800.0,3.641876220703125,6.685546875,-4.175475597381592
429,49900.0,3.641876220703125,6.685546875,-4.175475597381592
430,50000.0,2.9288151264190674,7.365108013153076,-5.197210788726807
431,50100.0,2.9288151264190674,7.365108013153076,-5.197210788726807
432,50200.0,3.1058835983276367,9.856036186218262,-4.2376885414123535
433,50300.0,3.1058835983276367,9.856036186218262,-4.2376885414123535
434,50400.0,0.12442677468061447,8.12123966217041,-5.615954875946045
435,50500.0,0.12442677468061447,8.12123966217041,-5.615954875946045
436,50600.0,-2.8713872432708736,6.98704195022583,-5.568098068237305
437,50700.0,-2.8713872432708736,6.98704195022583,-5.568098068237305
438,50800.0,-2.8713872432708736,6.98704195022583,-5.568098068237305
439,50900.0,-2.1391832828521733,5.9533424377441415,-5.824130058288574
440,51000.0,-2.1391832828521733,5.9533424377441415,-5.824130058288574
441,51100.0,-5.594419479370117,7.0923261642456055,-4.512863159179688
442,51200.0,-5.594419479370117,7.0923261642456055,-4.512863159179688
443,51300.0,-2.8187451362609863,9.121439933776855,-5.709274768829347
444,51400.0,-2.8187451362609863,9.121439933776855,-5.709274768829347
445,51500.0,-2.8187451362609863,9.121439933776855,-5.709274768829347
446,51600.0,-1.2299107313156128,8.298308372497559,-2.8977081775665283
447,51700.0,-1.2299107313156128,8.298308372497559,-2.8977081775665283
448,51800.0,-1.6701902151107788,7.097111701965332,-3.0101709365844727
449,51900.0,-1.6701902151107788,7.097111701965332,-3.0101709365844727
450,52000.0,-2.526820659637451,6.503692150115968,-8.291130065917969
451,52100.0,-2.526820659637451,6.503692150115968,-8.291130065917969
452,52200.0,-2.526820659637451,6.503692150115968,-8.291130065917969
453,52300.0,-2.522034883499145,4.441079139709473,-8.090132713317871
454,52400.0,-2.522034883499145,4.441079139709473,-8.090132713317871
455,52500.0,-4.144368648529054,4.974678039550781,-8.154739379882812
456,52600.0,-4.144368648529054,4.974678039550781,-8.154739379882812
457,52700.0,-4.8095736503601065,5.520241737365723,-7.590033531188965
458,52800.0,-4.8095736503601065,5.520241737365723,-7.590033531188965
459,52900.0,-8.590232849121094,3.0388848781585693,-2.9766712188720703
460,53000.0,-8.590232849121094,3.0388848781585693,-2.9766712188720703
461,53100.0,-3.292524099349976,2.021935224533081,-4.252045631408691
462,53200.0,-3.292524099349976,2.021935224533081,-4.252045631408691
463,53300.0,-3.292524099349976,2.021935224533081,-4.252045631408691
464,53400.0,13.97408390045166,-2.25403904914856,-13.619946479797365
465,53500.0,13.97408390045166,-2.25403904914856,-13.619946479797365
466,53600.0,4.5032920837402335,6.525227069854736,-8.944371223449707
467,53700.0,4.5032920837402335,6.525227069854736,-8.944371223449707
468,53800.0,4.5032920837402335,6.525227069854736,-8.944371223449707
469,53900.0,2.775674343109131,8.554340362548826,-8.394021987915039
470,54000.0,2.775674343109131,8.554340362548826,-8.394021987915039
471,54100.0,5.871986389160156,4.390829563140868,-5.228317260742188
472,54200.0,5.871986389160156,4.390829563140868,-5.228317260742188
473,54300.0,5.828916072845459,2.146361827850342,-7.056434154510497
474,54400.0,5.828916072845459,2.146361827850342,-7.056434154510497
475,54500.0,3.929014682769776,6.7142601013183585,-5.209175109863281
476,54600.0,3.929014682769776,6.7142601013183585,-5.209175109863281
477,54700.0,3.929014682769776,6.7142601013183585,-5.209175109863281
478,54800.0,7.154539585113525,6.1878395080566415,-4.498506546020508
479,54900.0,7.154539585113525,6.1878395080566415,-4.498506546020508
480,55000.0,3.3930225372314453,3.462414264678955,-8.142775535583496
481,55100.0,3.3930225372314453,3.462414264678955,-8.142775535583496
482,55200.0,6.302694320678711,0.6675975918769836,-12.519248008728027
483,55300.0,6.302694320678711,0.6675975918769836,-12.519248008728027
484,55400.0,6.302694320678711,0.6675975918769836,-12.519248008728027
485,55500.0,7.3124656677246085,2.2205395698547363,-6.632904052734375
486,55600.0,7.3124656677246085,2.2205395698547363,-6.632904052734375
487,55700.0,6.087340831756593,-0.1746760606765747,-9.20997428894043
488,55800.0,6.087340831756593,-0.1746760606765747,-9.20997428894043
489,55900.0,5.048855781555176,2.411965131759644,-5.948556900024414
490,56000.0,5.048855781555176,2.411965131759644,-5.948556900024414
491,56100.0,5.814558982849121,0.5359922647476196,-7.8867435455322275
492,56200.0,5.814558982849121,0.5359922647476196,-7.8867435455322275
493,56300.0,5.814558982849121,0.5359922647476196,-7.8867435455322275
494,56400.0,5.766702175140381,0.662811815738678,-8.142775535583496
495,56500.0,5.766702175140381,0.662811815738678,-8.142775535583496
496,56600.0,5.1732821464538565,0.3565305471420288,-8.145168304443361
497,56700.0,5.1732821464538565,0.3565305471420288,-8.145168304443361
498,56800.0,5.1732821464538565,0.3565305471420288,-8.145168304443361
499,56900.0,5.72841739654541,1.3782659769058228,-7.446464061737059
500,57000.0,5.72841739654541,1.3782659769058228,-7.446464061737059
501,57100.0,5.757131576538086,1.4021940231323242,-7.7048888206481925
502,57200.0,5.757131576538086,1.4021940231323242,-7.7048888206481925
503,57300.0,6.709475040435791,2.0003998279571533,-7.948956489562987
504,57400.0,6.709475040435791,2.0003998279571533,-7.948956489562987
505,57500.0,4.603790760040283,0.916451096534729,-7.963313579559326
506,57600.0,4.603790760040283,0.916451096534729,-7.963313579559326
507,57700.0,4.603790760040283,0.916451096534729,-7.963313579559326
508,57800.0,4.584648132324219,0.6197410225868225,-6.6903319358825675
509,57900.0,4.584648132324219,0.6197410225868225,-6.6903319358825675
510,58000.0,5.632704257965088,1.5744771957397459,-8.188239097595215
511,58100.0,5.632704257965088,1.5744771957397459,-8.188239097595215
512,58200.0,4.95792818069458,1.3782659769058228,-8.145168304443361
513,58300.0,4.95792818069458,1.3782659769058228,-8.145168304443361
514,58400.0,4.986642360687256,-0.7896314859390259,-8.60459041595459
515,58500.0,4.986642360687256,-0.7896314859390259,-8.60459041595459
516,58600.0,4.220939159393311,-0.26560330390930176,-9.274580955505373
517,58700.0,4.220939159393311,-0.26560330390930176,-9.274580955505373
518,58800.0,4.220939159393311,-0.26560330390930176,-9.274580955505373
519,58900.0,4.67078971862793,-0.19142580032348636,-8.492127418518066
520,59000.0,4.67078971862793,-0.19142580032348636,-8.492127418518066
521,59100.0,3.9529430866241455,-0.26560330390930176,-9.66221809387207
522,59200.0,3.9529430866241455,-0.26560330390930176,-9.66221809387207
523,59300.0,4.929214477539063,0.9738788008689879,-9.31765079498291
524,59400.0,4.929214477539063,0.9738788008689879,-9.31765079498291
525,59500.0,6.417550563812256,-0.0813559740781784,-6.618547439575195
526,59600.0,6.417550563812256,-0.0813559740781784,-6.618547439575195
527,59700.0,5.623133182525635,2.021935224533081,-6.295516490936278
528,59800.0,5.623133182525635,2.021935224533081,-6.295516490936278
529,59900.0,5.623133182525635,2.021935224533081,-6.295516490936278
530,60000.0,2.1104695796966557,11.164910316467283,-6.216552734375
531,60100.0,2.1104695796966557,11.164910316467283,-6.216552734375
532,60200.0,10.791629791259766,1.8664016723632808,-1.5601203441619873
533,60300.0,10.791629791259766,1.8664016723632808,-1.5601203441619873
534,60400.0,7.901099681854247,6.4869422912597665,-3.34995174407959
535,60500.0,7.901099681854247,6.4869422912597665,-3.34995174407959
536,60600.0,7.901099681854247,6.4869422912597665,-3.34995174407959
537,60700.0,7.905886173248291,5.175675392150879,-0.18185453116893768
538,60800.0,7.905886173248291,5.175675392150879,-0.18185453116893768
539,60900.0,7.8867435455322275,13.782659530639648,1.5912269353866575
540,61000.0,7.8867435455322275,13.782659530639648,1.5912269353866575
541,61100.0,7.8867435455322275,13.782659530639648,1.5912269353866575
542,61200.0,5.034498691558838,2.943171739578247,-5.280959606170653
543,61300.0,5.034498691558838,2.943171739578247,-5.280959606170653
544,61400.0,11.155338287353516,-0.0933200791478157,-11.98564910888672
545,61500.0,11.155338287353516,-0.0933200791478157,-11.98564910888672
546,61600.0,8.920442581176758,1.179661512374878,-6.805188179016112
547,61700.0,8.920442581176758,1.179661512374878,-6.805188179016112
548,61800.0,4.747360229492188,2.6560330390930176,-4.429114818572998
549,61900.0,4.747360229492188,2.6560330390930176,-4.429114818572998
550,62000.0,4.747360229492188,2.6560330390930176,-4.429114818572998
551,62100.0,3.689732551574707,11.576476097106935,2.931207656860352
552,62200.0,3.689732551574707,11.576476097106935,2.931207656860352
553,62300.0,9.016156196594238,6.7860450744628915,-0.15314064919948578
554,62400.0,9.016156196594238,6.7860450744628915,-0.15314064919948578
555,62500.0,8.193024635314941,6.10169792175293,-1.0049854516983032
556,62600.0,8.193024635314941,6.10169792175293,-1.0049854516983032
557,62700.0,8.193024635314941,6.10169792175293,-1.0049854516983032
558,62800.0,7.805387496948242,6.132804393768311,-1.8855443000793457
559,62900.0,7.805387496948242,6.132804393768311,-1.8855443000793457
560,63000.0,7.690531730651855,6.0299134254455575,-1.093519926071167
561,63100.0,7.690531730651855,6.0299134254455575,-1.093519926071167
562,63200.0,7.795816421508789,5.697310447692871,-0.8542376756668091
563,63300.0,7.795816421508789,5.697310447692871,-0.8542376756668091
564,63400.0,7.795816421508789,5.697310447692871,-0.8542376756668091
565,63500.0,7.795816421508789,5.929414749145508,-0.6532405614852905
566,63600.0,7.795816421508789,5.929414749145508,-0.6532405614852905
567,63700.0,7.661818027496338,5.785844802856445,-0.6340980529785156
568,63800.0,7.661818027496338,5.785844802856445,-0.6340980529785156
569,63900.0,7.695317268371582,5.838487148284912,-0.607776939868927
570,64000.0,7.695317268371582,5.838487148284912,-0.607776939868927
571,64100.0,7.695317268371582,5.838487148284912,-0.607776939868927
572,64200.0,7.814958095550537,5.965306758880615,-0.5359922647476196
573,64300.0,7.814958095550537,5.965306758880615,-0.5359922647476196
574,64400.0,7.848458290100098,6.1256256103515625,-0.4977070987224579
575,64500.0,7.848458290100098,6.1256256103515625,-0.4977070987224579
576,64600.0,8.599804878234862,5.209175109863281,-0.7968099117279053
577,64700.0,8.599804878234862,5.209175109863281,-0.7968099117279053
578,64800.0,8.599804878234862,5.209175109863281,-0.7968099117279053
579,64900.0,8.00638484954834,4.797609329223633,-0.7680960297584534
580,65000.0,8.00638484954834,4.797609329223633,-0.7680960297584534
581,65100.0,9.418149948120117,3.627518892288208,-1.3495519161224363
582,65200.0,9.418149948120117,3.627518892288208,-1.3495519161224363
583,65300.0,9.418149948120117,3.627518892288208,-1.3495519161224363
584,65400.0,9.011369705200195,3.5964124202728267,-1.0671988725662231
585,65500.0,9.011369705200195,3.5964124202728267,-1.0671988725662231
586,65600.0,9.365508079528807,4.914857387542725,-1.526620864868164
587,65700.0,9.365508079528807,4.914857387542725,-1.526620864868164
588,65800.0,8.140382766723633,5.594419479370117,-1.239482045173645
589,65900.0,8.140382766723633,5.594419479370117,-1.239482045173645
590,66000.0,6.719045639038086,5.352744102478027,-3.622733592987061
591,66100.0,6.719045639038086,5.352744102478027,-3.622733592987061
592,66200.0,6.719045639038086,5.352744102478027,-3.622733592987061
593,66300.0,8.504091262817383,6.20219612121582,-2.390429735183716
594,66400.0,8.504091262817383,6.20219612121582,-2.390429735183716
595,66500.0,8.24566650390625,6.017949104309082,-3.2518460750579834
596,66600.0,8.24566650390625,6.017949104309082,-3.2518460750579834
597,66700.0,4.666004180908203,7.410572052001952,-2.117647886276245
598,66800.0,4.666004180908203,7.410572052001952,-2.117647886276245
599,66900.0,3.1537401676177983,6.058626651763916,-0.5000999569892883
600,67000.0,3.1537401676177983,6.058626651763916,-0.5000999569892883
601,67100.0,11.667403221130373,9.956534385681152,-1.093519926071167
602,67200.0,11.667403221130373,9.956534385681152,-1.093519926071167
603,67300.0,4.570291519165039,6.288337707519531,-4.084547996520996
604,67400.0,4.570291519165039,6.288337707519531,-4.084547996520996
605,67500.0,4.321437358856201,7.008577823638916,-5.01296329498291
606,67600.0,4.321437358856201,7.008577823638916,-5.01296329498291
607,67700.0,4.321437358856201,7.008577823638916,-5.01296329498291
608,67800.0,5.024927616119385,5.345565319061278,-4.929214477539063
609,67900.0,5.024927616119385,5.345565319061278,-4.929214477539063
610,68000.0,6.116055011749268,6.374479293823242,-4.579862117767334
611,68100.0,6.116055011749268,6.374479293823242,-4.579862117767334
612,68200.0,6.116055011749268,6.374479293823242,-4.579862117767334
613,68300.0,6.733402729034424,6.307480335235597,-4.948357105255127
614,68400.0,6.733402729034424,6.307480335235597,-4.948357105255127
615,68500.0,6.010770320892334,7.36032247543335,-5.943771839141847
616,68600.0,6.010770320892334,7.36032247543335,-5.943771839141847
617,68700.0,3.2159535884857178,5.465207099914551,-5.161318302154541
618,68800.0,3.2159535884857178,5.465207099914551,-5.161318302154541
619,68900.0,5.881557941436768,1.1868400573730469,-6.5659050941467285
620,69000.0,5.881557941436768,1.1868400573730469,-6.5659050941467285
621,69100.0,6.1878395080566415,2.4574286937713623,-7.6737823486328125
622,69200.0,6.1878395080566415,2.4574286937713623,-7.6737823486328125
623,69300.0,6.1878395080566415,2.4574286937713623,-7.6737823486328125
624,69400.0,5.331209182739258,0.4905286431312561,-8.72662353515625
625,69500.0,5.331209182739258,0.4905286431312561,-8.72662353515625
626,69600.0,5.120640754699707,0.9236294627189636,-7.8460655212402335
627,69700.0,5.120640754699707,0.9236294627189636,-7.8460655212402335
628,69800.0,5.120640754699707,0.9236294627189636,-7.8460655212402335
629,69900.0,4.225724697113037,1.0528419017791748,-7.451249599456787
630,70000.0,4.225724697113037,1.0528419017791748,-7.451249599456787
631,70100.0,5.565705299377441,-0.7680960297584534,-8.843873023986816
632,70200.0,5.565705299377441,-0.7680960297584534,-8.843873023986816
633,70300.0,6.661618232727051,-0.34695929288864136,-7.77188777923584
634,70400.0,6.661618232727051,-0.34695929288864136,-7.77188777923584
635,70500.0,5.862415313720702,-0.2632104754447937,-5.359922409057617
636,70600.0,5.862415313720702,-0.2632104754447937,-5.359922409057617
637,70700.0,5.862415313720702,-0.2632104754447937,-5.359922409057617
638,70800.0,6.130411148071289,0.05024927482008934,-6.178267955780028
639,70900.0,6.130411148071289,0.05024927482008934,-6.178267955780028
640,71000.0,4.852644443511963,3.687339782714844,-7.197610855102539
641,71100.0,4.852644443511963,3.687339782714844,-7.197610855102539
642,71200.0,4.852644443511963,3.687339782714844,-7.197610855102539
643,71300.0,5.642275810241699,2.4335007667541504,-7.147361278533936
644,71400.0,5.642275810241699,2.4335007667541504,-7.147361278533936
645,71500.0,6.044269561767577,2.75174617767334,-7.075576305389403
646,71600.0,6.044269561767577,2.75174617767334,-7.075576305389403
647,71700.0,5.996413230895996,3.206382274627685,-7.345965385437013
648,71800.0,5.996413230895996,3.206382274627685,-7.345965385437013
649,71900.0,5.996413230895996,3.206382274627685,-7.345965385437013
650,72000.0,5.742774486541747,3.8955152034759517,-5.917449951171875
651,72100.0,5.742774486541747,3.8955152034759517,-5.917449951171875
652,72200.0,6.317051887512207,10.17906665802002,-1.919043779373169
653,72300.0,6.317051887512207,10.17906665802002,-1.919043779373169
654,72400.0,6.317051887512207,10.17906665802002,-1.919043779373169
655,72500.0,3.383451223373413,9.841679573059082,-2.0434706211090092
656,72600.0,3.383451223373413,9.841679573059082,-2.0434706211090092
657,72700.0,0.19142580032348636,6.190232276916504,-2.665604591369629
658,72800.0,0.19142580032348636,6.190232276916504,-2.665604591369629
659,72900.0,5.838487148284912,6.31944465637207,-8.807979583740234
660,73000.0,5.838487148284912,6.31944465637207,-8.807979583740234
661,73100.0,3.838087558746338,8.346165657043457,-6.434299945831299
662,73200.0,3.838087558746338,8.346165657043457,-6.434299945831299
663,73300.0,3.962514162063599,7.913064479827881,-5.458028793334961
664,73400.0,3.962514162063599,7.913064479827881,-5.458028793334961
665,73500.0,3.962514162063599,7.913064479827881,-5.458028793334961
666,73600.0,3.493520975112915,7.056434154510497,-4.216153621673584
667,73700.0,3.493520975112915,7.056434154510497,-4.216153621673584
668,73800.0,4.613362312316895,7.099504470825195,-5.017749309539795
669,73900.0,4.613362312316895,7.099504470825195,-5.017749309539795
670,74000.0,4.613362312316895,7.099504470825195,-5.017749309539795
671,74100.0,4.603790760040283,7.082754611968994,-4.807180881500244
672,74200.0,4.603790760040283,7.082754611968994,-4.807180881500244
673,74300.0,4.7712883949279785,7.018148422241211,-4.747360229492188
674,74400.0,4.7712883949279785,7.018148422241211,-4.747360229492188
675,74500.0,5.556134223937988,6.376872539520264,-4.895715236663818
676,74600.0,5.556134223937988,6.376872539520264,-4.895715236663818
677,74700.0,5.556134223937988,6.376872539520264,-4.895715236663818
678,74800.0,6.072984218597412,6.5324058532714835,-5.575276851654053
679,74900.0,6.072984218597412,6.5324058532714835,-5.575276851654053
680,75000.0,6.2500529289245605,5.37188720703125,-4.9914283752441415
681,75100.0,6.2500529289245605,5.37188720703125,-4.9914283752441415
682,75200.0,6.2500529289245605,5.37188720703125,-4.9914283752441415
683,75300.0,5.627918720245361,6.331408977508545,-5.333601474761963
684,75400.0,5.627918720245361,6.331408977508545,-5.333601474761963
685,75500.0,5.819344997406006,5.752345561981201,-5.5274200439453125
686,75600.0,5.819344997406006,5.752345561981201,-5.5274200439453125
687,75700.0,5.1014976501464835,5.704488754272461,-5.706881999969482
688,75800.0,5.1014976501464835,5.704488754272461,-5.706881999969482
689,75900.0,3.469593048095703,10.91127109527588,-2.5914268493652344
690,76000.0,3.469593048095703,10.91127109527588,-2.5914268493652344
691,76100.0,10.092925071716307,6.685546875,-2.148754596710205
692,76200.0,10.092925071716307,6.685546875,-2.148754596710205
693,76300.0,10.092925071716307,6.685546875,-2.148754596710205
694,76400.0,7.073184013366699,7.420143127441406,-1.4356936216354368
695,76500.0,7.073184013366699,7.420143127441406,-1.4356936216354368
696,76600.0,5.522634029388428,8.721837997436522,-2.311466693878174
697,76700.0,5.522634029388428,8.721837997436522,-2.311466693878174
698,76800.0,2.4502503871917725,8.394021987915039,-3.438485860824585
699,76900.0,2.4502503871917725,8.394021987915039,-3.438485860824585
700,77000.0,1.588834285736084,8.762516975402832,-3.053241729736328
701,77100.0,1.588834285736084,8.762516975402832,-3.053241729736328
702,77200.0,1.588834285736084,8.762516975402832,-3.053241729736328
703,77300.0,-0.062213387340307236,9.62393283843994,-4.962714195251465
704,77400.0,-0.062213387340307236,9.62393283843994,-4.962714195251465
705,77500.0,-2.5842485427856445,5.69013261795044,-5.048855781555176
706,77600.0,-2.5842485427856445,5.69013261795044,-5.048855781555176
707,77700.0,-2.5555346012115483,8.334200859069824,-5.642275810241699
708,77800.0,-2.5555346012115483,8.334200859069824,-5.642275810241699
709,77900.0,-4.287938117980957,9.099905014038086,-6.135197162628174
710,78000.0,-4.287938117980957,9.099905014038086,-6.135197162628174
711,78100.0,-4.287938117980957,9.099905014038086,-6.135197162628174
712,78200.0,-5.3551368713378915,2.179861307144165,-4.694717884063722
713,78300.0,-5.3551368713378915,2.179861307144165,-4.694717884063722
714,78400.0,-5.594419479370117,6.498906135559082,-4.187439441680908
715,78500.0,-5.594419479370117,6.498906135559082,-4.187439441680908
716,78600.0,-5.594419479370117,6.498906135559082,-4.187439441680908
717,78700.0,-5.402993679046631,7.5254268646240225,-4.742574691772461
718,78800.0,-5.402993679046631,7.5254268646240225,-4.742574691772461
719,78900.0,-5.225924491882324,4.1659040451049805,-7.908278465270996
720,79000.0,-5.225924491882324,4.1659040451049805,-7.908278465270996
721,79100.0,-4.240081787109375,5.97727108001709,-6.360122680664063
722,79200.0,-4.240081787109375,5.97727108001709,-6.360122680664063
723,79300.0,-4.240081787109375,5.97727108001709,-6.360122680664063
724,79400.0,-4.465007305145264,5.623133182525635,-6.412764549255371
725,79500.0,-4.465007305145264,5.623133182525635,-6.412764549255371
726,79600.0,-3.5844480991363525,3.0077781677246094,-7.379465103149414
727,79700.0,-3.5844480991363525,3.0077781677246094,-7.379465103149414
728,79800.0,-2.675175428390503,5.548955917358398,-8.360522270202638
729,79900.0,-2.675175428390503,5.548955917358398,-8.360522270202638
730,80000.0,-2.675175428390503,5.548955917358398,-8.360522270202638
731,80100.0,-3.230310440063477,6.592226982116699,-7.341179370880128
732,80200.0,-3.230310440063477,6.592226982116699,-7.341179370880128
733,80300.0,-3.9003009796142583,6.747759819030763,-5.218745708465576
734,80400.0,-3.9003009796142583,6.747759819030763,-5.218745708465576
735,80500.0,-2.8187451362609863,0.5335994362831116,-9.707681655883787
736,80600.0,-2.8187451362609863,0.5335994362831116,-9.707681655883787
737,80700.0,-3.9864425659179688,0.26560330390930176,-7.22871732711792
738,80800.0,-3.9864425659179688,0.26560330390930176,-7.22871732711792
739,80900.0,-3.9864425659179688,0.26560330390930176,-7.22871732711792
740,81000.0,-3.9146575927734375,1.636690616607666,-8.645268440246582
741,81100.0,-3.9146575927734375,1.636690616607666,-8.645268440246582
742,81200.0,-1.6797614097595217,7.5469627380371085,-10.226923942565918
743,81300.0,-1.6797614097595217,7.5469627380371085,-10.226923942565918
744,81400.0,-1.6797614097595217,7.5469627380371085,-10.226923942565918
745,81500.0,-4.8574299812316895,5.2115678787231445,-3.2470602989196777
746,81600.0,-4.8574299812316895,5.2115678787231445,-3.2470602989196777
747,81700.0,-4.900500774383545,3.1968109607696533,-3.3475589752197266
748,81800.0,-4.900500774383545,3.1968109607696533,-3.3475589752197266
749,81900.0,-0.9619146585464478,8.85105037689209,-3.840480089187622
750,82000.0,-0.9619146585464478,8.85105037689209,-3.840480089187622
751,82100.0,-0.9619146585464478,8.85105037689209,-3.840480089187622
752,82200.0,4.847858428955078,4.555934429168701,-9.176474571228027
753,82300.0,4.847858428955078,4.555934429168701,-9.176474571228027
754,82400.0,5.096712112426758,7.8819580078125,-5.8097734451293945
755,82500.0,5.096712112426758,7.8819580078125,-5.8097734451293945
756,82600.0,5.096712112426758,7.8819580078125,-5.8097734451293945
757,82700.0,7.848458290100098,4.031906127929688,-7.262216091156006
758,82800.0,7.848458290100098,4.031906127929688,-7.262216091156006
759,82900.0,6.388835906982423,0.8303093910217285,-7.2813591957092285
760,83000.0,6.388835906982423,0.8303093910217285,-7.2813591957092285
761,83100.0,5.757131576538086,5.828916072845459,-5.61116886138916
762,83200.0,5.757131576538086,5.828916072845459,-5.61116886138916
763,83300.0,5.757131576538086,5.828916072845459,-5.61116886138916
764,83400.0,6.556333541870117,6.367300987243652,-4.6372904777526855
765,83500.0,6.556333541870117,6.367300987243652,-4.6372904777526855
766,83600.0,6.561119556427003,4.6923251152038565,-5.709274768829347
767,83700.0,6.561119556427003,4.6923251152038565,-5.709274768829347
768,83800.0,5.436492443084717,5.374279499053955,-3.888336658477783
769,83900.0,5.436492443084717,5.374279499053955,-3.888336658477783
770,84000.0,5.436492443084717,5.374279499053955,-3.888336658477783
771,84100.0,6.1878395080566415,8.073383331298826,-1.8520447015762331
772,84200.0,6.1878395080566415,8.073383331298826,-1.8520447015762331
773,84300.0,6.331408977508545,6.63051176071167,-3.7902309894561768
774,84400.0,6.331408977508545,6.63051176071167,-3.7902309894561768
775,84500.0,6.618547439575195,6.118447780609131,-4.208974838256837
776,84600.0,6.618547439575195,6.118447780609131,-4.208974838256837
777,84700.0,6.451050281524657,5.812166690826416,-4.027120590209962
778,84800.0,6.451050281524657,5.812166690826416,-4.027120590209962
779,84900.0,6.417550563812256,5.821736812591553,-4.893322467803955
780,85000.0,6.417550563812256,5.821736812591553,-4.893322467803955
781,85100.0,6.417550563812256,5.821736812591553,-4.893322467803955
782,85200.0,6.541977405548097,6.183053970336914,-3.7902309894561768
783,85300.0,6.541977405548097,6.183053970336914,-3.7902309894561768
784,85400.0,7.561319828033447,7.180860996246338,-4.089334011077882
785,85500.0,7.561319828033447,7.180860996246338,-4.089334011077882
786,85600.0,5.613561630249023,3.538984537124634,-5.319244384765625
787,85700.0,5.613561630249023,3.538984537124634,-5.319244384765625
788,85800.0,5.613561630249023,3.538984537124634,-5.319244384765625
789,85900.0,6.881758213043213,3.742374420166016,-5.505885124206543
790,86000.0,6.881758213043213,3.742374420166016,-5.505885124206543
791,86100.0,6.9344000816345215,3.617947816848755,-5.419743537902832
792,86200.0,6.9344000816345215,3.617947816848755,-5.419743537902832
793,86300.0,6.9344000816345215,3.617947816848755,-5.419743537902832
794,86400.0,6.905685901641847,3.8979082107543945,-5.680561065673827
795,86500.0,6.905685901641847,3.8979082107543945,-5.680561065673827
796,86600.0,6.781259536743164,4.29750919342041,-5.682953834533691
797,86700.0,6.781259536743164,4.29750919342041,-5.682953834533691
798,86800.0,6.776473522186278,3.103491306304932,-5.367101192474365
799,86900.0,6.776473522186278,3.103491306304932,-5.367101192474365
800,87000.0,6.776473522186278,3.103491306304932,-5.367101192474365
801,87100.0,7.724031925201416,6.235695838928223,-6.460620880126952
802,87200.0,7.724031925201416,6.235695838928223,-6.460620880126952
803,87300.0,3.9720854759216313,2.579463005065918,-6.759723663330077
804,87400.0,3.9720854759216313,2.579463005065918,-6.759723663330077
805,87500.0,10.04985523223877,1.983649969100952,-8.889336585998535
806,87600.0,10.04985523223877,1.983649969100952,-8.889336585998535
807,87700.0,10.04985523223877,1.983649969100952,-8.889336585998535
808,87800.0,8.188239097595215,2.0865414142608643,-7.860422611236572
809,87900.0,8.188239097595215,2.0865414142608643,-7.860422611236572
810,88000.0,4.201796531677246,0.9930213689804076,-10.329815864562988
811,88100.0,4.201796531677246,0.9930213689804076,-10.329815864562988
812,88200.0,7.188039302825928,2.0410776138305664,-5.292923927307129
813,88300.0,7.188039302825928,2.0410776138305664,-5.292923927307129
814,88400.0,6.379265785217285,-1.1940184831619265,-6.350551128387451
815,88500.0,6.379265785217285,-1.1940184831619265,-6.350551128387451
816,88600.0,6.379265785217285,-1.1940184831619265,-6.350551128387451
817,88700.0,6.096912384033202,-0.6029912829399109,-8.327022552490233
818,88800.0,6.096912384033202,-0.6029912829399109,-8.327022552490233
819,88900.0,6.5180487632751465,-0.5934200286865234,-7.987241268157959
820,89000.0,6.5180487632751465,-0.5934200286865234,-7.987241268157959
821,89100.0,4.867001533508301,0.8111668825149536,-7.061219692230225
822,89200.0,4.867001533508301,0.8111668825149536,-7.061219692230225
823,89300.0,4.867001533508301,0.8111668825149536,-7.061219692230225
824,89400.0,5.029713153839111,0.04785645008087158,-7.920242786407472
825,89500.0,5.029713153839111,0.04785645008087158,-7.920242786407472
826,89600.0,4.192224979400635,-0.552742063999176,-8.774479866027832
827,89700.0,4.192224979400635,-0.552742063999176,-8.774479866027832
828,89800.0,4.029513359069823,-0.5670989155769348,-8.965906143188477
829,89900.0,4.029513359069823,-0.5670989155769348,-8.965906143188477
830,90000.0,4.029513359069823,-0.5670989155769348,-8.965906143188477
831,90100.0,3.957728624343872,-0.9906285405158995,-8.015955924987793
832,90200.0,3.957728624343872,-0.9906285405158995,-8.015955924987793
833,90300.0,4.096512317657472,-1.0767701864242554,-9.255437850952148
834,90400.0,4.096512317657472,-1.0767701864242554,-9.255437850952148
835,90500.0,4.096512317657472,-1.0767701864242554,-9.255437850952148
836,90600.0,4.7712883949279785,-0.1938186287879944,-8.47059154510498
837,90700.0,4.7712883949279785,-0.1938186287879944,-8.47059154510498
838,90800.0,3.9529430866241455,-0.8685945868492126,-8.453842163085938
839,90900.0,3.9529430866241455,-0.8685945868492126,-8.453842163085938
840,91000.0,3.943371772766113,-0.22492533922195435,-8.671588897705076
841,91100.0,3.943371772766113,-0.22492533922195435,-8.671588897705076
842,91200.0,4.948357105255127,0.04307081177830696,-8.956335067749023
843,91300.0,4.948357105255127,0.04307081177830696,-8.956335067749023
844,91400.0,4.948357105255127,0.04307081177830696,-8.956335067749023
845,91500.0,2.6847469806671143,-0.1579262912273407,-8.73619556427002
846,91600.0,2.6847469806671143,-0.1579262912273407,-8.73619556427002
847,91700.0,5.800201892852782,-0.17706887423992154,-7.781459331512451
848,91800.0,5.800201892852782,-0.17706887423992154,-7.781459331512451
849,91900.0,4.718646049499512,0.3684946894645691,-5.515456199645996
850,92000.0,4.718646049499512,0.3684946894645691,-5.515456199645996
851,92100.0,3.31166672706604,6.960721015930176,-7.649853706359862
852,92200.0,3.31166672706604,6.960721015930176,-7.649853706359862
853,92300.0,9.111868858337402,1.5481561422348022,-9.30329418182373
854,92400.0,9.111868858337402,1.5481561422348022,-9.30329418182373
855,92500.0,9.111868858337402,1.5481561422348022,-9.30329418182373
856,92600.0,8.087740898132324,4.5678982734680185,-4.0079779624938965
857,92700.0,8.087740898132324,4.5678982734680185,-4.0079779624938965
858,92800.0,7.4608211517333975,6.0610198974609375,-3.603590488433838
859,92900.0,7.4608211517333975,6.0610198974609375,-3.603590488433838
860,93000.0,7.4608211517333975,6.0610198974609375,-3.603590488433838
861,93100.0,4.479363918304443,7.295715808868407,-2.2923240661621094
862,93200.0,4.479363918304443,7.295715808868407,-2.2923240661621094
863,93300.0,9.499505043029783,4.661218643188477,2.610569477081299
864,93400.0,9.499505043029783,4.661218643188477,2.610569477081299
865,93500.0,5.637490272521973,5.402993679046631,3.0652055740356445
866,93600.0,5.637490272521973,5.402993679046631,3.0652055740356445
867,93700.0,5.637490272521973,5.402993679046631,3.0652055740356445
868,93800.0,4.326223373413087,14.90967845916748,3.7328033447265625
869,93900.0,4.326223373413087,14.90967845916748,3.7328033447265625
870,94000.0,7.211967468261719,6.317051887512207,-0.9643075466156006
871,94100.0,7.211967468261719,6.317051887512207,-0.9643075466156006
872,94200.0,9.652647018432617,3.5126638412475586,-1.5984054803848269
873,94300.0,9.652647018432617,3.5126638412475586,-1.5984054803848269
874,94400.0,9.652647018432617,3.5126638412475586,-1.5984054803848269
875,94500.0,8.317451477050781,8.197811126708983,0.1627119481563568
876,94600.0,8.317451477050781,8.197811126708983,0.1627119481563568
877,94700.0,3.646661758422852,6.587440490722656,-3.1752755641937256
878,94800.0,3.646661758422852,6.587440490722656,-3.1752755641937256
879,94900.0,2.210968255996704,6.888936519622803,-3.390629768371582
880,95000.0,2.210968255996704,6.888936519622803,-3.390629768371582
881,95100.0,8.757731437683105,10.676774978637695,2.060220241546631
882,95200.0,8.757731437683105,10.676774978637695,2.060220241546631
883,95300.0,8.757731437683105,10.676774978637695,2.060220241546631
884,95400.0,5.197210788726807,4.182653903961182,-5.481956481933594
885,95500.0,5.197210788726807,4.182653903961182,-5.481956481933594
886,95600.0,5.828916072845459,7.310072898864746,-6.247659683227539
887,95700.0,5.828916072845459,7.310072898864746,-6.247659683227539
888,95800.0,6.216552734375,5.190032482147217,-5.391028881072998
889,95900.0,6.216552734375,5.190032482147217,-5.391028881072998
890,96000.0,6.216552734375,5.190032482147217,-5.391028881072998
891,96100.0,6.082554817199707,5.929414749145508,-4.448256969451903
892,96200.0,6.082554817199707,5.929414749145508,-4.448256969451903
893,96300.0,5.8480587005615225,6.010770320892334,-4.374079704284668
894,96400.0,5.8480587005615225,6.010770320892334,-4.374079704284668
895,96500.0,6.10169792175293,6.190232276916504,-4.7234320640563965
896,96600.0,6.10169792175293,6.190232276916504,-4.7234320640563965
897,96700.0,6.321837425231934,6.26440954208374,-4.800002098083496
898,96800.0,6.321837425231934,6.26440954208374,-4.800002098083496
899,96900.0,6.321837425231934,6.26440954208374,-4.800002098083496
900,97000.0,6.16391134262085,5.917449951171875,-4.632504463195801
901,97100.0,6.16391134262085,5.917449951171875,-4.632504463195801
902,97200.0,6.781259536743164,5.453242778778076,-4.577469348907472
903,97300.0,6.781259536743164,5.453242778778076,-4.577469348907472
904,97400.0,6.781259536743164,5.453242778778076,-4.577469348907472
905,97500.0,7.0540409088134775,5.733203411102295,-5.979663372039795
906,97600.0,7.0540409088134775,5.733203411102295,-5.979663372039795
907,97700.0,4.455435752868652,2.4574286937713623,-7.7455668449401855
908,97800.0,4.455435752868652,2.4574286937713623,-7.7455668449401855
909,97900.0,8.647661209106445,-0.3565305471420288,-6.283552646636963
910,98000.0,8.647661209106445,-0.3565305471420288,-6.283552646636963
911,98100.0,8.647661209106445,-0.3565305471420288,-6.283552646636963
912,98200.0,6.254837989807129,0.7728817462921143,-5.197210788726807
913,98300.0,6.254837989807129,0.7728817462921143,-5.197210788726807
914,98400.0,7.2263240814208975,-2.8713872432708736,-11.904292106628418
915,98500.0,7.2263240814208975,-2.8713872432708736,-11.904292106628418
916,98600.0,2.541177749633789,1.4069796800613403,-8.956335067749023
917,98700.0,2.541177749633789,1.4069796800613403,-8.956335067749023
918,98800.0,7.417750358581543,4.543970108032227,-5.436492443084717
919,98900.0,7.417750358581543,4.543970108032227,-5.436492443084717
920,99000.0,7.417750358581543,4.543970108032227,-5.436492443084717
921,99100.0,5.072784423828125,4.35254430770874,-5.422136306762695
922,99200.0,5.072784423828125,4.35254430770874,-5.422136306762695
923,99300.0,6.757331371307372,4.388436794281007,-6.149554252624513
924,99400.0,6.757331371307372,4.388436794281007,-6.149554252624513
925,99500.0,6.757331371307372,4.388436794281007,-6.149554252624513
926,99600.0,6.580262184143066,9.949356079101562,-4.599005222320557
927,99700.0,6.580262184143066,9.949356079101562,-4.599005222320557
928,99800.0,0.5168496966362001,7.599604606628418,-0.23449662327766416
929,99900.0,0.5168496966362001,7.599604606628418,-0.23449662327766416
930,100000.0,6.32662296295166,8.544770240783691,-9.133403778076172
931,100100.0,6.32662296295166,8.544770240783691,-9.133403778076172
932,100200.0,6.32662296295166,8.544770240783691,-9.133403778076172
933,100300.0,2.1391832828521733,3.0101709365844727,-7.499105930328369
934,100400.0,2.1391832828521733,3.0101709365844727,-7.499105930328369
935,100500.0,11.227123260498047,15.488740921020508,-1.1581261157989502
936,100600.0,11.227123260498047,15.488740921020508,-1.1581261157989502
937,100700.0,11.227123260498047,15.488740921020508,-1.1581261157989502
938,100800.0,9.91107177734375,9.509077072143556,0.3278167247772217
939,100900.0,9.91107177734375,9.509077072143556,0.3278167247772217
940,101000.0,2.8761727809906006,12.179466247558596,3.7710886001586914
941,101100.0,2.8761727809906006,12.179466247558596,3.7710886001586914
942,101200.0,-1.2299107313156128,3.943371772766113,-4.256831645965576
943,101300.0,-1.2299107313156128,3.943371772766113,-4.256831645965576
944,101400.0,-1.2299107313156128,3.943371772766113,-4.256831645965576
945,101500.0,5.469992637634277,9.06401252746582,-7.635497093200684
946,101600.0,5.469992637634277,9.06401252746582,-7.635497093200684
947,101700.0,2.5076780319213867,7.831708431243896,-8.47298526763916
948,101800.0,2.5076780319213867,7.831708431243896,-8.47298526763916
949,101900.0,2.5076780319213867,7.831708431243896,-8.47298526763916
950,102000.0,6.336194515228272,6.463014125823975,-6.850651264190674
951,102100.0,6.336194515228272,6.463014125823975,-6.850651264190674
952,102200.0,6.336194515228272,6.463014125823975,-6.850651264190674
953,102300.0,6.915257453918457,1.2227323055267334,-9.061619758605957
954,102400.0,6.915257453918457,1.2227323055267334,-9.061619758605957
955,102500.0,6.9583282470703125,2.6560330390930176,-5.788238048553468
956,102600.0,6.9583282470703125,2.6560330390930176,-5.788238048553468
957,102700.0,7.58524751663208,2.4670000076293945,-5.568098068237305
958,102800.0,7.58524751663208,2.4670000076293945,-5.568098068237305
959,102900.0,7.58524751663208,2.4670000076293945,-5.568098068237305
960,103000.0,9.198010444641113,1.6701902151107788,-6.022734642028809
961,103100.0,9.198010444641113,1.6701902151107788,-6.022734642028809
962,103200.0,9.020941734313963,-0.6484549045562744,-4.658825397491455
963,103300.0,9.020941734313963,-0.6484549045562744,-4.658825397491455
964,103400.0,6.336194515228272,7.410572052001952,-3.5676987171173096
965,103500.0,6.336194515228272,7.410572052001952,-3.5676987171173096
966,103600.0,6.336194515228272,7.410572052001952,-3.5676987171173096
967,103700.0,6.384050369262695,6.960721015930176,-5.781059265136719
968,103800.0,6.384050369262695,6.960721015930176,-5.781059265136719
969,103900.0,7.077969074249268,5.680561065673827,-0.6173481941223145
970,104000.0,7.077969074249268,5.680561065673827,-0.6173481941223145
971,104100.0,7.7048888206481925,6.6903319358825675,-0.5862415432929993
972,104200.0,7.7048888206481925,6.6903319358825675,-0.5862415432929993
973,104300.0,7.7048888206481925,6.6903319358825675,-0.5862415432929993
974,104400.0,6.206982612609862,6.821937084197997,-0.4019941985607147
975,104500.0,6.206982612609862,6.821937084197997,-0.4019941985607147
976,104600.0,8.690732002258299,5.271388053894043,-0.9260223507881165
977,104700.0,8.690732002258299,5.271388053894043,-0.9260223507881165
978,104800.0,5.938986301422119,6.178267955780028,-3.99362063407898
979,104900.0,5.938986301422119,6.178267955780028,-3.99362063407898
980,105000.0,5.938986301422119,6.178267955780028,-3.99362063407898
981,105100.0,0.9810572862625122,8.927621841430664,-4.680361270904541
982,105200.0,0.9810572862625122,8.927621841430664,-4.680361270904541
983,105300.0,-2.392822742462158,7.099504470825195,-4.333401679992677
984,105400.0,-2.392822742462158,7.099504470825195,-4.333401679992677
985,105500.0,-2.392822742462158,7.099504470825195,-4.333401679992677
986,105600.0,-4.804787635803223,7.9585280418396,-2.2229323387146
987,105700.0,-4.804787635803223,7.9585280418396,-2.2229323387146
988,105800.0,-4.704289436340332,5.917449951171875,-5.204389572143555
989,105900.0,-4.704289436340332,5.917449951171875,-5.204389572143555
990,106000.0,-5.843273162841798,5.7308106422424325,-4.271188735961913
991,106100.0,-5.843273162841798,5.7308106422424325,-4.271188735961913
992,106200.0,-5.843273162841798,5.7308106422424325,-4.271188735961913
993,106300.0,-5.221138954162598,7.144968032836914,-5.615954875946045
994,106400.0,-5.221138954162598,7.144968032836914,-5.615954875946045
995,106500.0,-5.422136306762695,5.429314613342285,-1.0719845294952393
996,106600.0,-5.422136306762695,5.429314613342285,-1.0719845294952393
997,106700.0,-6.5084776878356925,7.2023963928222665,1.832902193069458
998,106800.0,-6.5084776878356925,7.2023963928222665,1.832902193069458
999,106900.0,-6.5084776878356925,7.2023963928222665,1.832902193069458
1000,107000.0,-4.02472734451294,6.98704195022583,-3.862015962600708
1001,107100.0,-4.02472734451294,6.98704195022583,-3.862015962600708
1002,107200.0,-4.843072891235352,5.5968122482299805,-0.7752745151519775
1003,107300.0,-4.843072891235352,5.5968122482299805,-0.7752745151519775
1004,107400.0,-0.14835500717163086,11.45205020904541,-5.137389659881592
1005,107500.0,-0.14835500717163086,11.45205020904541,-5.137389659881592
1006,107600.0,-2.612962245941162,11.849257469177244,-1.5912269353866575
1007,107700.0,-2.612962245941162,11.849257469177244,-1.5912269353866575
1008,107800.0,-2.612962245941162,11.849257469177244,-1.5912269353866575
1009,107900.0,-1.5314064025878906,9.60478973388672,-5.632704257965088
1010,108000.0,-1.5314064025878906,9.60478973388672,-5.632704257965088
1011,108100.0,-3.507878065109253,6.398407459259032,-5.8480587005615225
1012,108200.0,-3.507878065109253,6.398407459259032,-5.8480587005615225
1013,108300.0,-3.589233875274658,4.2448673248291025,-7.365108013153076
1014,108400.0,-3.589233875274658,4.2448673248291025,-7.365108013153076
1015,108500.0,-1.8999011516571045,6.7621169090271,-10.013962745666504
1016,108600.0,-1.8999011516571045,6.7621169090271,-10.013962745666504
1017,108700.0,-1.8999011516571045,6.7621169090271,-10.013962745666504
1018,108800.0,-4.828716278076172,3.3643085956573486,-0.4594219326972962
1019,108900.0,-4.828716278076172,3.3643085956573486,-0.4594219326972962
1020,109000.0,-2.6560330390930176,4.271188735961913,-5.785844802856445
1021,109100.0,-2.6560330390930176,4.271188735961913,-5.785844802856445
1022,109200.0,2.7086753845214844,8.274380683898926,-8.118846893310549
1023,109300.0,2.7086753845214844,8.274380683898926,-8.118846893310549
1024,109400.0,2.7086753845214844,8.274380683898926,-8.118846893310549
1025,109500.0,4.67078971862793,4.170689582824707,-7.695317268371582
1026,109600.0,4.67078971862793,4.170689582824707,-7.695317268371582
1027,109700.0,10.494919776916504,10.889735221862793,0.10767702758312224
1028,109800.0,10.494919776916504,10.889735221862793,0.10767702758312224
1029,109900.0,10.078569412231444,4.335794448852538,-0.4259224236011505
1030,110000.0,10.078569412231444,4.335794448852538,-0.4259224236011505
1031,110100.0,2.933600425720215,1.4668002128601074,-10.506884574890137
1032,110200.0,2.933600425720215,1.4668002128601074,-10.506884574890137
1033,110300.0,2.933600425720215,1.4668002128601074,-10.506884574890137
1034,110400.0,9.671788215637207,10.75813102722168,-0.11006984114646913
1035,110500.0,9.671788215637207,10.75813102722168,-0.11006984114646913
1036,110600.0,11.13619613647461,5.733203411102295,0.3780659735202789
1037,110700.0,11.13619613647461,5.733203411102295,0.3780659735202789
1038,110800.0,11.13619613647461,5.733203411102295,0.3780659735202789
1039,110900.0,9.667003631591797,3.871586799621582,-2.543570280075073
1040,111000.0,9.667003631591797,3.871586799621582,-2.543570280075073
1041,111100.0,10.102496147155762,2.823530912399292,-3.845265865325928
1042,111200.0,10.102496147155762,2.823530912399292,-3.845265865325928
1043,111300.0,6.063412666320801,4.965107440948486,-6.3912291526794425
1044,111400.0,6.063412666320801,4.965107440948486,-6.3912291526794425
1045,111500.0,3.5748770236968994,8.310273170471191,2.6249265670776367
1046,111600.0,3.5748770236968994,8.310273170471191,2.6249265670776367
1047,111700.0,9.652647018432617,-0.6843472719192505,-10.396815299987793
1048,111800.0,9.652647018432617,-0.6843472719192505,-10.396815299987793
1049,111900.0,9.652647018432617,-0.6843472719192505,-10.396815299987793
1050,112000.0,3.6323046684265137,10.348958015441896,-1.526620864868164
1051,112100.0,3.6323046684265137,10.348958015441896,-1.526620864868164
1052,112200.0,2.3018953800201416,8.130810737609862,-0.5407779216766357
1053,112300.0,2.3018953800201416,8.130810737609862,-0.5407779216766357
1054,112400.0,5.197210788726807,5.386244297027588,-4.3860440254211435
1055,112500.0,5.197210788726807,5.386244297027588,-4.3860440254211435
1056,112600.0,5.197210788726807,5.386244297027588,-4.3860440254211435
1057,112700.0,2.9814569950103764,0.8638089299201965,-7.503891944885254
1058,112800.0,2.9814569950103764,0.8638089299201965,-7.503891944885254
1059,112900.0,4.53200626373291,1.7563319206237793,-8.425127983093263
1060,113000.0,4.53200626373291,1.7563319206237793,-8.425127983093263
1061,113100.0,6.479763507843018,1.4859429597854614,-7.4057860374450675
1062,113200.0,6.479763507843018,1.4859429597854614,-7.4057860374450675
1063,113300.0,6.479763507843018,1.4859429597854614,-7.4057860374450675
1064,113400.0,7.211967468261719,2.785245418548584,-7.5661048889160165
1065,113500.0,7.211967468261719,2.785245418548584,-7.5661048889160165
1066,113600.0,6.350551128387451,1.4715858697891235,-6.197411060333253
1067,113700.0,6.350551128387451,1.4715858697891235,-6.197411060333253
1068,113800.0,6.8482584953308105,2.2755744457244877,-6.072984218597412
1069,113900.0,6.8482584953308105,2.2755744457244877,-6.072984218597412
1070,114000.0,6.8482584953308105,2.2755744457244877,-6.072984218597412
1071,114100.0,6.484549045562744,2.816352128982544,-6.26440954208374
1072,114200.0,6.484549045562744,2.816352128982544,-6.26440954208374
1073,114300.0,6.57547664642334,3.4528429508209233,-6.33380126953125
1074,114400.0,6.57547664642334,3.4528429508209233,-6.33380126953125
1075,114500.0,6.618547439575195,3.565305471420288,-6.106483459472656
1076,114600.0,6.618547439575195,3.565305471420288,-6.106483459472656
1077,114700.0,6.618547439575195,3.565305471420288,-6.106483459472656
1078,114800.0,6.561119556427003,3.780659914016724,-6.010770320892334
1079,114900.0,6.561119556427003,3.780659914016724,-6.010770320892334
1080,115000.0,6.51326322555542,3.996013641357422,-6.010770320892334
1081,115100.0,6.51326322555542,3.996013641357422,-6.010770320892334
1082,115200.0,6.546762466430664,4.115654945373535,-6.118447780609131
1083,115300.0,6.546762466430664,4.115654945373535,-6.118447780609131
1084,115400.0,6.561119556427003,4.132404804229736,-5.950949668884277
1085,115500.0,6.561119556427003,4.132404804229736,-5.950949668884277
1086,115600.0,6.561119556427003,4.132404804229736,-5.950949668884277
1087,115700.0,7.963313579559326,2.203789472579956,-6.010770320892334
1088,115800.0,7.963313579559326,2.203789472579956,-6.010770320892334
1089,115900.0,6.695117950439452,6.350551128387451,-1.1437692642211914
1090,116000.0,6.695117950439452,6.350551128387451,-1.1437692642211914
1091,116100.0,7.968099594116211,4.311866760253906,0.8015955686569214
1092,116200.0,7.968099594116211,4.311866760253906,0.8015955686569214
1093,116300.0,7.968099594116211,4.311866760253906,0.8015955686569214
1094,116400.0,8.379664421081543,3.129812002182007,-1.8735800981521609
1095,116500.0,8.379664421081543,3.129812002182007,-1.8735800981521609
1096,116600.0,9.131011009216307,3.3451659679412837,-2.711068153381348
1097,116700.0,9.131011009216307,3.3451659679412837,-2.711068153381348
1098,116800.0,9.131011009216307,3.3451659679412837,-2.711068153381348
1099,116900.0,11.093125343322754,5.513063907623291,-1.6079767942428589
1100,117000.0,11.093125343322754,5.513063907623291,-1.6079767942428589
1101,117100.0,7.52303409576416,4.1419763565063485,-1.2227323055267334
1102,117200.0,7.52303409576416,4.1419763565063485,-1.2227323055267334
1103,117300.0,6.599405288696289,6.173482418060303,-3.586841106414795
1104,117400.0,6.599405288696289,6.173482418060303,-3.586841106414795
1105,117500.0,6.599405288696289,6.173482418060303,-3.586841106414795
1106,117600.0,3.9912283420562735,6.87697172164917,-2.89052963256836
1107,117700.0,3.9912283420562735,6.87697172164917,-2.89052963256836
1108,117800.0,3.7040894031524663,6.8554368019104,-1.1820544004440308
1109,117900.0,3.7040894031524663,6.8554368019104,-1.1820544004440308
1110,118000.0,8.47059154510498,9.346364974975586,-2.108076810836792
1111,118100.0,8.47059154510498,9.346364974975586,-2.108076810836792
1112,118200.0,4.527220726013184,7.446464061737059,-3.7328033447265625
1113,118300.0,4.527220726013184,7.446464061737059,-3.7328033447265625
1114,118400.0,5.321637630462647,8.324630737304688,-4.137190341949463
1115,118500.0,5.321637630462647,8.324630737304688,-4.137190341949463
1116,118600.0,5.321637630462647,8.324630737304688,-4.137190341949463
1117,118700.0,5.235496044158936,7.93699312210083,-3.828516006469727
1118,118800.0,5.235496044158936,7.93699312210083,-3.828516006469727
1119,118900.0,5.517848491668701,4.0414772033691415,-6.398407459259032
1120,119000.0,5.517848491668701,4.0414772033691415,-6.398407459259032
1121,119100.0,5.517848491668701,4.0414772033691415,-6.398407459259032
1122,119200.0,5.264209270477295,6.096912384033202,-6.1399827003479
1123,119300.0,5.264209270477295,6.096912384033202,-6.1399827003479
1124,119400.0,5.187639236450195,6.312265872955322,-5.5968122482299805
1125,119500.0,5.187639236450195,6.312265872955322,-5.5968122482299805
1126,119600.0,4.871786594390869,5.941378593444824,-5.0560340881347665
1127,119700.0,4.871786594390869,5.941378593444824,-5.0560340881347665
1128,119800.0,4.871786594390869,5.941378593444824,-5.0560340881347665
1129,119900.0,5.4077792167663565,6.123232841491699,-5.620740413665772
1130,120000.0,5.4077792167663565,6.123232841491699,-5.620740413665772
1131,120100.0,5.50349235534668,6.1878395080566415,-5.149354457855225
1132,120200.0,5.50349235534668,6.1878395080566415,-5.149354457855225
1133,120300.0,5.50349235534668,6.1878395080566415,-5.149354457855225
1134,120400.0,5.948556900024414,5.9748783111572275,-5.070391178131104
1135,120500.0,5.948556900024414,5.9748783111572275,-5.070391178131104
1136,120600.0,5.570490837097168,6.070591449737549,-6.077769756317139
1137,120700.0,5.570490837097168,6.070591449737549,-6.077769756317139
1138,120800.0,5.3551368713378915,4.125226020812988,-4.610969543457031
1139,120900.0,5.3551368713378915,4.125226020812988,-4.610969543457031
1140,121000.0,5.72841739654541,5.608776092529297,-4.625326156616211
1141,121100.0,5.72841739654541,5.608776092529297,-4.625326156616211
1142,121200.0,6.896114826202393,4.185047149658203,-6.795616626739503
1143,121300.0,6.896114826202393,4.185047149658203,-6.795616626739503
1144,121400.0,6.896114826202393,4.185047149658203,-6.795616626739503
1145,121500.0,5.245067596435547,4.479363918304443,-6.257230758666992
1146,121600.0,5.245067596435547,4.479363918304443,-6.257230758666992
1147,121700.0,7.814958095550537,-1.797009825706482,-6.778866291046143
1148,121800.0,7.814958095550537,-1.797009825706482,-6.778866291046143
1149,121900.0,7.814958095550537,-1.797009825706482,-6.778866291046143
1150,122000.0,3.7567315101623535,0.09092726558446884,-6.350551128387451
1151,122100.0,3.7567315101623535,0.09092726558446884,-6.350551128387451
1152,122200.0,9.69093132019043,-1.722832441329956,-12.15793228149414
1153,122300.0,9.69093132019043,-1.722832441329956,-12.15793228149414
1154,122400.0,2.785245418548584,2.1990041732788086,-7.496713638305664
1155,122500.0,2.785245418548584,2.1990041732788086,-7.496713638305664
1156,122600.0,2.785245418548584,2.1990041732788086,-7.496713638305664
1157,122700.0,8.48016357421875,2.4191436767578125,-9.42772102355957
1158,122800.0,8.48016357421875,2.4191436767578125,-9.42772102355957
1159,122900.0,9.006584167480469,7.77188777923584,-4.804787635803223
1160,123000.0,9.006584167480469,7.77188777923584,-4.804787635803223
1161,123100.0,9.006584167480469,7.77188777923584,-4.804787635803223
1162,123200.0,3.10109806060791,8.176274299621582,-3.2039895057678223
1163,123300.0,3.10109806060791,8.176274299621582,-3.2039895057678223
1164,123400.0,-0.22013968229293826,6.704688549041747,-2.8211379051208496
1165,123500.0,-0.22013968229293826,6.704688549041747,-2.8211379051208496
1166,123600.0,7.22153902053833,2.0362920761108403,-11.418549537658693
1167,123700.0,7.22153902053833,2.0362920761108403,-11.418549537658693
1168,123800.0,3.230310440063477,2.991028308868408,-6.977471351623535
1169,123900.0,3.230310440063477,2.991028308868408,-6.977471351623535
1170,124000.0,5.307280540466309,6.63051176071167,-7.690531730651855
1171,124100.0,5.307280540466309,6.63051176071167,-7.690531730651855
1172,124200.0,5.307280540466309,6.63051176071167,-7.690531730651855
1173,124300.0,5.230710506439209,3.871586799621582,-5.891129493713379
1174,124400.0,5.230710506439209,3.871586799621582,-5.891129493713379
1175,124500.0,6.613761901855469,3.716053485870361,-7.515855312347412
1176,124600.0,6.613761901855469,3.716053485870361,-7.515855312347412
1177,124700.0,6.613761901855469,3.716053485870361,-7.515855312347412
1178,124800.0,5.9342002868652335,3.653840303421021,-6.52044153213501
1179,124900.0,5.9342002868652335,3.653840303421021,-6.52044153213501
1180,125000.0,3.1058835983276367,5.812166690826416,-6.920042991638184
1181,125100.0,3.1058835983276367,5.812166690826416,-6.920042991638184
1182,125200.0,7.848458290100098,4.216153621673584,-11.657832145690918
1183,125300.0,7.848458290100098,4.216153621673584,-11.657832145690918
1184,125400.0,7.848458290100098,4.216153621673584,-11.657832145690918
1185,125500.0,0.4259224236011505,4.644468784332275,-5.280959606170653
1186,125600.0,0.4259224236011505,4.644468784332275,-5.280959606170653
1187,125700.0,-1.5792629718780518,0.2991028428077698,-0.36370906233787537
1188,125800.0,-1.5792629718780518,0.2991028428077698,-0.36370906233787537
1189,125900.0,-1.5792629718780518,0.2991028428077698,-0.36370906233787537
1190,126000.0,3.751945972442627,0.14117653667926788,-8.673982620239258
1191,126100.0,3.751945972442627,0.14117653667926788,-8.673982620239258
1192,126200.0,4.02472734451294,1.4835500717163086,-9.073582649230957
1193,126300.0,4.02472734451294,1.4835500717163086,-9.073582649230957
1194,126400.0,8.805586814880371,2.1391832828521733,-3.6610186100006095
1195,126500.0,8.805586814880371,2.1391832828521733,-3.6610186100006095
1196,126600.0,8.791230201721191,1.919043779373169,-6.324230670928955
1197,126700.0,8.791230201721191,1.919043779373169,-6.324230670928955
1198,126800.0,8.025527954101562,2.3018953800201416,-4.780859470367432
1199,126900.0,8.025527954101562,2.3018953800201416,-4.780859470367432
1200,127000.0,8.169095993041992,2.8115665912628174,-4.721039295196533
1201,127100.0,8.169095993041992,2.8115665912628174,-4.721039295196533
1202,127200.0,8.169095993041992,2.8115665912628174,-4.721039295196533
1203,127300.0,8.059026718139647,2.2205395698547363,-4.948357105255127
1204,127400.0,8.059026718139647,2.2205395698547363,-4.948357105255127
1205,127500.0,9.834501266479492,1.7994027137756348,-7.1641106605529785
1206,127600.0,9.834501266479492,1.7994027137756348,-7.1641106605529785
1207,127700.0,9.834501266479492,1.7994027137756348,-7.1641106605529785
1208,127800.0,6.4079790115356445,4.914857387542725,-3.4672000408172607
1209,127900.0,6.4079790115356445,4.914857387542725,-3.4672000408172607
1210,128000.0,6.747759819030763,8.456235885620117,-3.862015962600708
1211,128100.0,6.747759819030763,8.456235885620117,-3.862015962600708
1212,128200.0,8.092526435852049,6.647261142730713,-0.7872385978698729
1213,128300.0,8.092526435852049,6.647261142730713,-0.7872385978698729
1214,128400.0,8.092526435852049,6.647261142730713,-0.7872385978698729
1215,128500.0,8.461020469665527,5.386244297027588,-2.806780815124512
1216,128600.0,8.461020469665527,5.386244297027588,-2.806780815124512
1217,128700.0,7.518248558044434,5.187639236450195,-2.368894338607788
1218,128800.0,7.518248558044434,5.187639236450195,-2.368894338607788
1219,128900.0,7.743173599243164,5.50349235534668,-1.7012970447540283
1220,129000.0,7.743173599243164,5.50349235534668,-1.7012970447540283
1221,129100.0,7.743173599243164,5.50349235534668,-1.7012970447540283
1222,129200.0,7.197610855102539,6.314659118652344,-0.818345308303833
1223,129300.0,7.197610855102539,6.314659118652344,-0.818345308303833
1224,129400.0,9.193224906921387,5.429314613342285,-2.1846470832824707
1225,129500.0,9.193224906921387,5.429314613342285,-2.1846470832824707
1226,129600.0,7.494320392608643,7.238288879394531,-1.459621787071228
1227,129700.0,7.494320392608643,7.238288879394531,-1.459621787071228
1228,129800.0,7.494320392608643,7.238288879394531,-1.459621787071228
1229,129900.0,5.991628170013428,8.48016357421875,-0.1698903888463974
1230,130000.0,5.991628170013428,8.48016357421875,-0.1698903888463974
1231,130100.0,7.786244869232178,2.6392831802368164,-6.230910301208496
1232,130200.0,7.786244869232178,2.6392831802368164,-6.230910301208496
1233,130300.0,5.694917678833008,4.41475772857666,-6.001199245452881
1234,130400.0,5.694917678833008,4.41475772857666,-6.001199245452881
1235,130500.0,5.694917678833008,4.41475772857666,-6.001199245452881
1236,130600.0,6.867401123046875,4.493720531463623,-1.1437692642211914
1237,130700.0,6.867401123046875,4.493720531463623,-1.1437692642211914
1238,130800.0,5.623133182525635,7.3363938331604,-5.357529640197754
1239,130900.0,5.623133182525635,7.3363938331604,-5.357529640197754
1240,131000.0,6.685546875,3.785445213317871,-6.257230758666992
1241,131100.0,6.685546875,3.785445213317871,-6.257230758666992
1242,131200.0,7.331608772277832,3.2662029266357417,-4.742574691772461
1243,131300.0,7.331608772277832,3.2662029266357417,-4.742574691772461
1244,131400.0,7.331608772277832,3.2662029266357417,-4.742574691772461
1245,131500.0,7.590033531188965,2.6057839393615723,-4.811966419219972
1246,131600.0,7.590033531188965,2.6057839393615723,-4.811966419219972
1247,131700.0,7.609175682067871,3.086741209030152,-4.701896190643311
1248,131800.0,7.609175682067871,3.086741209030152,-4.701896190643311
1249,131900.0,7.968099594116211,1.3040882349014282,-5.14456844329834
1250,132000.0,7.968099594116211,1.3040882349014282,-5.14456844329834
1251,132100.0,7.432106971740723,2.553141593933105,-5.206782341003418
1252,132200.0,7.432106971740723,2.553141593933105,-5.206782341003418
1253,132300.0,7.432106971740723,2.553141593933105,-5.206782341003418
1254,132400.0,7.5469627380371085,3.69930362701416,-6.410372257232666
1255,132500.0,7.5469627380371085,3.69930362701416,-6.410372257232666
1256,132600.0,7.676175117492676,2.297109842300415,-6.8650078773498535
1257,132700.0,7.676175117492676,2.297109842300415,-6.8650078773498535
1258,132800.0,7.676175117492676,2.297109842300415,-6.8650078773498535
1259,132900.0,5.8097734451293945,4.737788677215576,-3.938585996627808
1260,133000.0,5.8097734451293945,4.737788677215576,-3.938585996627808
1261,133100.0,8.690732002258299,4.448256969451903,-4.924428939819336
1262,133200.0,8.690732002258299,4.448256969451903,-4.924428939819336
1263,133300.0,8.834300994873047,5.6350975036621085,-4.60857629776001
1264,133400.0,8.834300994873047,5.6350975036621085,-4.60857629776001
1265,133500.0,1.9812570810317995,6.496513843536378,-7.81974458694458
1266,133600.0,1.9812570810317995,6.496513843536378,-7.81974458694458
1267,133700.0,-1.215553879737854,5.302494525909424,-6.034698486328125
1268,133800.0,-1.215553879737854,5.302494525909424,-6.034698486328125
1269,133900.0,-1.215553879737854,5.302494525909424,-6.034698486328125
1270,134000.0,-1.3304094076156616,7.83410120010376,-3.168097257614136
1271,134100.0,-1.3304094076156616,7.83410120010376,-3.168097257614136
1272,134200.0,-1.938186287879944,8.331808090209961,-5.170889854431152
1273,134300.0,-1.938186287879944,8.331808090209961,-5.170889854431152
1274,134400.0,-1.938186287879944,8.331808090209961,-5.170889854431152
1275,134500.0,-3.0245277881622314,2.0889341831207275,-5.950949668884277
1276,134600.0,-3.0245277881622314,2.0889341831207275,-5.950949668884277
1277,134700.0,-3.996013641357422,-1.641476273536682,-8.12123966217041
1278,134800.0,-3.996013641357422,-1.641476273536682,-8.12123966217041
1279,134900.0,-3.996013641357422,-1.641476273536682,-8.12123966217041
1280,135000.0,-5.37906551361084,-1.1030912399291992,-8.307880401611326
1281,135100.0,-5.37906551361084,-1.1030912399291992,-8.307880401611326
1282,135200.0,-1.0480562448501587,5.661418437957764,-11.609975814819336
1283,135300.0,-1.0480562448501587,5.661418437957764,-11.609975814819336
1284,135400.0,-3.5557346343994136,3.2159535884857178,-5.465207099914551
1285,135500.0,-3.5557346343994136,3.2159535884857178,-5.465207099914551
1286,135600.0,-3.5557346343994136,3.2159535884857178,-5.465207099914551
1287,135700.0,-3.976871252059937,2.44067907333374,-2.6679973602294917
1288,135800.0,-3.976871252059937,2.44067907333374,-2.6679973602294917
1289,135900.0,0.35892340540885925,5.627918720245361,-5.058426856994629
1290,136000.0,0.35892340540885925,5.627918720245361,-5.058426856994629
1291,136100.0,8.336593627929688,3.13220477104187,-10.841878890991213
1292,136200.0,8.336593627929688,3.13220477104187,-10.841878890991213
1293,136300.0,6.465407371520996,8.748159408569336,-3.7830524444580083
1294,136400.0,6.465407371520996,8.748159408569336,-3.7830524444580083
1295,136500.0,6.465407371520996,8.748159408569336,-3.7830524444580083
1296,136600.0,8.173882484436035,2.868994235992432,-5.838487148284912
1297,136700.0,8.173882484436035,2.868994235992432,-5.838487148284912
1298,136800.0,6.73818826675415,0.9762716889381408,-7.264609336853027
1299,136900.0,6.73818826675415,0.9762716889381408,-7.264609336853027
1300,137000.0,4.632504463195801,2.048256158828736,-8.752944946289062
1301,137100.0,4.632504463195801,2.048256158828736,-8.752944946289062
1302,137200.0,4.632504463195801,2.048256158828736,-8.752944946289062
1303,137300.0,9.844072341918944,2.3066811561584477,-4.019941806793213
1304,137400.0,9.844072341918944,2.3066811561584477,-4.019941806793213
1305,137500.0,6.5659050941467285,2.3976082801818848,-5.570490837097168
1306,137600.0,6.5659050941467285,2.3976082801818848,-5.570490837097168
1307,137700.0,5.862415313720702,3.945764780044556,-8.193024635314941
1308,137800.0,5.862415313720702,3.945764780044556,-8.193024635314941
1309,137900.0,5.862415313720702,3.945764780044556,-8.193024635314941
1310,138000.0,1.761117458343506,1.191625714302063,-8.71466064453125
1311,138100.0,1.761117458343506,1.191625714302063,-8.71466064453125
1312,138200.0,9.221939086914062,0.9858429431915284,-7.568498134613037
1313,138300.0,9.221939086914062,0.9858429431915284,-7.568498134613037
1314,138400.0,5.6997032165527335,1.2131611108779907,-7.94177770614624
1315,138500.0,5.6997032165527335,1.2131611108779907,-7.94177770614624
1316,138600.0,5.929414749145508,-2.280359983444214,-7.594818592071532
1317,138700.0,5.929414749145508,-2.280359983444214,-7.594818592071532
1318,138800.0,5.929414749145508,-2.280359983444214,-7.594818592071532
1319,138900.0,6.350551128387451,1.7682960033416748,-4.88853645324707
1320,139000.0,6.350551128387451,1.7682960033416748,-4.88853645324707
1321,139100.0,6.340980052947997,17.900705337524414,-4.273581027984618
1322,139200.0,6.340980052947997,17.900705337524414,-4.273581027984618
1323,139300.0,9.355937004089355,-1.2538390159606934,-2.203789472579956
1324,139400.0,9.355937004089355,-1.2538390159606934,-2.203789472579956
1325,139500.0,9.355937004089355,-1.2538390159606934,-2.203789472579956
1326,139600.0,6.331408977508545,4.945964336395264,-5.259423732757568
1327,139700.0,6.331408977508545,4.945964336395264,-5.259423732757568
1328,139800.0,6.853044033050537,5.032106399536133,-4.632504463195801
1329,139900.0,6.853044033050537,5.032106399536133,-4.632504463195801
1330,140000.0,6.853044033050537,5.032106399536133,-4.632504463195801
1331,140100.0,7.006184577941895,4.591826438903809,-4.821537494659424
1332,140200.0,7.006184577941895,4.591826438903809,-4.821537494659424
1333,140300.0,6.728617191314697,4.8095736503601065,-6.240481376647949
1334,140400.0,6.728617191314697,4.8095736503601065,-6.240481376647949
1335,140500.0,8.10688304901123,8.616554260253906,1.3663017749786377
1336,140600.0,8.10688304901123,8.616554260253906,1.3663017749786377
1337,140700.0,8.10688304901123,8.616554260253906,1.3663017749786377
1338,140800.0,9.8871431350708,3.838087558746338,-0.16510476171970367
1339,140900.0,9.8871431350708,3.838087558746338,-0.16510476171970367
1340,141000.0,9.308080673217773,6.506085395812987,0.031106693670153618
1341,141100.0,9.308080673217773,6.506085395812987,0.031106693670153618
1342,141200.0,9.308080673217773,6.506085395812987,0.031106693670153618
1343,141300.0,7.331608772277832,2.376072883605957,-1.797009825706482
1344,141400.0,7.331608772277832,2.376072883605957,-1.797009825706482
1345,141500.0,2.71346116065979,-1.550549030303955,-10.552348136901855
1346,141600.0,2.71346116065979,-1.550549030303955,-10.552348136901855
1347,141700.0,13.036097526550293,0.03589234128594398,-5.733203411102295
1348,141800.0,13.036097526550293,0.03589234128594398,-5.733203411102295
1349,141900.0,13.036097526550293,0.03589234128594398,-5.733203411102295
1350,142000.0,6.6281185150146475,2.2205395698547363,-7.3124656677246085
1351,142100.0,6.6281185150146475,2.2205395698547363,-7.3124656677246085
1352,142200.0,6.733402729034424,2.67278265953064,-7.293323516845702
1353,142300.0,6.733402729034424,2.67278265953064,-7.293323516845702
1354,142400.0,3.3451659679412837,1.2370892763137815,-8.3629150390625
1355,142500.0,3.3451659679412837,1.2370892763137815,-8.3629150390625
1356,142600.0,3.3451659679412837,1.2370892763137815,-8.3629150390625
1357,142700.0,6.32662296295166,1.9669002294540403,-7.570890426635742
1358,142800.0,6.32662296295166,1.9669002294540403,-7.570890426635742
1359,142900.0,5.024927616119385,-1.497907042503357,-9.10229778289795
1360,143000.0,5.024927616119385,-1.497907042503357,-9.10229778289795
1361,143100.0,4.73300313949585,-0.18185453116893768,-6.620940208435059
1362,143200.0,4.73300313949585,-0.18185453116893768,-6.620940208435059
1363,143300.0,4.73300313949585,-0.18185453116893768,-6.620940208435059
1364,143400.0,3.9529430866241455,1.2969098091125488,-6.436692714691162
1365,143500.0,3.9529430866241455,1.2969098091125488,-6.436692714691162
1366,143600.0,5.259423732757568,0.7322037816047668,-9.372685432434082
1367,143700.0,5.259423732757568,0.7322037816047668,-9.372685432434082
1368,143800.0,6.27876615524292,3.488735675811768,-7.128218650817871
1369,143900.0,6.27876615524292,3.488735675811768,-7.128218650817871
1370,144000.0,6.484549045562744,4.3166518211364755,-6.235695838928223
1371,144100.0,6.484549045562744,4.3166518211364755,-6.235695838928223
1372,144200.0,6.355337142944336,4.146761417388916,-6.716653347015381
1373,144300.0,6.355337142944336,4.146761417388916,-6.716653347015381
1374,144400.0,6.355337142944336,4.146761417388916,-6.716653347015381
1375,144500.0,8.465806007385254,2.2061824798583984,-4.747360229492188
1376,144600.0,8.465806007385254,2.2061824798583984,-4.747360229492188
1377,144700.0,5.053641319274902,10.107282638549805,2.483749866485596
1378,144800.0,5.053641319274902,10.107282638549805,2.483749866485596
1379,144900.0,5.053641319274902,10.107282638549805,2.483749866485596
1380,145000.0,11.45683479309082,3.3858442306518555,-0.5288137793540955
1381,145100.0,11.45683479309082,3.3858442306518555,-0.5288137793540955
1382,145200.0,11.729616165161133,3.041277408599853,-2.964707374572754
1383,145300.0,11.729616165161133,3.041277408599853,-2.964707374572754
1384,145400.0,6.604190349578857,3.036492109298706,-1.0791629552841189
1385,145500.0,6.604190349578857,3.036492109298706,-1.0791629552841189
1386,145600.0,6.604190349578857,3.036492109298706,-1.0791629552841189
1387,145700.0,7.709674835205077,6.089733123779298,-1.832902193069458
1388,145800.0,7.709674835205077,6.089733123779298,-1.832902193069458
1389,145900.0,4.627718925476074,7.439285278320312,-1.1533405780792236
1390,146000.0,4.627718925476074,7.439285278320312,-1.1533405780792236
1391,146100.0,2.407179594039917,6.551548480987549,-0.605384111404419
1392,146200.0,2.407179594039917,6.551548480987549,-0.605384111404419
1393,146300.0,2.407179594039917,6.551548480987549,-0.605384111404419
1394,146400.0,12.748958587646484,7.58524751663208,3.230310440063477
1395,146500.0,12.748958587646484,7.58524751663208,3.230310440063477
1396,146600.0,5.656632423400879,5.941378593444824,-3.184847116470337
1397,146700.0,5.656632423400879,5.941378593444824,-3.184847116470337
1398,146800.0,5.91505765914917,7.47517728805542,-5.182853698730469
1399,146900.0,5.91505765914917,7.47517728805542,-5.182853698730469
1400,147000.0,7.006184577941895,5.592026710510254,-3.646661758422852
1401,147100.0,7.006184577941895,5.592026710510254,-3.646661758422852
1402,147200.0,6.613761901855469,5.92223596572876,-4.19701099395752
1403,147300.0,6.613761901855469,5.92223596572876,-4.19701099395752
1404,147400.0,6.661618232727051,6.168696403503418,-4.551148891448975
1405,147500.0,6.661618232727051,6.168696403503418,-4.551148891448975
1406,147600.0,6.661618232727051,6.168696403503418,-4.551148891448975
1407,147700.0,0.6652047038078308,7.45364236831665,-7.654639720916747
1408,147800.0,0.6652047038078308,7.45364236831665,-7.654639720916747
1409,147900.0,5.297709465026856,6.398407459259032,-3.464807271957397
1410,148000.0,5.297709465026856,6.398407459259032,-3.464807271957397
1411,148100.0,7.307680606842041,5.6685967445373535,-6.369694232940674
1412,148200.0,7.307680606842041,5.6685967445373535,-6.369694232940674
1413,148300.0,4.287938117980957,6.041877269744872,-4.967499732971191
1414,148400.0,4.287938117980957,6.041877269744872,-4.967499732971191
1415,148500.0,6.312265872955322,8.812766075134277,-3.208775281906128
1416,148600.0,6.312265872955322,8.812766075134277,-3.208775281906128
1417,148700.0,6.312265872955322,8.812766075134277,-3.208775281906128
1418,148800.0,4.876572608947754,7.539783954620361,-3.395415067672729
1419,148900.0,4.876572608947754,7.539783954620361,-3.395415067672729
1420,149000.0,4.67078971862793,5.831308364868164,-9.90867805480957
1421,149100.0,4.67078971862793,5.831308364868164,-9.90867805480957
1422,149200.0,2.431107759475708,4.563112735748291,-5.402993679046631
1423,149300.0,2.431107759475708,4.563112735748291,-5.402993679046631
1424,149400.0,2.431107759475708,4.563112735748291,-5.402993679046631
1425,149500.0,6.541977405548097,8.00638484954834,-2.9623143672943115
1426,149600.0,6.541977405548097,8.00638484954834,-2.9623143672943115
1427,149700.0,7.259823799133301,7.503891944885254,0.6771688461303711
1428,149800.0,7.259823799133301,7.503891944885254,0.6771688461303711
1429,149900.0,4.082155227661134,5.603990077972412,-3.620340585708618
1430,150000.0,4.082155227661134,5.603990077972412,-3.620340585708618
1431,150100.0,4.082155227661134,5.603990077972412,-3.620340585708618
1432,150200.0,2.0099709033966064,0.9667003750801086,-12.110074996948242
1433,150300.0,2.0099709033966064,0.9667003750801086,-12.110074996948242
1434,150400.0,10.126425743103027,1.674975872039795,-5.850451469421388
1435,150500.0,10.126425743103027,1.674975872039795,-5.850451469421388
1436,150600.0,10.126425743103027,1.674975872039795,-5.850451469421388
1437,150700.0,6.374479293823242,0.3062812983989716,-6.702296257019043
1438,150800.0,6.374479293823242,0.3062812983989716,-6.702296257019043
1439,150900.0,5.206782341003418,-3.2207393646240234,-8.061419486999513
1440,151000.0,5.206782341003418,-3.2207393646240234,-8.061419486999513
1441,151100.0,8.781659126281737,1.9453648328781128,-9.391828536987305
1442,151200.0,8.781659126281737,1.9453648328781128,-9.391828536987305
1443,151300.0,4.675575256347656,5.376672744750977,-2.950350284576416
1444,151400.0,4.675575256347656,5.376672744750977,-2.950350284576416
1445,151500.0,8.743373870849611,14.26840114593506,3.383451223373413
1446,151600.0,8.743373870849611,14.26840114593506,3.383451223373413
1447,151700.0,8.743373870849611,14.26840114593506,3.383451223373413
1448,151800.0,0.8566305041313171,7.22153902053833,0.906879723072052
1449,151900.0,0.8566305041313171,7.22153902053833,0.906879723072052
1450,152000.0,11.94497013092041,15.584453582763672,-9.164510726928713
1451,152100.0,11.94497013092041,15.584453582763672,-9.164510726928713
1452,152200.0,11.94497013092041,15.584453582763672,-9.164510726928713
1453,152300.0,3.996013641357422,6.788437843322754,-6.62333345413208
1454,152400.0,3.996013641357422,6.788437843322754,-6.62333345413208
1455,152500.0,4.3166518211364755,9.131011009216307,-5.151747226715088
1456,152600.0,4.3166518211364755,9.131011009216307,-5.151747226715088
1457,152700.0,2.9623143672943115,5.850451469421388,-3.742374420166016
1458,152800.0,2.9623143672943115,5.850451469421388,-3.742374420166016
1459,152900.0,2.9623143672943115,5.850451469421388,-3.742374420166016
1460,153000.0,3.3403804302215576,8.183453559875487,-6.070591449737549
1461,153100.0,3.3403804302215576,8.183453559875487,-6.070591449737549
1462,153200.0,3.3547375202178955,10.310672760009766,-6.118447780609131
1463,153300.0,3.3547375202178955,10.310672760009766,-6.118447780609131
1464,153400.0,0.9619146585464478,1.0815558433532717,-3.1752755641937256
1465,153500.0,0.9619146585464478,1.0815558433532717,-3.1752755641937256
1466,153600.0,0.9619146585464478,1.0815558433532717,-3.1752755641937256
1467,153700.0,8.173882484436035,-0.5934200286865234,-6.86979341506958
1468,153800.0,8.173882484436035,-0.5934200286865234,-6.86979341506958
1469,153900.0,8.484949111938478,3.6969110965728764,-6.711867332458496
1470,154000.0,8.484949111938478,3.6969110965728764,-6.711867332458496
1471,154100.0,8.556733131408691,3.0245277881622314,-3.91705060005188
1472,154200.0,8.556733131408691,3.0245277881622314,-3.91705060005188
1473,154300.0,6.5084776878356925,2.203789472579956,-4.998606204986572
1474,154400.0,6.5084776878356925,2.203789472579956,-4.998606204986572
1475,154500.0,6.5084776878356925,2.203789472579956,-4.998606204986572
1476,154600.0,7.207180976867676,5.498706817626953,-6.967899799346924
1477,154700.0,7.207180976867676,5.498706817626953,-6.967899799346924
1478,154800.0,3.5270204544067383,7.034898281097412,-6.005984783172607
1479,154900.0,3.5270204544067383,7.034898281097412,-6.005984783172607
1480,155000.0,0.16749757528305054,6.613761901855469,-6.041877269744872
1481,155100.0,0.16749757528305054,6.613761901855469,-6.041877269744872
1482,155200.0,0.16749757528305054,6.613761901855469,-6.041877269744872
1483,155300.0,-2.8378877639770512,5.063212871551514,-8.568697929382324
1484,155400.0,-2.8378877639770512,5.063212871551514,-8.568697929382324
1485,155500.0,-6.178267955780028,6.266802310943604,-3.924229145050049
1486,155600.0,-6.178267955780028,6.266802310943604,-3.924229145050049
1487,155700.0,-4.110869407653809,4.1180477142333975,-6.2333030700683585
1488,155800.0,-4.110869407653809,4.1180477142333975,-6.2333030700683585
1489,155900.0,-6.087340831756593,6.6831536293029785,-5.127819538116455
1490,156000.0,-6.087340831756593,6.6831536293029785,-5.127819538116455
1491,156100.0,-5.082355499267578,4.6061835289001465,-3.10109806060791
1492,156200.0,-5.082355499267578,4.6061835289001465,-3.10109806060791
1493,156300.0,-5.082355499267578,4.6061835289001465,-3.10109806060791
1494,156400.0,-4.7234320640563965,10.241281509399414,-1.8783657550811768
1495,156500.0,-4.7234320640563965,10.241281509399414,-1.8783657550811768
1496,156600.0,-4.302295207977295,5.948556900024414,-4.505684852600098
1497,156700.0,-4.302295207977295,5.948556900024414,-4.505684852600098
1498,156800.0,-4.168296813964844,4.8741798400878915,-6.27876615524292
1499,156900.0,-4.168296813964844,4.8741798400878915,-6.27876615524292
1500,157000.0,-4.168296813964844,4.8741798400878915,-6.27876615524292
1501,157100.0,-4.560719966888428,0.5335994362831116,-8.102097511291504
1502,157200.0,-4.560719966888428,0.5335994362831116,-8.102097511291504
1503,157300.0,-4.364508152008057,-1.215553879737854,-8.379664421081543
1504,157400.0,-4.364508152008057,-1.215553879737854,-8.379664421081543
1505,157500.0,-4.053441524505615,-1.584048628807068,-9.255437850952148
1506,157600.0,-4.053441524505615,-1.584048628807068,-9.255437850952148
1507,157700.0,-4.053441524505615,-1.584048628807068,-9.255437850952148
1508,157800.0,-7.719245910644531,-0.7178468108177185,-4.816751956939697
1509,157900.0,-7.719245910644531,-0.7178468108177185,-4.816751956939697
1510,158000.0,-7.111469268798827,0.3278167247772217,-6.771688461303711
1511,158100.0,-7.111469268798827,0.3278167247772217,-6.771688461303711
1512,158200.0,-3.594019651412964,5.285745620727539,-10.37767219543457
1513,158300.0,-3.594019651412964,5.285745620727539,-10.37767219543457
1514,158400.0,-4.211367607116698,3.713660717010498,-6.812366485595702
1515,158500.0,-4.211367607116698,3.713660717010498,-6.812366485595702
1516,158600.0,-5.647061824798584,1.5050854682922363,-2.900100946426392
1517,158700.0,-5.647061824798584,1.5050854682922363,-2.900100946426392
1518,158800.0,-5.647061824798584,1.5050854682922363,-2.900100946426392
1519,158900.0,-1.043270707130432,7.812565803527832,-4.187439441680908
1520,159000.0,-1.043270707130432,7.812565803527832,-4.187439441680908
1521,159100.0,6.16391134262085,1.5720844268798828,-10.980663299560547
1522,159200.0,6.16391134262085,1.5720844268798828,-10.980663299560547
1523,159300.0,6.16391134262085,1.5720844268798828,-10.980663299560547
1524,159400.0,10.71027374267578,7.867600917816162,-6.57547664642334
1525,159500.0,10.71027374267578,7.867600917816162,-6.57547664642334
1526,159600.0,6.963113307952881,4.1515469551086435,-6.87697172164917
1527,159700.0,6.963113307952881,4.1515469551086435,-6.87697172164917
1528,159800.0,6.963113307952881,4.1515469551086435,-6.87697172164917
1529,159900.0,5.230710506439209,0.15074782073497772,-10.26520824432373
1530,160000.0,5.230710506439209,0.15074782073497772,-10.26520824432373
1531,160100.0,6.757331371307372,6.879364967346191,-4.5104708671569815
1532,160200.0,6.757331371307372,6.879364967346191,-4.5104708671569815
1533,160300.0,7.1641106605529785,6.087340831756593,-4.778466701507568
1534,160400.0,7.1641106605529785,6.087340831756593,-4.778466701507568
1535,160500.0,7.1641106605529785,6.087340831756593,-4.778466701507568
1536,160600.0,6.0538411140441895,9.765109062194824,1.3375877141952517
1537,160700.0,6.0538411140441895,9.765109062194824,1.3375877141952517
1538,160800.0,5.249853134155273,6.671189785003662,4.785645484924316
1539,160900.0,5.249853134155273,6.671189785003662,4.785645484924316
1540,161000.0,3.1824538707733154,7.599604606628418,5.584848403930664
1541,161100.0,3.1824538707733154,7.599604606628418,5.584848403930664
1542,161200.0,3.273381233215332,6.106483459472656,-1.2299107313156128
1543,161300.0,3.273381233215332,6.106483459472656,-1.2299107313156128
1544,161400.0,5.613561630249023,7.537391662597656,-3.7184462547302246
1545,161500.0,5.613561630249023,7.537391662597656,-3.7184462547302246
1546,161600.0,5.613561630249023,7.537391662597656,-3.7184462547302246
1547,161700.0,4.776073932647705,9.03290557861328,-1.4261221885681152
1548,161800.0,4.776073932647705,9.03290557861328,-1.4261221885681152
1549,161900.0,3.7232320308685294,8.853443145751953,-0.4259224236011505
1550,162000.0,3.7232320308685294,8.853443145751953,-0.4259224236011505
1551,162100.0,5.824130058288574,6.52044153213501,-3.5605196952819824
1552,162200.0,5.824130058288574,6.52044153213501,-3.5605196952819824
1553,162300.0,4.981856822967528,6.0610198974609375,-5.752345561981201
1554,162400.0,4.981856822967528,6.0610198974609375,-5.752345561981201
1555,162500.0,4.981856822967528,6.0610198974609375,-5.752345561981201
1556,162600.0,6.302694320678711,4.697111129760742,-7.484748840332031
1557,162700.0,6.302694320678711,4.697111129760742,-7.484748840332031
1558,162800.0,6.005984783172607,5.3359947204589835,-3.366701364517212
1559,162900.0,6.005984783172607,5.3359947204589835,-3.366701364517212
1560,163000.0,6.412764549255371,6.556333541870117,-5.450850009918213
1561,163100.0,6.412764549255371,6.556333541870117,-5.450850009918213
1562,163200.0,5.292923927307129,2.1056838035583496,-8.135597229003906
1563,163300.0,5.292923927307129,2.1056838035583496,-8.135597229003906
1564,163400.0,5.292923927307129,2.1056838035583496,-8.135597229003906
1565,163500.0,5.9342002868652335,2.148754596710205,-4.474578380584717
1566,163600.0,5.9342002868652335,2.148754596710205,-4.474578380584717
1567,163700.0,7.245467185974121,4.2448673248291025,-6.096912384033202
1568,163800.0,7.245467185974121,4.2448673248291025,-6.096912384033202
1569,163900.0,7.154539585113525,4.467400074005127,-4.907679080963135
1570,164000.0,7.154539585113525,4.467400074005127,-4.907679080963135
1571,164100.0,7.317252159118652,4.302295207977295,-4.895715236663818
1572,164200.0,7.317252159118652,4.302295207977295,-4.895715236663818
1573,164300.0,7.317252159118652,4.302295207977295,-4.895715236663818
1574,164400.0,7.350750923156737,4.1730828285217285,-4.711467742919922
1575,164500.0,7.350750923156737,4.1730828285217285,-4.711467742919922
1576,164600.0,7.484748840332031,4.060619831085205,-4.8023948669433585
1577,164700.0,7.484748840332031,4.060619831085205,-4.8023948669433585
1578,164800.0,7.317252159118652,4.098905563354491,-4.759324073791504
1579,164900.0,7.317252159118652,4.098905563354491,-4.759324073791504
1580,165000.0,7.317252159118652,4.098905563354491,-4.759324073791504
1581,165100.0,7.317252159118652,4.256831645965576,-4.890929222106934
1582,165200.0,7.317252159118652,4.256831645965576,-4.890929222106934
1583,165300.0,7.36032247543335,4.271188735961913,-4.740181922912598
1584,165400.0,7.36032247543335,4.271188735961913,-4.740181922912598
1585,165500.0,7.36032247543335,4.271188735961913,-4.740181922912598
1586,165600.0,7.436892509460449,4.2065820693969735,-4.704289436340332
1587,165700.0,7.436892509460449,4.2065820693969735,-4.704289436340332
1588,165800.0,10.284351348876953,4.381258487701416,-8.587841033935549
1589,165900.0,10.284351348876953,4.381258487701416,-8.587841033935549
1590,166000.0,3.5461630821228027,4.498506546020508,-4.8023948669433585
1591,166100.0,3.5461630821228027,4.498506546020508,-4.8023948669433585
1592,166200.0,3.5461630821228027,4.498506546020508,-4.8023948669433585
1593,166300.0,7.676175117492676,2.0243279933929443,-7.176074504852295
1594,166400.0,7.676175117492676,2.0243279933929443,-7.176074504852295
1595,166500.0,7.154539585113525,1.1198409795761108,-6.51326322555542
1596,166600.0,7.154539585113525,1.1198409795761108,-6.51326322555542
1597,166700.0,7.810173511505128,0.7776673436164856,-2.749353408813477
1598,166800.0,7.810173511505128,0.7776673436164856,-2.749353408813477
1599,166900.0,2.4981069564819336,9.836893081665039,-5.938986301422119
1600,167000.0,2.4981069564819336,9.836893081665039,-5.938986301422119
1601,167100.0,2.4981069564819336,9.836893081665039,-5.938986301422119
1602,167200.0,9.528220176696776,7.326822757720947,-0.5455635190010071
1603,167300.0,9.528220176696776,7.326822757720947,-0.5455635190010071
1604,167400.0,7.719245910644531,5.44845724105835,-1.9764715433120728
1605,167500.0,7.719245910644531,5.44845724105835,-1.9764715433120728
1606,167600.0,8.733802795410156,4.474578380584717,-3.455235719680786
1607,167700.0,8.733802795410156,4.474578380584717,-3.455235719680786
1608,167800.0,8.733802795410156,4.474578380584717,-3.455235719680786
1609,167900.0,6.2500529289245605,5.6997032165527335,-2.9216365814208984
1610,168000.0,6.2500529289245605,5.6997032165527335,-2.9216365814208984
1611,168100.0,7.4608211517333975,5.950949668884277,-3.0771698951721187
1612,168200.0,7.4608211517333975,5.950949668884277,-3.0771698951721187
1613,168300.0,6.805188179016112,5.807380676269531,-2.957528829574585
1614,168400.0,6.805188179016112,5.807380676269531,-2.957528829574585
1615,168500.0,6.805188179016112,5.807380676269531,-2.957528829574585
1616,168600.0,5.718846321105957,6.467799663543701,-4.754538536071777
1617,168700.0,5.718846321105957,6.467799663543701,-4.754538536071777
1618,168800.0,3.4121649265289307,7.635497093200684,-3.6251261234283447
1619,168900.0,3.4121649265289307,7.635497093200684,-3.6251261234283447
1620,169000.0,3.4121649265289307,7.635497093200684,-3.6251261234283447
1621,169100.0,4.378865718841554,5.996413230895996,-0.5503491759300232
1622,169200.0,4.378865718841554,5.996413230895996,-0.5503491759300232
1623,169300.0,9.437292098999023,7.269395351409912,-4.051048755645752
1624,169400.0,9.437292098999023,7.269395351409912,-4.051048755645752
1625,169500.0,5.192424774169922,4.543970108032227,-6.005984783172607
1626,169600.0,5.192424774169922,4.543970108032227,-6.005984783172607
1627,169700.0,4.354937553405762,5.733203411102295,-5.764309883117676
1628,169800.0,4.354937553405762,5.733203411102295,-5.764309883117676
1629,169900.0,6.771688461303711,6.503692150115968,-4.0797624588012695
1630,170000.0,6.771688461303711,6.503692150115968,-4.0797624588012695
1631,170100.0,6.771688461303711,6.503692150115968,-4.0797624588012695
1632,170200.0,4.350151538848877,4.711467742919922,-7.219145774841309
1633,170300.0,4.350151538848877,4.711467742919922,-7.219145774841309
1634,170400.0,7.36032247543335,5.228317260742188,-5.388636112213135
1635,170500.0,7.36032247543335,5.228317260742188,-5.388636112213135
1636,170600.0,7.36032247543335,5.228317260742188,-5.388636112213135
1637,170700.0,6.049055576324463,5.127819538116455,-3.716053485870361
1638,170800.0,6.049055576324463,5.127819538116455,-3.716053485870361
1639,170900.0,7.322037220001222,4.1563329696655265,-5.029713153839111
1640,171000.0,7.322037220001222,4.1563329696655265,-5.029713153839111
1641,171100.0,7.1641106605529785,4.527220726013184,-4.917250633239746
1642,171200.0,7.1641106605529785,4.527220726013184,-4.917250633239746
1643,171300.0,7.1641106605529785,4.527220726013184,-4.917250633239746
1644,171400.0,7.240681171417236,4.177868366241455,-4.941178798675537
1645,171500.0,7.240681171417236,4.177868366241455,-4.941178798675537
1646,171600.0,7.135397434234619,4.23529577255249,-4.977071285247803
1647,171700.0,7.135397434234619,4.23529577255249,-4.977071285247803
1648,171800.0,7.135397434234619,4.23529577255249,-4.977071285247803
1649,171900.0,7.274180889129639,3.981656789779663,-5.005784511566162
1650,172000.0,7.274180889129639,3.981656789779663,-5.005784511566162
1651,172100.0,7.403393745422362,4.113262176513672,-4.895715236663818
1652,172200.0,7.403393745422362,4.113262176513672,-4.895715236663818
1653,172300.0,2.7038896083831787,1.1868400573730469,-4.383650779724121
1654,172400.0,2.7038896083831787,1.1868400573730469,-4.383650779724121
1655,172500.0,10.164710998535156,7.195217609405518,-3.1585259437561035
1656,172600.0,10.164710998535156,7.195217609405518,-3.1585259437561035
1657,172700.0,10.164710998535156,7.195217609405518,-3.1585259437561035
1658,172800.0,7.456035614013673,-0.9882357716560364,-6.585048198699951
1659,172900.0,7.456035614013673,-0.9882357716560364,-6.585048198699951
1660,173000.0,6.7142601013183585,1.497907042503357,-5.989234924316406
1661,173100.0,6.7142601013183585,1.497907042503357,-5.989234924316406
1662,173200.0,2.7661027908325195,-0.4929214715957642,-6.656832218170166
1663,173300.0,2.7661027908325195,-0.4929214715957642,-6.656832218170166
1664,173400.0,2.7661027908325195,-0.4929214715957642,-6.656832218170166
1665,173500.0,4.369294166564941,-1.06480610370636,-10.389636039733887
1666,173600.0,4.369294166564941,-1.06480610370636,-10.389636039733887
1667,173700.0,6.221338748931885,4.012763977050781,-5.472385883331299
1668,173800.0,6.221338748931885,4.012763977050781,-5.472385883331299
1669,173900.0,6.0921263694763175,2.00518536567688,-5.45563554763794
1670,174000.0,6.0921263694763175,2.00518536567688,-5.45563554763794
1671,174100.0,6.0921263694763175,2.00518536567688,-5.45563554763794
1672,174200.0,9.020941734313963,-0.4761717021465302,-6.967899799346924
1673,174300.0,9.020941734313963,-0.4761717021465302,-6.967899799346924
1674,174400.0,4.417150497436523,1.9740787744522093,-6.398407459259032
1675,174500.0,4.417150497436523,1.9740787744522093,-6.398407459259032
1676,174600.0,4.417150497436523,1.9740787744522093,-6.398407459259032
1677,174700.0,6.8482584953308105,-1.5984054803848269,-12.10768222808838
1678,174800.0,6.8482584953308105,-1.5984054803848269,-12.10768222808838
1679,174900.0,4.867001533508301,-0.15553347766399386,-5.9126644134521475
1680,175000.0,4.867001533508301,-0.15553347766399386,-5.9126644134521475
1681,175100.0,7.527820110321045,1.0384850502014158,-8.226524353027344
1682,175200.0,7.527820110321045,1.0384850502014158,-8.226524353027344
1683,175300.0,7.255037784576416,0.28953152894973755,-7.362715244293213
1684,175400.0,7.255037784576416,0.28953152894973755,-7.362715244293213
1685,175500.0,7.188039302825928,0.9882357716560364,-6.431907176971436
1686,175600.0,7.188039302825928,0.9882357716560364,-6.431907176971436
1687,175700.0,7.188039302825928,0.9882357716560364,-6.431907176971436
1688,175800.0,5.982056617736816,3.395415067672729,-2.7038896083831787
1689,175900.0,5.982056617736816,3.395415067672729,-2.7038896083831787
1690,176000.0,6.881758213043213,6.2500529289245605,-5.9126644134521475
1691,176100.0,6.881758213043213,6.2500529289245605,-5.9126644134521475
1692,176200.0,6.881758213043213,6.2500529289245605,-5.9126644134521475
1693,176300.0,9.53779125213623,14.100903511047365,4.543970108032227
1694,176400.0,9.53779125213623,14.100903511047365,4.543970108032227
1695,176500.0,2.3066811561584477,7.355536937713622,1.0528419017791748
1696,176600.0,2.3066811561584477,7.355536937713622,1.0528419017791748
1697,176700.0,4.053441524505615,9.212367057800293,-6.465407371520996
1698,176800.0,4.053441524505615,9.212367057800293,-6.465407371520996
1699,176900.0,4.053441524505615,9.212367057800293,-6.465407371520996
1700,177000.0,4.752145767211914,0.11006984114646913,-8.00399112701416
1701,177100.0,4.752145767211914,0.11006984114646913,-8.00399112701416
1702,177200.0,3.058027505874634,5.615954875946045,-5.697310447692871
1703,177300.0,3.058027505874634,5.615954875946045,-5.697310447692871
1704,177400.0,3.058027505874634,5.615954875946045,-5.697310447692871
1705,177500.0,9.590433120727539,5.989234924316406,-2.620140790939331
1706,177600.0,9.590433120727539,5.989234924316406,-2.620140790939331
1707,177700.0,7.23589563369751,8.283952713012695,0.3661018908023834
1708,177800.0,7.23589563369751,8.283952713012695,0.3661018908023834
1709,177900.0,6.1399827003479,12.579069137573242,1.3950155973434448
1710,178000.0,6.1399827003479,12.579069137573242,1.3950155973434448
1711,178100.0,6.1399827003479,12.579069137573242,1.3950155973434448
1712,178200.0,-0.09092726558446884,2.3090739250183105,-2.462214469909668
1713,178300.0,-0.09092726558446884,2.3090739250183105,-2.462214469909668
1714,178400.0,0.3924228847026825,5.6997032165527335,-3.802195072174072
1715,178500.0,0.3924228847026825,5.6997032165527335,-3.802195072174072
1716,178600.0,0.3924228847026825,5.6997032165527335,-3.802195072174072
1717,178700.0,2.3736801147460938,2.6464619636535645,-6.439085483551025
1718,178800.0,2.3736801147460938,2.6464619636535645,-6.439085483551025
1719,178900.0,3.948157548904419,4.180261135101318,-7.269395351409912
1720,179000.0,3.948157548904419,4.180261135101318,-7.269395351409912
1721,179100.0,10.399208068847656,0.7920243144035339,-4.125226020812988
1722,179200.0,10.399208068847656,0.7920243144035339,-4.125226020812988
1723,179300.0,10.399208068847656,0.7920243144035339,-4.125226020812988
1724,179400.0,8.575876235961914,2.3330020904541016,-5.178067684173584
1725,179500.0,8.575876235961914,2.3330020904541016,-5.178067684173584
1726,179600.0,8.389235496520996,2.416750907897949,-4.290330886840819
1727,179700.0,8.389235496520996,2.416750907897949,-4.290330886840819
1728,179800.0,8.791230201721191,2.620140790939331,-4.766502857208252
1729,179900.0,8.791230201721191,2.620140790939331,-4.766502857208252
1730,180000.0,8.791230201721191,2.620140790939331,-4.766502857208252
1731,180100.0,8.183453559875487,2.12961220741272,-4.493720531463623
1732,180200.0,8.183453559875487,2.12961220741272,-4.493720531463623
1733,180300.0,8.00638484954834,-0.3876372575759888,-2.6560330390930176
1734,180400.0,8.00638484954834,-0.3876372575759888,-2.6560330390930176
1735,180500.0,6.1256256103515625,2.7948169708251958,-5.532205581665039
1736,180600.0,6.1256256103515625,2.7948169708251958,-5.532205581665039
1737,180700.0,9.432506561279297,7.4703922271728525,-2.612962245941162
1738,180800.0,9.432506561279297,7.4703922271728525,-2.612962245941162
1739,180900.0,9.432506561279297,7.4703922271728525,-2.612962245941162
1740,181000.0,4.972285747528076,10.999805450439453,-1.5314064025878906
1741,181100.0,4.972285747528076,10.999805450439453,-1.5314064025878906
1742,181200.0,0.5742774605751038,7.472784996032715,-8.130810737609862
1743,181300.0,0.5742774605751038,7.472784996032715,-8.130810737609862
1744,181400.0,0.5742774605751038,7.472784996032715,-8.130810737609862
1745,181500.0,-2.383251428604126,4.354937553405762,-6.604190349578857
1746,181600.0,-2.383251428604126,4.354937553405762,-6.604190349578857
1747,181700.0,-1.2634103298187256,8.997013092041016,-6.561119556427003
