timestamp,ax,ay,az
1484279500613,-2.0673987865448,3.988835573196411,-8.13798999786377
1484279500828,-1.1150553226470947,4.223331928253174,-8.518448829650879
1484279501078,-1.5553346872329712,5.883951187133789,-7.762316703796387
1484279501312,-0.4259224236011505,7.056434154510498,-6.970292568206787
1484279501549,-1.9046868085861206,4.54636287689209,-8.520841598510742
1484279501788,-1.5457634925842285,4.223331928253174,-8.130810737609863
1484279502028,-1.2490534782409668,4.316651821136475,-8.171488761901855
1484279502276,-1.660618782043457,3.1968109607696533,-8.798408508300781
1484279502506,-1.9669002294540405,4.323830604553223,-8.858229637145996
1484279502748,-2.00518536567688,4.855037212371826,-7.6905317306518555
1484279502983,-1.6079767942428589,4.347758769989014,-9.370293617248535
1484279503225,-1.3591231107711792,6.463014125823975,-8.008777618408203
1484279503475,-1.8041881322860718,3.9912283420562744,-7.8795647621154785
1484279503703,-1.9286150932312012,4.453042984008789,-8.3629150390625
1484279503948,-1.6941183805465698,4.596612453460693,-8.322237014770508
1484279504183,-1.8424735069274902,4.823930263519287,-8.374878883361816
1484279504422,-1.674975872039795,4.890929222106934,-7.898707389831543
1484279504670,-0.9427721500396729,6.508477687835693,-8.037490844726562
1484279504872,-1.2921242713928223,3.981656789779663,-8.537590980529785
1484279505101,-1.1533405780792236,3.2781667709350586,-8.276773452758789
1484279505341,-1.3830513954162598,4.831109046936035,-8.614161491394043
1484279505580,-1.8951154947280884,4.816751956939697,-8.159524917602539
1484279505819,-1.8041881322860718,5.501099109649658,-7.712067127227783
1484279506020,-1.4548362493515015,5.994020462036133,-8.190631866455078
1484279506267,-1.9142580032348633,5.302494525909424,-7.910671234130859
1484279506497,-1.8041881322860718,6.6352972984313965,-8.032705307006836
1484279506738,-1.636690616607666,4.175475597381592,-9.722038269042969
1484279506981,-1.4404792785644531,5.682953834533691,-7.15932559967041
1484279507218,-1.392622709274292,5.675775527954102,-8.685946464538574
1484279507469,-0.8805587291717529,4.376472473144531,-7.735995292663574
1484279507695,-1.6941183805465698,6.058626651763916,-9.135796546936035
1484279507936,-2.47896409034729,3.854837417602539,-7.8077802658081055
1484279508173,-1.5649060010910034,5.532205581665039,-7.982456684112549
1484279508374,-2.014756679534912,5.893522262573242,-7.63310432434082
1484279508618,-1.3830513954162598,2.2133607864379883,-8.140382766723633
1484279508865,-1.4213367700576782,4.070191383361816,-8.855835914611816
1484279509094,-1.8664016723632812,4.622933387756348,-8.343771934509277
1484279509334,-1.7994027137756348,3.8428730964660645,-9.004191398620605
1484279509572,-1.7611174583435059,4.448256969451904,-8.391629219055176
1484279509815,-1.7898313999176025,4.900500774383545,-8.097311973571777
1484279510064,-1.856830358505249,5.481956481933594,-8.82951545715332
1484279510290,-1.8711872100830078,4.254438400268555,-9.530611991882324
1484279510534,-2.6464619636535645,3.390629768371582,-11.035696983337402
1484279510770,-0.2679961323738098,1.730010747909546,-9.042476654052734
1484279511010,-1.368694543838501,2.8809585571289062,-9.020941734313965
1484279511259,-1.3639088869094849,4.682754039764404,-8.10688304901123
1484279511488,-1.574477195739746,4.8813581466674805,-9.554540634155273
1484279511728,-1.7563319206237793,2.47896409034729,-9.363115310668945
1484279511968,-1.7850456237792969,3.029313325881958,-8.685946464538574
1484279512208,-1.7754744291305542,5.233102798461914,-8.066205024719238
1484279512455,-1.9238293170928955,4.515256404876709,-8.59501838684082
1484279512657,-1.5553346872329712,5.414957523345947,-7.034898281097412
1484279512885,-1.8472589254379272,5.644669055938721,-7.786244869232178
1484279513126,-1.5361920595169067,5.781059265136719,-8.097311973571777
1484279513365,-1.5984054803848267,3.3714869022369385,-8.544770240783691
1484279513605,-1.9669002294540405,4.88853645324707,-8.042276382446289
1484279513852,-2.1056838035583496,3.713660717010498,-8.685946464538574
1484279514087,-2.2157537937164307,5.661418437957764,-7.668996810913086
1484279514323,-1.8233308792114258,4.027120590209961,-8.662017822265625
1484279514566,-1.0719845294952393,8.597411155700684,-8.475377082824707
1484279514802,-1.1676974296569824,5.017749309539795,-8.068597793579102
1484279515051,-1.325623631477356,6.439085483551025,-5.907878875732422
1484279515285,-1.9381862878799438,4.981856822967529,-8.71466064453125
1484279515521,-1.5314064025878906,4.95792818069458,-7.793423175811768
1484279515760,-1.392622709274292,3.4193434715270996,-7.77906608581543
1484279516003,-1.062413215637207,4.49132776260376,-7.783851623535156
1484279516249,-1.8759729862213135,5.697310447692871,-8.286344528198242
1484279516479,-1.919043779373169,5.142175674438477,-8.422735214233398
1484279516718,-1.674975872039795,4.000799655914307,-8.638089179992676
1484279516956,-0.8087739944458008,6.116055011749268,-7.716853141784668
1484279517157,-1.832902193069458,4.9435715675354,-8.200202941894531
1484279517358,-1.239482045173645,1.919043779373169,-8.48734188079834
1484279517596,-0.6125625967979431,4.323830604553223,-8.085347175598145
1484279517845,-1.0671988725662231,5.508277893066406,-8.216952323913574
1484279518076,-1.4644075632095337,3.88594388961792,-8.673982620239258
1484279518315,-1.9956141710281372,0.8757730722427368,-10.186245918273926
1484279518556,-1.2203395366668701,6.585048198699951,-7.458428382873535
1484279518794,-1.6797614097595215,3.3858442306518555,-9.164510726928711
1484279519042,-0.5647061467170715,7.044469833374023,-6.439085483551025
1484279519273,-2.2061824798583984,3.8213374614715576,-8.288737297058105
1484279519513,-2.1056838035583496,3.5222349166870117,-8.812766075134277
1484279519754,-0.33020952343940735,6.10169792175293,-7.314858913421631
1484279519992,-1.5074783563613892,4.161118507385254,-8.98265552520752
1484279520241,-1.919043779373169,3.9457647800445557,-8.841480255126953
1484279520471,-1.919043779373169,4.3381876945495605,-8.501699447631836
1484279520710,-1.2921242713928223,2.438286304473877,-8.817551612854004
1484279520956,-1.6654045581817627,3.7950167655944824,-9.140583038330078
1484279521189,-1.8711872100830078,3.562912940979004,-8.889336585998535
1484279521438,-1.5122638940811157,3.2614171504974365,-8.70508861541748
1484279521672,-1.7563319206237793,3.627518892288208,-9.054441452026367
1484279521909,-1.1341978311538696,4.694717884063721,-7.944170951843262
1484279522148,-1.5840486288070679,5.584848403930664,-7.262216091156006
1484279522392,-2.0243279933929443,4.7952165603637695,-9.858428955078125
1484279522636,-0.5312066078186035,4.407578945159912,-7.910671234130859
1484279522866,-0.9236294627189636,2.5004994869232178,-9.382257461547852
1484279523108,-2.1056838035583496,2.7493534088134766,-8.95394229888916
1484279523345,-2.2061824798583984,6.939186096191406,-7.556533336639404
1484279523585,-1.8472589254379272,2.730210542678833,-8.908478736877441
1484279523833,-2.0195422172546387,6.723831653594971,-7.338787078857422
1484279524064,-2.062613010406494,3.2303104400634766,-9.566505432128906
1484279524307,-1.6797614097595215,4.642076015472412,-7.843672752380371
1484279524543,-1.7898313999176025,4.302295207977295,-8.824729919433594
1484279524782,-1.8616160154342651,3.1896328926086426,-7.783851623535156
1484279525030,-1.8376877307891846,3.651447057723999,-8.915657043457031
1484279525231,-1.1820544004440308,2.943171739578247,-9.18126106262207
1484279525461,-1.8711872100830078,5.460421085357666,-7.417750358581543
1484279525699,-1.636690616607666,1.864008903503418,-9.7938232421875
1484279525901,-1.1485549211502075,4.529613494873047,-7.539783954620361
1484279526140,-1.392622709274292,6.2189459800720215,-8.061419486999512
1484279526379,-2.124826431274414,4.2592244148254395,-8.647661209106445
1484279526629,-1.7611174583435059,5.587240695953369,-8.226524353027344
1484279526858,-1.8041881322860718,5.627918720245361,-8.087740898132324
1484279527098,-0.9858429431915283,6.350551128387451,-8.281558990478516
1484279527338,-1.1341978311538696,4.132404804229736,-7.884350299835205
1484279527579,-1.56969153881073,4.498506546020508,-8.776873588562012
1484279527827,0.43549373745918274,3.232703685760498,-8.23130989074707
1484279528056,-1.3351951837539673,6.599405288696289,-9.497113227844238
1484279528296,-1.1533405780792236,3.5700912475585938,-9.300901412963867
1484279528535,-1.4165509939193726,5.099104881286621,-7.963313579559326
1484279528777,-1.9142580032348633,5.039284706115723,-8.087740898132324
1484279529026,-2.0195422172546387,5.615954875946045,-7.508677005767822
1484279529254,-1.574477195739746,4.0797624588012695,-8.71226692199707
1484279529494,-1.2538390159606934,3.665804386138916,-8.216952323913574
1484279529731,-0.9379864931106567,4.4721856117248535,-7.769494533538818
1484279529976,-0.8231310248374939,2.761317014694214,-8.511269569396973
1484279530221,-1.794616937637329,4.027120590209961,-9.090332984924316
1484279530451,-1.6414762735366821,4.130012035369873,-8.525627136230469
1484279530693,-2.0721843242645264,5.247459888458252,-8.157133102416992
1484279530930,-1.0241280794143677,2.9623143672943115,-11.425727844238281
1484279531170,-1.722832441329956,5.285745620727539,-8.169095993041992
1484279531419,-2.0578274726867676,2.029113531112671,-8.614161491394043
1484279531648,-1.7611174583435059,4.371686935424805,-8.204988479614258
1484279531892,-2.0673987865448,3.400200843811035,-8.992227554321289
1484279532128,-2.139183282852173,6.238089084625244,-7.752745151519775
1484279532368,-1.7371891736984253,3.469593048095703,-8.865407943725586
1484279532616,-1.6510475873947144,5.900700569152832,-7.767102241516113
1484279532847,-1.9525433778762817,5.113461971282959,-7.992027282714844
1484279533085,-1.9764715433120728,2.1367905139923096,-9.253045082092285
1484279533329,-2.4981069564819336,3.184847116470337,-7.992027282714844
1484279533566,-2.1583259105682373,4.2137603759765625,-8.865407943725586
1484279533813,-1.9046868085861206,4.764110088348389,-8.281558990478516
1484279534046,-2.2157537937164307,4.902893543243408,-8.549554824829102
1484279534284,-1.3591231107711792,5.675775527954102,-7.403393745422363
1484279534523,-1.521835207939148,5.060819625854492,-8.276773452758789
1484279534762,-1.2825528383255005,4.374079704284668,-9.401400566101074
1484279534964,-2.4981069564819336,5.848058700561523,-5.438885688781738
1484279535211,-2.029113531112671,6.539584159851074,-7.161717891693115
1484279535445,-1.526620864868164,5.644669055938721,-8.358129501342773
1484279535682,-2.5363922119140625,5.522634029388428,-7.5326056480407715
1484279535920,-1.919043779373169,6.070591449737549,-8.02791976928711
1484279536160,-2.1200408935546875,5.443671703338623,-7.922636032104492
1484279536409,-1.8759729862213135,5.718846321105957,-7.735995292663574
1484279536642,-1.0911270380020142,5.077569961547852,-9.494720458984375
1484279536877,-0.9954141974449158,5.333601474761963,-6.860222339630127
1484279537116,-0.9523434042930603,5.781059265136719,-10.107282638549805
1484279537361,-1.6031911373138428,5.32403039932251,-8.00638484954834
1484279537606,-1.038485050201416,2.935993194580078,-9.480363845825195
1484279537836,-1.7324036359786987,4.934000015258789,-7.422535419464111
1484279538076,-1.9381862878799438,4.271188735961914,-8.650053977966309
1484279538316,-1.8472589254379272,4.926821708679199,-8.164310455322266
1484279538555,-1.574477195739746,3.9385859966278076,-7.956134796142578
1484279538803,-1.9381862878799438,5.546562671661377,-7.743173599243164
1484279539034,-2.163111686706543,4.893322467803955,-7.642674922943115
1484279539274,-1.5314064025878906,7.369894027709961,-7.546962738037109
1484279539514,-1.703689694404602,3.232703685760498,-9.052047729492188
1484279539751,-1.5409778356552124,3.6394832134246826,-9.111868858337402
1484279539954,-2.0673987865448,5.548955917358398,-7.520641803741455
1484279540201,-1.9716858863830566,0.6293123364448547,-9.104689598083496
1484279540430,-0.9954141974449158,1.6342979669570923,-9.980463027954102
1484279540632,-2.3976082801818848,7.0923261642456055,-6.786045074462891
1484279540870,-1.210768222808838,4.95792818069458,-9.865608215332031
1484279541114,-1.3304094076156616,7.226324081420898,-6.223731517791748
1484279541350,-1.3782659769058228,7.733603000640869,-7.458428382873535
1484279541601,-1.9860427379608154,5.383851051330566,-7.865207672119141
1484279541829,-1.7371891736984253,4.433900356292725,-8.688338279724121
1484279542068,-2.163111686706543,4.682754039764404,-8.676375389099121
1484279542322,-3.177668571472168,5.635097503662109,-5.955735206604004
1484279542546,-0.82791668176651,5.718846321105957,-7.3746795654296875
1484279542795,-1.56969153881073,5.024927616119385,-7.860422611236572
1484279543027,-2.0003998279571533,4.950750350952148,-8.281558990478516
1484279543267,-2.100898265838623,3.902693748474121,-9.10229778289795
1484279543505,-1.8855443000793457,6.726224899291992,-6.838686943054199
1484279543745,-0.7752745151519775,6.467799663543701,-5.520241737365723
1484279543994,-1.3304094076156616,5.108676433563232,-6.580262184143066
1484279544224,-1.7850456237792969,6.235695838928223,-7.697710037231445
1484279544467,-1.9669002294540405,5.654239654541016,-7.506284713745117
1484279544701,-2.517249345779419,4.682754039764404,-7.800601959228516
1484279544943,-1.9094725847244263,6.051448345184326,-6.587440490722656
1484279545191,-2.1678972244262695,4.436293125152588,-8.243274688720703
1484279545422,-2.1296122074127197,3.9625141620635986,-8.382057189941406
1484279545665,-1.9908283948898315,7.128218650817871,-7.781459331512451
1484279545900,-2.1056838035583496,4.804787635803223,-8.283952713012695
1484279546141,-1.1198409795761108,5.345565319061279,-7.420143127441406
1484279546389,-1.8664016723632812,3.6777684688568115,-9.059226989746094
1484279546621,-2.531606435775757,5.709274768829346,-7.905886173248291
1484279546859,-2.263610363006592,5.249853134155273,-7.9034929275512695
1484279547099,-1.1006983518600464,1.8999011516571045,-9.702895164489746
1484279547338,-2.091326951980591,4.101297855377197,-8.71944522857666
1484279547588,-2.0721843242645264,6.312265872955322,-7.544569969177246
1484279547817,-2.1056838035583496,5.14456844329834,-7.948956489562988
1484279548057,-1.813759446144104,5.26899528503418,-7.9585280418396
1484279548296,-1.4835500717163086,5.603990077972412,-9.77707290649414
1484279548536,-0.19142580032348633,4.572684288024902,-8.264809608459473
1484279548785,-1.5457634925842285,5.0225348472595215,-8.365307807922363
1484279549015,-2.177468776702881,5.204389572143555,-7.884350299835205
1484279549254,-1.9286150932312012,5.441278457641602,-8.193024635314941
1484279549494,-1.215553879737854,4.90528678894043,-7.769494533538818
1484279549732,-1.8281164169311523,5.651846885681152,-9.262616157531738
1484279549982,-1.9286150932312012,6.534798622131348,-8.264809608459473
1484279550214,-2.038684844970703,4.390829563140869,-8.429913520812988
1484279550452,-2.0721843242645264,5.280959606170654,-7.948956489562988
1484279550689,-2.1583259105682373,5.745166778564453,-7.817351341247559
1484279550890,-1.1006983518600464,3.9864425659179688,-7.508677005767822
1484279551131,-1.2011969089508057,5.570490837097168,-7.573283672332764
1484279551381,-2.1822540760040283,5.084747791290283,-7.855636119842529
1484279551609,-2.172683000564575,6.953542709350586,-7.209574222564697
1484279551849,-2.1583259105682373,5.635097503662109,-7.154539585113525
1484279552089,-1.7180466651916504,3.4193434715270996,-7.88913631439209
1484279552328,-1.1389836072921753,5.50349235534668,-8.173882484436035
1484279552578,-2.1200408935546875,5.352744102478027,-7.180860996246338
1484279552805,-1.765903115272522,4.206582069396973,-8.855835914611816
1484279553050,-1.8664016723632812,6.2668023109436035,-8.212166786193848
1484279553285,-1.5984054803848267,4.395615100860596,-8.61894702911377
1484279553526,-1.9238293170928955,4.845465660095215,-8.774479866027832
1484279553774,-1.6319050788879395,4.046263217926025,-9.245866775512695
1484279554005,-2.148754596710205,4.718646049499512,-8.322237014770508
1484279554244,-2.699103832244873,5.319244384765625,-7.649853706359863
1484279554488,-1.5649060010910034,3.902693748474121,-8.109275817871094
1484279554722,-2.115255117416382,6.02512788772583,-7.70249605178833
1484279554972,-2.957528829574585,4.094119548797607,-5.848058700561523
1484279555206,-2.0338993072509766,6.759723663330078,-7.45364236831665
1484279555442,-1.7898313999176025,4.6372904777526855,-7.877171993255615
1484279555680,-1.9908283948898315,3.799802303314209,-7.216752529144287
1484279555921,-1.9142580032348633,5.706881999969482,-8.47059154510498
1484279556169,-1.9669002294540405,5.391028881072998,-8.228917121887207
1484279556404,-2.282752752304077,4.694717884063721,-8.063812255859375
1484279556639,-1.8185452222824097,4.163511276245117,-8.709875106811523
1484279556878,-2.71346116065979,4.170689582824707,-8.484949111938477
1484279557119,-0.27756744623184204,5.137389659881592,-10.607381820678711
1484279557368,-2.139183282852173,4.388436794281006,-8.118846893310547
1484279557598,-2.344966173171997,3.6442689895629883,-9.169296264648438
1484279557838,-2.1200408935546875,5.1804609298706055,-7.932207107543945
1484279558078,-1.8951154947280884,6.2668023109436035,-7.824529647827148
1484279558320,-1.9956141710281372,4.156332969665527,-8.793622970581055
1484279558565,-1.9908283948898315,5.048855781555176,-7.9034929275512695
1484279558795,-1.5649060010910034,4.445864677429199,-8.74337387084961
1484279559035,-3.321237564086914,5.91505765914917,-6.867401123046875
1484279559274,-2.0817556381225586,6.415157318115234,-6.348158359527588
1484279559514,-1.1006983518600464,4.869394302368164,-7.841279983520508
1484279559763,-2.469392776489258,5.386244297027588,-7.204789161682129
1484279559993,-2.3162522315979004,5.388636112213135,-6.439085483551025
1484279560233,-1.9621145725250244,5.312066078186035,-8.774479866027832
1484279560475,-3.081955671310425,7.008577823638916,-6.0538411140441895
1484279560711,-1.8041881322860718,6.070591449737549,-7.113861560821533
1484279560960,-1.832902193069458,6.070591449737549,-7.456035614013672
1484279561190,-2.335394859313965,4.776073932647705,-8.566305160522461
1484279561430,-1.765903115272522,4.945964336395264,-8.204988479614258
1484279561673,-0.3206382095813751,5.871986389160156,-6.69990348815918
1484279561909,-1.7084753513336182,4.563112735748291,-7.755138397216797
1484279562160,-2.3736801147460938,4.285545349121094,-7.860422611236572
1484279562392,-2.4119651317596436,4.388436794281006,-7.755138397216797
1484279562628,-1.1868400573730469,5.8265228271484375,-7.463213920593262
1484279562867,-2.0817556381225586,4.441079139709473,-8.477770805358887
1484279563107,-2.1343977451324463,5.051248073577881,-8.185846328735352
1484279563354,-1.6893328428268433,4.098905563354492,-8.449056625366211
1484279563586,-2.0673987865448,4.527220726013184,-8.49691390991211
1484279563824,-1.6223337650299072,4.4243292808532715,-8.640481948852539
1484279564065,-2.029113531112671,4.8358941078186035,-7.977671146392822
1484279564305,-1.7802598476409912,6.604190349578857,-6.975078105926514
1484279564553,-1.5984054803848267,6.209374904632568,-8.94676399230957
1484279564783,-2.0961124897003174,4.005585193634033,-8.93240737915039
1484279565027,-1.9860427379608154,4.041477203369141,-8.843873023986816
1484279565262,-1.5361920595169067,4.311866760253906,-8.47059154510498
1484279565502,-1.9573287963867188,4.7952165603637695,-7.814958095550537
1484279565751,-0.12442677468061447,6.422336101531982,-6.8482584953308105
1484279565981,-1.124626636505127,5.130211353302002,-7.6905317306518555
1484279566224,-1.9860427379608154,4.450649738311768,-8.767301559448242
1484279566459,-1.7180466651916504,4.551148891448975,-10.083355903625488
1484279566698,-2.297109842300415,4.871786594390869,-8.147561073303223
1484279566899,-1.6941183805465698,6.15673303604126,-7.518248558044434
1484279567149,-2.0578274726867676,4.6372904777526855,-8.475377082824707
1484279567379,-1.9286150932312012,4.677968502044678,-8.200202941894531
1484279567618,-1.9142580032348633,4.800002098083496,-8.159524917602539
1484279567856,-2.0865414142608643,4.333401679992676,-8.58305549621582
1484279568097,-1.6893328428268433,3.4504501819610596,-8.066205024719238
1484279568346,-2.196611166000366,4.974678039550781,-8.183453559875488
1484279568575,-1.9573287963867188,5.271388053894043,-8.047062873840332
1484279568816,-2.1343977451324463,5.474778175354004,-8.082954406738281
1484279569055,-2.053041696548462,4.591826438903809,-8.288737297058105
1484279569296,-1.7467604875564575,5.134997367858887,-8.38444995880127
1484279569547,-1.3112668991088867,4.500899314880371,-7.88913631439209
1484279569773,-1.8233308792114258,4.4721856117248535,-8.523234367370605
1484279570013,-2.0099709033966064,4.634897232055664,-8.2695951461792
1484279570253,-2.062613010406494,6.783651828765869,-6.781259536743164
1484279570496,-1.9573287963867188,5.041677951812744,-8.23848819732666
1484279570740,-2.258824586868286,5.742774486541748,-7.733603000640869
1484279570971,-1.4500504732131958,5.821736812591553,-6.826723098754883
1484279571211,-0.8135597109794617,4.912464618682861,-8.702695846557617
1484279571451,-2.177468776702881,3.778266668319702,-7.22871732711792
1484279571690,-2.234896183013916,3.682554006576538,-8.60459041595459
1484279571938,-1.813759446144104,3.9768712520599365,-8.987441062927246
1484279572169,-2.526820659637451,3.2997026443481445,-8.638089179992676
1484279572412,-1.1533405780792236,5.548955917358398,-8.71226692199707
1484279572648,-1.4021940231323242,6.020341873168945,-9.343972206115723
1484279572888,-0.7226324081420898,5.807380676269531,-8.405985832214355
1484279573137,-1.8041881322860718,5.130211353302002,-8.551947593688965
1484279573366,-1.9956141710281372,5.680561065673828,-8.221738815307617
1484279573608,-2.282752752304077,5.108676433563232,-8.212166786193848
1484279573848,-1.5170495510101318,4.941178798675537,-9.19561767578125
1484279574085,-2.062613010406494,3.720839262008667,-8.879764556884766
1484279574334,-2.0721843242645264,5.565705299377441,-7.417750358581543
1484279574565,-1.9716858863830566,5.376672744750977,-7.886743545532227
1484279574804,-1.8041881322860718,4.185047149658203,-8.49691390991211
1484279575046,-1.8424735069274902,4.972285747528076,-7.9728851318359375
1484279575283,-1.9094725847244263,5.438885688781738,-7.93699312210083
1484279575532,-1.2634103298187256,7.570890426635742,-7.314858913421631
1484279575765,-1.3878371715545654,4.59421968460083,-8.207381248474121
1484279576001,-1.8664016723632812,2.675175428390503,-8.882158279418945
1484279576241,-2.1822540760040283,5.218745708465576,-8.468198776245117
1484279576480,-1.5409778356552124,3.524627923965454,-8.13798999786377
1484279576728,-1.306481122970581,4.687539577484131,-8.60459041595459
1484279576962,-1.191625714302063,3.565305471420288,-8.401200294494629
1484279577198,-1.3878371715545654,5.687739372253418,-7.671389579772949
1484279577439,-0.4737788736820221,4.993820667266846,-9.214759826660156
1484279577679,-2.1104695796966553,4.517649173736572,-8.513663291931152
1484279577926,-1.88075852394104,5.501099109649658,-7.731209754943848
1484279578157,-2.0817556381225586,5.647061824798584,-7.915457248687744
1484279578397,-1.1724830865859985,3.5198421478271484,-9.372685432434082
1484279578636,-2.445464611053467,4.761716842651367,-8.243274688720703
1484279578876,-1.813759446144104,4.991428375244141,-8.037490844726562
1484279579123,-1.3639088869094849,7.214360237121582,-7.144968032836914
1484279579325,-2.0243279933929443,4.5200419425964355,-8.45862865447998
1484279579554,-2.3258235454559326,5.2115678787231445,-8.681159973144531
1484279579794,-1.1724830865859985,6.733402729034424,-6.8171515464782715
1484279580035,-1.1629117727279663,5.398207664489746,-8.791230201721191
1484279580273,-1.526620864868164,3.3068809509277344,-8.73619556427002
1484279580522,-2.0961124897003174,5.647061824798584,-8.831908226013184
1484279580751,-2.1296122074127197,6.467799663543701,-8.927621841430664
1484279580953,-1.703689694404602,3.4791641235351562,-8.444271087646484
1484279581191,-0.9475577473640442,3.345165967941284,-7.9585280418396
1484279581434,-1.2681961059570312,4.579862117767334,-8.298308372497559
1484279581670,-1.947757601737976,3.0939197540283203,-8.94676399230957
1484279581918,-2.282752752304077,4.65643310546875,-8.379664421081543
1484279582149,-1.7994027137756348,4.948357105255127,-8.72662353515625
1484279582388,-1.7994027137756348,6.860222339630127,-7.963313579559326
1484279582626,-1.7467604875564575,3.88594388961792,-8.549554824829102
1484279582828,-1.7180466651916504,5.084747791290283,-8.446663856506348
1484279583068,-1.8185452222824097,5.61116886138916,-7.714460372924805
1484279583316,-1.0097711086273193,6.262016773223877,-7.855636119842529
1484279583547,-1.1341978311538696,3.4432716369628906,-10.750951766967773
1484279583785,-2.062613010406494,5.2115678787231445,-8.214560508728027
1484279584025,-0.9284151792526245,2.63449764251709,-9.116654396057129
1484279584265,-1.3830513954162598,5.625525951385498,-7.444070816040039
1484279584513,-2.124826431274414,4.811966419219971,-8.23848819732666
1484279584743,-1.4787644147872925,4.950750350952148,-8.190631866455078
1484279584988,-2.210968255996704,5.053641319274902,-7.992027282714844
1484279585221,-1.794616937637329,5.424529075622559,-7.846065521240234
1484279585423,-2.187039852142334,4.807180881500244,-8.011170387268066
1484279585663,-1.9525433778762817,5.938986301422119,-7.049255847930908
1484279585910,-2.321038007736206,5.142175674438477,-7.401000499725342
1484279586111,-1.9286150932312012,4.859822750091553,-7.848458290100098
1484279586341,-1.4548362493515015,5.240281581878662,-6.991827487945557
1484279586583,-1.94297194480896,4.589433670043945,-8.188239097595215
1484279586820,-1.947757601737976,5.034498691558838,-8.260024070739746
1484279587059,-1.5409778356552124,5.709274768829346,-7.956134796142578
1484279587309,-1.0959126949310303,3.6538403034210205,-8.437092781066895
1484279587538,-2.1535403728485107,4.890929222106934,-7.944170951843262
1484279587778,-2.0865414142608643,4.158725738525391,-8.695517539978027
1484279588018,-2.1343977451324463,4.874179840087891,-7.190432548522949
1484279588259,-1.2251251935958862,4.859822750091553,-8.341379165649414
1484279588508,-2.0865414142608643,5.355136871337891,-8.427520751953125
1484279588736,-1.65583336353302,5.1565327644348145,-7.788637638092041
1484279588976,-0.8422735333442688,4.919642925262451,-7.628318786621094
1484279589216,-1.1629117727279663,5.513063907623291,-6.297908782958984
1484279589458,-1.741974949836731,3.1082763671875,-8.776873588562012
1484279589701,-1.7706886529922485,6.537191867828369,-7.680960178375244
1484279589902,-2.1678972244262695,4.340579986572266,-8.511269569396973
1484279590106,-2.053041696548462,5.0943193435668945,-7.88913631439209
1484279590333,-1.6462620496749878,3.1920251846313477,-8.446663856506348
1484279590573,-2.091326951980591,5.706881999969482,-7.386643409729004
1484279590812,-2.1918253898620605,4.481756687164307,-8.274380683898926
1484279591056,-1.1485549211502075,4.811966419219971,-8.102097511291504
1484279591300,-1.7898313999176025,5.747560024261475,-7.8819580078125
1484279591531,-1.5314064025878906,4.934000015258789,-8.504091262817383
1484279591772,-2.3497519493103027,6.058626651763916,-7.791030406951904
1484279592008,-1.660618782043457,2.3712873458862305,-9.992427825927734
1484279592250,-2.2301106452941895,3.620340585708618,-9.279366493225098
1484279592498,-1.919043779373169,6.415157318115234,-7.740781307220459
1484279592727,-0.7657032012939453,5.036891937255859,-8.949156761169434
1484279592971,-1.2586246728897095,5.97727108001709,-9.020941734313965
1484279593206,-2.258824586868286,3.998406410217285,-7.133004188537598
1484279593446,-2.0865414142608643,5.56331205368042,-7.872386455535889
1484279593694,-1.6701902151107788,5.869593620300293,-10.612168312072754
1484279593895,-2.3880369663238525,3.2853453159332275,-8.898907661437988
1484279594127,-1.852044701576233,7.635497093200684,-6.242874622344971
1484279594365,-0.8901299238204956,4.022334575653076,-7.15932559967041
1484279594603,-2.0099709033966064,4.431507587432861,-9.533005714416504
1484279594804,-1.325623631477356,5.137389659881592,-8.030312538146973
1484279595044,-2.5124638080596924,3.314059257507324,-8.788837432861328
1484279595293,-2.249253273010254,5.647061824798584,-7.312465667724609
1484279595526,-2.2205395698547363,4.821537494659424,-8.315058708190918
1484279595761,-2.124826431274414,5.338387489318848,-8.061419486999512
1484279595964,-2.335394859313965,4.242474555969238,-8.47298526763916
1484279596203,-1.2299107313156128,5.654239654541016,-7.999206066131592
1484279596445,-2.0673987865448,1.8616160154342651,-9.69093132019043
1484279596690,-2.2540390491485596,7.264609336853027,-7.0683979988098145
1484279596922,-1.6510475873947144,6.1950178146362305,-7.137789726257324
1484279597160,-1.5936198234558105,4.646861553192139,-8.61894702911377
1484279597399,-1.5649060010910034,3.9290146827697754,-9.475577354431152
1484279597643,-0.9236294627189636,5.958127975463867,-7.8795647621154785
1484279597886,-1.88075852394104,4.163511276245117,-8.367700576782227
1484279598118,-1.9046868085861206,4.146761417388916,-8.111669540405273
1484279598358,-2.0243279933929443,4.900500774383545,-8.640481948852539
1484279598597,-1.325623631477356,7.061219692230225,-5.257031440734863
1484279598836,-1.1150553226470947,5.060819625854492,-7.113861560821533
1484279599085,-2.062613010406494,4.0797624588012695,-8.525627136230469
1484279599315,-2.4119651317596436,1.160519003868103,-9.722038269042969
1484279599555,-2.0243279933929443,4.821537494659424,-9.68375301361084
1484279599796,-2.115255117416382,4.599005222320557,-9.781858444213867
1484279600034,-1.6031911373138428,4.718646049499512,-7.934599876403809
1484279600283,-0.97148597240448,3.0939197540283203,-9.06879711151123
1484279600514,0.3349951505661011,1.1437692642211914,-9.559326171875
1484279600752,-1.8233308792114258,2.778067111968994,-8.934800148010254
1484279600996,-1.3399806022644043,4.615755081176758,-8.47298526763916
1484279601232,-1.8903299570083618,3.9146575927734375,-10.033105850219727
1484279601481,-1.7802598476409912,5.2283172607421875,-7.353143692016602
1484279601711,-1.2059825658798218,4.256831645965576,-7.089932918548584
1484279601952,-1.65583336353302,5.659025192260742,-7.458428382873535
1484279602193,-2.3066811561584473,4.412364959716797,-8.528019905090332
1484279602431,-0.9571290016174316,2.486142873764038,-7.372286796569824
1484279602679,-2.3497519493103027,4.510470867156982,-9.623932838439941
1484279602910,-2.4981069564819336,6.580262184143066,-6.711867332458496
1484279603148,-2.0195422172546387,5.869593620300293,-7.465606689453125
1484279603387,-1.9669002294540405,5.302494525909424,-8.401200294494629
1484279603628,-2.139183282852173,4.7234320640563965,-7.597211837768555
1484279603875,-1.5457634925842285,4.634897232055664,-8.642874717712402
1484279604106,-1.4404792785644531,7.869993209838867,-7.822136878967285
1484279604346,-1.7898313999176025,8.561518669128418,-7.824529647827148
1484279604585,-2.407179594039917,3.888336658477783,-9.221939086914062
1484279604825,-2.2779672145843506,3.9457647800445557,-8.860621452331543
1484279605072,-1.794616937637329,8.523234367370605,-8.293522834777832
1484279605303,-2.1056838035583496,4.735395908355713,-8.3629150390625
1484279605543,-1.459621787071228,5.816952228546143,-7.412964344024658
1484279605782,-1.3016955852508545,4.515256404876709,-8.22413158416748
1484279606022,-2.029113531112671,3.067598581314087,-9.221939086914062
1484279606270,-2.2540390491485596,2.194218397140503,-8.6907320022583
1484279606501,-0.760917603969574,7.23589563369751,-8.255237579345703
1484279606740,-1.1389836072921753,5.2977094650268555,-9.116654396057129
1484279606982,-1.9669002294540405,5.010570526123047,-7.695317268371582
1484279607220,-1.9142580032348633,7.429713726043701,-7.829315185546875
1484279607430,-0.6843472719192505,3.4648072719573975,-8.10688304901123
1484279607669,-1.7324036359786987,5.458028793334961,-8.123632431030273
1484279607899,-1.5361920595169067,4.807180881500244,-7.403393745422363
1484279608138,-2.196611166000366,6.733402729034424,-7.910671234130859
1484279608379,-2.550748825073242,5.388636112213135,-7.692924976348877
1484279608619,-2.1583259105682373,5.335994720458984,-7.020541667938232
1484279608866,-1.0001999139785767,-1.8592231273651123,-12.55992603302002
1484279609096,-2.531606435775757,6.357729434967041,-7.472784996032715
1484279609336,-2.311466693878174,6.233303070068359,-6.577868938446045
1484279609575,-2.053041696548462,5.015356063842773,-8.956335067749023
1484279609818,-2.1343977451324463,3.555734634399414,-7.659425258636475
1484279610064,-1.34476637840271,4.378865718841553,-7.865207672119141
1484279610294,-1.4691929817199707,2.2205395698547363,-9.305686950683594
1484279610537,-2.359323024749756,0.1459621787071228,-10.980663299560547
1484279610772,-2.4837498664855957,5.599205493927002,-8.94676399230957
1484279611012,-2.234896183013916,4.158725738525391,-10.210174560546875
1484279611261,-1.6319050788879395,4.910072326660156,-6.7621169090271
1484279611491,-1.5170495510101318,5.345565319061279,-5.300102710723877
1484279611731,-2.421536445617676,8.38444995880127,-5.934200286865234
1484279611970,-2.0195422172546387,4.347758769989014,-7.3675007820129395
1484279612210,-1.1006983518600464,4.35254430770874,-8.264809608459473
1484279612457,-1.1006983518600464,4.9363932609558105,-8.0350980758667
1484279612658,-1.5074783563613892,4.845465660095215,-8.331808090209961
1484279612888,-2.5220348834991455,4.041477203369141,-8.226524353027344
1484279613129,-1.2921242713928223,6.307480335235596,-7.901099681854248
1484279613368,-1.4261221885681152,7.628318786621094,-6.999006271362305
1484279613607,-1.6797614097595215,5.307280540466309,-7.874779224395752
1484279613855,-2.344966173171997,6.687938690185547,-6.616154670715332
1484279614085,-1.9621145725250244,5.553741931915283,-8.10688304901123
1484279614326,-1.7467604875564575,5.333601474761963,-8.173882484436035
1484279614565,-1.9669002294540405,3.1513471603393555,-8.073383331298828
1484279614805,-1.5314064025878906,4.266402721405029,-8.23848819732666
1484279615054,-1.94297194480896,5.0871405601501465,-8.037490844726562
1484279615284,-1.8472589254379272,5.419743537902832,-7.77188777923584
1484279615523,-2.263610363006592,4.1347975730896,-8.788837432861328
1484279615763,-2.0195422172546387,4.7018961906433105,-7.960920810699463
1484279616006,-1.3304094076156616,6.436692714691162,-7.83410120010376
1484279616255,-1.8472589254379272,5.221138954162598,-8.169095993041992
1484279616483,-2.0243279933929443,5.871986389160156,-7.570890426635742
1484279616721,-1.8616160154342651,3.919443368911743,-8.286344528198242
1484279616959,-1.2299107313156128,5.0943193435668945,-8.894121170043945
1484279617160,-1.8376877307891846,4.474578380584717,-8.860621452331543
1484279617400,-2.062613010406494,4.950750350952148,-7.814958095550537
1484279617649,-1.5601203441619873,4.469792366027832,-6.92482852935791
1484279617878,-1.191625714302063,5.103890895843506,-8.183453559875488
1484279618079,-0.7417750358581543,7.015756130218506,-8.501699447631836
1484279618322,-1.4644075632095337,5.871986389160156,-7.939385414123535
1484279618557,-2.5124638080596924,5.347958564758301,-7.726424217224121
1484279618797,-1.9142580032348633,5.134997367858887,-8.334200859069824
1484279619045,-1.7467604875564575,6.417550563812256,-7.326822757720947
1484279619276,-1.919043779373169,6.128018856048584,-7.688138484954834
1484279619516,-2.038684844970703,5.37188720703125,-7.747959613800049
1484279619756,-1.0767701864242554,6.972684860229492,-7.676175117492676
1484279619995,-1.7994027137756348,5.749952793121338,-8.032705307006836
1484279620243,-2.531606435775757,6.508477687835693,-6.618547439575195
1484279620475,-1.5601203441619873,6.118447780609131,-7.726424217224121
1484279620712,-2.8666017055511475,6.331408977508545,-6.972684860229492
1484279620958,-2.0578274726867676,5.111069202423096,-8.834300994873047
1484279621192,-3.460021495819092,1.765903115272522,-7.661818027496338
1484279621442,-1.9716858863830566,3.589233875274658,-8.518448829650879
1484279621675,-1.7515461444854736,4.960320949554443,-8.001599311828613
1484279621911,-1.727617859840393,4.981856822967529,-8.499305725097656
1484279622150,-1.7898313999176025,4.914857387542725,-8.293522834777832
1484279622390,-2.2540390491485596,6.975078105926514,-7.29810905456543
1484279622639,-2.014756679534912,4.254438400268555,-8.630911827087402
1484279622872,-1.7754744291305542,3.6849470138549805,-8.47298526763916
1484279623109,-1.3543376922607422,4.768895626068115,-7.798208713531494
1484279623348,-2.1056838035583496,4.275973796844482,-9.226724624633789
1484279623588,-0.6221339106559753,4.223331928253174,-7.714460372924805
1484279623836,-1.7371891736984253,6.439085483551025,-8.513663291931152
1484279624066,-1.4787644147872925,3.759124279022217,-8.731410026550293
1484279624306,-0.8087739944458008,5.247459888458252,-10.61695384979248
1484279624508,-2.3736801147460938,4.5367913246154785,-7.767102241516113
1484279624744,-0.30149564146995544,6.687938690185547,-7.743173599243164
1484279624985,-2.1678972244262695,6.620940208435059,-7.659425258636475
1484279625231,-2.47896409034729,5.187639236450195,-8.38684368133545
1484279625432,-1.9908283948898315,4.412364959716797,-8.37727165222168
1484279625663,-2.8283162117004395,3.31884503364563,-9.269794464111328
1484279625903,-1.8951154947280884,4.170689582824707,-8.295915603637695
1484279626145,-0.8757730722427368,4.311866760253906,-7.403393745422363
1484279626382,-1.526620864868164,5.386244297027588,-8.523234367370605
1484279626632,-2.469392776489258,5.1637115478515625,-7.915457248687744
1484279626861,-2.091326951980591,5.027320384979248,-7.956134796142578
1484279627100,-1.9956141710281372,3.948157548904419,-8.372486114501953
1484279627343,-1.9621145725250244,3.8524444103240967,-8.709875106811523
1484279627580,-0.9236294627189636,4.185047149658203,-8.018348693847656
1484279627828,-1.7467604875564575,4.780859470367432,-8.468198776245117
1484279628059,-1.7467604875564575,5.206782341003418,-8.094919204711914
1484279628298,-2.273181438446045,4.429114818572998,-8.322237014770508
1484279628538,-2.029113531112671,4.632504463195801,-8.324630737304688
1484279628778,-2.014756679534912,5.553741931915283,-8.973085403442383
1484279629026,-1.94297194480896,5.257031440734863,-8.329416275024414
1484279629258,-1.4165509939193726,5.115854740142822,-7.99681282043457
1484279629497,-1.9525433778762817,4.7712883949279785,-8.350951194763184
1484279629735,-1.5936198234558105,4.828716278076172,-8.695517539978027
1484279629975,-1.741974949836731,4.094119548797607,-8.434700012207031
1484279630224,-2.263610363006592,4.321437358856201,-8.190631866455078
1484279630454,-0.5024927258491516,2.4885356426239014,-8.166703224182129
1484279630694,-2.321038007736206,4.627718925476074,-9.162117958068848
1484279630931,-0.5790630578994751,3.294916868209839,-9.32004451751709
1484279631173,-3.0245277881622314,5.0009989738464355,-7.209574222564697
1484279631421,-2.2157537937164307,4.996213912963867,-8.066205024719238
1484279631651,-2.100898265838623,5.1804609298706055,-7.951349258422852
1484279631891,-2.5842485427856445,5.917449951171875,-7.511070251464844
1484279632131,-2.3258235454559326,6.029913425445557,-7.867600917816162
1484279632370,-1.34476637840271,5.37906551361084,-7.262216091156006
1484279632618,-1.9764715433120728,4.0797624588012695,-8.5160551071167
1484279632850,-2.4981069564819336,5.26899528503418,-7.867600917816162
1484279633089,-2.4981069564819336,6.123232841491699,-7.046862602233887
1484279633327,-1.497907042503357,3.4983065128326416,-8.190631866455078
1484279633568,-1.9669002294540405,4.845465660095215,-8.94676399230957
1484279633814,-2.258824586868286,5.489135265350342,-7.814958095550537
1484279634015,-1.8759729862213135,2.8115665912628174,-7.645068168640137
1484279634218,-2.431107759475708,5.003392219543457,-8.382057189941406
1484279634446,-2.4981069564819336,6.151947498321533,-8.09252643585205
1484279634684,-1.196411371231079,6.417550563812256,-7.348358631134033
1484279634885,-2.579463005065918,5.996413230895996,-8.090132713317871
1484279635124,-2.7182462215423584,4.6301116943359375,-7.83410120010376
1484279635370,-1.521835207939148,4.642076015472412,-8.322237014770508
1484279635617,-1.6893328428268433,4.515256404876709,-8.425127983093262
1484279635843,-2.2779672145843506,3.9553356170654297,-8.73619556427002
1484279636083,-1.4213367700576782,6.295516490936279,-8.334200859069824
1484279636322,-2.5459630489349365,7.456035614013672,-9.767501831054688
1484279636566,-0.14356936514377594,3.4791641235351562,-8.398807525634766
1484279636811,-2.5220348834991455,6.113661766052246,-6.994220733642578
1484279637041,-2.297109842300415,3.830909013748169,-8.585447311401367
1484279637284,-2.234896183013916,4.680361270904541,-8.365307807922363
1484279637519,-2.0195422172546387,4.039084434509277,-8.432307243347168
1484279637762,-2.2157537937164307,4.622933387756348,-8.635696411132812
1484279638009,-2.196611166000366,5.154139995574951,-8.135597229003906
1484279638238,-0.7657032012939453,4.141976356506348,-7.714460372924805
1484279638482,-2.038684844970703,4.508078098297119,-8.532805442810059
1484279638716,-1.0001999139785767,4.615755081176758,-10.037891387939453
1484279638958,-2.2301106452941895,4.039084434509277,-8.554340362548828
1484279639205,-2.416750907897949,4.867001533508301,-9.078369140625
1484279639438,-2.47896409034729,5.125426292419434,-7.9657063484191895
1484279639676,-1.325623631477356,4.089334011077881,-8.50887680053711
1484279639915,-1.9334007501602173,5.582455158233643,-8.33898639678955
1484279640155,-2.71346116065979,6.317051887512207,-7.094719409942627
1484279640403,-1.7802598476409912,4.6301116943359375,-8.382057189941406
1484279640636,-1.2538390159606934,3.728017807006836,-7.9896345138549805
1484279640873,-1.8041881322860718,4.388436794281006,-9.556933403015137
1484279641113,-2.5842485427856445,4.319044589996338,-8.537590980529785
1484279641353,-1.6510475873947144,6.240481376647949,-7.913064479827881
1484279641601,-1.9908283948898315,5.8959150314331055,-9.80817985534668
1484279641833,-1.2442678213119507,4.295116424560547,-7.161717891693115
1484279642070,-2.5076780319213867,5.9676995277404785,-7.185646057128906
1484279642271,-0.8901299238204956,3.053241729736328,-8.35573673248291
1484279642509,-1.8233308792114258,4.443471908569336,-8.513663291931152
1484279642752,-2.2013967037200928,5.056034088134766,-8.12841796875
1484279642999,-2.737389087677002,5.084747791290283,-8.752944946289062
1484279643229,-2.4646072387695312,5.702096462249756,-7.867600917816162
1484279643469,-2.2301106452941895,5.522634029388428,-7.5326056480407715
1484279643706,-2.3066811561584473,5.544170379638672,-7.570890426635742
1484279643907,-1.392622709274292,5.1804609298706055,-8.434700012207031
1484279644147,-1.6510475873947144,4.333401679992676,-9.621540069580078
1484279644396,-2.196611166000366,7.752745151519775,-6.386443614959717
1484279644626,-1.6175479888916016,6.666403770446777,-7.1473612785339355
1484279644866,-2.383251428604126,5.161318302154541,-7.625925540924072
1484279645105,-1.4261221885681152,3.8979082107543945,-8.140382766723633
1484279645344,-0.8949156999588013,2.998206615447998,-9.33440113067627
1484279645592,-1.4165509939193726,5.003392219543457,-9.21715259552002
1484279645823,-2.75174617767334,5.982056617736816,-7.137789726257324
1484279646063,-2.076970100402832,5.304887294769287,-8.161917686462402
1484279646304,-1.9525433778762817,6.604190349578857,-7.869993209838867
1484279646541,-2.0482561588287354,4.264009952545166,-8.721837997436523
1484279646790,-2.2061824798583984,7.362715244293213,-7.171289443969727
1484279647021,-2.282752752304077,4.405186176300049,-8.539983749389648
1484279647261,-2.0338993072509766,4.474578380584717,-8.226524353027344
1484279647504,-2.0578274726867676,4.663610935211182,-8.446663856506348
1484279647739,-0.8327022790908813,2.452643394470215,-8.939584732055664
1484279647988,-1.727617859840393,5.740381240844727,-8.202595710754395
1484279648219,-1.459621787071228,4.826323509216309,-7.508677005767822
1484279648459,-1.5792629718780518,6.118447780609131,-7.740781307220459
1484279648696,-2.014756679534912,5.434100151062012,-7.929814338684082
1484279648938,-2.493321180343628,5.881557941436768,-9.257830619812012
1484279649186,-1.9860427379608154,5.072784423828125,-8.549554824829102
1484279649420,-2.0243279933929443,4.603790760040283,-9.145368576049805
1484279649658,-2.2779672145843506,7.58524751663208,-6.063412666320801
1484279649895,-2.1822540760040283,5.570490837097168,-7.491927623748779
1484279650135,-1.9525433778762817,5.1565327644348145,-8.044669151306152
1484279650384,-0.09092726558446884,3.9625141620635986,-10.274779319763184
1484279650614,-1.5026925802230835,4.649254322052002,-8.621339797973633
1484279650857,-1.8616160154342651,4.242474555969238,-8.592625617980957
1484279651093,-2.172683000564575,5.458028793334961,-7.755138397216797
1484279651333,-1.6223337650299072,4.692325115203857,-7.008577823638916
1484279651582,-2.273181438446045,5.718846321105957,-7.379465103149414
1484279651811,-1.9094725847244263,5.670989990234375,-7.862814903259277
1484279652054,-2.3641088008880615,6.393621921539307,-8.925228118896484
1484279652291,-1.7706886529922485,3.515056610107422,-8.350951194763184
1484279652569,-1.1724830865859985,4.883750915527344,-7.767102241516113
1484279652777,-1.4500504732131958,3.972085475921631,-8.999405860900879
1484279652979,-1.703689694404602,3.493520975112915,-8.504091262817383
1484279653209,-1.7754744291305542,5.723631858825684,-7.240681171417236
1484279653449,-2.115255117416382,5.938986301422119,-7.668996810913086
1484279653686,-1.8472589254379272,4.441079139709473,-8.724230766296387
1484279653928,-0.9284151792526245,4.517649173736572,-9.485149383544922
1484279654178,-2.4837498664855957,4.048655986785889,-9.269794464111328
1484279654407,-1.9238293170928955,4.735395908355713,-8.286344528198242
1484279654647,-0.8231310248374939,2.0171494483947754,-8.793622970581055
1484279654886,-0.9236294627189636,8.02791976928711,-6.508477687835693
1484279655127,-1.6271194219589233,2.7661027908325195,-8.403593063354492
1484279655376,-1.521835207939148,3.1585259437561035,-8.71466064453125
1484279655604,-0.8039883971214294,4.01037073135376,-7.817351341247559
1484279655844,-1.9956141710281372,5.61116886138916,-7.960920810699463
1484279656045,-2.3066811561584473,5.565705299377441,-7.786244869232178
1484279656283,-1.65583336353302,4.541577339172363,-8.087740898132324
1484279656526,-1.919043779373169,5.008177757263184,-8.425127983093262
1484279656774,-2.0673987865448,6.1088762283325195,-7.774280071258545
1484279657002,-2.4358932971954346,4.6301116943359375,-8.82951545715332
1484279657245,-2.0003998279571533,5.694917678833008,-7.829315185546875
1484279657481,-1.3112668991088867,3.345165967941284,-7.692924976348877
1484279657721,-2.4646072387695312,5.807380676269531,-6.393621921539307
1484279657969,-1.3639088869094849,4.845465660095215,-7.295715808868408
1484279658199,-2.2540390491485596,4.922036170959473,-7.465606689453125
1484279658443,-1.813759446144104,5.010570526123047,-8.001599311828613
1484279658677,-1.8041881322860718,5.6901326179504395,-8.202595710754395
1484279658918,-1.9334007501602173,6.03230619430542,-7.3675007820129395
1484279659167,-2.1200408935546875,4.287938117980957,-8.549554824829102
1484279659398,-2.4023938179016113,5.340780735015869,-8.45862865447998
1484279659636,-1.6127625703811646,5.869593620300293,-8.305487632751465
1484279659875,-2.8283162117004395,6.453442573547363,-6.802794933319092
1484279660116,-0.5264209508895874,2.6967110633850098,-9.755537986755371
1484279660364,-1.9956141710281372,5.101497650146484,-8.202595710754395
1484279660597,-2.0195422172546387,4.673182487487793,-7.551748275756836
1484279660834,-1.8903299570083618,4.914857387542725,-8.994620323181152
1484279661074,-2.2540390491485596,5.137389659881592,-7.975277900695801
1484279661313,-1.435693621635437,4.455435752868652,-9.485149383544922
1484279661561,-1.9046868085861206,4.599005222320557,-8.532805442810059
1484279661794,-1.2969098091125488,5.66620397567749,-7.975277900695801
1484279662032,-2.4023938179016113,4.019941806793213,-8.157133102416992
1484279662271,-1.1724830865859985,5.891129493713379,-9.516255378723145
1484279662514,-2.0243279933929443,5.50349235534668,-7.609175682067871
1484279662759,-2.469392776489258,4.78803825378418,-8.848658561706543
1484279662990,-0.7034898400306702,3.603590488433838,-8.645268440246582
1484279663230,-1.9621145725250244,5.429314613342285,-7.970492362976074
1484279663469,-1.2059825658798218,5.058426856994629,-7.408178806304932
1484279663708,-1.88075852394104,4.644468784332275,-8.14516830444336
1484279663960,-1.6797614097595215,3.2231321334838867,-9.221939086914062
1484279664187,-1.5936198234558105,3.651447057723999,-10.214959144592285
1484279664427,-2.038684844970703,5.120640754699707,-8.372486114501953
1484279664668,-2.2157537937164307,5.309673309326172,-7.898707389831543
1484279664906,-2.469392776489258,5.458028793334961,-8.214560508728027
1484279665156,-2.0195422172546387,4.4027934074401855,-7.6043901443481445
1484279665385,-1.636690616607666,5.9676995277404785,-5.556134223937988
1484279665625,-1.2059825658798218,5.029713153839111,-8.585447311401367
1484279665865,-1.6319050788879395,4.9363932609558105,-8.870193481445312
1484279666104,-1.765903115272522,6.836294651031494,-7.860422611236572
1484279666352,-1.526620864868164,7.484748840332031,-6.154339790344238
1484279666583,-1.6701902151107788,5.237888813018799,-8.329416275024414
1484279666821,-1.2586246728897095,5.0943193435668945,-8.039883613586426
1484279667022,-2.4598214626312256,5.807380676269531,-7.0923261642456055
1484279667265,-1.6941183805465698,3.2231321334838867,-9.207581520080566
1484279667500,-1.5936198234558105,5.173282146453857,-7.9585280418396
1484279667749,-1.5457634925842285,4.780859470367432,-7.743173599243164
1484279667984,-0.7896314859390259,3.7567315101623535,-8.33898639678955
1484279668220,-1.660618782043457,4.429114818572998,-8.532805442810059
1484279668459,-1.4165509939193726,5.972485065460205,-7.850851535797119
1484279668698,-2.1056838035583496,5.745166778564453,-7.877171993255615
1484279668899,-2.2157537937164307,5.077569961547852,-7.259823799133301
1484279669146,-1.6701902151107788,3.9361932277679443,-8.532805442810059
1484279669383,-2.3784656524658203,2.754138946533203,-9.083154678344727
1484279669619,-1.4787644147872925,4.823930263519287,-7.764709949493408
1484279669856,-1.459621787071228,4.833501815795898,-8.382057189941406
1484279670096,-0.8087739944458008,3.730410575866699,-7.824529647827148
1484279670345,-1.6127625703811646,3.8811583518981934,-9.142975807189941
1484279670575,-1.9956141710281372,3.7328033447265625,-9.18126106262207
1484279670814,-1.4261221885681152,3.9601213932037354,-8.776873588562012
1484279671054,-2.062613010406494,5.345565319061279,-7.590033531188965
1484279671294,-1.057627558708191,4.752145767211914,-8.011170387268066
1484279671542,-2.100898265838623,4.4243292808532715,-8.489734649658203
1484279671772,-2.1535403728485107,6.029913425445557,-7.513463020324707
1484279672012,-1.3782659769058228,5.477170467376709,-7.700103282928467
1484279672252,-1.9142580032348633,4.436293125152588,-8.681159973144531
1484279672490,-2.0195422172546387,2.75174617767334,-7.896315097808838
1484279672738,-1.4691929817199707,5.663811206817627,-7.747959613800049
1484279672940,-1.727617859840393,4.211367607116699,-9.107083320617676
1484279673169,-1.4213367700576782,4.5200419425964355,-9.731609344482422
1484279673409,-1.6941183805465698,3.383451223373413,-9.219545364379883
1484279673652,-0.760917603969574,3.6466617584228516,-8.544770240783691
1484279673889,-2.100898265838623,4.486542701721191,-7.396214485168457
1484279674136,-2.043470621109009,4.388436794281006,-9.028119087219238
1484279674367,-2.287538528442383,3.122633695602417,-9.09272575378418
1484279674607,-1.392622709274292,1.6654045581817627,-8.405985832214355
1484279674846,-1.105484127998352,2.6464619636535645,-8.468198776245117
1484279675089,-0.8901299238204956,4.120440483093262,-8.049454689025879
1484279675334,-1.5361920595169067,3.4911282062530518,-8.12841796875
1484279675565,-2.273181438446045,5.359922409057617,-8.00399112701416
1484279675806,-1.3591231107711792,6.106483459472656,-6.896114826202393
1484279676043,-2.0003998279571533,4.54636287689209,-8.45862865447998
1484279676284,-0.861416220664978,4.374079704284668,-8.425127983093262
1484279676532,-1.3112668991088867,3.9457647800445557,-8.6907320022583
1484279676762,-2.0338993072509766,5.438885688781738,-7.877171993255615
1484279677006,-1.660618782043457,7.460821151733398,-6.001199245452881
1484279677242,-1.9860427379608154,6.608975887298584,-6.86261510848999
1484279677481,-1.3016955852508545,3.1728827953338623,-8.523234367370605
1484279677682,-2.344966173171997,5.974878311157227,-7.436892509460449
1484279677930,-1.2011969089508057,5.039284706115723,-9.734003067016602
1484279678160,-3.129812002182007,3.345165967941284,-8.38684368133545
1484279678402,0.37806597352027893,7.075576305389404,-7.432106971740723
1484279678639,-3.345165967941284,5.12303352355957,-7.451249599456787
1484279678877,-1.56969153881073,3.2542388439178467,-9.145368576049805
1484279679079,-2.612962245941162,4.843072891235352,-8.535198211669922
1484279679327,-2.502892255783081,5.996413230895996,-8.652446746826172
1484279679557,-1.8041881322860718,2.6225337982177734,-7.946564197540283
1484279679796,-2.3306093215942383,5.032106399536133,-8.748159408569336
1484279680036,-2.4502503871917725,4.651647090911865,-8.707481384277344
1484279680278,-1.3782659769058228,5.206782341003418,-6.281159400939941
1484279680527,-1.4739787578582764,4.790431022644043,-7.243074417114258
1484279680754,-2.0673987865448,5.142175674438477,-8.300702095031738
1484279680995,-1.8233308792114258,3.321237564086914,-8.731410026550293
1484279681234,-1.6414762735366821,6.479763507843018,-7.814958095550537
1484279681476,-2.3497519493103027,8.484949111938477,-6.594619274139404
1484279681723,-1.7515461444854736,5.103890895843506,-9.018548011779785
1484279681953,-1.9381862878799438,5.632704257965088,-7.934599876403809
1484279682192,-0.49292147159576416,4.737788677215576,-8.58305549621582
1484279682431,-1.0480562448501587,4.216153621673584,-8.621339797973633
1484279682675,-1.5409778356552124,4.591826438903809,-8.50887680053711
1484279682919,-1.6654045581817627,5.271388053894043,-7.905886173248291
1484279683150,-1.5457634925842285,5.5968122482299805,-7.946564197540283
1484279683393,-1.674975872039795,5.505885124206543,-8.02074146270752
1484279683627,-1.2825528383255005,5.5274200439453125,-8.322237014770508
1484279683869,-1.1437692642211914,2.706282377243042,-9.470791816711426
1484279684117,-0.861416220664978,4.814359188079834,-9.28893756866455
1484279684347,-1.9621145725250244,6.7310099601745605,-6.948756694793701
1484279684591,-1.9381862878799438,4.73300313949585,-7.984848976135254
1484279684825,-1.6797614097595215,3.4959137439727783,-8.482556343078613
1484279685067,-0.22971096634864807,0.44027936458587646,-10.308279991149902
1484279685315,-1.7180466651916504,4.646861553192139,-8.568697929382324
1484279685545,-1.7611174583435059,5.07517671585083,-8.614161491394043
1484279685785,-1.0815558433532715,4.01754903793335,-8.73619556427002
1484279686028,-1.129412293434143,5.802595138549805,-7.245467185974121
1484279686264,-0.6221339106559753,4.776073932647705,-7.992027282714844
1484279686513,-1.8711872100830078,4.362115383148193,-8.640481948852539
1484279686743,-1.8999011516571045,6.345765590667725,-8.96112060546875
1484279686983,-2.249253273010254,5.86720085144043,-7.570890426635742
1484279687225,-2.0338993072509766,4.914857387542725,-7.956134796142578
1484279687462,-1.521835207939148,3.7160534858703613,-9.882357597351074
1484279687711,-2.1200408935546875,4.761716842651367,-7.664210796356201
1484279687944,-1.2873386144638062,4.5367913246154785,-8.58305549621582
1484279688180,-1.2921242713928223,7.097111701965332,-7.238288879394531
1484279688420,-0.9044869542121887,3.90987229347229,-8.606983184814453
1484279688660,-1.3830513954162598,6.853044033050537,-8.00638484954834
1484279688907,-1.1724830865859985,5.266602516174316,-8.910871505737305
1484279689138,-1.124626636505127,6.3361945152282715,-7.776673316955566
1484279689378,-1.325623631477356,5.223531246185303,-7.369894027709961
1484279689618,-1.3016955852508545,2.1678972244262695,-10.174281120300293
1484279689860,-1.856830358505249,5.953342437744141,-7.960920810699463
1484279690105,-0.9858429431915283,2.8450663089752197,-7.2813591957092285
1484279690336,-1.6031911373138428,7.850851535797119,-8.405985832214355
1484279690576,-3.4265220165252686,5.245067596435547,-6.582655429840088