timestamp,ax,ay,az
1482901638301,-7.469310760498047,-1.303044319152832,5.828085422515869
1482901638481,-7.005434036254883,-1.224035620689392,6.0184245109558105
1482901638661,-7.726089000701904,-1.4550760984420776,5.887940406799316
1482901638842,-7.712322235107422,-2.2900538444519043,5.476736545562744
1482901639024,-7.041347026824951,-1.3940238952636719,6.0836663246154785
1482901639205,-7.164050102233887,-1.4317326545715332,5.604227542877197
1482901639384,-7.111976146697998,-3.159149169921875,5.249287128448486
1482901639565,-7.738658428192139,-4.304176330566406,4.727351188659668
1482901639745,-7.554305076599121,-4.940435409545898,4.635773181915283
1482901639925,-7.49923849105835,-3.974973440170288,4.596268653869629
1482901640105,-7.643488883972168,-3.6721067428588867,4.6052470207214355
1482901640283,-7.054515361785889,-4.050390720367432,5.083488941192627
1482901640464,-7.020996570587158,-4.123414039611816,5.061941146850586
1482901640645,-7.171831130981445,-4.038419723510742,4.883573055267334
1482901640826,-7.0587053298950195,-4.186860084533691,5.01285982131958
1482901641003,-7.185597896575928,-4.057573318481445,4.871003150939941
1482901641187,-7.111976146697998,-4.068347454071045,5.027225017547607
1482901641367,-7.164648532867432,-4.110245704650879,4.952406406402588
1482901641555,-7.164050102233887,-4.0863037109375,4.940435409545898
1482901641729,-7.119158744812012,-4.098873138427734,4.970362663269043
1482901641908,-7.131129741668701,-4.076726913452148,4.957194805145264
1482901642097,-7.098209381103516,-4.080318450927734,5.005677223205566
1482901642266,-7.13891077041626,-4.101267337799072,4.988319396972656
1482901642449,-7.094019412994385,-4.08510684967041,4.993107795715332
1482901642631,-7.129333972930908,-4.095880508422852,4.96737003326416
1482901642810,-7.111976146697998,-4.108449935913086,4.981136798858643
1482901642990,-7.105990409851074,-4.095282077789307,4.996100425720215
1482901643181,-7.112574577331543,-4.101866245269775,4.989516258239746
1482901643348,-7.1490864753723145,-4.0761284828186035,4.978143692016602
1482901643531,-7.083245754241943,-4.128202438354492,5.036801815032959
1482901643710,-7.087435722351074,-4.133589267730713,5.032013416290283
1482901643891,-7.065887928009033,-4.132391929626465,5.033210754394531
1482901644069,-7.0359601974487305,-4.198831081390381,4.992508888244629
1482901644252,-7.0587053298950195,-4.171298027038574,5.026028156280518
1482901644432,-7.044340133666992,-4.144961833953857,5.0290207862854
1482901644612,-7.042544364929199,-4.151545524597168,5.01405668258667
1482901644789,-6.9910688400268555,-4.156333923339844,5.084685802459717
1482901644971,-7.07606315612793,-4.186860084533691,5.000888824462891
1482901645152,-7.016806602478027,-4.153939723968506,5.070919036865234
1482901645330,-7.048529624938965,-4.147356033325195,5.023035049438477
1482901645512,-7.033565998077393,-4.180874824523926,5.024232387542725
1482901645690,-7.028777599334717,-4.172494888305664,5.017648220062256
1482901645873,-7.090428352355957,-4.213196277618408,5.016450881958008
1482901646050,-6.995857238769531,-4.170699596405029,5.033210754394531
1482901646233,-7.0341644287109375,-4.199429988861084,5.0284223556518555
1482901646411,-7.037755966186523,-4.161721229553223,5.054758548736572
1482901646594,-7.050325393676758,-4.152742862701416,4.992508888244629
1482901646769,-7.005434036254883,-4.144362926483154,5.0876784324646
1482901646953,-7.027580738067627,-4.168305397033691,5.024232387542725
1482901647135,-6.998251438140869,-4.200626850128174,5.043385982513428
1482901647312,-7.0156097412109375,-4.200028419494629,5.065532207489014
1482901647493,-7.012018203735352,-4.190451622009277,5.066729545593262
1482901647675,-7.026981830596924,-4.167706489562988,5.050568580627441
1482901647855,-7.0353617668151855,-4.165910720825195,5.072116374969482
1482901648035,-7.0132155418396,-4.2275614738464355,5.051167011260986
1482901648214,-7.0132155418396,-4.181473255157471,5.039196014404297
1482901648394,-6.983287811279297,-4.173692226409912,5.066729545593262
1482901648573,-7.025784969329834,-4.173093795776367,5.034407615661621
1482901648757,-6.999448776245117,-4.213795185089111,5.058349609375
1482901648934,-7.023390769958496,-4.2060136795043945,5.031414985656738
1482901649111,-7.016806602478027,-4.191050052642822,5.032013416290283
1482901649296,-7.019200801849365,-4.177882194519043,5.0290207862854
1482901649476,-7.0132155418396,-4.191050052642822,5.052364349365234
1482901649657,-6.996456146240234,-4.189853191375732,5.051765441894531
1482901649832,-7.010821342468262,-4.196436882019043,5.056553840637207
1482901650013,-7.0138139724731445,-4.185064792633057,5.021239280700684
1482901650198,-6.995857238769531,-4.2078094482421875,5.039196014404297
1482901650377,-7.001842975616455,-4.198232650756836,5.063736438751221
1482901650555,-7.018003940582275,-4.171896457672119,5.045780181884766
1482901650737,-6.9922661781311035,-4.183269023895264,5.067926406860352
1482901650918,-7.022792339324951,-4.183269023895264,5.054159641265869
1482901651096,-7.00244140625,-4.213196277618408,5.034407615661621
1482901651322,-7.017405033111572,-4.1874589920043945,5.064335346221924
1482901651456,-7.015010833740234,-4.210203647613525,5.038597583770752
1482901651636,-7.001842975616455,-4.1641154289245605,5.078101634979248
1482901651814,-6.9904704093933105,-4.194641590118408,5.055356979370117
1482901651997,-7.004835605621338,-4.176684856414795,5.067327976226807
1482901652177,-7.01860237121582,-4.196436882019043,5.051765441894531
1482901652359,-6.9910688400268555,-4.176684856414795,5.0876784324646
1482901652534,-7.040150165557861,-4.214393615722656,5.0499701499938965
1482901652714,-6.997653007507324,-4.198831081390381,5.061941146850586
1482901652894,-6.9473748207092285,-4.195240020751953,5.0912699699401855
1482901653074,-7.004237174987793,-4.1880574226379395,5.05715274810791
1482901653256,-7.006032943725586,-4.215590476989746,5.058948040008545
1482901653439,-7.00124454498291,-4.220977783203125,5.035006046295166
1482901653620,-7.031171798706055,-4.182670593261719,5.088875770568848
1482901653800,-6.940192222595215,-4.199429988861084,5.067327976226807
1482901653980,-7.040150165557861,-4.2060136795043945,5.019443988800049
1482901654159,-6.971316814422607,-4.191648483276367,5.085883140563965
1482901654339,-6.987477779388428,-4.204816818237305,5.043984413146973
1482901654520,-7.006032943725586,-4.195838451385498,5.072116374969482
1482901654701,-6.993463039398193,-4.214992046356201,5.061342239379883
1482901654881,-6.961141586303711,-4.225766181945801,5.050568580627441
1482901655062,-6.981492042541504,-4.196436882019043,5.062539577484131
1482901655236,-7.007828235626221,-4.168903827667236,5.070919036865234
1482901655421,-7.009624004364014,-4.210203647613525,5.044582843780518
1482901655599,-7.005434036254883,-4.223970413208008,5.072714805603027
1482901655800,-7.027580738067627,-4.21080207824707,5.084685802459717
1482901655962,-6.964732646942139,-4.203021049499512,5.054758548736572
1482901656143,-6.989871978759766,-4.230554580688477,5.082890033721924
1482901656323,-6.989871978759766,-4.199429988861084,5.057751178741455
1482901656503,-6.980295181274414,-4.20541524887085,5.084087371826172
1482901656682,-6.9695210456848145,-4.223970413208008,5.099050998687744
1482901656863,-6.995258808135986,-4.211999416351318,5.080495834350586
1482901657081,-7.001842975616455,-4.200028419494629,5.1116204261779785
1482901657223,-6.977302074432373,-4.216189384460449,5.084087371826172
1482901657404,-6.968324184417725,-4.201824188232422,5.1146135330200195
1482901657584,-6.9689226150512695,-4.208407878875732,5.085883140563965
1482901657761,-6.976105213165283,-4.219182014465332,5.040393352508545
1482901657945,-6.947973251342773,-4.244919776916504,5.101445198059082
1482901658124,-7.006032943725586,-4.198831081390381,5.085284233093262
1482901658305,-6.947973251342773,-4.2311530113220215,5.088875770568848
1482901658485,-7.00244140625,-4.20421838760376,5.087080001831055
1482901658666,-6.981492042541504,-4.2096052169799805,5.070919036865234
1482901658844,-6.974907875061035,-4.218583583831787,5.045181751251221
1482901659023,-6.9695210456848145,-4.203021049499512,5.077503204345703
1482901659205,-6.966528415679932,-4.2311530113220215,5.062539577484131
1482901659386,-6.960542678833008,-4.204816818237305,5.0876784324646
1482901659566,-6.997653007507324,-4.217386245727539,5.041590213775635
1482901659746,-6.953360080718994,-4.237138271331787,5.08648157119751
1482901659921,-7.010821342468262,-4.174290657043457,5.105036735534668
1482901660101,-6.955155849456787,-4.217984676361084,5.094262599945068
1482901660281,-6.963535785675049,-4.2311530113220215,5.072116374969482
1482901660467,-6.959345817565918,-4.240729808807373,5.108627796173096
1482901660669,-6.9491705894470215,-4.217984676361084,5.084087371826172
1482901660827,-6.989871978759766,-4.211400985717773,5.056553840637207
1482901661006,-6.937199592590332,-4.217984676361084,5.0918684005737305
1482901661185,-6.987477779388428,-4.229955673217773,5.077503204345703
1482901661366,-6.9904704093933105,-4.217386245727539,5.036801815032959
1482901661548,-6.9731125831604,-4.212597846984863,5.061342239379883
1482901661725,-6.974907875061035,-4.219182014465332,5.100248336791992
1482901661906,-6.950965881347656,-4.20421838760376,5.109226226806641
1482901662086,-6.985682010650635,-4.244320869445801,5.090671539306641
1482901662270,-6.975506782531738,-4.229955673217773,5.093664169311523
1482901662446,-6.988076210021973,-4.215590476989746,5.063138008117676
1482901662628,-6.966528415679932,-4.2060136795043945,5.085883140563965
1482901662805,-6.983287811279297,-4.241926670074463,5.065532207489014
1482901662991,-6.974907875061035,-4.225167274475098,5.078700542449951
1482901663169,-6.953958988189697,-4.218583583831787,5.105635166168213
1482901663349,-6.970119476318359,-4.219780445098877,5.066130638122559
1482901663525,-6.967126846313477,-4.196436882019043,5.08648157119751
1482901663709,-6.977302074432373,-4.211999416351318,5.083488941192627
1482901663889,-6.979097843170166,-4.2311530113220215,5.066130638122559
1482901664070,-6.971316814422607,-4.220378875732422,5.07451057434082
1482901664250,-6.965929985046387,-4.1862616539001465,5.066130638122559
1482901664431,-6.948571681976318,-4.225766181945801,5.105635166168213
1482901664610,-6.942586421966553,-4.2329487800598145,5.063138008117676
1482901664791,-6.910264492034912,-4.228160381317139,5.096656799316406
1482901664971,-7.012018203735352,-4.204816818237305,5.097854137420654
1482901665149,-6.982090473175049,-4.224568843841553,5.082890033721924
1482901665329,-6.972513675689697,-4.255693435668945,5.102043628692627
1482901665509,-6.9246296882629395,-4.228160381317139,5.128379821777344
1482901665691,-6.916848659515381,-4.22157621383667,5.081693172454834
1482901665871,-6.980295181274414,-4.262876033782959,5.100248336791992
1482901666050,-6.951564788818359,-4.241926670074463,5.093664169311523
1482901666230,-6.958747386932373,-4.233547210693359,5.0691237449646
1482901666412,-6.976703643798828,-4.220378875732422,5.072714805603027
1482901666592,-6.968324184417725,-4.262876033782959,5.05715274810791
1482901666768,-6.970119476318359,-4.204816818237305,5.0900726318359375
1482901666952,-6.943783283233643,-4.217386245727539,5.084087371826172
1482901667131,-6.953958988189697,-4.219182014465332,5.0900726318359375
1482901667310,-6.953360080718994,-4.243722438812256,5.073313236236572
1482901667493,-6.9904704093933105,-4.232349872589111,5.079897403717041
1482901667671,-6.972513675689697,-4.23773717880249,5.078700542449951
1482901667849,-6.952761650085449,-4.2090067863464355,5.085883140563965
1482901668029,-6.944980621337891,-4.225766181945801,5.058349609375
1482901668213,-6.974907875061035,-4.241926670074463,5.073912143707275
1482901668396,-6.965331077575684,-4.235342979431152,5.073313236236572
1482901668573,-6.974907875061035,-4.2090067863464355,5.075109004974365
1482901668755,-6.959345817565918,-4.216189384460449,5.106233596801758
1482901668930,-6.937798023223877,-4.250306606292725,5.0691237449646
1482901669113,-6.968324184417725,-4.230554580688477,5.104437828063965
1482901669295,-6.940192222595215,-4.245518207550049,5.060743808746338
1482901669475,-6.951564788818359,-4.20541524887085,5.109226226806641
1482901669654,-6.949769020080566,-4.226963043212891,5.089474201202393
1482901669832,-6.930016994476318,-4.24970817565918,5.104437828063965
1482901670011,-6.992864608764648,-4.201824188232422,5.061342239379883
1482901670195,-6.980295181274414,-4.223371982574463,5.084087371826172
1482901670371,-6.9491705894470215,-4.235941410064697,5.100248336791992
1482901670557,-6.967126846313477,-4.2090067863464355,5.102043628692627
1482901670736,-6.950367450714111,-4.238335609436035,5.099050998687744
1482901670916,-6.965331077575684,-4.225766181945801,5.084087371826172
1482901671091,-6.966528415679932,-4.22157621383667,5.096058368682861
1482901671276,-6.971915245056152,-4.235941410064697,5.096656799316406
1482901671455,-6.952761650085449,-4.220977783203125,5.093664169311523
1482901671634,-6.903081893920898,-4.243722438812256,5.098452568054199
1482901671815,-6.9940619468688965,-4.2311530113220215,5.082890033721924
1482901671992,-6.958747386932373,-4.304774761199951,5.0697221755981445
1482901672177,-6.93959379196167,-4.224568843841553,5.087080001831055
1482901672355,-6.932411193847656,-4.220378875732422,5.109226226806641
1482901672535,-6.980295181274414,-4.262876033782959,5.057751178741455
1482901672718,-6.919242858886719,-4.2730512619018555,5.075109004974365
1482901672894,-6.950965881347656,-4.228160381317139,5.0715179443359375
1482901673077,-6.958747386932373,-4.264073371887207,5.064335346221924
1482901673258,-6.996456146240234,-4.228160381317139,5.082291603088379
1482901673437,-6.944980621337891,-4.237138271331787,5.094861030578613
1482901673618,-6.9731125831604,-4.241328239440918,5.067327976226807
1482901673798,-6.938396453857422,-4.226963043212891,5.093664169311523
1482901673978,-6.946776390075684,-4.250306606292725,5.084685802459717
1482901674159,-6.952761650085449,-4.240131378173828,5.082291603088379
1482901674338,-6.961740016937256,-4.229955673217773,5.114014625549316
1482901674519,-6.965331077575684,-4.268861770629883,5.0715179443359375
1482901674699,-6.98628044128418,-4.265270233154297,5.081693172454834
1482901674879,-6.930016994476318,-4.247313976287842,5.073313236236572
1482901675057,-6.965929985046387,-4.226963043212891,5.077503204345703
1482901675240,-6.930016994476318,-4.238335609436035,5.108627796173096
1482901675420,-6.9677252769470215,-4.198831081390381,5.095459938049316
1482901675600,-6.937798023223877,-4.239532470703125,5.112219333648682
1482901675781,-6.973711013793945,-4.256890773773193,5.055955410003662
1482901675961,-6.952163219451904,-4.2293572425842285,5.093664169311523
1482901676136,-6.9695210456848145,-4.215590476989746,5.090671539306641
1482901676316,-6.897096633911133,-4.249109268188477,5.10264253616333
1482901676501,-6.94079065322876,-4.239532470703125,5.059546947479248
1482901676681,-6.952761650085449,-4.2527008056640625,5.085883140563965
1482901676862,-6.9731125831604,-4.22157621383667,5.093664169311523
1482901677037,-6.912060260772705,-4.268861770629883,5.077503204345703
1482901677221,-7.000645637512207,-4.262277603149414,5.076904773712158
1482901677402,-6.940192222595215,-4.223970413208008,5.102043628692627
1482901677582,-6.9473748207092285,-4.23773717880249,5.082890033721924
1482901677762,-6.959345817565918,-4.266467571258545,5.088875770568848
1482901677943,-6.93959379196167,-4.226963043212891,5.085883140563965
1482901678123,-6.9473748207092285,-4.211400985717773,5.097255229949951
1482901678301,-6.958747386932373,-4.259284973144531,5.077503204345703
1482901678478,-6.977302074432373,-4.240131378173828,5.081094741821289
1482901678658,-6.953360080718994,-4.2515034675598145,5.082291603088379
1482901678838,-6.953360080718994,-4.240729808807373,5.084685802459717
1482901679018,-6.971316814422607,-4.226364612579346,5.102043628692627
1482901679198,-6.917447090148926,-4.223970413208008,5.114014625549316
1482901679378,-6.971316814422607,-4.247912406921387,5.07570743560791
1482901679558,-6.951564788818359,-4.259284973144531,5.116408824920654
1482901679739,-6.975506782531738,-4.245518207550049,5.0685248374938965
1482901679919,-6.972513675689697,-4.223371982574463,5.070919036865234
1482901680099,-6.95814847946167,-4.25629186630249,5.127182960510254
1482901680279,-6.943783283233643,-4.246715068817139,5.12119722366333
1482901680464,-6.964134216308594,-4.248510837554932,5.083488941192627
1482901680643,-6.956353187561035,-4.220378875732422,5.078700542449951
1482901680822,-6.934805393218994,-4.245518207550049,5.059546947479248
1482901681005,-6.960542678833008,-4.249109268188477,5.099649429321289
1482901681186,-6.914454460144043,-4.2742486000061035,5.0912699699401855
1482901681364,-6.974907875061035,-4.210203647613525,5.0930657386779785
1482901681544,-6.963535785675049,-4.2329487800598145,5.07570743560791
1482901681726,-6.9461774826049805,-4.217984676361084,5.105635166168213
1482901681902,-6.938396453857422,-4.233547210693359,5.0715179443359375
1482901682085,-6.953958988189697,-4.246116638183594,5.0876784324646
1482901682267,-6.926425457000732,-4.244320869445801,5.079897403717041
1482901682446,-6.95695161819458,-4.237138271331787,5.064335346221924
1482901682625,-6.9455790519714355,-4.2544965744018555,5.109825134277344
1482901682805,-6.942586421966553,-4.238335609436035,5.08648157119751
1482901682985,-6.965929985046387,-4.2329487800598145,5.090671539306641
1482901683169,-6.921637058258057,-4.225766181945801,5.073912143707275
1482901683346,-6.976105213165283,-4.258087635040283,5.088875770568848
1482901683526,-6.964134216308594,-4.262277603149414,5.100846767425537
1482901683708,-6.954557418823242,-4.230554580688477,5.07570743560791
1482901683887,-6.92881965637207,-4.247912406921387,5.0900726318359375
1482901684065,-6.9707183837890625,-4.211999416351318,5.134365558624268
1482901684248,-6.933009624481201,-4.245518207550049,5.093664169311523
1482901684429,-6.948571681976318,-4.233547210693359,5.128379821777344
1482901684608,-6.938396453857422,-4.244919776916504,5.108029365539551
1482901684789,-6.93959379196167,-4.234744071960449,5.089474201202393
1482901684982,-6.944980621337891,-4.260481834411621,5.121796131134033
1482901685144,-6.912060260772705,-4.249109268188477,5.1349639892578125
1482901685330,-6.922834396362305,-4.210203647613525,5.130175590515137
1482901685509,-6.932411193847656,-4.225167274475098,5.094262599945068
1482901685690,-6.95695161819458,-4.250306606292725,5.0912699699401855
1482901685871,-6.957550048828125,-4.258686065673828,5.083488941192627
1482901686050,-6.91146183013916,-4.234744071960449,5.1331682205200195
1482901686231,-6.934805393218994,-4.2275614738464355,5.076904773712158
1482901686410,-6.906673431396484,-4.282628059387207,5.109825134277344
1482901686590,-6.93959379196167,-4.279635429382324,5.097854137420654
1482901686771,-6.922235488891602,-4.245518207550049,5.094262599945068
1482901686950,-6.941987991333008,-4.2527008056640625,5.096058368682861
1482901687126,-6.93959379196167,-4.218583583831787,5.112817764282227
1482901687311,-6.965929985046387,-4.247912406921387,5.0703206062316895
1482901687487,-6.9024834632873535,-4.288613796234131,5.079897403717041
1482901687674,-6.940192222595215,-4.24970817565918,5.067926406860352
1482901687851,-6.940192222595215,-4.247912406921387,5.081693172454834
1482901688035,-6.968324184417725,-4.22277307510376,5.111021995544434
1482901688211,-6.919242858886719,-4.240131378173828,5.117007732391357
1482901688416,-6.995857238769531,-4.237138271331787,5.066729545593262
1482901688570,-6.935403823852539,-4.228160381317139,5.106832027435303
1482901688751,-6.925228595733643,-4.241926670074463,5.094262599945068
1482901688932,-6.958747386932373,-4.234744071960449,5.0876784324646
1482901689111,-6.936002254486084,-4.267664432525635,5.0930657386779785
1482901689291,-6.929418087005615,-4.232349872589111,5.0900726318359375
1482901689471,-6.956353187561035,-4.230554580688477,5.096058368682861
1482901689651,-6.927023887634277,-4.2293572425842285,5.098452568054199
1482901689831,-6.992864608764648,-4.246116638183594,5.063138008117676
1482901690018,-6.932411193847656,-4.217984676361084,5.135562419891357
1482901690192,-6.9677252769470215,-4.2096052169799805,5.085284233093262
1482901690373,-6.953958988189697,-4.244320869445801,5.099050998687744
1482901690554,-6.960542678833008,-4.2550950050354,5.065532207489014
1482901690733,-6.944980621337891,-4.2329487800598145,5.100248336791992
1482901690915,-6.913257598876953,-4.211400985717773,5.126584529876709
1482901691093,-6.953360080718994,-4.242525577545166,5.131372928619385
1482901691270,-6.944382190704346,-4.280832767486572,5.084087371826172
1482901691453,-6.9461774826049805,-4.2509050369262695,5.084685802459717
1482901691635,-6.938396453857422,-4.246715068817139,5.094861030578613
1482901691815,-6.932411193847656,-4.232349872589111,5.098452568054199
1482901691994,-6.977302074432373,-4.2527008056640625,5.0715179443359375
1482901692171,-6.959345817565918,-4.201225280761719,5.1152119636535645
1482901692356,-6.962338447570801,-4.2509050369262695,5.084685802459717
1482901692536,-6.9276227951049805,-4.2275614738464355,5.1331682205200195
1482901692712,-6.938994884490967,-4.255693435668945,5.094861030578613
1482901692896,-6.947973251342773,-4.235342979431152,5.119401931762695
1482901693077,-6.922235488891602,-4.246715068817139,5.084685802459717
1482901693257,-6.966528415679932,-4.248510837554932,5.099050998687744
1482901693437,-6.925228595733643,-4.240729808807373,5.114014625549316
1482901693613,-6.907271862030029,-4.244919776916504,5.072714805603027
1482901693797,-6.933009624481201,-4.237138271331787,5.10264253616333
1482901693976,-6.91265869140625,-4.273650169372559,5.097255229949951
1482901694156,-6.980295181274414,-4.220378875732422,5.087080001831055
1482901694337,-6.959944248199463,-4.245518207550049,5.135562419891357
1482901694516,-6.962338447570801,-4.22277307510376,5.078700542449951
1482901694694,-6.975506782531738,-4.238335609436035,5.10264253616333
1482901694878,-6.909666061401367,-4.225766181945801,5.13735818862915
1482901695056,-6.9455790519714355,-4.2724528312683105,5.087080001831055
1482901695238,-6.944980621337891,-4.226963043212891,5.082291603088379
1482901695418,-6.959345817565918,-4.226963043212891,5.087080001831055
1482901695599,-6.935403823852539,-4.253299236297607,5.067327976226807
1482901695777,-6.942586421966553,-4.248510837554932,5.101445198059082
1482901695959,-6.933608055114746,-4.239532470703125,5.083488941192627
1482901696139,-6.961141586303711,-4.2293572425842285,5.070919036865234
1482901696318,-6.908469200134277,-4.239532470703125,5.125985622406006
1482901696499,-6.956353187561035,-4.216787815093994,5.090671539306641
1482901696680,-6.938994884490967,-4.244919776916504,5.111021995544434
1482901696859,-6.941987991333008,-4.231751441955566,5.072714805603027
1482901697039,-6.940192222595215,-4.2742486000061035,5.073313236236572
1482901697220,-6.95814847946167,-4.226364612579346,5.0876784324646
1482901697399,-6.937199592590332,-4.22157621383667,5.10264253616333
1482901697580,-6.954557418823242,-4.214992046356201,5.078700542449951
1482901697758,-6.9461774826049805,-4.265270233154297,5.093664169311523
1482901697941,-6.957550048828125,-4.247912406921387,5.08648157119751
1482901698120,-6.941389083862305,-4.235342979431152,5.103240966796875
1482901698299,-6.959345817565918,-4.2515034675598145,5.076904773712158
1482901698481,-6.9491705894470215,-4.225766181945801,5.100846767425537
1482901698662,-6.968324184417725,-4.253299236297607,5.061941146850586
1482901698842,-6.926425457000732,-4.234744071960449,5.109825134277344
1482901699022,-6.950965881347656,-4.24970817565918,5.08648157119751
1482901699221,-6.961141586303711,-4.225766181945801,5.099050998687744
1482901699379,-6.931213855743408,-4.247313976287842,5.078700542449951
1482901699559,-6.98628044128418,-4.216189384460449,5.0912699699401855
1482901699742,-6.930615425109863,-4.241926670074463,5.092466831207275
1482901699920,-6.958747386932373,-4.253299236297607,5.096656799316406
1482901700101,-6.897096633911133,-4.274847030639648,5.103240966796875
1482901700279,-6.934206485748291,-4.259883403778076,5.103240966796875
1482901700462,-6.934206485748291,-4.241328239440918,5.100846767425537
1482901700643,-6.976105213165283,-4.240131378173828,5.078101634979248
1482901700822,-6.953958988189697,-4.2293572425842285,5.108627796173096
1482901701001,-6.954557418823242,-4.270657062530518,5.092466831207275
1482901701191,-6.933009624481201,-4.256890773773193,5.106832027435303
1482901701360,-6.9455790519714355,-4.247912406921387,5.101445198059082
1482901701543,-6.93959379196167,-4.23893404006958,5.0691237449646
1482901701725,-6.932411193847656,-4.219780445098877,5.112219333648682
1482901701905,-6.966528415679932,-4.236539840698242,5.078101634979248
1482901702085,-6.930016994476318,-4.270058631896973,5.082291603088379
1482901702261,-6.956353187561035,-4.248510837554932,5.066130638122559
1482901702444,-6.9246296882629395,-4.2293572425842285,5.095459938049316
1482901702625,-6.971316814422607,-4.231751441955566,5.098452568054199
1482901702804,-6.916848659515381,-4.277241230010986,5.102043628692627
1482901702985,-6.95814847946167,-4.2515034675598145,5.0900726318359375
1482901703166,-6.959944248199463,-4.250306606292725,5.061941146850586
1482901703347,-6.964732646942139,-4.220378875732422,5.079897403717041
1482901703526,-6.951564788818359,-4.253299236297607,5.067926406860352
1482901703706,-6.947973251342773,-4.288015365600586,5.087080001831055
1482901703885,-6.927023887634277,-4.2509050369262695,5.095459938049316
1482901704067,-6.964134216308594,-4.248510837554932,5.0900726318359375
1482901704247,-6.951564788818359,-4.244919776916504,5.103240966796875
1482901704426,-6.928221225738525,-4.268861770629883,5.090671539306641
1482901704607,-6.954557418823242,-4.247313976287842,5.108029365539551
1482901704787,-6.907870292663574,-4.260481834411621,5.1134161949157715
1482901704963,-6.955754280090332,-4.308365821838379,5.036801815032959
1482901705148,-6.9455790519714355,-4.243124008178711,5.1116204261779785
1482901705345,-6.9677252769470215,-4.2724528312683105,5.084087371826172
1482901705507,-6.953360080718994,-4.250306606292725,5.082291603088379
1482901705688,-6.920440196990967,-4.2515034675598145,5.100248336791992
1482901705866,-6.94079065322876,-4.256890773773193,5.084685802459717
1482901706048,-6.914454460144043,-4.269460201263428,5.079897403717041
1482901706231,-6.9461774826049805,-4.248510837554932,5.100248336791992
1482901706408,-6.950965881347656,-4.243722438812256,5.084087371826172
1482901706589,-6.943184852600098,-4.249109268188477,5.083488941192627
1482901706769,-6.899490833282471,-4.247313976287842,5.103240966796875
1482901706948,-6.957550048828125,-4.244919776916504,5.070919036865234
1482901707125,-6.932411193847656,-4.274847030639648,5.0900726318359375
1482901707305,-6.978499412536621,-4.262876033782959,5.0918684005737305
1482901707490,-6.953958988189697,-4.237138271331787,5.114014625549316
1482901707669,-6.934206485748291,-4.239532470703125,5.082291603088379
1482901707850,-6.913856029510498,-4.262277603149414,5.100248336791992
1482901708030,-6.965331077575684,-4.259883403778076,5.077503204345703
1482901708210,-6.95814847946167,-4.269460201263428,5.058349609375
1482901708391,-6.914454460144043,-4.239532470703125,5.135562419891357
1482901708571,-6.976703643798828,-4.258686065673828,5.054159641265869
1482901708750,-6.93959379196167,-4.2293572425842285,5.065532207489014
1482901708927,-6.94079065322876,-4.264671802520752,5.0900726318359375
1482901709111,-6.952761650085449,-4.258087635040283,5.093664169311523
1482901709323,-6.921038627624512,-4.249109268188477,5.109226226806641
1482901709471,-6.926425457000732,-4.264073371887207,5.139153957366943
1482901709652,-6.972513675689697,-4.246715068817139,5.085284233093262
1482901709831,-6.933608055114746,-4.258686065673828,5.10264253616333
1482901710010,-6.930016994476318,-4.2515034675598145,5.112817764282227
1482901710189,-6.930615425109863,-4.233547210693359,5.082291603088379
1482901710371,-6.934805393218994,-4.244919776916504,5.102043628692627
1482901710551,-6.93959379196167,-4.26706600189209,5.090671539306641
1482901710733,-6.94079065322876,-4.302380561828613,5.094861030578613
1482901710913,-6.964134216308594,-4.237138271331787,5.088277339935303
1482901711093,-6.915052890777588,-4.253299236297607,5.105635166168213
1482901711269,-6.976105213165283,-4.225766181945801,5.051167011260986
1482901711449,-6.937199592590332,-4.284423828125,5.097255229949951
1482901711631,-6.978499412536621,-4.23893404006958,5.063736438751221
1482901711811,-6.9006876945495605,-4.244320869445801,5.1134161949157715
1482901711995,-6.943783283233643,-4.253299236297607,5.060145378112793
1482901712169,-6.919841289520264,-4.288015365600586,5.096656799316406
1482901712354,-6.95695161819458,-4.262277603149414,5.054758548736572
1482901712534,-6.936002254486084,-4.262277603149414,5.1152119636535645
1482901712713,-6.97430944442749,-4.2544965744018555,5.099649429321289
1482901712894,-6.928221225738525,-4.259284973144531,5.0930657386779785
1482901713075,-6.932411193847656,-4.280832767486572,5.090671539306641
1482901713255,-6.94079065322876,-4.262277603149414,5.077503204345703
1482901713433,-6.942586421966553,-4.273650169372559,5.078700542449951
1482901713614,-6.979696273803711,-4.285621166229248,5.067327976226807
1482901713792,-6.965331077575684,-4.247912406921387,5.094861030578613
1482901713974,-6.947973251342773,-4.262876033782959,5.059546947479248
1482901714160,-6.958747386932373,-4.264671802520752,5.064335346221924
1482901714337,-6.934206485748291,-4.259883403778076,5.0918684005737305
1482901714512,-6.928221225738525,-4.255693435668945,5.107430934906006
1482901714696,-6.914454460144043,-4.252102375030518,5.0876784324646
1482901714874,-6.9461774826049805,-4.289810657501221,5.0715179443359375
1482901715055,-6.922834396362305,-4.277241230010986,5.102043628692627
1482901715237,-6.960542678833008,-4.2527008056640625,5.063736438751221
1482901715426,-6.918644428253174,-4.281431198120117,5.115810394287109
1482901715597,-6.966528415679932,-4.244919776916504,5.061941146850586
1482901715777,-6.89530086517334,-4.262277603149414,5.110423564910889
1482901715956,-6.9455790519714355,-4.247912406921387,5.101445198059082
1482901716136,-6.9042792320251465,-4.244320869445801,5.077503204345703
1482901716318,-6.938396453857422,-4.234145641326904,5.10383939743042
1482901716496,-6.918045997619629,-4.253299236297607,5.095459938049316
1482901716678,-6.95695161819458,-4.280832767486572,5.090671539306641
1482901716856,-6.921038627624512,-4.242525577545166,5.106832027435303
1482901717038,-6.937798023223877,-4.243124008178711,5.0691237449646
1482901717220,-6.953958988189697,-4.275445461273193,5.062539577484131
1482901717400,-6.910264492034912,-4.276642799377441,5.061342239379883
1482901717577,-7.00244140625,-4.235941410064697,5.0685248374938965
1482901717759,-6.907271862030029,-4.2760443687438965,5.057751178741455
1482901717939,-6.959345817565918,-4.239532470703125,5.089474201202393
1482901718120,-6.9258270263671875,-4.262277603149414,5.067926406860352
1482901718299,-6.934206485748291,-4.26826286315918,5.045181751251221
1482901718475,-6.959345817565918,-4.2515034675598145,5.110423564910889
1482901718660,-6.938396453857422,-4.267664432525635,5.066130638122559
1482901718841,-6.901286602020264,-4.269460201263428,5.0912699699401855
1482901719021,-6.997653007507324,-4.249109268188477,5.051167011260986
1482901719200,-6.88332986831665,-4.240131378173828,5.135562419891357
1482901719379,-6.962936878204346,-4.240729808807373,5.061941146850586
1482901719555,-6.931213855743408,-4.258686065673828,5.085883140563965
1482901719740,-6.970119476318359,-4.247313976287842,5.075109004974365
1482901719921,-6.9060750007629395,-4.266467571258545,5.096656799316406
1482901720101,-6.965929985046387,-4.25629186630249,5.07451057434082
1482901720281,-6.934805393218994,-4.334103584289551,5.087080001831055
1482901720461,-6.925228595733643,-4.2527008056640625,5.064933776855469
1482901720641,-6.897695064544678,-4.309563159942627,5.061342239379883
1482901720820,-6.931812286376953,-4.301183223724365,5.133767127990723
1482901721002,-6.918045997619629,-4.265868663787842,5.122992992401123
1482901721180,-6.8593878746032715,-4.2730512619018555,5.0912699699401855
1482901721361,-6.925228595733643,-4.234744071960449,5.14813232421875
1482901721539,-6.891709804534912,-4.322132587432861,5.018845081329346
1482901721723,-6.913257598876953,-4.262876033782959,5.1146135330200195
1482901721900,-6.854599475860596,-4.323329925537109,5.139153957366943
1482901722083,-6.935403823852539,-4.302978992462158,5.039196014404297
1482901722260,-6.885724067687988,-4.296993732452393,5.109226226806641
1482901722443,-6.928221225738525,-4.305971622467041,5.063138008117676
1482901722622,-6.896498203277588,-4.286818027496338,5.104437828063965
1482901722803,-6.941389083862305,-4.307168960571289,5.055356979370117
1482901722985,-6.936002254486084,-4.248510837554932,5.1134161949157715
1482901723165,-6.955155849456787,-4.280832767486572,5.056553840637207
1482901723344,-6.86597204208374,-4.303577423095703,5.128379821777344
1482901723521,-6.959345817565918,-4.261679172515869,5.059546947479248
1482901723704,-6.883928298950195,-4.2993879318237305,5.130175590515137
1482901723885,-6.965929985046387,-4.2515034675598145,5.07570743560791
1482901724065,-6.909067630767822,-4.311957359313965,5.05715274810791
1482901724245,-6.933608055114746,-4.278438568115234,5.081693172454834
1482901724425,-6.929418087005615,-4.275445461273193,5.096656799316406
1482901724601,-6.921038627624512,-4.270657062530518,5.110423564910889
1482901724785,-6.947973251342773,-4.26826286315918,5.0876784324646
1482901724966,-6.913856029510498,-4.285022258758545,5.135562419891357
1482901725146,-6.966528415679932,-4.265270233154297,5.024232387542725
1482901725326,-6.915651798248291,-4.308365821838379,5.096656799316406
1482901725507,-6.937798023223877,-4.258087635040283,5.081693172454834
1482901725686,-6.91146183013916,-4.23893404006958,5.112219333648682
1482901725866,-6.93959379196167,-4.261080265045166,5.056553840637207
1482901726044,-6.913257598876953,-4.288015365600586,5.082890033721924
1482901726224,-6.915052890777588,-4.281431198120117,5.084685802459717
1482901726407,-6.925228595733643,-4.280233860015869,5.07451057434082
1482901726587,-6.9240312576293945,-4.239532470703125,5.105036735534668
1482901726764,-6.947973251342773,-4.2515034675598145,5.067327976226807
1482901726948,-6.889315605163574,-4.273650169372559,5.128379821777344
1482901727127,-6.9731125831604,-4.290409564971924,5.052364349365234
1482901727310,-6.9491705894470215,-4.270657062530518,5.096058368682861
1482901727488,-6.955754280090332,-4.270058631896973,5.066729545593262
1482901727668,-6.9240312576293945,-4.234744071960449,5.100846767425537
1482901727847,-6.926425457000732,-4.2760443687438965,5.077503204345703
1482901728029,-6.926425457000732,-4.238335609436035,5.148730754852295
1482901728209,-6.935403823852539,-4.293402194976807,5.066130638122559
1482901728389,-6.915651798248291,-4.288015365600586,5.115810394287109
1482901728569,-6.930016994476318,-4.271255970001221,5.078101634979248
1482901728745,-6.956353187561035,-4.260481834411621,5.090671539306641
1482901728929,-6.9006876945495605,-4.282628059387207,5.097255229949951
1482901729109,-6.927023887634277,-4.259883403778076,5.10383939743042
1482901729290,-6.906673431396484,-4.261679172515869,5.12119722366333
1482901729470,-6.934805393218994,-4.260481834411621,5.106233596801758
1482901729645,-6.93959379196167,-4.2993879318237305,5.059546947479248
1482901729830,-6.9276227951049805,-4.264073371887207,5.112219333648682
1482901730010,-6.92343282699585,-4.285022258758545,5.087080001831055
1482901730191,-6.910863399505615,-4.261679172515869,5.073912143707275
1482901730371,-6.953958988189697,-4.2550950050354,5.105635166168213
1482901730551,-6.913257598876953,-4.240131378173828,5.078700542449951
1482901730731,-6.943184852600098,-4.280832767486572,5.079897403717041
1482901730911,-6.943184852600098,-4.304176330566406,5.0715179443359375
1482901731092,-6.889315605163574,-4.286818027496338,5.109825134277344
1482901731270,-6.9258270263671875,-4.277241230010986,5.058948040008545
1482901731451,-6.926425457000732,-4.242525577545166,5.112219333648682
1482901731627,-6.921038627624512,-4.318541526794434,5.072714805603027
1482901731812,-6.962936878204346,-4.2975921630859375,5.055955410003662
1482901731991,-6.961141586303711,-4.2724528312683105,5.106233596801758
1482901732169,-6.9246296882629395,-4.280832767486572,5.085883140563965
1482901732352,-6.922235488891602,-4.278438568115234,5.064335346221924
1482901732528,-6.901286602020264,-4.298789024353027,5.092466831207275
1482901732713,-6.953360080718994,-4.335899353027344,5.055955410003662
1482901732891,-6.916250228881836,-4.244320869445801,5.084685802459717
1482901733073,-6.908469200134277,-4.234744071960449,5.12119722366333
1482901733253,-6.943184852600098,-4.271854400634766,5.088277339935303
1482901733434,-6.921637058258057,-4.277839660644531,5.099050998687744
1482901733614,-6.9246296882629395,-4.258686065673828,5.088277339935303
1482901733793,-6.922834396362305,-4.265868663787842,5.109825134277344
1482901733971,-6.938994884490967,-4.2963948249816895,5.077503204345703
1482901734155,-6.952163219451904,-4.309563159942627,5.0697221755981445
1482901734334,-6.906673431396484,-4.279036998748779,5.103240966796875
1482901734513,-6.921637058258057,-4.2515034675598145,5.115810394287109
1482901734694,-6.950965881347656,-4.294599533081055,5.047575950622559
1482901734873,-6.91146183013916,-4.285621166229248,5.095459938049316
1482901735055,-6.955754280090332,-4.285621166229248,5.062539577484131
1482901735235,-6.948571681976318,-4.293402194976807,5.078101634979248
1482901735414,-6.934805393218994,-4.275445461273193,5.072116374969482
1482901735591,-6.943783283233643,-4.267664432525635,5.076306343078613
1482901735776,-6.91265869140625,-4.2724528312683105,5.082890033721924
1482901735954,-6.916848659515381,-4.30058479309082,5.103240966796875
1482901736136,-6.919841289520264,-4.26706600189209,5.096656799316406
1482901736316,-6.948571681976318,-4.262277603149414,5.082291603088379
1482901736496,-6.9042792320251465,-4.279036998748779,5.088277339935303
1482901736671,-6.9276227951049805,-4.2527008056640625,5.122992992401123
1482901736855,-6.941389083862305,-4.273650169372559,5.076904773712158
1482901737037,-6.908469200134277,-4.284423828125,5.109825134277344
1482901737217,-6.930016994476318,-4.264671802520752,5.092466831207275
1482901737397,-6.930615425109863,-4.280233860015869,5.1116204261779785
1482901737580,-6.928221225738525,-4.267664432525635,5.117007732391357
1482901737755,-6.916250228881836,-4.2951979637146,5.059546947479248
1482901737935,-6.906673431396484,-4.293402194976807,5.084685802459717
1482901738118,-6.965331077575684,-4.279036998748779,5.080495834350586
1482901738296,-6.879738807678223,-4.2957963943481445,5.08648157119751
1482901738476,-6.965331077575684,-4.258686065673828,5.109825134277344
1482901738654,-6.915651798248291,-4.275445461273193,5.078101634979248
1482901738839,-6.927023887634277,-4.309563159942627,5.076904773712158
1482901739018,-6.940192222595215,-4.321534156799316,5.047575950622559
1482901739198,-6.931812286376953,-4.277241230010986,5.094262599945068
1482901739379,-6.877344608306885,-4.287416458129883,5.076904773712158
1482901739559,-6.9276227951049805,-4.30058479309082,5.107430934906006
1482901739735,-6.931213855743408,-4.279036998748779,5.088277339935303
1482901739918,-6.964134216308594,-4.31255578994751,5.05715274810791
1482901740094,-6.92881965637207,-4.279635429382324,5.090671539306641
1482901740276,-6.901286602020264,-4.286219596862793,5.08648157119751
1482901740457,-6.933608055114746,-4.261080265045166,5.116408824920654
1482901740637,-6.905476093292236,-4.283825397491455,5.10264253616333
1482901740819,-6.898293495178223,-4.28322696685791,5.080495834350586
1482901741001,-6.937199592590332,-4.293402194976807,5.0703206062316895
1482901741180,-6.970119476318359,-4.292803764343262,5.067327976226807
1482901741361,-6.903081893920898,-4.292803764343262,5.079897403717041
1482901741558,-6.943783283233643,-4.283825397491455,5.082291603088379
1482901741721,-6.921038627624512,-4.286219596862793,5.10383939743042
1482901741901,-6.91146183013916,-4.2515034675598145,5.075109004974365
1482901742080,-6.909666061401367,-4.258686065673828,5.109825134277344
1482901742261,-6.92881965637207,-4.301782131195068,5.058948040008545
1482901742441,-6.927023887634277,-4.280233860015869,5.0930657386779785
1482901742619,-6.890512466430664,-4.271854400634766,5.112817764282227
1482901742797,-6.897096633911133,-4.3191399574279785,5.109226226806641
1482901742978,-6.928221225738525,-4.261080265045166,5.076904773712158
1482901743172,-6.941987991333008,-4.314351558685303,5.08648157119751
1482901743343,-6.932411193847656,-4.287416458129883,5.047575950622559
1482901743521,-6.860584735870361,-4.301183223724365,5.109226226806641
1482901743701,-6.938396453857422,-4.282628059387207,5.051765441894531
1482901743880,-6.894702434539795,-4.271255970001221,5.107430934906006
1482901744064,-6.894702434539795,-4.282029628753662,5.103240966796875
1482901744241,-6.920440196990967,-4.286818027496338,5.106832027435303
1482901744423,-6.892308235168457,-4.279036998748779,5.099050998687744
1482901744604,-6.921637058258057,-4.2544965744018555,5.142745018005371
1482901744781,-6.9006876945495605,-4.2993879318237305,5.081094741821289
1482901744962,-6.907271862030029,-4.270657062530518,5.105635166168213
1482901745140,-6.916848659515381,-4.2724528312683105,5.117007732391357
1482901745322,-6.913257598876953,-4.305971622467041,5.100846767425537
1482901745503,-6.929418087005615,-4.259284973144531,5.098452568054199
1482901745684,-6.910264492034912,-4.277241230010986,5.067327976226807
1482901745866,-6.933009624481201,-4.2975921630859375,5.090671539306641
1482901746045,-6.8791399002075195,-4.293402194976807,5.097854137420654
1482901746226,-6.919242858886719,-4.266467571258545,5.110423564910889
1482901746404,-6.912060260772705,-4.294599533081055,5.122394561767578
1482901746586,-6.9240312576293945,-4.301183223724365,5.066130638122559
1482901746766,-6.92881965637207,-4.277839660644531,5.093664169311523
1482901746945,-6.92343282699585,-4.30058479309082,5.103240966796875
1482901747126,-6.916848659515381,-4.310161590576172,5.100248336791992
1482901747306,-6.901286602020264,-4.285022258758545,5.125985622406006
1482901747485,-6.9731125831604,-4.301782131195068,5.054159641265869
1482901747666,-6.864774703979492,-4.305373191833496,5.109825134277344
1482901747847,-6.943783283233643,-4.287416458129883,5.055955410003662
1482901748027,-6.909666061401367,-4.311957359313965,5.083488941192627
1482901748203,-6.907271862030029,-4.305373191833496,5.078700542449951
1482901748387,-6.9042792320251465,-4.273650169372559,5.105635166168213
1482901748566,-6.914454460144043,-4.2975921630859375,5.080495834350586
1482901748748,-6.9455790519714355,-4.2993879318237305,5.103240966796875
1482901748926,-6.887519836425781,-4.308365821838379,5.108627796173096
1482901749108,-6.8821330070495605,-4.324526786804199,5.116408824920654
1482901749286,-6.885724067687988,-4.28322696685791,5.100248336791992
1482901749468,-6.934206485748291,-4.284423828125,5.096656799316406
1482901749648,-6.933009624481201,-4.314949989318848,5.067327976226807
1482901749824,-6.901885032653809,-4.301183223724365,5.100248336791992
1482901750009,-6.9006876945495605,-4.322731018066406,5.090671539306641
1482901750186,-6.935403823852539,-4.293402194976807,5.080495834350586
1482901750369,-6.885724067687988,-4.2993879318237305,5.106832027435303
1482901750601,-6.907870292663574,-4.285621166229248,5.112219333648682
1482901750726,-6.910264492034912,-4.301183223724365,5.0918684005737305
1482901750909,-6.889914035797119,-4.2975921630859375,5.0876784324646
1482901751090,-6.916848659515381,-4.298789024353027,5.098452568054199
1482901751271,-6.928221225738525,-4.288613796234131,5.08648157119751
1482901751449,-6.904877662658691,-4.291606426239014,5.061941146850586
1482901751630,-6.919242858886719,-4.314949989318848,5.082291603088379
1482901751816,-6.916848659515381,-4.292205333709717,5.081094741821289
1482901751987,-6.915651798248291,-4.2975921630859375,5.07451057434082
1482901752222,-6.917447090148926,-4.308964729309082,5.117606163024902
1482901752350,-6.926425457000732,-4.299986362457275,5.08648157119751
1482901752531,-6.920440196990967,-4.298190593719482,5.077503204345703
1482901752710,-6.874950408935547,-4.303577423095703,5.100248336791992
1482901752891,-6.943184852600098,-4.270657062530518,5.130175590515137
1482901753078,-6.892906665802002,-4.311957359313965,5.0912699699401855
1482901753252,-6.883928298950195,-4.301183223724365,5.107430934906006
1482901753432,-6.886921405792236,-4.32871675491333,5.092466831207275
1482901753612,-6.9246296882629395,-4.273650169372559,5.109226226806641
1482901753792,-6.873154640197754,-4.337695121765137,5.111021995544434
1482901753971,-6.916250228881836,-4.294599533081055,5.088875770568848
1482901754153,-6.873154640197754,-4.322132587432861,5.109825134277344
1482901754342,-6.921038627624512,-4.315548419952393,5.130774021148682
1482901754513,-6.847416877746582,-4.329315185546875,5.082890033721924
1482901754691,-6.883928298950195,-4.304176330566406,5.106832027435303
1482901754869,-6.898293495178223,-4.263474464416504,5.108029365539551
1482901755055,-6.8827314376831055,-4.326920986175537,5.083488941192627
1482901755231,-6.961740016937256,-4.328118324279785,5.058349609375
1482901755442,-6.891110897064209,-4.2975921630859375,5.10383939743042
1482901755592,-6.9240312576293945,-4.2993879318237305,5.105635166168213
1482901755774,-6.921637058258057,-4.273650169372559,5.119401931762695
1482901755955,-6.896498203277588,-4.301782131195068,5.0918684005737305
1482901756135,-6.8821330070495605,-4.31255578994751,5.093664169311523
1482901756315,-6.936600685119629,-4.293402194976807,5.066729545593262
1482901756495,-6.879738807678223,-4.293402194976807,5.133767127990723
1482901756675,-6.919242858886719,-4.269460201263428,5.088277339935303
1482901756854,-6.870760440826416,-4.31255578994751,5.097854137420654
1482901757035,-6.936002254486084,-4.31135892868042,5.090671539306641
1482901757213,-6.891709804534912,-4.2963948249816895,5.12000036239624
1482901757395,-6.889914035797119,-4.2975921630859375,5.064933776855469
1482901757571,-6.899490833282471,-4.278438568115234,5.105036735534668
1482901757756,-6.918045997619629,-4.292803764343262,5.07570743560791
1482901757935,-6.900089263916016,-4.307767391204834,5.08648157119751
1482901758112,-6.905476093292236,-4.304774761199951,5.122394561767578
1482901758294,-6.922235488891602,-4.284423828125,5.102043628692627
1482901758482,-6.909067630767822,-4.326322555541992,5.063736438751221
1482901758657,-6.904877662658691,-4.2957963943481445,5.114014625549316
1482901758837,-6.903680801391602,-4.302978992462158,5.085284233093262
1482901759017,-6.897096633911133,-4.298190593719482,5.10383939743042
1482901759195,-6.897695064544678,-4.296993732452393,5.118803024291992
1482901759373,-6.910863399505615,-4.331709384918213,5.117606163024902
1482901759558,-6.9060750007629395,-4.326322555541992,5.10383939743042
1482901759736,-6.850409507751465,-4.310760021209717,5.0930657386779785
1482901759913,-6.907271862030029,-4.278438568115234,5.096656799316406
1482901760095,-6.87794303894043,-4.325125217437744,5.081693172454834
1482901760276,-6.885125637054443,-4.2975921630859375,5.105635166168213
1482901760458,-6.8791399002075195,-4.2760443687438965,5.124788761138916
1482901760638,-6.899490833282471,-4.286818027496338,5.067327976226807
1482901760818,-6.8821330070495605,-4.321534156799316,5.111021995544434
1482901760998,-6.912060260772705,-4.306570529937744,5.0912699699401855
1482901761179,-6.879738807678223,-4.284423828125,5.108029365539551
1482901761359,-6.879738807678223,-4.323928356170654,5.0930657386779785
1482901761538,-6.91265869140625,-4.314351558685303,5.106233596801758
1482901761719,-6.878541469573975,-4.340089321136475,5.115810394287109
1482901761895,-6.904877662658691,-4.306570529937744,5.1146135330200195
1482901762081,-6.892308235168457,-4.305373191833496,5.10383939743042
1482901762260,-6.897695064544678,-4.306570529937744,5.087080001831055
1482901762440,-6.879738807678223,-4.2993879318237305,5.087080001831055
1482901762620,-6.8827314376831055,-4.332906723022461,5.1152119636535645
1482901762801,-6.913257598876953,-4.328118324279785,5.066130638122559
1482901762978,-6.881534099578857,-4.299986362457275,5.100248336791992
1482901763160,-6.876745700836182,-4.308365821838379,5.108627796173096
1482901763390,-6.890512466430664,-4.316745758056641,5.0912699699401855
1482901763520,-6.890512466430664,-4.352060317993164,5.088875770568848
1482901763701,-6.887519836425781,-4.326322555541992,5.0900726318359375
1482901763882,-6.885125637054443,-4.305971622467041,5.107430934906006
1482901764061,-6.909666061401367,-4.330512523651123,5.072116374969482
1482901764242,-6.7714009284973145,-4.320336818695068,5.151124954223633
1482901764418,-6.9060750007629395,-4.314351558685303,5.112817764282227
1482901764599,-7.070676326751709,-4.257489204406738,5.245696067810059
1482901764782,-7.056311130523682,-4.316745758056641,5.075109004974365
1482901764963,-6.970119476318359,-4.369418144226074,5.003881454467773
1482901765145,-6.752845764160156,-4.40892219543457,5.01405668258667
1482901765325,-6.78696346282959,-4.326920986175537,5.1331682205200195
1482901765501,-6.733093738555908,-4.397550106048584,5.048772811889648
1482901765680,-6.865373611450195,-4.291007995605469,5.1996073722839355
1482901765859,-6.816890716552734,-4.379593372344971,5.083488941192627
1482901766044,-6.915651798248291,-4.356249809265137,5.141548156738281
1482901766224,-6.812102317810059,-4.335300922393799,5.07451057434082
1482901766401,-6.840234279632568,-4.355651378631592,5.224148273468018
1482901766581,-6.844424247741699,-4.374804973602295,5.083488941192627
1482901766762,-6.9042792320251465,-4.304176330566406,5.099050998687744
1482901766939,-6.819284915924072,-4.336497783660889,5.149928092956543
1482901767123,-6.8336501121521,-4.350862979888916,5.133767127990723
1482901767303,-6.862978935241699,-4.338891983032227,5.117606163024902
1482901767485,-6.891110897064209,-4.354454517364502,5.099649429321289
1482901767665,-6.880337238311768,-4.368220806121826,5.088277339935303
1482901767845,-6.846818447113037,-4.345476150512695,5.1134161949157715
1482901768021,-6.8611836433410645,-4.345476150512695,5.1116204261779785
1482901768201,-6.864176273345947,-4.3406877517700195,5.084685802459717
1482901768386,-6.890512466430664,-4.35804557800293,5.076306343078613
1482901768566,-6.861782073974609,-4.349067211151123,5.151124954223633
1482901768746,-6.841431140899658,-4.319738388061523,5.1349639892578125
1482901768922,-6.903081893920898,-4.356249809265137,5.0900726318359375
1482901769105,-6.8144965171813965,-4.365826606750488,5.125387191772461
1482901769286,-6.886921405792236,-4.330512523651123,5.082291603088379
1482901769466,-6.905476093292236,-4.354454517364502,5.104437828063965
1482901769646,-6.876745700836182,-4.357447147369385,5.090671539306641
1482901769827,-6.86597204208374,-4.381987571716309,5.063138008117676
1482901770005,-6.863577842712402,-4.376002311706543,5.089474201202393
1482901770187,-6.853402137756348,-4.305373191833496,5.117007732391357
1482901770368,-6.892308235168457,-4.34487771987915,5.095459938049316
1482901770548,-6.878541469573975,-4.376600742340088,5.103240966796875
1482901770728,-6.8821330070495605,-4.3424835205078125,5.0703206062316895
1482901770905,-6.88332986831665,-4.331709384918213,5.117606163024902
1482901771087,-6.884527206420898,-4.329315185546875,5.0912699699401855
1482901771268,-6.822876453399658,-4.3640313148498535,5.111021995544434
1482901771448,-6.860584735870361,-4.361637115478516,5.115810394287109
1482901771626,-6.89530086517334,-4.350862979888916,5.072116374969482
1482901771809,-6.861782073974609,-4.341884613037109,5.119401931762695
1482901771984,-6.868366241455078,-4.325724124908447,5.105036735534668
1482901772169,-6.860584735870361,-4.350862979888916,5.0691237449646
1482901772350,-6.891709804534912,-4.3412861824035645,5.0918684005737305
1482901772530,-6.889914035797119,-4.343680381774902,5.093664169311523
1482901772710,-6.893505096435547,-4.347271919250488,5.107430934906006
1482901772890,-6.829460144042969,-4.367622375488281,5.106233596801758
1482901773070,-6.851606845855713,-4.378994941711426,5.0900726318359375
1482901773250,-6.888118267059326,-4.343081951141357,5.090671539306641
1482901773430,-6.878541469573975,-4.3191399574279785,5.140949726104736
1482901773611,-6.873154640197754,-4.360439777374268,5.098452568054199
1482901773791,-6.898892402648926,-4.377797603607178,5.1349639892578125
1482901773971,-6.8372416496276855,-4.367622375488281,5.0876784324646
1482901774151,-6.862380504608154,-4.309563159942627,5.134365558624268
1482901774331,-6.869563102722168,-4.3406877517700195,5.1116204261779785
1482901774511,-6.851606845855713,-4.355651378631592,5.102043628692627
1482901774691,-6.864176273345947,-4.364629745483398,5.108627796173096
1482901774871,-6.914454460144043,-4.32991361618042,5.072714805603027
1482901775055,-6.873753070831299,-4.348468780517578,5.109825134277344
1482901775232,-6.892308235168457,-4.359242916107178,5.066130638122559
1482901775412,-6.82048225402832,-4.365826606750488,5.109226226806641
1482901775590,-6.839635848999023,-4.354454517364502,5.0912699699401855
1482901775772,-6.879738807678223,-4.359841346740723,5.072714805603027
1482901775950,-6.855197906494141,-4.343081951141357,5.127781391143799
1482901776131,-6.8809356689453125,-4.3412861824035645,5.099050998687744
1482901776309,-6.864176273345947,-4.383184909820557,5.078101634979248
1482901776490,-6.899490833282471,-4.3424835205078125,5.100248336791992
1482901776670,-6.848015308380127,-4.373009204864502,5.111021995544434
1482901776851,-6.891110897064209,-4.332307815551758,5.0918684005737305
1482901777033,-6.85100793838501,-4.357447147369385,5.0876784324646
1482901777215,-6.870760440826416,-4.37540340423584,5.078700542449951
1482901777391,-6.867767810821533,-4.359841346740723,5.117606163024902
1482901777575,-6.880337238311768,-4.35804557800293,5.088875770568848
1482901777750,-6.84981107711792,-4.357447147369385,5.095459938049316
1482901777935,-6.864774703979492,-4.354454517364502,5.115810394287109
1482901778115,-6.9060750007629395,-4.355052947998047,5.081094741821289
1482901778293,-6.817489147186279,-4.3640313148498535,5.103240966796875
1482901778510,-6.8791399002075195,-4.35804557800293,5.1116204261779785
1482901778655,-6.850409507751465,-4.368220806121826,5.106832027435303
1482901778835,-6.892308235168457,-4.315548419952393,5.108029365539551
1482901779016,-6.845022678375244,-4.378994941711426,5.103240966796875
1482901779196,-6.883928298950195,-4.352060317993164,5.076904773712158
1482901779374,-6.850409507751465,-4.351461410522461,5.122992992401123
1482901779556,-6.885125637054443,-4.35684871673584,5.089474201202393
1482901779735,-6.89530086517334,-4.365826606750488,5.114014625549316
1482901779994,-6.871358871459961,-4.3622355461120605,5.116408824920654
1482901780091,-6.856395244598389,-4.334702014923096,5.099050998687744
1482901780275,-6.848613739013672,-4.370016574859619,5.073313236236572
1482901780455,-6.849212646484375,-4.361637115478516,5.127182960510254
1482901780635,-6.83903694152832,-4.374804973602295,5.0930657386779785
1482901780817,-6.870162010192871,-4.350264549255371,5.080495834350586
1482901780993,-6.898892402648926,-4.370615005493164,5.073912143707275
1482901781175,-6.856395244598389,-4.359841346740723,5.082890033721924
1482901781357,-6.8372416496276855,-4.364629745483398,5.129577159881592
1482901781536,-6.893505096435547,-4.337096214294434,5.117606163024902
1482901781716,-6.867767810821533,-4.353855609893799,5.100846767425537
1482901781896,-6.895899295806885,-4.355651378631592,5.0900726318359375
1482901782080,-6.899490833282471,-4.3622355461120605,5.072714805603027
1482901782254,-6.864176273345947,-4.354454517364502,5.10264253616333
1482901782439,-6.850409507751465,-4.332307815551758,5.112219333648682
1482901782617,-6.879738807678223,-4.325724124908447,5.116408824920654
1482901782799,-6.86716890335083,-4.355052947998047,5.142146587371826
1482901782979,-6.887519836425781,-4.378396511077881,5.078700542449951
1482901783156,-6.825869083404541,-4.354454517364502,5.108029365539551
1482901783339,-6.89410400390625,-4.356249809265137,5.100248336791992
1482901783518,-6.864774703979492,-4.353257179260254,5.118204593658447
1482901783699,-6.840234279632568,-4.358644008636475,5.096656799316406
1482901783880,-6.86716890335083,-4.367023944854736,5.112219333648682
1482901784060,-6.854599475860596,-4.365228176116943,5.097255229949951
1482901784239,-6.845621109008789,-4.355651378631592,5.120598793029785
1482901784421,-6.824671745300293,-4.341884613037109,5.1331682205200195
1482901784601,-6.825270652770996,-4.345476150512695,5.103240966796875
1482901784781,-6.868366241455078,-4.377797603607178,5.145139217376709
1482901784961,-6.844424247741699,-4.354454517364502,5.0900726318359375
1482901785141,-6.880337238311768,-4.246116638183594,5.185242176055908
1482901785321,-7.097012519836426,-5.064933776855469,5.174468517303467
1482901785501,-6.8821330070495605,-4.1431660652160645,5.192424774169922
1482901785678,-6.866570472717285,-4.521450042724609,5.145139217376709
1482901785862,-6.8791399002075195,-4.392761707305908,5.073313236236572
1482901786041,-6.825869083404541,-4.377797603607178,5.13735818862915
1482901786221,-6.849212646484375,-4.380191802978516,5.127182960510254
1482901786401,-6.8360443115234375,-4.4059295654296875,5.095459938049316
1482901786581,-6.784569263458252,-4.4705729484558105,5.088875770568848
1482901786762,-6.881534099578857,-4.304176330566406,5.106832027435303
1482901786943,-6.861782073974609,-4.394556999206543,5.1134161949157715
1482901787121,-6.818088054656982,-4.413711071014404,5.0900726318359375
1482901787301,-6.866570472717285,-4.393958568572998,5.10383939743042
1482901787481,-6.82048225402832,-4.378396511077881,5.12000036239624
1482901787661,-6.854001045227051,-4.376600742340088,5.104437828063965
1482901787843,-6.806715488433838,-4.39156436920166,5.096058368682861
1482901788022,-6.871358871459961,-4.40353536605835,5.106233596801758
1482901788199,-6.815094947814941,-4.381987571716309,5.122992992401123
1482901788383,-6.861782073974609,-4.4059295654296875,5.109226226806641
1482901788564,-6.8043212890625,-4.43705415725708,5.1116204261779785
1482901788745,-6.812102317810059,-4.347870349884033,5.128379821777344
1482901788922,-6.906673431396484,-4.376002311706543,5.075109004974365
1482901789100,-6.831854343414307,-4.443638324737549,5.079897403717041
1482901789285,-6.83903694152832,-4.354454517364502,5.106233596801758
1482901789461,-6.8127007484436035,-4.344278812408447,5.14813232421875
1482901789645,-6.888716697692871,-4.398148536682129,5.077503204345703
1482901789824,-6.8372416496276855,-4.392761707305908,5.150526523590088
1482901790005,-6.830657482147217,-4.37420654296875,5.1116204261779785
1482901790186,-6.855197906494141,-4.331709384918213,5.146336555480957
1482901790366,-6.830657482147217,-4.3412861824035645,5.123591423034668
1482901790546,-6.839635848999023,-4.380191802978516,5.109825134277344
1482901790726,-6.836642742156982,-4.379593372344971,5.095459938049316
1482901790903,-6.809109687805176,-4.397550106048584,5.120598793029785
1482901791082,-6.853402137756348,-4.367622375488281,5.082890033721924
1482901791265,-6.831255912780762,-4.377797603607178,5.118803024291992
1482901791446,-6.898892402648926,-4.3843817710876465,5.080495834350586
1482901791625,-6.8043212890625,-4.392162799835205,5.12000036239624
1482901791807,-6.894702434539795,-4.4071269035339355,5.087080001831055
1482901791986,-6.831854343414307,-4.376002311706543,5.094262599945068
1482901792194,-6.8575921058654785,-4.345476150512695,5.112817764282227
1482901792348,-6.845621109008789,-4.369418144226074,5.096656799316406
1482901792523,-6.825270652770996,-4.39156436920166,5.111021995544434
1482901792706,-6.810306549072266,-4.406527996063232,5.12119722366333
1482901792886,-6.842628479003906,-4.373009204864502,5.112817764282227
1482901793068,-6.806117057800293,-4.367622375488281,5.127781391143799
1482901793260,-6.858190536499023,-4.37420654296875,5.10264253616333
1482901793429,-6.863577842712402,-4.373009204864502,5.090671539306641
1482901793608,-6.83245325088501,-4.36343240737915,5.112219333648682
1482901793789,-6.830657482147217,-4.369418144226074,5.122992992401123
1482901793969,-6.829460144042969,-4.3825860023498535,5.12119722366333
1482901794144,-6.8611836433410645,-4.371213912963867,5.089474201202393
1482901794328,-6.8043212890625,-4.355052947998047,5.130175590515137
1482901794510,-6.8575921058654785,-4.34607458114624,5.139752388000488
1482901794691,-6.8593878746032715,-4.37540340423584,5.122394561767578
1482901794870,-6.8611836433410645,-4.370016574859619,5.0900726318359375
1482901795076,-6.8144965171813965,-4.3825860023498535,5.116408824920654
1482901795230,-6.845022678375244,-4.371213912963867,5.1116204261779785
1482901795408,-6.841431140899658,-4.394556999206543,5.117007732391357
1482901795590,-6.873154640197754,-4.355052947998047,5.099649429321289
1482901795770,-6.812102317810059,-4.376600742340088,5.14813232421875
1482901795950,-6.872556209564209,-4.365826606750488,5.10383939743042
1482901796128,-6.8809356689453125,-4.350862979888916,5.142745018005371
1482901796312,-6.855197906494141,-4.354454517364502,5.123591423034668
1482901796491,-6.880337238311768,-4.389768600463867,5.110423564910889
1482901796672,-6.8336501121521,-4.393360137939453,5.143942356109619
1482901796849,-6.892308235168457,-4.3622355461120605,5.054758548736572
1482901797031,-6.831255912780762,-4.405331134796143,5.131372928619385
1482901797207,-6.829460144042969,-4.378994941711426,5.108627796173096
1482901797392,-6.789357662200928,-4.378994941711426,5.143942356109619
1482901797569,-6.839635848999023,-4.399944305419922,5.1116204261779785
1482901797751,-6.83245325088501,-4.318541526794434,5.128978729248047
1482901797930,-6.8342485427856445,-4.311957359313965,5.161300182342529
1482901798113,-6.91146183013916,-4.39156436920166,5.07451057434082
1482901798293,-6.8127007484436035,-4.347870349884033,5.127182960510254
1482901798470,-6.831854343414307,-4.367622375488281,5.126584529876709
1482901798652,-6.858190536499023,-4.365826606750488,5.105635166168213
1482901798833,-6.862380504608154,-4.294000625610352,5.218760967254639
1482901799015,-6.785766124725342,-4.4071269035339355,5.128978729248047
1482901799189,-6.868964672088623,-4.340089321136475,5.078700542449951
1482901799375,-6.91265869140625,-4.323329925537109,5.207388877868652
1482901799555,-6.7247138023376465,-4.66330623626709,5.036801815032959
1482901799731,-7.202357292175293,-4.214393615722656,5.381567001342773
1482901799915,-6.863577842712402,-4.50947904586792,4.99550199508667
1482901800090,-7.105391979217529,-4.513668537139893,4.973355293273926
1482901800270,-6.765415668487549,-4.466981887817383,5.033210754394531
1482901800450,-6.5265936851501465,-4.437653064727783,5.120598793029785
1482901800634,-6.04775333404541,-4.565144062042236,5.061342239379883
1482901800816,-6.715137004852295,-4.429871559143066,5.3576250076293945
1482901800996,-7.141304969787598,-4.401739597320557,5.099649429321289
1482901801176,-6.48708963394165,-4.43705415725708,5.006275653839111
1482901801354,-6.8611836433410645,-4.4059295654296875,5.2444987297058105
1482901801536,-6.888716697692871,-4.440645694732666,5.183446884155273
1482901801717,-6.6127848625183105,-4.51067590713501,5.045181751251221
1482901801897,-6.77618932723999,-4.370615005493164,5.307945251464844
1482901802075,-6.830657482147217,-4.425682067871094,5.169081687927246
1482901802265,-6.879738807678223,-4.416703701019287,5.090671539306641
1482901802435,-6.7025675773620605,-4.426280498504639,5.100248336791992
1482901802617,-6.782175064086914,-4.422688961029053,5.121796131134033
1482901802797,-6.757035732269287,-4.467580318450928,5.122992992401123
1482901802976,-6.764816761016846,-4.511873245239258,5.0918684005737305
1482901803158,-6.816890716552734,-4.432265758514404,5.1331682205200195
1482901803333,-6.790554523468018,-4.421492099761963,5.12119722366333
1482901803516,-6.784569263458252,-4.435258865356445,5.140350818634033
1482901803698,-6.762422561645508,-4.435258865356445,5.152322292327881
1482901803878,-6.7923502922058105,-4.371213912963867,5.16549015045166
1482901804059,-6.937199592590332,-4.314949989318848,5.100846767425537
1482901804235,-6.9258270263671875,-4.326920986175537,5.056553840637207
1482901804415,-6.9006876945495605,-4.336497783660889,5.109825134277344
1482901804599,-6.906673431396484,-4.3406877517700195,5.084087371826172
1482901804779,-6.84981107711792,-4.3179426193237305,5.105036735534668
1482901804959,-6.9006876945495605,-4.347271919250488,5.0715179443359375
1482901805135,-6.86716890335083,-4.389170169830322,5.0697221755981445
1482901805315,-6.831255912780762,-4.392162799835205,5.096656799316406
1482901805499,-6.846818447113037,-4.344278812408447,5.0876784324646
1482901805681,-6.866570472717285,-4.345476150512695,5.097255229949951
1482901805860,-6.912060260772705,-4.3622355461120605,5.0900726318359375
1482901806041,-6.87794303894043,-4.377797603607178,5.064933776855469
1482901806220,-6.825270652770996,-4.367023944854736,5.112817764282227
1482901806396,-6.9024834632873535,-4.358644008636475,5.088277339935303
1482901806576,-6.831854343414307,-4.370016574859619,5.134365558624268
1482901806761,-6.862978935241699,-4.380790710449219,5.087080001831055
1482901806941,-6.874950408935547,-4.348468780517578,5.088277339935303
1482901807121,-6.901286602020264,-4.371213912963867,5.07451057434082
1482901807298,-6.8378400802612305,-4.365228176116943,5.1349639892578125
1482901807481,-6.86597204208374,-4.378396511077881,5.084087371826172
1482901807663,-6.827664852142334,-4.4304704666137695,5.105635166168213
1482901807841,-6.838438510894775,-4.357447147369385,5.12000036239624
1482901808022,-6.833051681518555,-4.3412861824035645,5.124190330505371
1482901808202,-6.836642742156982,-4.349067211151123,5.112817764282227
1482901808383,-6.8593878746032715,-4.35804557800293,5.130774021148682
1482901808563,-6.847416877746582,-4.372410774230957,5.122394561767578
1482901808743,-6.8372416496276855,-4.398148536682129,5.112817764282227
1482901808923,-6.828861713409424,-4.340089321136475,5.167285919189453
1482901809099,-6.798335552215576,-4.347271919250488,5.108029365539551
1482901809296,-6.834847450256348,-4.364629745483398,5.122394561767578
1482901809462,-6.851606845855713,-4.359242916107178,5.12119722366333
1482901809643,-6.862978935241699,-4.368819713592529,5.148730754852295
1482901809824,-6.8827314376831055,-4.378396511077881,5.129577159881592
1482901810000,-6.846219539642334,-4.338891983032227,5.149928092956543
1482901810185,-6.87794303894043,-4.367622375488281,5.098452568054199
1482901810361,-6.831255912780762,-4.384980201721191,5.121796131134033
1482901810544,-6.86597204208374,-4.380790710449219,5.080495834350586
1482901810725,-6.8336501121521,-4.399345397949219,5.134365558624268
1482901810905,-6.8336501121521,-4.36343240737915,5.142146587371826
1482901811085,-6.794744491577148,-4.355052947998047,5.151723384857178
1482901811265,-6.825869083404541,-4.396352767944336,5.109226226806641
1482901811441,-6.848613739013672,-4.419097900390625,5.10264253616333
1482901811624,-6.824671745300293,-4.401739597320557,5.105036735534668
1482901811805,-6.801927089691162,-4.378396511077881,5.139153957366943
1482901811986,-6.8378400802612305,-4.322731018066406,5.120598793029785
1482901812166,-6.82167911529541,-4.462791919708252,5.119401931762695
1482901812345,-6.828861713409424,-4.328118324279785,5.132569789886475
1482901812526,-6.827065944671631,-4.398148536682129,5.118204593658447
1482901812703,-6.798335552215576,-4.399345397949219,5.152920722961426
1482901812885,-6.892906665802002,-4.371812343597412,5.088875770568848
1482901813067,-6.8557963371276855,-4.353855609893799,5.114014625549316
1482901813247,-6.813299655914307,-4.373608112335205,5.100248336791992
1482901813427,-6.803722858428955,-4.34487771987915,5.151723384857178
1482901813605,-6.979696273803711,-4.34487771987915,5.0703206062316895
1482901813786,-6.864774703979492,-4.313154220581055,5.108029365539551
1482901813965,-6.905476093292236,-4.309563159942627,5.107430934906006
1482901814148,-6.869563102722168,-4.355651378631592,5.111021995544434
1482901814329,-6.872556209564209,-4.306570529937744,5.139752388000488
1482901814506,-6.853402137756348,-4.319738388061523,5.117007732391357
1482901814688,-6.879738807678223,-4.331709384918213,5.0876784324646
1482901814867,-6.895899295806885,-4.350862979888916,5.098452568054199
1482901815048,-6.873154640197754,-4.3179426193237305,5.1349639892578125
1482901815229,-6.874950408935547,-4.343081951141357,5.090671539306641
1482901815409,-6.815094947814941,-4.352658748626709,5.137956619262695
1482901815589,-6.896498203277588,-4.348468780517578,5.097854137420654
1482901815769,-6.827664852142334,-4.36343240737915,5.152322292327881
1482901815946,-6.887519836425781,-4.323329925537109,5.100846767425537
1482901816130,-6.815094947814941,-4.367622375488281,5.122394561767578
1482901816310,-6.860584735870361,-4.365228176116943,5.088277339935303
1482901816490,-6.900089263916016,-4.35684871673584,5.094861030578613
1482901816670,-6.8144965171813965,-4.322731018066406,5.149928092956543
1482901816850,-6.840234279632568,-4.3622355461120605,5.143942356109619
1482901817031,-6.8144965171813965,-4.371812343597412,5.139752388000488
1482901817210,-6.890512466430664,-4.353855609893799,5.119401931762695
1482901817391,-6.823474884033203,-4.355052947998047,5.128978729248047
1482901817571,-6.868964672088623,-4.337695121765137,5.125387191772461
1482901817746,-6.827664852142334,-4.345476150512695,5.153519153594971
1482901817932,-6.870760440826416,-4.381987571716309,5.096058368682861
1482901818111,-6.842030048370361,-4.395155906677246,5.128379821777344
1482901818289,-6.875548839569092,-4.40233850479126,5.102043628692627
1482901818472,-6.848015308380127,-4.334103584289551,5.117007732391357
1482901818652,-6.86716890335083,-4.3394904136657715,5.122992992401123
1482901818832,-6.807912349700928,-4.338891983032227,5.142745018005371
1482901819012,-6.876147270202637,-4.364629745483398,5.109226226806641
1482901819192,-6.809109687805176,-4.383184909820557,5.114014625549316
1482901819384,-6.858190536499023,-4.359841346740723,5.147533416748047
1482901819551,-6.8342485427856445,-4.351461410522461,5.109825134277344
1482901819728,-6.8144965171813965,-4.370615005493164,5.146934986114502
1482901819909,-6.885125637054443,-4.352658748626709,5.077503204345703
1482901820090,-6.809708118438721,-4.365228176116943,5.139153957366943
1482901820273,-6.848015308380127,-4.3640313148498535,5.143343925476074
1482901820453,-6.846219539642334,-4.350862979888916,5.129577159881592
1482901820631,-6.8162922859191895,-4.360439777374268,5.127781391143799
1482901820810,-6.845022678375244,-4.330512523651123,5.145139217376709
1482901820995,-6.840832710266113,-4.397550106048584,5.12119722366333
1482901821170,-6.830657482147217,-4.396951198577881,5.13735818862915
1482901821355,-6.825270652770996,-4.392761707305908,5.120598793029785
1482901821531,-6.779780864715576,-4.370016574859619,5.114014625549316
1482901821715,-6.862380504608154,-4.3843817710876465,5.100248336791992
1482901821895,-6.797737121582031,-4.333505153656006,5.104437828063965
1482901822075,-6.844424247741699,-4.355651378631592,5.119401931762695
1482901822253,-6.825270652770996,-4.3640313148498535,5.152920722961426
1482901822437,-6.85100793838501,-4.384980201721191,5.124190330505371
1482901822616,-6.809109687805176,-4.39156436920166,5.146934986114502
1482901822791,-6.828861713409424,-4.374804973602295,5.106233596801758
1482901822974,-6.831854343414307,-4.3825860023498535,5.1152119636535645
1482901823154,-6.848015308380127,-4.343081951141357,5.154117584228516
1482901823334,-6.818686485290527,-4.398148536682129,5.127182960510254
1482901823512,-6.7929487228393555,-4.370016574859619,5.135562419891357
1482901823696,-6.874351501464844,-4.376002311706543,5.145139217376709
1482901823877,-6.801927089691162,-4.389768600463867,5.1367597579956055
1482901824057,-6.819883346557617,-4.370016574859619,5.13197135925293
1482901824237,-6.762422561645508,-4.381987571716309,5.178658485412598
1482901824416,-6.807313919067383,-4.372410774230957,5.122992992401123
1482901824594,-6.785167694091797,-4.377199172973633,5.130175590515137
1482901824787,-6.851606845855713,-4.378396511077881,5.143942356109619
1482901824956,-6.790554523468018,-4.397550106048584,5.140949726104736
1482901825133,-6.823474884033203,-4.365228176116943,5.143942356109619
1482901825316,-6.784569263458252,-4.372410774230957,5.12119722366333
1482901825493,-6.819883346557617,-4.392162799835205,5.152322292327881
1482901825676,-6.818686485290527,-4.378396511077881,5.124788761138916
1482901825859,-6.813299655914307,-4.387973308563232,5.126584529876709
1482901826036,-6.809109687805176,-4.3861775398254395,5.14813232421875
1482901826222,-6.828263282775879,-4.410119533538818,5.125985622406006
1482901826399,-6.807912349700928,-4.386775970458984,5.118803024291992
1482901826578,-6.827065944671631,-4.396951198577881,5.121796131134033
1482901826759,-6.804919719696045,-4.387374401092529,5.151124954223633
1482901826940,-6.807912349700928,-4.397550106048584,5.098452568054199
1482901827121,-6.810905456542969,-4.397550106048584,5.121796131134033
1482901827300,-6.838438510894775,-4.39156436920166,5.114014625549316
1482901827480,-6.779780864715576,-4.383783340454102,5.141548156738281
1482901827660,-6.816890716552734,-4.4059295654296875,5.140949726104736
1482901827839,-6.794744491577148,-4.412513732910156,5.137956619262695
1482901828022,-6.866570472717285,-4.398746967315674,5.118803024291992
1482901828201,-6.803123950958252,-4.369418144226074,5.133767127990723
