timestamp,ax,ay,az
1482155448764,-1.6549919843673706,-9.37389850616455,0.4076128304004669
1482155448934,-1.8800468444824219,-9.618106842041016,0.5680243372917175
1482155449127,-2.1954829692840576,-9.785101890563965,0.49380409717559814
1482155449296,-1.5945383310317993,-9.468469619750977,-0.2017114907503128
1482155449477,-1.2234370708465576,-9.762955665588379,-0.24001872539520264
1482155449657,-2.0189106464385986,-9.586383819580078,-0.16101007163524628
1482155449838,-1.368884801864624,-9.537302017211914,-0.3429693877696991
1482155450017,-1.6747441291809082,-9.544485092163086,-0.28072014451026917
1482155450200,-1.592742681503296,-9.552865028381348,-0.30705636739730835
1482155450379,-1.6226701736450195,-9.582792282104492,-0.16400282084941864
1482155450557,-1.6202759742736816,-9.539097785949707,-0.016759412363171577
1482155450736,-1.5502456426620483,-9.528324127197266,0.023343466222286224
1482155450920,-1.8986018896102905,-9.45111083984375,0.028131870552897453
1482155451097,-1.4826093912124634,-9.625887870788574,0.20051439106464386
1482155451278,-1.7507599592208862,-9.503185272216797,0.15263035893440247
1482155451460,-1.5819687843322754,-9.559449195861816,0.09516951441764832
1482155451640,-1.6011223793029785,-9.546280860900879,0.06823474913835526
1482155451818,-1.5406688451766968,-9.497797966003418,0.1364694982767105
1482155451998,-1.656787633895874,-9.55466079711914,0.10474632680416107
1482155452180,-1.566406488418579,-9.532513618469238,0.13168109953403473
1482155452360,-1.6519991159439087,-9.5809965133667,0.12090718746185303
1482155452539,-1.6980875730514526,-9.476848602294922,0.0999579206109047
1482155452721,-1.5723919868469238,-9.561244010925293,0.11552023142576218
1482155452934,-1.7082629203796387,-9.513360023498535,0.1280897855758667
1482155453079,-1.5550340414047241,-9.57201862335205,0.15263035893440247
1482155453265,-1.722628116607666,-9.50617790222168,0.16340427100658417
1482155453445,-1.4359225034713745,-9.585186958312988,0.15023615956306458
1482155453620,-1.7872716188430786,-9.510367393493652,0.14006079733371735
1482155453799,-1.521515130996704,-9.59057331085205,0.1454477459192276
1482155453985,-1.4437036514282227,-9.566631317138672,0.07661445438861847
1482155454165,-1.777694821357727,-9.47146224975586,0.1430535465478897
1482155454345,-1.5939397811889648,-9.600749015808105,0.03172317147254944
1482155454524,-1.490989089012146,-9.581595420837402,0.05746084079146385
1482155454703,-1.7525556087493896,-9.45111083984375,0.13587094843387604
1482155454885,-1.656787633895874,-9.620500564575195,0.13048399984836578
1482155455068,-1.6454150676727295,-9.504382133483887,0.13347674906253815
1482155455245,-1.6657658815383911,-9.44991397857666,0.1759738177061081
1482155455424,-1.7118542194366455,-9.596558570861816,0.17178396880626678
1482155455601,-1.5957354307174683,-9.556455612182617,0.06224924325942993
1482155455786,-1.4742296934127808,-9.543288230895996,0.18914192914962769
1482155455965,-1.656787633895874,-9.50498104095459,0.272938996553421
1482155456142,-1.668160080909729,-9.485228538513184,0.12389993667602539
1482155456327,-1.556231141090393,-9.527127265930176,0.19452889263629913
1482155456506,-1.6292542219161987,-9.485228538513184,0.17717093229293823
1482155456682,-1.622071623802185,-9.552266120910645,0.2082955539226532
1482155456865,-1.5275006294250488,-9.575610160827637,0.21368250250816345
1482155457047,-1.7812861204147339,-9.488221168518066,0.243011474609375
1482155457228,-1.703474521636963,-9.528324127197266,0.21188685297966003
1482155457406,-1.5825673341751099,-9.536105155944824,0.2885012924671173
1482155457587,-1.7561469078063965,-9.502586364746094,0.22685061395168304
1482155457767,-1.7836803197860718,-9.418789863586426,0.35254621505737305
1482155457948,-1.6992846727371216,-9.582792282104492,0.2579752206802368
1482155458124,-1.600523829460144,-9.522936820983887,0.20231004059314728
1482155458308,-2.1595699787139893,-9.394248962402344,0.2603694200515747
1482155458489,-1.5275006294250488,-9.534908294677734,0.08200141042470932
1482155458665,-1.7735048532485962,-9.539097785949707,0.08319851011037827
1482155458848,-1.71245276927948,-9.516353607177734,0.03711012750864029
1482155459028,-1.613093376159668,-9.54209041595459,-0.03651157766580582
1482155459205,-1.7842788696289063,-9.478046417236328,0.0035913025494664907
1482155459389,-1.7178397178649902,-9.589376449584961,0.06584054976701736
1482155459570,-1.5711948871612549,-9.528923034667969,-0.009576806798577309
1482155459745,-1.902193307876587,-9.43255615234375,0.10534487664699554
1482155459930,-1.7381904125213623,-9.531316757202148,0.07960720360279083
1482155460105,-1.4532804489135742,-9.585784912109375,0.0011971008498221636
1482155460290,-1.8656816482543945,-9.481039047241211,0.152031809091568
1482155460471,-1.5837644338607788,-9.537302017211914,0.14903905987739563
1482155460654,-1.7603367567062378,-9.5408935546875,0.08259996026754379
1482155460831,-1.8100165128707886,-9.481637001037598,0.1735796183347702
1482155461011,-1.670554280281067,-9.536704063415527,0.2519897222518921
1482155461187,-1.7549498081207275,-9.43255615234375,0.07960720360279083
1482155461371,-1.6723499298095703,-9.473855972290039,0.24839842319488525
1482155461548,-1.6418237686157227,-9.531915664672852,0.23343466222286224
1482155461727,-1.5819687843322754,-9.5809965133667,0.14006079733371735
1482155461912,-1.7609353065490723,-9.526528358459473,0.21667525172233582
1482155462090,-1.7387889623641968,-9.533711433410645,0.22026655077934265
1482155462268,-1.7298107147216797,-9.5007905960083,0.16101007163524628
1482155462452,-1.4401123523712158,-9.579200744628906,0.1388636976480484
1482155462633,-1.843535304069519,-9.524134635925293,0.29209262132644653
1482155462813,-1.6633716821670532,-9.513360023498535,0.2621650993824005
1482155462991,-1.7621324062347412,-9.485827445983887,0.21547815203666687
1482155463170,-1.690904974937439,-9.537900924682617,0.2454056739807129
1482155463354,-1.732803463935852,-9.49121379852295,0.28311434388160706
1482155463533,-1.7435773611068726,-9.521739959716797,0.22864626348018646
1482155463709,-1.6543933153152466,-9.501389503479004,0.18974047899246216
1482155463894,-1.6753426790237427,-9.533112525939941,0.26396074891090393
1482155464069,-1.7591396570205688,-9.507973670959473,0.13527239859104156
1482155464249,-1.5723919868469238,-9.57441234588623,0.15143325924873352
1482155464435,-1.6059107780456543,-9.533711433410645,0.11252748221158981
1482155464610,-1.7094600200653076,-9.509769439697266,0.14006079733371735
1482155464790,-1.6154875755310059,-9.544485092163086,0.02693476900458336
1482155464973,-1.5885528326034546,-9.55585765838623,-0.012569558806717396
1482155465156,-1.6083049774169922,-9.531915664672852,0.03890577703714371
1482155465335,-1.7782933712005615,-9.516951560974121,-0.02992752194404602
1482155465515,-1.6633716821670532,-9.567230224609375,-0.035913024097681046
1482155465691,-1.625662922859192,-9.48343276977539,-0.010175357572734356
1482155465876,-1.79146146774292,-9.514557838439941,0.12030863761901855
1482155466056,-1.690904974937439,-9.509170532226563,-0.0454898327589035
1482155466231,-1.5310919284820557,-9.553462982177734,0.06584054976701736
1482155466415,-1.8040310144424438,-9.455301284790039,0.11252748221158981
1482155466595,-1.688510775566101,-9.541492462158203,0.14664486050605774
1482155466772,-1.6508020162582397,-9.5223388671875,0.13826514780521393
1482155466957,-1.7585411071777344,-9.443928718566895,0.1496376097202301
1482155467135,-1.7818846702575684,-9.521739959716797,0.14604631066322327
1482155467312,-1.5735890865325928,-9.537302017211914,0.07661445438861847
1482155467495,-1.8303672075271606,-9.52114200592041,0.1041477769613266
1482155467677,-1.4838064908981323,-9.551667213439941,0.09576806426048279
1482155467854,-1.9560627937316895,-9.4014310836792,0.22086510062217712
1482155468037,-1.534683346748352,-9.582193374633789,0.17537526786327362
1482155468217,-1.7842788696289063,-9.512163162231445,0.15921440720558167
1482155468398,-1.5855600833892822,-9.439739227294922,0.2717418968677521
1482155468578,-1.7561469078063965,-9.524134635925293,0.21607670187950134
1482155468754,-1.6849194765090942,-9.47265911102295,0.2693476974964142
1482155468938,-2.033275842666626,-9.418190956115723,0.24480712413787842
1482155469117,-1.5705963373184204,-9.519346237182617,0.2388216257095337
1482155469295,-1.699883222579956,-9.479841232299805,0.13287819921970367
1482155469478,-1.7459715604782104,-9.534309387207031,0.30526071786880493
1482155469659,-1.5442601442337036,-9.518148422241211,0.2645592987537384
1482155469836,-1.9889830350875854,-9.44871711730957,0.19452889263629913
1482155470019,-1.2749123573303223,-9.634267807006836,0.1951274424791336
1482155470200,-2.0057425498962402,-9.418190956115723,0.15562310814857483
1482155470378,-1.5053542852401733,-9.582792282104492,0.18794482946395874
1482155470560,-1.6388310194015503,-9.4822359085083,0.19931729137897491
1482155470735,-1.868674397468567,-9.521739959716797,0.16879121959209442
1482155470920,-1.5873557329177856,-9.570222854614258,0.11013327538967133
1482155471100,-1.634641170501709,-9.561842918395996,0.08619125932455063
1482155471277,-1.867477297782898,-9.409213066101074,0.22445641458034515
1482155471461,-1.7747019529342651,-9.545083999633789,0.2495955228805542
1482155471641,-1.7166426181793213,-9.50857162475586,0.15801730751991272
1482155471816,-1.5843629837036133,-9.552865028381348,0.22505496442317963
1482155471996,-1.8124107122421265,-9.486425399780273,0.14245499670505524
1482155472181,-1.580173134803772,-9.588179588317871,0.19033902883529663
1482155472358,-1.6376339197158813,-9.490615844726563,0.13946224749088287
1482155472542,-1.6962919235229492,-9.537302017211914,0.11851298063993454
1482155472722,-1.680729627609253,-9.53969669342041,0.12330138683319092
1482155472902,-1.725022315979004,-9.499593734741211,0.16819266974925995
1482155473082,-1.745373010635376,-9.530718803405762,0.18076223134994507
1482155473259,-1.622071623802185,-9.531316757202148,0.12509703636169434
1482155473442,-1.677138328552246,-9.50617790222168,0.1825578808784485
1482155473618,-1.7411831617355347,-9.539097785949707,0.21009120345115662
1482155473798,-1.5723919868469238,-9.536105155944824,0.1107318252325058
1482155473981,-1.8782511949539185,-9.431957244873047,0.16220717132091522
1482155474164,-1.3838485479354858,-9.569623947143555,0.1646013706922531
1482155474339,-1.9937714338302612,-9.43135929107666,0.21847090125083923
1482155474524,-1.2671312093734741,-9.54209041595459,0.30705636739730835
1482155474709,-2.0033483505249023,-9.434351921081543,0.15741875767707825
1482155474882,-1.3617022037506104,-9.641449928283691,0.24600422382354736
1482155475063,-1.544858694076538,-9.352350234985352,-0.08319851011037827
1482155475245,-1.6280571222305298,-9.79647445678711,0.4728548228740692
1482155475424,-2.1535844802856445,-9.695918083190918,0.363918662071228
1482155475605,-1.5466543436050415,-9.55825138092041,0.29568392038345337
1482155475780,-1.6047136783599854,-9.646238327026367,0.1346738487482071
1482155475965,-1.8136078119277954,-9.59835433959961,0.3968389332294464
1482155476145,-1.6855180263519287,-9.410409927368164,0.15562310814857483
1482155476321,-1.7531541585922241,-9.424775123596191,0.3076549172401428
1482155476505,-1.6927006244659424,-9.456498146057129,0.26815059781074524
1482155476686,-1.5735890865325928,-9.509170532226563,0.015562310814857483
1482155476861,-1.7782933712005615,-9.469067573547363,0.14425064623355865
1482155477046,-1.5729905366897583,-9.57321548461914,-0.0520738884806633
1482155477226,-1.7274165153503418,-9.502586364746094,0.19033902883529663
1482155477405,-1.6424223184585571,-9.570222854614258,0.10175357013940811
1482155477585,-1.725022315979004,-9.564835548400879,0.14484919607639313
1482155477767,-1.8632874488830566,-9.48462963104248,0.11372458189725876
1482155477947,-1.73519766330719,-9.542689323425293,0.1430535465478897
1482155478127,-1.7459715604782104,-9.539097785949707,0.0999579206109047
1482155478306,-1.7591396570205688,-9.494805335998535,0.23283611238002777
1482155478487,-1.6741455793380737,-9.512762069702148,0.2406172752380371
1482155478666,-1.7160440683364868,-9.54209041595459,0.292691171169281
1482155478843,-1.8351556062698364,-9.497797966003418,0.2932897210121155
1482155479028,-1.8171991109848022,-9.515155792236328,0.24480712413787842
1482155479208,-1.7830817699432373,-9.463082313537598,0.37648820877075195
1482155479400,-1.6208745241165161,-9.474454879760742,0.33937808871269226
1482155479568,-1.8142063617706299,-9.493608474731445,0.15801730751991272
1482155479744,-1.6855180263519287,-9.511565208435059,0.3250128924846649
1482155479928,-1.7501614093780518,-9.463082313537598,0.23104046285152435
1482155480109,-1.6101006269454956,-9.548674583435059,0.24001872539520264
1482155480288,-1.745373010635376,-9.503783226013184,0.21188685297966003
1482155480469,-1.6585832834243774,-9.485228538513184,0.24899697303771973
1482155480649,-1.732803463935852,-9.527127265930176,0.25917232036590576
1482155480828,-1.5807716846466064,-9.548674583435059,0.08858546614646912
1482155481010,-1.6597803831100464,-9.4822359085083,0.08619125932455063
1482155481189,-1.6549919843673706,-9.561244010925293,0.07900865375995636
1482155481365,-1.4867992401123047,-9.543886184692383,-0.02693476900458336
1482155481550,-1.955464243888855,-9.437344551086426,0.017956512048840523
1482155481730,-1.3036428689956665,-9.598953247070313,0.026336219161748886
1482155481907,-2.006340980529785,-9.463082313537598,0.06165069341659546
1482155482086,-1.324592113494873,-9.59177017211914,-0.053270988166332245
1482155482271,-1.9578584432601929,-9.440337181091309,0.1149216815829277
1482155482452,-1.6633716821670532,-9.495404243469238,0.041299980133771896
1482155482631,-1.6825252771377563,-9.494206428527832,0.0347159244120121
1482155482810,-1.8644845485687256,-9.503783226013184,0.09516951441764832
1482155482991,-1.732803463935852,-9.488221168518066,0.0933738648891449
1482155483171,-1.8112136125564575,-9.513360023498535,0.08978256583213806
1482155483348,-1.3940238952636719,-9.607931137084961,0.02992752194404602
1482155483530,-2.1733365058898926,-9.43255615234375,0.10295066982507706
1482155483710,-1.1522095203399658,-9.596558570861816,0.11013327538967133
1482155483888,-2.100313425064087,-9.478644371032715,0.09696517139673233
1482155484072,-1.268328309059143,-9.597756385803223,0.22625206410884857
1482155484252,-1.974617838859558,-9.469666481018066,0.10055647045373917
1482155484428,-1.4443022012710571,-9.563039779663086,0.19452889263629913
1482155484613,-1.923741102218628,-9.462483406066895,0.09636662155389786
1482155484789,-1.6268600225448608,-9.479841232299805,0.2645592987537384
1482155484973,-1.3640964031219482,-9.616311073303223,0.0933738648891449
1482155485154,-2.1793220043182373,-9.439140319824219,0.10893617570400238
1482155485329,-1.2850877046585083,-9.650428771972656,0.1604115068912506
1482155485509,-1.8608932495117188,-9.487024307250977,0.14844051003456116
1482155485693,-1.482010841369629,-9.587580680847168,0.10594342648983002
1482155485870,-1.6723499298095703,-9.531915664672852,0.07781155407428741
1482155486055,-1.8142063617706299,-9.481637001037598,0.10953472554683685
1482155486235,-1.7070658206939697,-9.551667213439941,0.14844051003456116
1482155486410,-1.4628572463989258,-9.516951560974121,0.04967968538403511
1482155486595,-1.8022353649139404,-9.504382133483887,0.12090718746185303
1482155486775,-1.775899052619934,-9.583989143371582,0.12868833541870117
1482155486952,-1.6298527717590332,-9.486425399780273,0.1322796493768692
1482155487134,-1.6376339197158813,-9.498396873474121,0.152031809091568
1482155487315,-1.765723705291748,-9.505578994750977,0.23582886159420013
1482155487496,-1.7363947629928589,-9.429563522338867,0.21547815203666687
1482155487676,-1.521515130996704,-9.622296333312988,0.07900865375995636
1482155487853,-1.7130513191223145,-9.533711433410645,0.13587094843387604
1482155488036,-1.5580267906188965,-9.49001693725586,0.2472013235092163
1482155488216,-1.9913772344589233,-9.37748908996582,0.31364041566848755
1482155488392,-1.8710685968399048,-9.459490776062012,0.20111294090747833
1482155488575,-1.5490485429763794,-9.701305389404297,0.035913024097681046
1482155488756,-1.6687586307525635,-9.476848602294922,0.10773907601833344
1482155488932,-1.8261773586273193,-9.473855972290039,0.20350714027881622
1482155489116,-1.6717513799667358,-9.535507202148438,0.18734627962112427
1482155489297,-1.6777368783950806,-9.57201862335205,0.15562310814857483
1482155489473,-1.544858694076538,-9.560646057128906,0.08798690885305405
1482155489657,-1.6250643730163574,-9.541492462158203,0.15023615956306458
1482155489840,-1.5424644947052002,-9.557653427124023,0.12270283699035645
1482155490018,-1.813009262084961,-9.43375301361084,0.1562216579914093
1482155490198,-1.6932991743087769,-9.527725219726563,0.23163901269435883
1482155490374,-1.4622586965560913,-9.589376449584961,0.07661445438861847
1482155490558,-1.9722236394882202,-9.52114200592041,0.15263035893440247
1482155490739,-1.3623007535934448,-9.576807022094727,0.20290859043598175
1482155490915,-1.896806240081787,-9.498396873474121,0.06224924325942993
1482155491098,-2.138620615005493,-9.410409927368164,0.1885433793067932
1482155491278,-0.5626373887062073,-9.82640266418457,-0.033518824726343155
1482155491455,-2.8107926845550537,-9.288305282592773,0.2346317619085312
1482155491636,-1.0301052331924438,-9.709086418151855,0.18734627962112427
1482155491819,-2.0189106464385986,-9.39903736114502,0.02454056777060032
1482155491997,-2.1781249046325684,-9.39365005493164,0.22924481332302094
1482155492180,-0.3315969407558441,-9.821614265441895,0.020350715145468712
1482155492360,-3.0370447635650635,-9.227851867675781,0.22385786473751068
1482155492540,-0.8577227592468262,-9.75517463684082,0.04249707981944084
1482155492722,-2.206855535507202,-9.412803649902344,-0.12389993667602539
1482155492900,-2.2008697986602783,-9.378686904907227,0.16639702022075653
1482155493078,-0.22206220030784607,-9.793481826782227,-0.1646013706922531
1482155493259,-3.0837318897247314,-9.218873977661133,0.21607670187950134
1482155493436,-0.6500257849693298,-9.81024169921875,-0.0628477931022644
1482155493621,-2.60548996925354,-9.324816703796387,-0.14604631066322327
1482155493801,-2.0033483505249023,-9.389460563659668,0.15322890877723694
1482155493977,-0.606930136680603,-9.830592155456543,0.03232172131538391
1482155494159,-2.674323320388794,-9.314641952514648,0.44412440061569214
1482155494342,-0.9247604012489319,-9.740809440612793,0.2867056429386139
1482155494521,-2.0644004344940186,-9.391854286193848,-0.010773907415568829
1482155494700,-1.6927006244659424,-9.525331497192383,0.17896658182144165
1482155494881,-1.6298527717590332,-9.522936820983887,-0.0586579404771328
1482155495062,-1.8022353649139404,-9.488221168518066,0.2603694200515747
1482155495243,-1.128267526626587,-9.671378135681152,0.1646013706922531
1482155495423,-2.2242133617401123,-9.387664794921875,0.08439560979604721
1482155495600,-1.6992846727371216,-9.481637001037598,0.22685061395168304
1482155495783,-1.05105459690094,-9.66539192199707,-0.03232172131538391
1482155495959,-2.5558102130889893,-9.311649322509766,0.2172738015651703
1482155496144,-0.6841431260108948,-9.805453300476074,0.0011971008498221636
1482155496324,-2.522291421890259,-9.390059471130371,0.08259996026754379
1482155496499,-1.4059948921203613,-9.601346969604492,0.17298106849193573
1482155496685,-1.820790410041809,-9.378686904907227,-0.02992752194404602
1482155496865,-2.1039047241210938,-9.402029991149902,0.28311434388160706
1482155497044,-0.9840168952941895,-9.536704063415527,-0.04010287672281265
1482155497225,-2.7234044075012207,-9.323619842529297,0.3190273642539978
1482155497405,-0.13527239859104156,-9.906607627868652,-0.018555063754320145
1482155497583,-2.7329812049865723,-9.315239906311035,0.20949265360832214
1482155497764,-0.7715315222740173,-9.742605209350586,0.1472434103488922
1482155497941,-2.4845829010009766,-9.369110107421875,0.14006079733371735
1482155498126,-1.5945383310317993,-9.565434455871582,0.17537526786327362
1482155498305,-1.4053963422775269,-9.46727180480957,-0.09217676520347595
1482155498481,-2.5695769786834717,-9.297882080078125,0.25019407272338867
1482155498664,-0.3148375153541565,-9.802460670471191,-0.05626374110579491
1482155498847,-2.868852138519287,-9.291297912597656,0.27413609623908997
1482155499022,-0.8810662031173706,-9.73542308807373,0.04010287672281265
1482155499206,-2.3810336589813232,-9.366117477416992,-0.06823474913835526
1482155499386,-1.9249382019042969,-9.41639518737793,0.1885433793067932
1482155499567,-0.9343371987342834,-9.62828254699707,-0.20111294090747833
1482155499747,-2.7060465812683105,-9.337985038757324,0.17836803197860718
1482155499924,-0.48482584953308105,-9.853337287902832,-0.10833762586116791
1482155500107,-2.9466638565063477,-9.227851867675781,0.02513911761343479
1482155500287,-1.1623848676681519,-9.601346969604492,0.11851298063993454
1482155500463,-1.6400281190872192,-9.493608474731445,-0.15562310814857483
1482155500648,-2.382829189300537,-9.32661247253418,0.30047231912612915
1482155500828,-0.7044938206672668,-9.673771858215332,-0.06224924325942993
1482155501003,-2.470816135406494,-9.351752281188965,0.21308395266532898
1482155501190,-1.0857704877853394,-9.690531730651855,0.04728548228740692
1482155501368,-2.1583728790283203,-9.424176216125488,0.1346738487482071
1482155501544,-1.4101848602294922,-9.549273490905762,0.16101007163524628
1482155501729,-1.5233107805252075,-9.503783226013184,-0.004788403399288654
1482155501909,-1.669357180595398,-9.488221168518066,0.14245499670505524
1482155502087,-1.7926585674285889,-9.503185272216797,0.12449848651885986
1482155502269,-1.7184382677078247,-9.52114200592041,0.10115502029657364
1482155502448,-1.6238672733306885,-9.55466079711914,0.013766659423708916
1482155502630,-1.7998411655426025,-9.457695007324219,0.1825578808784485
1482155502810,-1.7675193548202515,-9.511565208435059,0.29807811975479126
1482155502985,-1.6154875755310059,-9.516353607177734,0.10594342648983002
1482155503166,-1.9189527034759521,-9.47146224975586,0.26815059781074524
1482155503350,-1.7423802614212036,-9.467870712280273,0.19153612852096558
1482155503526,-1.5879542827606201,-9.52114200592041,0.18495208024978638
1482155503710,-1.6071078777313232,-9.518148422241211,0.12389993667602539
1482155503890,-1.8315643072128296,-9.524134635925293,0.14065934717655182
1482155504066,-1.5741876363754272,-9.531316757202148,0.22625206410884857
1482155504251,-1.6879122257232666,-9.542689323425293,0.07182604819536209
1482155504431,-1.5741876363754272,-9.551069259643555,0.08080431073904037
1482155504611,-1.9536685943603516,-9.454702377319336,0.19692309200763702
1482155504791,-1.5310919284820557,-9.544485092163086,0.2041056901216507
1482155504967,-1.6238672733306885,-9.501389503479004,0.061052143573760986
1482155505150,-1.5412673950195313,-9.549273490905762,0.18375498056411743
1482155505331,-2.0159177780151367,-9.452906608581543,0.152031809091568
1482155505507,-1.4873977899551392,-9.560646057128906,0.2406172752380371
1482155505692,-1.5640122890472412,-9.543886184692383,0.14245499670505524
1482155505871,-1.8477251529693604,-9.493009567260742,0.20231004059314728
1482155506048,-1.4131776094436646,-9.567230224609375,0.2124854028224945
1482155506230,-1.7753005027770996,-9.485827445983887,0.18315643072128296
1482155506410,-1.655590534210205,-9.522936820983887,0.1412578970193863
1482155506590,-1.8076223134994507,-9.509170532226563,0.1909375786781311
1482155506782,-1.5819687843322754,-9.473855972290039,0.12030863761901855
1482155506951,-1.5670050382614136,-9.573814392089844,0.1173158809542656
1482155507132,-1.811812162399292,-9.516353607177734,0.12270283699035645
1482155507314,-1.5430630445480347,-9.509170532226563,0.046088382601737976
1482155507496,-1.613093376159668,-9.546280860900879,0.04429273307323456
1482155507675,-1.6873136758804321,-9.531316757202148,0.028730420395731926
1482155507854,-1.8040310144424438,-9.476848602294922,0.028131870552897453
1482155508030,-1.5430630445480347,-9.566033363342285,0.04908113554120064
1482155508214,-1.7118542194366455,-9.486425399780273,0.05746084079146385
1482155508395,-1.6124948263168335,-9.57441234588623,0.023942016065120697
1482155508570,-1.5077484846115112,-9.5809965133667,0.10175357013940811
1482155508755,-1.6340426206588745,-9.588179588317871,0.03711012750864029
1482155508931,-1.8100165128707886,-9.479243278503418,0.07242459803819656
1482155509115,-1.5400702953338623,-9.531915664672852,0.04967968538403511
1482155509296,-1.5280991792678833,-9.540295600891113,0.053270988166332245
1482155509475,-1.680729627609253,-9.5223388671875,0.06224924325942993
1482155509656,-1.479616641998291,-9.563039779663086,0.10773907601833344
1482155509839,-1.764526605606079,-9.510966300964355,0.08200141042470932
1482155510012,-1.647210717201233,-9.498994827270508,0.12449848651885986
1482155510196,-1.5849615335464478,-9.528923034667969,0.07122749835252762
1482155510377,-1.6543933153152466,-9.5223388671875,0.06344634294509888
1482155510552,-1.7028759717941284,-9.518148422241211,0.08319851011037827
1482155510739,-1.6962919235229492,-9.57201862335205,0.04429273307323456
1482155510917,-1.5933412313461304,-9.573814392089844,0.12629413604736328
1482155511093,-1.8285715579986572,-9.509769439697266,0.13826514780521393
1482155511277,-1.6903064250946045,-9.546280860900879,0.13826514780521393
1482155511457,-1.8010382652282715,-9.509769439697266,0.07960720360279083
1482155511636,-1.4754267930984497,-9.576807022094727,0.12330138683319092
1482155511818,-1.8040310144424438,-9.498994827270508,0.15682020783424377
1482155511997,-1.6561890840530396,-9.552865028381348,0.06823474913835526
1482155512177,-1.7513585090637207,-9.519346237182617,0.17417816817760468
1482155512358,-1.6992846727371216,-9.546878814697266,0.10833762586116791
1482155512534,-1.558625340461731,-9.52114200592041,0.10235211998224258
1482155512719,-1.8704700469970703,-9.5007905960083,0.1388636976480484
1482155512896,-1.7513585090637207,-9.47146224975586,0.16879121959209442
1482155513074,-1.5783774852752686,-9.57979965209961,0.1173158809542656
1482155513256,-1.7860745191574097,-9.50617790222168,0.17298106849193573
1482155513439,-1.5550340414047241,-9.606135368347168,0.04429273307323456
1482155513615,-2.0632033348083496,-9.44752025604248,0.07661445438861847
1482155513800,-1.5640122890472412,-9.529520988464355,0.18315643072128296
1482155513980,-1.8177976608276367,-9.510966300964355,0.12330138683319092
1482155514160,-1.8166005611419678,-9.437344551086426,0.24121582508087158
1482155514340,-1.5771803855895996,-9.551069259643555,0.2801215946674347
1482155514519,-1.8938134908676147,-9.517550468444824,0.13108254969120026
1482155514701,-1.589151382446289,-9.549872398376465,0.2454056739807129
1482155514881,-1.7387889623641968,-9.449316024780273,0.2621650993824005
1482155515059,-1.6041151285171509,-9.535507202148438,0.27054479718208313
1482155515241,-1.8854337930679321,-9.472060203552246,0.1999158412218094
1482155515420,-1.6645687818527222,-9.512163162231445,0.11911153793334961
1482155515597,-1.400607943534851,-9.57441234588623,0.10654197633266449
1482155515782,-1.9686323404312134,-9.47146224975586,0.32680854201316833
1482155515960,-1.4538789987564087,-9.554061889648438,0.06404489278793335
1482155516137,-1.6286556720733643,-9.561244010925293,-0.07242459803819656
1482155516322,-1.668160080909729,-9.527127265930176,0.010773907415568829
1482155516502,-1.581370234489441,-9.525331497192383,-0.0802057534456253
1482155516681,-1.6406266689300537,-9.535507202148438,-0.12928688526153564
1482155516861,-1.7393875122070313,-9.540295600891113,0.0065840547904372215
1482155517039,-1.5322890281677246,-9.57979965209961,-0.0867898091673851
1482155517222,-1.592742681503296,-9.500192642211914,0.04908113554120064
1482155517402,-1.988384485244751,-9.45111083984375,0.02753331884741783
1482155517579,-1.326986312866211,-9.595361709594727,-5.985504249110818E-4
1482155517764,-1.7363947629928589,-9.536105155944824,-0.013766659423708916
1482155517943,-1.3970166444778442,-9.607931137084961,0.0011971008498221636
1482155518119,-1.9159599542617798,-9.506776809692383,-0.02513911761343479
1482155518303,-1.5532383918762207,-9.519346237182617,0.0011971008498221636
1482155518485,-1.6508020162582397,-9.515754699707031,0.12928688526153564
1482155518659,-1.7489643096923828,-9.533711433410645,0.06703764945268631
1482155518845,-1.6172832250595093,-9.53849983215332,0.09157821536064148
1482155519023,-1.5179238319396973,-9.498994827270508,0.053270988166332245
1482155519205,-1.6651673316955566,-9.559449195861816,0.11252748221158981
1482155519385,-1.646013617515564,-9.54209041595459,0.11013327538967133
1482155519563,-1.7513585090637207,-9.503185272216797,0.15023615956306458
1482155519745,-1.6178817749023438,-9.546878814697266,0.07900865375995636
1482155519925,-1.8309657573699951,-9.518747329711914,0.1604115068912506
1482155520100,-1.635838270187378,-9.514557838439941,0.11432313174009323
1482155520280,-1.8584990501403809,-9.512163162231445,0.1041477769613266
1482155520460,-1.5711948871612549,-9.533711433410645,0.09217676520347595
1482155520641,-1.6065093278884888,-9.509769439697266,0.08978256583213806
1482155520826,-1.646013617515564,-9.548674583435059,-0.04429273307323456
1482155521006,-1.4850035905838013,-9.579200744628906,-0.08140286058187485
1482155521185,-1.7633295059204102,-9.525930404663086,-0.05925649031996727
1482155521367,-1.71245276927948,-9.495404243469238,-0.0071826050989329815
1482155521547,-1.6041151285171509,-9.564835548400879,-0.05506663769483566
1482155521727,-1.6980875730514526,-9.527725219726563,-0.12030863761901855
1482155521905,-1.569997787475586,-9.563039779663086,0.0065840547904372215
1482155522087,-1.7854759693145752,-9.518148422241211,-0.0975637212395668
1482155522267,-1.6400281190872192,-9.521739959716797,-0.06165069341659546
1482155522448,-1.6370353698730469,-9.55705451965332,-0.02992752194404602
1482155522623,-1.775899052619934,-9.552266120910645,-0.08379705995321274
1482155522808,-1.6059107780456543,-9.556455612182617,-0.15322890877723694
1482155522988,-1.5400702953338623,-9.565434455871582,-0.04249707981944084
1482155523164,-1.5981296300888062,-9.516353607177734,-0.023343466222286224
1482155523348,-1.8543092012405396,-9.437943458557129,-0.1496376097202301
1482155523529,-1.7274165153503418,-9.555258750915527,0.03531447425484657
1482155523709,-1.5029600858688354,-9.55585765838623,-0.05386953800916672
1482155523889,-1.7705121040344238,-9.510966300964355,-0.05446808785200119
1482155524068,-1.755548357963562,-9.518747329711914,-0.020949264988303185
1482155524249,-1.5544354915618896,-9.497797966003418,-0.08439560979604721
1482155524430,-1.7040730714797974,-9.52114200592041,-0.04249707981944084
1482155524613,-1.6837223768234253,-9.545083999633789,-0.031124621629714966
1482155524790,-1.8088194131851196,-9.518148422241211,-0.0586579404771328
1482155524981,-1.5502456426620483,-9.53849983215332,-0.050876785069704056
1482155525145,-1.6831238269805908,-9.55825138092041,-0.0454898327589035
1482155525329,-1.7381904125213623,-9.475651741027832,-0.1346738487482071
1482155525510,-1.766920804977417,-9.55825138092041,0.004189853090792894
1482155525686,-1.832162857055664,-9.501389503479004,-0.17836803197860718
1482155525870,-1.6095020771026611,-9.519346237182617,-0.08439560979604721
1482155526051,-1.7938556671142578,-9.488221168518066,-0.04189852997660637
1482155526230,-1.7417817115783691,-9.57321548461914,-0.0736217051744461
1482155526410,-1.8171991109848022,-9.446322441101074,-0.05626374110579491
1482155526591,-1.7717092037200928,-9.573814392089844,-0.13347674906253815
1482155526772,-1.5430630445480347,-9.30925464630127,0.11851298063993454
1482155526950,-1.8644845485687256,-9.470863342285156,0.22266076505184174
1482155527129,-1.6160861253738403,-9.532513618469238,-0.055665191262960434
1482155527312,-1.8375498056411743,-9.476250648498535,0.048482585698366165
1482155527492,-1.731606364250183,-9.567828178405762,-0.04249707981944084
1482155527668,-1.8148049116134644,-9.530119895935059,-0.09636662155389786
1482155527851,-1.8584990501403809,-9.493608474731445,-0.008978256024420261
1482155528033,-1.6609774827957153,-9.529520988464355,0.01496376097202301
1482155528208,-1.5340847969055176,-9.531316757202148,-0.09457096457481384
1482155528391,-1.811812162399292,-9.501988410949707,0.29867666959762573
1482155528574,-1.5436615943908691,-9.511565208435059,0.026336219161748886
1482155528751,-1.7615338563919067,-9.492411613464355,0.11432313174009323
1482155528934,-1.7507599592208862,-9.52353572845459,0.1322796493768692
1482155529113,-1.591545581817627,-9.543886184692383,0.1346738487482071
1482155529291,-1.5029600858688354,-9.585784912109375,0.08140286058187485
1482155529475,-1.7824832201004028,-9.476848602294922,0.13048399984836578
1482155529650,-1.600523829460144,-9.52473258972168,0.12449848651885986
1482155529835,-1.6382324695587158,-9.512163162231445,0.10953472554683685
1482155530015,-1.546055793762207,-9.544485092163086,0.09636662155389786
1482155530190,-1.63344407081604,-9.525331497192383,0.1280897855758667
1482155530375,-1.7405846118927002,-9.52473258972168,0.10654197633266449
1482155530555,-1.5604209899902344,-9.536105155944824,0.13168109953403473
1482155530750,-1.655590534210205,-9.5223388671875,0.15083470940589905
1482155530915,-1.6262614727020264,-9.526528358459473,0.10354922711849213
1482155531096,-1.7507599592208862,-9.50737476348877,0.14484919607639313
1482155531271,-1.6663644313812256,-9.578003883361816,0.12928688526153564
1482155531456,-1.5729905366897583,-9.551667213439941,0.10354922711849213
1482155531635,-1.7040730714797974,-9.509769439697266,0.14784196019172668
1482155531816,-1.600523829460144,-9.518148422241211,0.16340427100658417
1482155531992,-1.577778935432434,-9.521739959716797,0.11611878126859665
1482155532173,-1.6944962739944458,-9.514557838439941,0.20889410376548767
1482155532356,-1.6388310194015503,-9.546878814697266,0.08080431073904037
1482155532537,-1.6789339780807495,-9.489418029785156,0.21787235140800476
1482155532712,-1.6956933736801147,-9.536105155944824,0.17657238245010376
1482155532897,-1.657984733581543,-9.515155792236328,0.1412578970193863
1482155533077,-1.590348482131958,-9.549872398376465,-0.004189853090792894
1482155533253,-1.7723077535629272,-9.518148422241211,0.13587094843387604
1482155533434,-1.6723499298095703,-9.536105155944824,0.12210428714752197
1482155533618,-1.6316484212875366,-9.50737476348877,0.21966800093650818
1482155533798,-1.6711528301239014,-9.521739959716797,0.1933317929506302
1482155534008,-1.6196774244308472,-9.532513618469238,0.10714052617549896
1482155534158,-1.632246971130371,-9.551667213439941,0.026336219161748886
1482155534334,-1.6502034664154053,-9.530718803405762,0.01735796220600605
1482155534518,-1.6974890232086182,-9.52114200592041,0.028131870552897453
1482155534695,-1.6759412288665771,-9.527127265930176,-0.06464344263076782
1482155534879,-1.670554280281067,-9.533711433410645,0.013766659423708916
1482155535059,-1.7160440683364868,-9.52473258972168,-0.010773907415568829
1482155535235,-1.7387889623641968,-9.496002197265625,0.0347159244120121
1482155535420,-1.7663222551345825,-9.498396873474121,0.04728548228740692
1482155535600,-1.6274585723876953,-9.581595420837402,0.0065840547904372215
1482155535776,-1.954267144203186,-9.473258018493652,0.055665191262960434
1482155535960,-1.768117904663086,-9.503783226013184,0.07841010391712189
1482155536140,-1.590348482131958,-9.527127265930176,-0.0802057534456253
1482155536321,-1.722628116607666,-9.524134635925293,0.041299980133771896
1482155536501,-1.7830817699432373,-9.461885452270508,0.15981295704841614
1482155536678,-1.4389152526855469,-9.623494148254395,-0.04189852997660637
1482155536859,-1.8453309535980225,-9.48343276977539,-0.10654197633266449
1482155537041,-1.789067268371582,-9.488221168518066,0.21547815203666687
1482155537217,-1.490989089012146,-9.59596061706543,0.17417816817760468
1482155537400,-1.426345705986023,-9.55466079711914,-0.12389993667602539
1482155537579,-1.778891921043396,-9.53969669342041,0.1628057211637497
1482155537757,-1.956661343574524,-9.39245319366455,0.18136078119277954
1482155537942,-1.7609353065490723,-9.402628898620605,0.018555063754320145
1482155538122,-1.423951506614685,-9.684545516967773,0.047884032130241394
1482155538299,-1.6962919235229492,-9.455301284790039,0.23283611238002777
1482155538482,-1.6298527717590332,-9.48882007598877,0.13946224749088287
1482155538663,-1.5322890281677246,-9.660005569458008,0.1107318252325058
1482155538841,-1.7256208658218384,-9.498994827270508,0.11671733111143112
1482155539020,-1.63344407081604,-9.570222854614258,0.0694318488240242
1482155539202,-1.5999252796173096,-9.599552154541016,0.09576806426048279
1482155539383,-1.7142484188079834,-9.498994827270508,0.15442600846290588
1482155539564,-1.6813281774520874,-9.445724487304688,0.20709845423698425
1482155539739,-1.591545581817627,-9.533112525939941,0.1586158573627472
1482155539922,-1.4652514457702637,-9.57441234588623,0.08619125932455063
1482155540105,-1.7782933712005615,-9.521739959716797,0.28550854325294495
1482155540282,-1.6980875730514526,-9.4636812210083,0.08858546614646912
1482155540464,-1.5921441316604614,-9.547477722167969,0.06823474913835526
1482155540645,-1.68970787525177,-9.564835548400879,0.1867477297782898
1482155540834,-1.578976035118103,-9.491812705993652,0.02214636653661728
1482155541006,-1.6603789329528809,-9.512762069702148,0.018555063754320145
1482155541185,-1.725022315979004,-9.5624418258667,0.0454898327589035
1482155541365,-1.5682021379470825,-9.518148422241211,-0.053270988166332245
1482155541545,-1.6502034664154053,-9.48343276977539,0.0520738884806633
1482155541722,-1.79146146774292,-9.576807022094727,0.0867898091673851
1482155541906,-1.632246971130371,-9.583989143371582,-0.03651157766580582
1482155542086,-1.600523829460144,-9.521739959716797,0.10295066982507706
1482155542261,-1.723825216293335,-9.496601104736328,0.076015904545784
1482155542445,-1.5807716846466064,-9.54209041595459,0.015562310814857483
1482155542626,-1.688510775566101,-9.560646057128906,0.1496376097202301
1482155542802,-1.7142484188079834,-9.445125579833984,0.11432313174009323
1482155542987,-1.5568296909332275,-9.537302017211914,0.04908113554120064
1482155543167,-1.6837223768234253,-9.583989143371582,0.17657238245010376
1482155543344,-1.6089035272598267,-9.491812705993652,0.1280897855758667
1482155543527,-1.5424644947052002,-9.598953247070313,-0.020350715145468712
1482155543707,-1.7142484188079834,-9.533711433410645,0.05746084079146385
1482155543887,-1.5771803855895996,-9.573814392089844,0.08080431073904037
1482155544065,-1.6687586307525635,-9.549273490905762,0.07003039866685867
1482155544245,-1.4676456451416016,-9.568427085876465,0.048482585698366165
1482155544427,-1.7675193548202515,-9.554061889648438,0.05925649031996727
1482155544608,-1.7070658206939697,-9.522936820983887,0.09397241473197937
1482155544784,-1.6813281774520874,-9.563039779663086,0.15801730751991272
1482155544968,-1.7591396570205688,-9.521739959716797,0.21966800093650818
1482155545149,-1.578976035118103,-9.460089683532715,0.10594342648983002
1482155545325,-1.834557056427002,-9.460687637329102,0.25677812099456787
1482155545509,-1.4742296934127808,-9.563638687133789,0.1604115068912506
1482155545689,-1.7399860620498657,-9.510966300964355,-0.05506663769483566
1482155545869,-1.590348482131958,-9.563638687133789,0.12689268589019775
1482155546049,-1.8171991109848022,-9.527127265930176,0.02753331884741783
1482155546228,-1.5909470319747925,-9.52473258972168,0.06584054976701736
1482155546427,-1.7094600200653076,-9.570222854614258,-0.05686229094862938
1482155546590,-1.8124107122421265,-9.486425399780273,-0.05686229094862938
1482155546766,-1.8154034614562988,-9.501988410949707,0.08319851011037827
1482155546950,-1.5478514432907104,-9.544485092163086,-0.08379705995321274
1482155547130,-1.6124948263168335,-9.531915664672852,-0.02214636653661728
1482155547306,-1.933916449546814,-9.52114200592041,-0.13527239859104156
1482155547491,-1.7208324670791626,-9.524134635925293,-0.10354922711849213
1482155547671,-1.7495628595352173,-9.502586364746094,0.08439560979604721
1482155547846,-1.6531962156295776,-9.531316757202148,-0.06344634294509888
1482155548029,-1.8088194131851196,-9.479243278503418,-0.030526071786880493
1482155548211,-1.7747019529342651,-9.546280860900879,-0.10594342648983002
1482155548391,-1.8441338539123535,-9.50617790222168,-0.06464344263076782
1482155548572,-1.2677297592163086,-9.639056205749512,0.11791443079710007
1482155548751,-2.0189106464385986,-9.448118209838867,-0.023343466222286224
1482155548932,-1.4179660081863403,-9.575011253356934,0.1628057211637497
1482155549111,-2.0931308269500732,-9.509769439697266,0.18136078119277954
1482155549290,-1.4323312044143677,-9.57441234588623,0.18495208024978638
1482155549468,-1.7375918626785278,-9.485228538513184,-0.15023615956306458
1482155549652,-2.126051187515259,-9.452906608581543,0.21128830313682556
1482155549828,-1.4532804489135742,-9.564237594604492,0.16160862147808075
1482155550013,-1.8441338539123535,-9.486425399780273,0.11791443079710007
1482155550194,-2.208052635192871,-9.43135929107666,0.1628057211637497
1482155550369,-1.1869255304336548,-9.688735961914063,0.11133038252592087
1482155550554,-2.124255418777466,-9.365518569946289,0.11013327538967133
1482155550734,-1.1659762859344482,-9.704896926879883,0.13287819921970367
1482155550913,-1.902193307876587,-9.487024307250977,0.07182604819536209
1482155551092,-1.8399440050125122,-9.422380447387695,0.1388636976480484
1482155551274,-1.6041151285171509,-9.648633003234863,0.15263035893440247
1482155551454,-1.6089035272598267,-9.528923034667969,0.0017956512747332454
1482155551634,-1.875258445739746,-9.383475303649902,0.12210428714752197
1482155551810,-1.5741876363754272,-9.61331844329834,0.08738835901021957
1482155551995,-1.71245276927948,-9.522936820983887,0.08619125932455063
1482155552175,-1.896806240081787,-9.441534042358398,0.0867898091673851
1482155552351,-1.6095020771026611,-9.5223388671875,-0.06883329898118973
1482155552533,-1.501164436340332,-9.670180320739746,0.04189852997660637
1482155552715,-1.9602526426315308,-9.369110107421875,0.0802057534456253
1482155552891,-1.4790180921554565,-9.551069259643555,0.011372458189725876
1482155553076,-1.4832079410552979,-9.66419506072998,0.02214636653661728
1482155553256,-2.0416555404663086,-9.28650951385498,0.12509703636169434
1482155553435,-1.6148890256881714,-9.641449928283691,0.016759412363171577
1482155553615,-1.5825673341751099,-9.566631317138672,-0.07541735470294952
1482155553795,-1.8471266031265259,-9.495404243469238,0.01496376097202301
1482155553975,-1.5861586332321167,-9.501988410949707,0.010773907415568829
1482155554156,-1.5173252820968628,-9.550470352172852,0.10534487664699554
1482155554333,-1.96683669090271,-9.507973670959473,0.07781155407428741
1482155554517,-1.105522632598877,-9.650428771972656,0.14903905987739563
1482155554697,-1.997362732887268,-9.52353572845459,0.14484919607639313
1482155554873,-1.1701661348342896,-9.533112525939941,0.13766659796237946
1482155555056,-1.698686122894287,-9.497200012207031,-0.050876785069704056
1482155555236,-1.4879963397979736,-9.57441234588623,0.13108254969120026
1482155555413,-1.279700756072998,-9.449316024780273,0.07781155407428741
1482155555598,-1.9488801956176758,-9.461885452270508,0.20769700407981873
1482155555778,-1.1378443241119385,-9.655815124511719,0.09816227108240128
1482155555958,-1.66696298122406,-9.423578262329102,-0.02513911761343479
1482155556139,-1.3317747116088867,-9.624691009521484,0.041299980133771896
1482155556317,-1.669357180595398,-9.575610160827637,0.07541735470294952
1482155556498,-1.7046716213226318,-9.43255615234375,0.07422025501728058
1482155556679,-1.4628572463989258,-9.55825138092041,0.12090718746185303
1482155556855,-1.5490485429763794,-9.591172218322754,0.08499415963888168
1482155557039,-1.547252893447876,-9.57860279083252,0.05626374110579491
1482155557220,-1.4933832883834839,-9.553462982177734,-0.038307227194309235
1482155557395,-1.7094600200653076,-9.452906608581543,0.11552023142576218
1482155557580,-1.502361536026001,-9.57979965209961,0.13946224749088287
1482155557760,-1.6160861253738403,-9.534908294677734,0.07481880486011505
1482155557936,-1.4502876996994019,-9.59835433959961,0.05985504388809204
1482155558118,-1.4981716871261597,-9.485827445983887,0.0454898327589035
1482155558301,-1.780089020729065,-9.494206428527832,0.1472434103488922
1482155558481,-1.6053122282028198,-9.740809440612793,0.17836803197860718
1482155558660,-1.5783774852752686,-9.459490776062012,0.20231004059314728
1482155558837,-1.370081901550293,-9.5809965133667,0.05686229094862938
1482155559022,-1.7579425573349,-9.490615844726563,0.10654197633266449
1482155559201,-1.9907786846160889,-9.468469619750977,-0.05925649031996727
1482155559378,-1.577778935432434,-9.468469619750977,0.3010708689689636
1482155559562,-1.5382746458053589,-9.513958930969238,0.24839842319488525
1482155559742,-1.6304513216018677,-9.52473258972168,0.061052143573760986
1482155559918,-1.710058569908142,-9.551069259643555,0.4345476031303406
1482155560102,-1.237802267074585,-9.605537414550781,-0.1975216418504715
1482155560282,-2.0877439975738525,-9.619303703308105,-0.021547814831137657
1482155560460,-1.61069917678833,-9.682151794433594,0.2902969419956207
1482155560641,-1.478419542312622,-9.548674583435059,-0.0520738884806633
1482155560823,-1.9015947580337524,-9.467870712280273,-0.08619125932455063
1482155561004,-0.7463923692703247,-9.730634689331055,-0.15263035893440247
1482155561184,-2.655169725418091,-9.28531265258789,-0.04369417950510979
1482155561367,-0.5632359385490417,-9.831789016723633,-0.10893617570400238
1482155561542,-2.653373956680298,-9.277531623840332,0.1173158809542656
1482155561719,-1.5771803855895996,-9.492411613464355,0.2406172752380371
1482155561899,-1.5161281824111938,-9.596558570861816,0.1735796183347702
1482155562085,-2.2385785579681396,-9.348160743713379,0.3076549172401428
1482155562265,-1.192312479019165,-9.606135368347168,0.778714120388031
1482155562440,-1.9345149993896484,-9.396044731140137,0.4950011968612671
1482155562625,-1.4484920501708984,-9.244611740112305,0.5081692934036255
1482155562803,-1.0684125423431396,-9.777320861816406,0.28969839215278625
1482155562984,-2.3780407905578613,-9.374496459960938,0.28550854325294495
1482155563164,-1.3479355573654175,-9.439739227294922,0.36990416049957275
1482155563345,-1.437718152999878,-9.560047149658203,0.28371289372444153
1482155563528,-1.8213889598846436,-9.68574333190918,0.10833762586116791
1482155563706,-1.1001356840133667,-9.529520988464355,0.18076223134994507
1482155563884,-1.334767460823059,-9.563039779663086,0.3866635859012604
1482155564064,-1.5867571830749512,-9.557653427124023,0.3944447338581085
1482155564245,-1.4586673974990845,-9.542689323425293,0.076015904545784
1482155564422,-1.468244194984436,-9.546878814697266,-0.12928688526153564
1482155564606,-1.2767080068588257,-9.636661529541016,-0.22026655077934265
1482155564786,-1.659181833267212,-9.485228538513184,-0.19812019169330597
1482155564962,-1.0456676483154297,-9.62828254699707,0.005386953707784414
1482155565146,-1.8064252138137817,-9.486425399780273,-0.04668693244457245
1482155565327,-1.4963760375976563,-9.55705451965332,0.20949265360832214
1482155565506,-1.4802151918411255,-9.524134635925293,0.14484919607639313
1482155565687,-1.2994530200958252,-9.569025993347168,0.17058686912059784
1482155565868,-2.094327926635742,-9.452308654785156,0.3076549172401428
1482155566046,-1.5083470344543457,-9.492411613464355,0.31184476613998413
1482155566228,-1.6657658815383911,-9.302072525024414,0.09696517139673233
1482155566406,-2.030881643295288,-9.48882007598877,0.2388216257095337
1482155566588,-0.8158242106437683,-9.679159164428711,0.06643909960985184
1482155566768,-2.2242133617401123,-9.425971984863281,0.15801730751991272
1482155566945,-1.3126211166381836,-9.626486778259277,0.1604115068912506
1482155567126,-1.5263035297393799,-9.559449195861816,0.038307227194309235
1482155567308,-1.9877859354019165,-9.43135929107666,0.24181437492370605
1482155567485,-1.4676456451416016,-9.57201862335205,0.06165069341659546
1482155567669,-1.5119383335113525,-9.532513618469238,-0.1538274586200714
1482155567848,-1.6855180263519287,-9.50857162475586,0.1412578970193863
1482155568030,-1.5634137392044067,-9.557653427124023,0.14425064623355865
1482155568210,-2.012925148010254,-9.484031677246094,0.1149216815829277
1482155568390,-1.3796586990356445,-9.570821762084961,0.004189853090792894
1482155568570,-1.5275006294250488,-9.539097785949707,0.3190273642539978
1482155568750,-1.6855180263519287,-9.53969669342041,0.3256114423274994
1482155568930,-1.4700398445129395,-9.552266120910645,0.18794482946395874
1482155569108,-1.4532804489135742,-9.569623947143555,0.10235211998224258
1482155569291,-1.4323312044143677,-9.50857162475586,0.1256955862045288
1482155569466,-1.9375077486038208,-9.488221168518066,0.05925649031996727
1482155569651,-1.479616641998291,-9.583989143371582,-0.033518824726343155
1482155569831,-1.6406266689300537,-9.585186958312988,0.026336219161748886
1482155570007,-1.3305776119232178,-9.600150108337402,0.09935937076807022
1482155570189,-1.7387889623641968,-9.560047149658203,-0.08439560979604721
1482155570372,-1.4431051015853882,-9.582193374633789,0.0520738884806633
1482155570552,-1.315613865852356,-9.637859344482422,-0.07841010391712189
1482155570732,-1.6819267272949219,-9.32421875,0.08379705995321274
1482155570948,-1.5981296300888062,-9.571419715881348,0.3100491166114807
1482155571093,-1.5939397811889648,-9.517550468444824,0.004189853090792894
1482155571273,-1.8124107122421265,-9.468469619750977,-0.19632454216480255
1482155571453,-1.5077484846115112,-9.62947940826416,0.08080431073904037
1482155571630,-1.5987281799316406,-9.442132949829102,0.02992752194404602
1482155571813,-2.0027496814727783,-9.442731857299805,0.16639702022075653
1482155571991,-1.4000093936920166,-9.566033363342285,0.02693476900458336
1482155572175,-1.623268723487854,-9.440337181091309,-0.08798690885305405
1482155572354,-1.5981296300888062,-9.641449928283691,0.24480712413787842
1482155572529,-1.702277421951294,-9.5223388671875,-0.005985504016280174
1482155572713,-1.5047557353973389,-9.542689323425293,0.15562310814857483
1482155572895,-1.5292962789535522,-9.575610160827637,0.09576806426048279
1482155573070,-1.810615062713623,-9.48882007598877,0.17178396880626678
1482155573255,-1.5418659448623657,-9.511565208435059,0.2663549482822418
1482155573435,-1.3198037147521973,-9.606135368347168,0.0628477931022644
1482155573615,-1.9249382019042969,-9.465476036071777,0.15263035893440247
1482155573791,-1.5466543436050415,-9.55466079711914,0.2759317457675934
1482155573975,-1.3437457084655762,-9.534309387207031,0.23523031175136566
1482155574155,-1.7585411071777344,-9.478644371032715,0.2759317457675934
1482155574364,-1.5406688451766968,-9.525930404663086,0.3100491166114807
1482155574511,-1.61069917678833,-9.488221168518066,0.2825157940387726
1482155574696,-1.4903905391693115,-9.546878814697266,0.1472434103488922
1482155574876,-1.768117904663086,-9.486425399780273,0.228047713637352
1482155575051,-1.3778630495071411,-9.618106842041016,0.26994624733924866
1482155575235,-1.61069917678833,-9.550470352172852,0.18375498056411743
1482155575415,-1.7585411071777344,-9.481039047241211,0.18495208024978638
1482155575592,-1.4634557962417603,-9.510367393493652,0.13048399984836578
1482155575777,-1.5969325304031372,-9.593565940856934,0.152031809091568
1482155575957,-1.8285715579986572,-9.474454879760742,0.19632454216480255
1482155576135,-0.9475052952766418,-9.549273490905762,0.14484919607639313
1482155576317,-1.7842788696289063,-9.566033363342285,0.10115502029657364
1482155576496,-1.9165585041046143,-9.410409927368164,0.284311443567276
1482155576678,-1.5610195398330688,-9.534908294677734,-0.055665191262960434
1482155576853,-1.3664906024932861,-9.703699111938477,0.11133038252592087
1482155577033,-1.9919757843017578,-9.458293914794922,0.07960720360279083
1482155577217,-1.2282254695892334,-9.627683639526367,0.09935937076807022
1482155577398,-1.7651251554489136,-9.534309387207031,0.03711012750864029
1482155577574,-1.544858694076538,-9.466673851013184,0.15023615956306458
1482155577759,-1.5532383918762207,-9.616311073303223,0.10534487664699554
1482155577939,-1.890222191810608,-9.525331497192383,0.04489128291606903
1482155578114,-1.2988544702529907,-9.596558570861816,0.20889410376548767
1482155578299,-1.9907786846160889,-9.422979354858398,0.15143325924873352
1482155578479,-1.467047095298767,-9.565434455871582,0.14604631066322327
1482155578659,-1.8387469053268433,-9.492411613464355,0.15263035893440247
1482155578840,-1.4119805097579956,-9.567230224609375,0.01975216343998909
1482155579018,-2.0632033348083496,-9.454702377319336,0.014365210197865963
1482155579200,-1.358709454536438,-9.600150108337402,0.10714052617549896
1482155579380,-1.7938556671142578,-9.546878814697266,0.07003039866685867
1482155579556,-1.7723077535629272,-9.440936088562012,0.1412578970193863
1482155579740,-1.6549919843673706,-9.570821762084961,0.1693897694349289
1482155579919,-1.7076643705368042,-9.5223388671875,0.08738835901021957
1482155580096,-1.9500772953033447,-9.470264434814453,0.07541735470294952
1482155580279,-1.5897499322891235,-9.530119895935059,0.2364274114370346
1482155580461,-1.678335428237915,-9.543886184692383,0.2579752206802368
1482155580637,-1.6956933736801147,-9.527725219726563,0.2753331959247589
1482155580819,-1.6352397203445435,-9.478644371032715,0.24001872539520264
1482155581002,-1.8513164520263672,-9.515754699707031,0.16879121959209442
1482155581181,-1.623268723487854,-9.494805335998535,0.14185644686222076
1482155581362,-1.613093376159668,-9.509170532226563,0.24660277366638184
1482155581542,-1.2653355598449707,-9.633070945739746,0.16579847037792206
1482155581722,-1.9003976583480835,-9.424176216125488,0.13766659796237946
1482155581902,-1.622071623802185,-9.59715747833252,-0.05027823522686958
1482155582080,-1.40180504322052,-9.580398559570313,-0.24899697303771973
1482155582260,-1.9476830959320068,-9.427168846130371,-0.076015904545784
1482155582443,-1.6765397787094116,-9.552865028381348,-0.03711012750864029
1482155582622,-1.3874398469924927,-9.658209800720215,-0.26096799969673157
1482155582804,-1.931522250175476,-9.41100788116455,-0.02513911761343479
1482155582981,-1.7184382677078247,-9.531316757202148,0.09397241473197937
1482155583159,-1.3186066150665283,-9.593565940856934,-0.035913024097681046
1482155583343,-1.9405004978179932,-9.441534042358398,-0.07900865375995636
1482155583525,-1.7866730690002441,-9.482834815979004,0.1280897855758667
1482155583703,-1.1953052282333374,-9.5809965133667,-0.02454056777060032
1482155583885,-1.8177976608276367,-9.525331497192383,-0.04369417950510979
1482155584064,-1.7974469661712646,-9.52353572845459,0.05147533491253853
1482155584244,-1.347337007522583,-9.571419715881348,0.1173158809542656
1482155584457,-1.7561469078063965,-9.534309387207031,0.0347159244120121
1482155584603,-1.9333178997039795,-9.372700691223145,0.19871874153614044
1482155584784,-1.1629834175109863,-9.641449928283691,0.18974047899246216
1482155584965,-1.8525135517120361,-9.472060203552246,0.05925649031996727
1482155585140,-1.778891921043396,-9.486425399780273,0.14065934717655182
1482155585325,-1.217451572418213,-9.588179588317871,0.12749123573303223
1482155585506,-1.7363947629928589,-9.528324127197266,0.090979665517807
1482155585681,-1.6041151285171509,-9.531316757202148,0.16998831927776337
1482155585866,-1.403002142906189,-9.59177017211914,0.19153612852096558
1482155586046,-1.670554280281067,-9.496002197265625,-0.016759412363171577
1482155586226,-1.5604209899902344,-9.565434455871582,0.1933317929506302
1482155586407,-1.7483657598495483,-9.502586364746094,0.10474632680416107
1482155586586,-1.4508862495422363,-9.568427085876465,0.1107318252325058
1482155586767,-1.4425065517425537,-9.584588050842285,0.1412578970193863
1482155586947,-1.9045875072479248,-9.481637001037598,0.1496376097202301
1482155587123,-1.2934675216674805,-9.62828254699707,0.1472434103488922
1482155587305,-1.66696298122406,-9.4822359085083,0.07422025501728058
1482155587487,-1.5412673950195313,-9.591172218322754,0.18614917993545532
1482155587663,-1.5496470928192139,-9.575610160827637,0.11133038252592087
1482155587847,-1.699883222579956,-9.52353572845459,0.10115502029657364
1482155588028,-1.521515130996704,-9.560047149658203,0.0293289702385664
1482155588204,-1.653794765472412,-9.485228538513184,0.04967968538403511
1482155588388,-1.5741876363754272,-9.53849983215332,0.13108254969120026
1482155588569,-1.6065093278884888,-9.531915664672852,0.04668693244457245
1482155588749,-1.5430630445480347,-9.552266120910645,0.22625206410884857
1482155588929,-1.599326729774475,-9.526528358459473,0.030526071786880493
1482155589107,-1.492186188697815,-9.548076629638672,0.20111294090747833
1482155589287,-1.679532527923584,-9.405621528625488,0.10833762586116791
1482155589469,-1.5275006294250488,-9.592369079589844,0.1388636976480484
1482155589647,-1.5568296909332275,-9.531915664672852,0.035913024097681046
1482155589830,-1.7477672100067139,-9.535507202148438,0.10773907601833344
1482155590010,-1.5568296909332275,-9.585784912109375,0.06763619929552078
1482155590185,-1.6418237686157227,-9.55825138092041,0.0628477931022644
1482155590370,-1.68970787525177,-9.557653427124023,0.1843535304069519
1482155590550,-1.5221136808395386,-9.5624418258667,0.23403321206569672
1482155590726,-1.7663222551345825,-9.524134635925293,0.18914192914962769
1482155590911,-1.3754688501358032,-9.536704063415527,0.31543606519699097
1482155591091,-1.7286136150360107,-9.479243278503418,0.30226796865463257
1482155591271,-1.602918028831482,-9.543886184692383,0.2561795711517334
1482155591451,-1.4389152526855469,-9.535507202148438,0.3076549172401428
1482155591627,-1.5867571830749512,-9.513360023498535,0.24480712413787842
1482155591812,-1.6741455793380737,-9.516353607177734,0.2950853705406189
1482155591992,-1.4987702369689941,-9.569623947143555,0.28969839215278625
1482155592167,-1.5322890281677246,-9.59177017211914,0.1346738487482071
1482155592352,-1.7507599592208862,-9.464279174804688,0.1646013706922531
1482155592532,-1.5298948287963867,-9.600150108337402,0.1867477297782898
1482155592708,-1.5771803855895996,-9.494805335998535,0.19572599232196808
1482155592892,-1.4856021404266357,-9.639654159545898,0.16400282084941864
1482155593073,-1.6274585723876953,-9.569025993347168,0.18076223134994507
1482155593248,-1.4742296934127808,-9.59057331085205,0.2256535142660141
1482155593433,-1.669357180595398,-9.525331497192383,0.19632454216480255
1482155593613,-1.4053963422775269,-9.630077362060547,0.17836803197860718
1482155593792,-1.5376760959625244,-9.536105155944824,0.14365209639072418
1482155593974,-1.5646108388900757,-9.551069259643555,0.1628057211637497
1482155594152,-1.4844050407409668,-9.581595420837402,0.16340427100658417
1482155594332,-1.5310919284820557,-9.564237594604492,0.10893617570400238
1482155594510,-1.6519991159439087,-9.548674583435059,0.14365209639072418
1482155594690,-1.5167267322540283,-9.585186958312988,0.2621650993824005
1482155594875,-1.6543933153152466,-9.498994827270508,-0.03890577703714371
1482155595055,-1.4700398445129395,-9.718663215637207,0.29209262132644653
1482155595230,-1.9117701053619385,-9.45410442352295,0.1322796493768692
1482155595413,-1.237802267074585,-9.564237594604492,0.23822307586669922
1482155595595,-1.6980875730514526,-9.497797966003418,0.15083470940589905
1482155595771,-1.6484078168869019,-9.491812705993652,0.24839842319488525
1482155595955,-1.3066356182098389,-9.636661529541016,0.1388636976480484
1482155596135,-1.899200439453125,-9.484031677246094,0.228047713637352
1482155596315,-1.4676456451416016,-9.561244010925293,0.2082955539226532
1482155596496,-1.6011223793029785,-9.555258750915527,0.17298106849193573
1482155596674,-1.456871747970581,-9.552266120910645,0.21547815203666687
1482155596856,-1.824381709098816,-9.510966300964355,0.2190694510936737
1482155597036,-1.5951368808746338,-9.526528358459473,0.18794482946395874
1482155597212,-1.3617022037506104,-9.551667213439941,0.19692309200763702
1482155597396,-1.8590975999832153,-9.448118209838867,0.2346317619085312
1482155597577,-1.547252893447876,-9.560646057128906,0.14604631066322327
1482155597752,-1.5017629861831665,-9.576208114624023,0.19871874153614044
1482155597937,-1.902193307876587,-9.468469619750977,0.18136078119277954
1482155598117,-1.368884801864624,-9.528324127197266,0.20769700407981873
1482155598297,-1.723825216293335,-9.467870712280273,0.23104046285152435
1482155598476,-1.6214730739593506,-9.519944190979004,0.12030863761901855
1482155598658,-1.479616641998291,-9.546280860900879,0.1867477297782898
1482155598836,-1.7357962131500244,-9.550470352172852,0.11312603205442429
1482155599018,-1.6950948238372803,-9.49001693725586,0.181959331035614
1482155599198,-1.3287819623947144,-9.608530044555664,0.08319851011037827
1482155599379,-1.9249382019042969,-9.458892822265625,0.11911153793334961
1482155599554,-1.4431051015853882,-9.54209041595459,0.23702596127986908
1482155599734,-1.5963339805603027,-9.551069259643555,0.028730420395731926
1482155599919,-1.5155296325683594,-9.551667213439941,0.09516951441764832
1482155600099,-1.5921441316604614,-9.567828178405762,0.10115502029657364
1482155600275,-1.6340426206588745,-9.522936820983887,0.08738835901021957
1482155600458,-1.5029600858688354,-9.584588050842285,0.07841010391712189
1482155600640,-1.6861165761947632,-9.527725219726563,0.07721300423145294
1482155600821,-1.5837644338607788,-9.501988410949707,0.08738835901021957
1482155600999,-1.4778209924697876,-9.570222854614258,0.048482585698366165
1482155601185,-1.5257049798965454,-9.567828178405762,0.12330138683319092
1482155601358,-1.8022353649139404,-9.529520988464355,0.1628057211637497
1482155601540,-1.547252893447876,-9.549872398376465,0.1215057373046875
1482155601722,-1.9195512533187866,-9.470264434814453,-0.004788403399288654
1482155601900,-1.4622586965560913,-9.506776809692383,0.20530278980731964
1482155602081,-1.8183962106704712,-9.526528358459473,0.05446808785200119
1482155602257,-1.5885528326034546,-9.569025993347168,0.058059390634298325
1482155602442,-1.580173134803772,-9.573814392089844,0.07900865375995636
1482155602621,-1.5855600833892822,-9.515754699707031,0.04369417950510979
1482155602797,-1.6950948238372803,-9.521739959716797,0.12629413604736328
1482155602982,-1.7944542169570923,-9.520543098449707,0.1909375786781311
1482155603162,-1.5628151893615723,-9.469067573547363,0.24779987335205078
1482155603341,-1.902193307876587,-9.493608474731445,0.26336219906806946
1482155603522,-1.7004817724227905,-9.513958930969238,0.24660277366638184
1482155603702,-1.6023194789886475,-9.593565940856934,0.2190694510936737
1482155603883,-1.581370234489441,-9.509769439697266,0.20709845423698425
1482155604063,-1.6711528301239014,-9.494206428527832,0.14065934717655182
1482155604253,-1.7711106538772583,-9.501389503479004,0.35015198588371277
1482155604422,-1.547252893447876,-9.516353607177734,0.27712884545326233
1482155604601,-1.6166846752166748,-9.522936820983887,0.21368250250816345
1482155604779,-1.5705963373184204,-9.530119895935059,0.24241292476654053
1482155604963,-1.5658079385757446,-9.519944190979004,0.18375498056411743
1482155605143,-1.6226701736450195,-9.500192642211914,0.19692309200763702
1482155605319,-1.4957774877548218,-9.526528358459473,0.1256955862045288
1482155605505,-1.6250643730163574,-9.525930404663086,0.15442600846290588
1482155605683,-1.5783774852752686,-9.545083999633789,0.14784196019172668
1482155605865,-1.4167689085006714,-9.575610160827637,0.12868833541870117
1482155606045,-1.679532527923584,-9.517550468444824,0.1496376097202301
1482155606223,-1.5514427423477173,-9.551667213439941,0.17537526786327362
1482155606404,-1.5155296325683594,-9.556455612182617,0.13587094843387604
1482155606585,-1.7310078144073486,-9.533711433410645,0.1538274586200714
1482155606761,-1.7747019529342651,-9.552865028381348,0.21428105235099792
1482155606945,-1.2443863153457642,-9.619902610778809,0.047884032130241394
1482155607124,-1.9273324012756348,-9.461885452270508,0.1843535304069519
1482155607300,-1.390432596206665,-9.557653427124023,0.17836803197860718
1482155607485,-1.6053122282028198,-9.530718803405762,0.07841010391712189
1482155607665,-1.73519766330719,-9.534908294677734,0.12988543510437012
1482155607842,-1.3718775510787964,-9.572616577148438,0.03770867735147476
1482155608026,-1.8920178413391113,-9.467870712280273,0.18914192914962769
1482155608207,-1.48081374168396,-9.560047149658203,0.19812019169330597
1482155608385,-1.6938977241516113,-9.518747329711914,0.11911153793334961
1482155608567,-1.680729627609253,-9.507973670959473,0.2663549482822418
1482155608746,-1.5406688451766968,-9.525331497192383,-0.050876785069704056
1482155608926,-1.7142484188079834,-9.50857162475586,0.11611878126859665
1482155609107,-1.734000563621521,-9.50737476348877,0.13706804811954498
1482155609287,-1.768117904663086,-9.529520988464355,0.1933317929506302
1482155609466,-1.6639702320098877,-9.53969669342041,0.2621650993824005
1482155609643,-1.8225860595703125,-9.525930404663086,0.2908954918384552
1482155609823,-1.8100165128707886,-9.469067573547363,0.2519897222518921
1482155610004,-1.668160080909729,-9.499593734741211,0.28072014451026917
1482155610188,-1.390432596206665,-9.527127265930176,0.2777273952960968
1482155610364,-1.8692729473114014,-9.423578262329102,0.26575639843940735
1482155610548,-1.548449993133545,-9.532513618469238,0.2968810200691223
1482155610729,-1.4724340438842773,-9.59057331085205,0.1322796493768692
1482155610908,-1.9686323404312134,-9.474454879760742,0.15741875767707825
1482155611086,-1.3658920526504517,-9.621099472045898,0.0867898091673851
1482155611265,-1.890222191810608,-9.458892822265625,0.2849099934101105
1482155611449,-1.5298948287963867,-9.486425399780273,0.08918401598930359
1482155611630,-1.5478514432907104,-9.548076629638672,0.1801636815071106
1482155611809,-1.534683346748352,-9.555258750915527,0.06165069341659546
1482155611990,-1.670554280281067,-9.52353572845459,0.028730420395731926
1482155612170,-1.5711948871612549,-9.534908294677734,0.03770867735147476
1482155612346,-1.589151382446289,-9.553462982177734,0.016160860657691956
1482155612531,-1.556231141090393,-9.527725219726563,-0.01496376097202301
1482155612711,-1.755548357963562,-9.50737476348877,0.028131870552897453
1482155612886,-1.4299370050430298,-9.515155792236328,0.1388636976480484
1482155613071,-1.5490485429763794,-9.618106842041016,0.023343466222286224
1482155613251,-1.5538369417190552,-9.551667213439941,-0.07900865375995636
1482155613430,-1.6735470294952393,-9.524134635925293,0.016160860657691956
1482155613611,-1.614290475845337,-9.537900924682617,-0.05506663769483566
1482155613789,-1.4700398445129395,-9.53969669342041,-0.028730420395731926
1482155613972,-1.7202339172363281,-9.527127265930176,0.07062894850969315
1482155614150,-1.566406488418579,-9.563039779663086,0.09576806426048279
1482155614328,-1.5981296300888062,-9.543886184692383,0.06165069341659546
1482155614511,-1.592742681503296,-9.527725219726563,0.04908113554120064
1482155614688,-1.6172832250595093,-9.566631317138672,0.013766659423708916
1482155614868,-1.7052701711654663,-9.499593734741211,0.09157821536064148
1482155615053,-1.4640543460845947,-9.59476375579834,0.04429273307323456
1482155615229,-1.7369933128356934,-9.489418029785156,0.09876082092523575
1482155615410,-1.647210717201233,-9.500192642211914,0.1693897694349289
1482155615594,-1.4071919918060303,-9.5223388671875,0.0293289702385664
1482155615774,-1.7387889623641968,-9.513360023498535,0.1693897694349289
1482155615953,-1.657984733581543,-9.5408935546875,0.13407529890537262
1482155616131,-1.5298948287963867,-9.496601104736328,0.09397241473197937
1482155616312,-1.5741876363754272,-9.512163162231445,0.11552023142576218
1482155616494,-1.6873136758804321,-9.500192642211914,0.13407529890537262
1482155616675,-1.5173252820968628,-9.540295600891113,0.15741875767707825
1482155616850,-1.6843209266662598,-9.507973670959473,0.22385786473751068
1482155617035,-1.6112977266311646,-9.50498104095459,0.17836803197860718
1482155617215,-1.7573440074920654,-9.527127265930176,0.12330138683319092
1482155617390,-1.4987702369689941,-9.553462982177734,0.17298106849193573
1482155617575,-1.5520412921905518,-9.527127265930176,0.28131869435310364
1482155617755,-1.7184382677078247,-9.509769439697266,0.25258827209472656
1482155617933,-1.6891093254089355,-9.535507202148438,0.31543606519699097
1482155618116,-1.5981296300888062,-9.514557838439941,0.4387374520301819
1482155618295,-1.6268600225448608,-9.532513618469238,0.35075053572654724
1482155618476,-1.7531541585922241,-9.497200012207031,0.3776853084564209
1482155618656,-1.7357962131500244,-9.516353607177734,0.2777273952960968
1482155618835,-1.5544354915618896,-9.531316757202148,0.34835633635520935
1482155619017,-1.6879122257232666,-9.501988410949707,0.37828385829925537
1482155619197,-1.6310498714447021,-9.564835548400879,0.3208230137825012
1482155619373,-1.6184803247451782,-9.512163162231445,0.2825157940387726
1482155619557,-1.6711528301239014,-9.528923034667969,0.3429693877696991
1482155619733,-1.6992846727371216,-9.446322441101074,0.35733461380004883
1482155619913,-1.6083049774169922,-9.510966300964355,0.39384618401527405
1482155620098,-1.6849194765090942,-9.510966300964355,0.32860419154167175
1482155620276,-1.7944542169570923,-9.503783226013184,0.24839842319488525
1482155620453,-1.5143325328826904,-9.489418029785156,0.19931729137897491
1482155620638,-1.634641170501709,-9.53969669342041,0.17717093229293823
1482155620846,-1.5855600833892822,-9.57201862335205,0.0867898091673851
1482155620997,-1.4107834100723267,-9.550470352172852,0.058059390634298325
1482155621179,-1.523909330368042,-9.604938507080078,0.08559270948171616
1482155621356,-1.4634557962417603,-9.535507202148438,0.09457096457481384
1482155621538,-1.4640543460845947,-9.569025993347168,0.002992752008140087
1482155621718,-1.6286556720733643,-9.560047149658203,0.053270988166332245
1482155621895,-1.3898340463638306,-9.586383819580078,0.11133038252592087
1482155622078,-1.566406488418579,-9.55705451965332,0.17657238245010376
1482155622260,-1.447893500328064,-9.633070945739746,0.1256955862045288
1482155622438,-1.657984733581543,-9.52473258972168,0.15442600846290588
1482155622620,-1.157596468925476,-9.618106842041016,0.26156654953956604
1482155622800,-1.5849615335464478,-9.503185272216797,0.04189852997660637
1482155622976,-1.50355863571167,-9.5624418258667,0.18076223134994507
1482155623160,-1.580173134803772,-9.588179588317871,0.14484919607639313
1482155623341,-1.4975731372833252,-9.558850288391113,0.020350715145468712
1482155623521,-1.5592238903045654,-9.505578994750977,0.21547815203666687
1482155623699,-1.4550760984420776,-9.570821762084961,0.13287819921970367
1482155623879,-1.6083049774169922,-9.536704063415527,0.1388636976480484
1482155624061,-1.4814122915267944,-9.551667213439941,0.2669534981250763
1482155624241,-1.6723499298095703,-9.537302017211914,0.26156654953956604
1482155624418,-1.5292962789535522,-9.567828178405762,0.1975216418504715
1482155624601,-1.6011223793029785,-9.530718803405762,0.18136078119277954
1482155624780,-1.734000563621521,-9.518747329711914,0.19273324310779572
1482155624957,-1.5855600833892822,-9.545681953430176,0.23582886159420013
1482155625141,-1.4449007511138916,-9.548076629638672,0.1364694982767105
1482155625322,-1.2922704219818115,-9.619902610778809,0.14365209639072418
1482155625502,-1.8734627962112427,-9.510966300964355,0.09038111567497253
1482155625682,-1.4891934394836426,-9.559449195861816,0.06643909960985184
1482155625860,-1.4814122915267944,-9.588777542114258,0.1412578970193863
1482155626043,-1.567603588104248,-9.542689323425293,0.13407529890537262
1482155626223,-1.8644845485687256,-9.52114200592041,0.2992752194404602
1482155626400,-1.2725181579589844,-9.553462982177734,0.19632454216480255
1482155626583,-1.2563573122024536,-9.615114212036133,-0.10534487664699554
1482155626764,-1.9267338514328003,-9.470863342285156,0.17298106849193573
1482155626939,-1.4514847993850708,-9.565434455871582,-0.05746084079146385
1482155627125,-1.4903905391693115,-9.600150108337402,-0.060453593730926514
1482155627305,-1.8303672075271606,-9.513958930969238,-0.05506663769483566
1482155627480,-1.7244237661361694,-9.509170532226563,-0.15023615956306458
1482155627664,-1.568800687789917,-9.556455612182617,-0.181959331035614
1482155627843,-1.832162857055664,-9.517550468444824,-0.004788403399288654
1482155628020,-1.5604209899902344,-9.571419715881348,0.017956512048840523
1482155628205,-1.656787633895874,-9.575011253356934,0.05746084079146385
1482155628385,-1.5628151893615723,-9.506776809692383,0.11611878126859665
1482155628564,-1.7938556671142578,-9.492411613464355,0.13048399984836578
1482155628745,-1.558625340461731,-9.543886184692383,0.11791443079710007
1482155628922,-1.857301950454712,-9.5007905960083,0.08559270948171616
1482155629106,-1.6095020771026611,-9.485827445983887,0.14365209639072418
1482155629284,-1.4616601467132568,-9.586383819580078,0.16160862147808075
1482155629461,-1.8034324645996094,-9.48762321472168,0.1149216815829277
1482155629642,-1.5981296300888062,-9.543288230895996,0.15801730751991272
1482155629829,-1.8297686576843262,-9.475052833557129,0.18136078119277954
1482155630002,-1.622071623802185,-9.542689323425293,0.16160862147808075
1482155630181,-1.5771803855895996,-9.5408935546875,0.12090718746185303
1482155630362,-1.7304092645645142,-9.515754699707031,0.23582886159420013
1482155630542,-1.5735890865325928,-9.543288230895996,0.21607670187950134
1482155630726,-1.6023194789886475,-9.525930404663086,0.23343466222286224
1482155630904,-1.6543933153152466,-9.53969669342041,0.23163901269435883
1482155631088,-1.568800687789917,-9.53969669342041,-0.01735796220600605
1482155631268,-1.7040730714797974,-9.522936820983887,0.10833762586116791
1482155631452,-1.6615760326385498,-9.470863342285156,0.0999579206109047
1482155631627,-1.4927847385406494,-9.532513618469238,0.07242459803819656
1482155631808,-1.6226701736450195,-9.553462982177734,0.10175357013940811
1482155631985,-1.5292962789535522,-9.575011253356934,0.08559270948171616
1482155632169,-1.7447744607925415,-9.50737476348877,-0.01496376097202301
1482155632348,-1.4167689085006714,-9.561244010925293,0.07003039866685867
1482155632524,-1.611896276473999,-9.545681953430176,0.06344634294509888
1482155632709,-1.6388310194015503,-9.525930404663086,0.07182604819536209
1482155632889,-1.4610615968704224,-9.53849983215332,0.05147533491253853
1482155633070,-1.5999252796173096,-9.48882007598877,0.06584054976701736
1482155633250,-1.6615760326385498,-9.633668899536133,0.03770867735147476
1482155633429,-1.7663222551345825,-9.522936820983887,0.23822307586669922
1482155633610,-1.4460978507995605,-9.50857162475586,0.19153612852096558
1482155633790,-1.5861586332321167,-9.484031677246094,0.04249707981944084
1482155633966,-1.4802151918411255,-9.625288963317871,-0.06823474913835526
1482155634150,-1.3940238952636719,-9.55705451965332,-0.11791443079710007
1482155634335,-1.5316904783248901,-9.551667213439941,-0.0065840547904372215
1482155634506,-1.6112977266311646,-9.536105155944824,-0.01496376097202301
1482155634690,-1.6352397203445435,-9.547477722167969,0.12090718746185303
1482155634871,-1.4867992401123047,-9.50857162475586,0.1280897855758667
1482155635047,-1.6531962156295776,-9.54209041595459,0.05027823522686958
1482155635231,-1.467047095298767,-10.146626472473145,0.10833762586116791
1482155635406,-1.5945383310317993,-9.537302017211914,0.1322796493768692
1482155635591,-1.3958195447921753,-9.552865028381348,0.2148796021938324
1482155635772,-1.6089035272598267,-9.598953247070313,0.07122749835252762
1482155635951,-1.4401123523712158,-9.518747329711914,0.026336219161748886
1482155636132,-1.4724340438842773,-9.583391189575195,-0.14185644686222076
1482155636312,-1.581370234489441,-9.503185272216797,-0.08259996026754379
1482155636488,-1.4407109022140503,-9.546280860900879,0.06584054976701736
1482155636673,-1.557428240776062,-9.561842918395996,0.07422025501728058
1482155636851,-1.4993687868118286,-9.536704063415527,0.05027823522686958
1482155637029,-1.7633295059204102,-9.480440139770508,0.13527239859104156
1482155637214,-1.600523829460144,-9.507973670959473,0.24600422382354736
1482155637394,-1.5729905366897583,-9.519944190979004,0.2064998894929886
1482155637569,-1.7842788696289063,-9.516951560974121,0.17477671802043915
1482155637754,-1.434126853942871,-9.587580680847168,0.19692309200763702
1482155637933,-1.7232266664505005,-9.509769439697266,0.20949265360832214
1482155638114,-1.6190788745880127,-9.512762069702148,0.1628057211637497
1482155638295,-1.4203602075576782,-9.569623947143555,0.15143325924873352
1482155638471,-1.7591396570205688,-9.442731857299805,0.19572599232196808
1482155638655,-1.5807716846466064,-9.539097785949707,0.28072014451026917
1482155638835,-1.5041571855545044,-9.512762069702148,0.27653029561042786
