,timestamp,ax,ay,az
0,7000.0,3.614047527313232,-9.074024200439453,-0.37529110908508295
1,7100.0,3.614047527313232,-9.074024200439453,-0.37529110908508295
2,7200.0,3.614047527313232,-9.074024200439453,-0.37529110908508295
3,7300.0,2.9448680877685547,-9.343372344970703,-0.7302315235137941
4,7400.0,-1.7298107147216797,-10.019734382629396,0.8176198601722717
5,7500.0,-1.7298107147216797,-10.019734382629396,0.8176198601722717
6,7600.0,0.029927521944046017,-9.582792282104492,0.058059390634298325
7,7700.0,0.029927521944046017,-9.582792282104492,0.058059390634298325
8,7800.0,1.9901801347732544,-9.77013874053955,0.26994624733924866
9,7900.0,1.9901801347732544,-9.77013874053955,0.26994624733924866
10,8000.0,2.7036523818969727,-9.453505516052246,-0.2064998894929886
11,8100.0,2.7036523818969727,-9.453505516052246,-0.2064998894929886
12,8200.0,0.9959878921508788,-9.723451614379883,0.7218518257141113
13,8300.0,-1.2731167078018188,-9.549872398376463,0.44831427931785583
14,8400.0,-1.2731167078018188,-9.549872398376463,0.44831427931785583
15,8500.0,2.583343744277954,-9.321824073791504,-0.3830722570419312
16,8600.0,2.583343744277954,-9.321824073791504,-0.3830722570419312
17,8700.0,3.030460834503174,-9.501389503479004,-0.056263741105794914
18,8800.0,3.030460834503174,-9.501389503479004,-0.056263741105794914
19,8900.0,0.6745663285255432,-9.812037467956543,0.656609833240509
20,8000.0,2.7036523818969727,-9.453505516052246,-0.2064998894929886
21,8100.0,2.7036523818969727,-9.453505516052246,-0.2064998894929886
22,8200.0,0.9959878921508788,-9.723451614379883,0.7218518257141113
23,8300.0,-1.2731167078018188,-9.549872398376463,0.44831427931785583
24,8400.0,-1.2731167078018188,-9.549872398376463,0.44831427931785583
25,8500.0,2.583343744277954,-9.321824073791504,-0.3830722570419312
26,8600.0,2.583343744277954,-9.321824073791504,-0.3830722570419312
27,8700.0,3.030460834503174,-9.501389503479004,-0.056263741105794914
28,8800.0,3.030460834503174,-9.501389503479004,-0.056263741105794914
29,8900.0,0.6745663285255432,-9.812037467956543,0.656609833240509
30,9000.0,0.6745663285255432,-9.812037467956543,0.656609833240509
31,9100.0,-0.2980781197547913,-9.654019355773926,0.09157821536064148
32,9200.0,3.00711727142334,-9.501988410949707,-0.1041477769613266
33,9300.0,3.00711727142334,-9.501988410949707,-0.1041477769613266
34,9400.0,2.211045265197754,-9.398438453674316,-0.07960720360279082
35,9500.0,2.211045265197754,-9.398438453674316,-0.07960720360279082
36,9600.0,-1.0097545385360718,-9.50857162475586,0.17836803197860718
37,9700.0,-1.0097545385360718,-9.50857162475586,0.17836803197860718
38,9800.0,1.291671872138977,-9.728838920593262,-0.23104046285152435
39,9900.0,1.291671872138977,-9.728838920593262,-0.23104046285152435
40,9000.0,0.6745663285255432,-9.812037467956543,0.656609833240509
41,9100.0,-0.2980781197547913,-9.654019355773926,0.09157821536064148
42,9200.0,3.00711727142334,-9.501988410949707,-0.1041477769613266
43,9300.0,3.00711727142334,-9.501988410949707,-0.1041477769613266
44,9400.0,2.211045265197754,-9.398438453674316,-0.07960720360279082
45,9500.0,2.211045265197754,-9.398438453674316,-0.07960720360279082
46,9600.0,-1.0097545385360718,-9.50857162475586,0.17836803197860718
47,9700.0,-1.0097545385360718,-9.50857162475586,0.17836803197860718
48,9800.0,1.291671872138977,-9.728838920593262,-0.23104046285152435
49,9900.0,1.291671872138977,-9.728838920593262,-0.23104046285152435
50,10000.0,2.626439332962036,-9.430161476135254,-0.04189852997660637
51,10100.0,1.6430208683013916,-9.551069259643556,0.03112462162971497
52,10200.0,1.6430208683013916,-9.551069259643556,0.03112462162971497
53,10300.0,0.9660604000091552,-9.725247383117676,0.3477577865123749
54,10400.0,0.9660604000091552,-9.725247383117676,0.3477577865123749
55,10500.0,1.0773907899856567,-9.61571216583252,0.21428105235099792
56,10600.0,1.0773907899856567,-9.61571216583252,0.21428105235099792
57,10700.0,1.006163239479065,-9.579200744628906,0.09217676520347597
58,10800.0,1.006163239479065,-9.579200744628906,0.09217676520347597
59,10900.0,1.7459715604782104,-9.470863342285156,0.0071826050989329815
60,10000.0,2.626439332962036,-9.430161476135254,-0.04189852997660637
61,10100.0,1.6430208683013916,-9.551069259643556,0.03112462162971497
62,10200.0,1.6430208683013916,-9.551069259643556,0.03112462162971497
63,10300.0,0.9660604000091552,-9.725247383117676,0.3477577865123749
64,10400.0,0.9660604000091552,-9.725247383117676,0.3477577865123749
65,10500.0,1.0773907899856567,-9.61571216583252,0.21428105235099792
66,10600.0,1.0773907899856567,-9.61571216583252,0.21428105235099792
67,10700.0,1.006163239479065,-9.579200744628906,0.09217676520347597
68,10800.0,1.006163239479065,-9.579200744628906,0.09217676520347597
69,10900.0,1.7459715604782104,-9.470863342285156,0.0071826050989329815
70,11000.0,1.7980455160140991,-9.554061889648438,-0.09876082092523576
71,11100.0,1.7980455160140991,-9.554061889648438,-0.09876082092523576
72,11200.0,1.3521254062652588,-9.604340553283693,0.2585737705230713
73,11300.0,1.3521254062652588,-9.604340553283693,0.2585737705230713
74,11400.0,0.4513070285320282,-9.630077362060547,0.2585737705230713
75,11500.0,0.4513070285320282,-9.630077362060547,0.2585737705230713
76,11600.0,1.6112977266311646,-9.476848602294922,-0.09935937076807022
77,11700.0,1.6112977266311646,-9.476848602294922,-0.09935937076807022
78,11800.0,1.7172411680221558,-9.493009567260742,-0.2448071241378784
79,11900.0,1.7274165153503418,-9.422380447387695,0.19572599232196808
80,11000.0,1.7980455160140991,-9.554061889648438,-0.09876082092523576
81,11100.0,1.7980455160140991,-9.554061889648438,-0.09876082092523576
82,11200.0,1.3521254062652588,-9.604340553283693,0.2585737705230713
83,11300.0,1.3521254062652588,-9.604340553283693,0.2585737705230713
84,11400.0,0.4513070285320282,-9.630077362060547,0.2585737705230713
85,11500.0,0.4513070285320282,-9.630077362060547,0.2585737705230713
86,11600.0,1.6112977266311646,-9.476848602294922,-0.09935937076807022
87,11700.0,1.6112977266311646,-9.476848602294922,-0.09935937076807022
88,11800.0,1.7172411680221558,-9.493009567260742,-0.2448071241378784
89,11900.0,1.7274165153503418,-9.422380447387695,0.19572599232196808
90,12000.0,1.7274165153503418,-9.422380447387695,0.19572599232196808
91,12100.0,0.7146692276000977,-9.622895240783693,0.010773907415568829
92,12200.0,0.7146692276000977,-9.622895240783693,0.010773907415568829
93,12300.0,1.4670470952987669,-9.43494987487793,-0.2645592987537384
94,12400.0,1.4670470952987669,-9.43494987487793,-0.2645592987537384
95,12500.0,1.8225860595703125,-9.586383819580078,0.09397241473197936
96,12600.0,1.8225860595703125,-9.586383819580078,0.09397241473197936
97,12700.0,1.5083470344543457,-9.599552154541016,0.3321954905986786
98,12800.0,1.1767501831054688,-9.484031677246094,-0.3369838893413544
99,12900.0,1.1767501831054688,-9.484031677246094,-0.3369838893413544
100,12000.0,1.7274165153503418,-9.422380447387695,0.19572599232196808
101,12100.0,0.7146692276000977,-9.622895240783693,0.010773907415568829
102,12200.0,0.7146692276000977,-9.622895240783693,0.010773907415568829
103,12300.0,1.4670470952987669,-9.43494987487793,-0.2645592987537384
104,12400.0,1.4670470952987669,-9.43494987487793,-0.2645592987537384
105,12500.0,1.8225860595703125,-9.586383819580078,0.09397241473197936
106,12600.0,1.8225860595703125,-9.586383819580078,0.09397241473197936
107,12700.0,1.5083470344543457,-9.599552154541016,0.3321954905986786
108,12800.0,1.1767501831054688,-9.484031677246094,-0.3369838893413544
109,12900.0,1.1767501831054688,-9.484031677246094,-0.3369838893413544
110,13000.0,1.7555483579635618,-9.445724487304688,-0.18614917993545527
111,13100.0,1.7555483579635618,-9.445724487304688,-0.18614917993545527
112,13200.0,1.9662381410598757,-9.429563522338867,0.10534487664699554
113,13300.0,1.9662381410598757,-9.429563522338867,0.10534487664699554
114,13400.0,1.6388310194015503,-9.588179588317873,0.5201402902603149
115,13500.0,1.6388310194015503,-9.588179588317873,0.5201402902603149
116,13600.0,0.9014169573783876,-9.676166534423828,0.10295066982507706
117,13700.0,1.4311341047286987,-9.539097785949707,-0.3998316824436188
118,13800.0,1.4311341047286987,-9.539097785949707,-0.3998316824436188
119,13900.0,1.9877859354019165,-9.59476375579834,-0.14784196019172668
120,13000.0,1.7555483579635618,-9.445724487304688,-0.18614917993545527
121,13100.0,1.7555483579635618,-9.445724487304688,-0.18614917993545527
122,13200.0,1.9662381410598757,-9.429563522338867,0.10534487664699554
123,13300.0,1.9662381410598757,-9.429563522338867,0.10534487664699554
124,13400.0,1.6388310194015503,-9.588179588317873,0.5201402902603149
125,13500.0,1.6388310194015503,-9.588179588317873,0.5201402902603149
126,13600.0,0.9014169573783876,-9.676166534423828,0.10295066982507706
127,13700.0,1.4311341047286987,-9.539097785949707,-0.3998316824436188
128,13800.0,1.4311341047286987,-9.539097785949707,-0.3998316824436188
129,13900.0,1.9877859354019165,-9.59476375579834,-0.14784196019172668
130,14000.0,1.9877859354019165,-9.59476375579834,-0.14784196019172668
131,14100.0,1.535880446434021,-9.601346969604492,0.5680243372917175
132,14200.0,1.535880446434021,-9.601346969604492,0.5680243372917175
133,14300.0,1.007360339164734,-9.370905876159668,-0.3794809579849243
134,14400.0,1.007360339164734,-9.370905876159668,-0.3794809579849243
135,14500.0,1.902193307876587,-9.414599418640137,-0.18076223134994507
136,14600.0,1.6723499298095703,-9.59177017211914,0.14365209639072418
137,14700.0,1.6723499298095703,-9.59177017211914,0.14365209639072418
138,14800.0,0.9983820915222168,-9.546878814697266,-0.08499415963888167
139,14900.0,0.9983820915222168,-9.546878814697266,-0.08499415963888167
140,14000.0,1.9877859354019165,-9.59476375579834,-0.14784196019172668
141,14100.0,1.535880446434021,-9.601346969604492,0.5680243372917175
142,14200.0,1.535880446434021,-9.601346969604492,0.5680243372917175
143,14300.0,1.007360339164734,-9.370905876159668,-0.3794809579849243
144,14400.0,1.007360339164734,-9.370905876159668,-0.3794809579849243
145,14500.0,1.902193307876587,-9.414599418640137,-0.18076223134994507
146,14600.0,1.6723499298095703,-9.59177017211914,0.14365209639072418
147,14700.0,1.6723499298095703,-9.59177017211914,0.14365209639072418
148,14800.0,0.9983820915222168,-9.546878814697266,-0.08499415963888167
149,14900.0,0.9983820915222168,-9.546878814697266,-0.08499415963888167
150,15000.0,1.337161660194397,-9.503783226013184,-0.3321954905986786
151,15100.0,1.337161660194397,-9.503783226013184,-0.3321954905986786
152,15200.0,1.8794482946395876,-9.402029991149902,-0.21009120345115664
153,15300.0,1.8794482946395876,-9.402029991149902,-0.21009120345115664
154,15400.0,1.5107412338256836,-9.657610893249512,0.4237737059593201
155,15500.0,1.138442873954773,-9.452906608581543,-0.3585317134857178
156,15600.0,1.138442873954773,-9.452906608581543,-0.3585317134857178
157,15700.0,1.7639280557632446,-9.528324127197266,-0.13826514780521393
158,15800.0,1.7639280557632446,-9.528324127197266,-0.13826514780521393
159,15900.0,1.8142063617706297,-9.561842918395996,-0.09457096457481384
160,15000.0,1.337161660194397,-9.503783226013184,-0.3321954905986786
161,15100.0,1.337161660194397,-9.503783226013184,-0.3321954905986786
162,15200.0,1.8794482946395876,-9.402029991149902,-0.21009120345115664
163,15300.0,1.8794482946395876,-9.402029991149902,-0.21009120345115664
164,15400.0,1.5107412338256836,-9.657610893249512,0.4237737059593201
165,15500.0,1.138442873954773,-9.452906608581543,-0.3585317134857178
166,15600.0,1.138442873954773,-9.452906608581543,-0.3585317134857178
167,15700.0,1.7639280557632446,-9.528324127197266,-0.13826514780521393
168,15800.0,1.7639280557632446,-9.528324127197266,-0.13826514780521393
169,15900.0,1.8142063617706297,-9.561842918395996,-0.09457096457481384
170,16000.0,1.8142063617706297,-9.561842918395996,-0.09457096457481384
171,16100.0,1.5849615335464478,-9.616311073303224,0.14484919607639313
172,16200.0,1.5849615335464478,-9.616311073303224,0.14484919607639313
173,16300.0,1.387439846992493,-9.336788177490234,-0.2340332120656967
174,16400.0,1.611896276473999,-9.543288230895996,-0.2232593148946762
175,16500.0,1.611896276473999,-9.543288230895996,-0.2232593148946762
176,16600.0,1.656787633895874,-9.516353607177734,-0.016160860657691956
177,16700.0,1.656787633895874,-9.516353607177734,-0.016160860657691956
178,16800.0,1.32818341255188,-9.55705451965332,0.1885433793067932
179,16900.0,1.32818341255188,-9.55705451965332,0.1885433793067932
180,16000.0,1.8142063617706297,-9.561842918395996,-0.09457096457481384
181,16100.0,1.5849615335464478,-9.616311073303224,0.14484919607639313
182,16200.0,1.5849615335464478,-9.616311073303224,0.14484919607639313
183,16300.0,1.387439846992493,-9.336788177490234,-0.2340332120656967
184,16400.0,1.611896276473999,-9.543288230895996,-0.2232593148946762
185,16500.0,1.611896276473999,-9.543288230895996,-0.2232593148946762
186,16600.0,1.656787633895874,-9.516353607177734,-0.016160860657691956
187,16700.0,1.656787633895874,-9.516353607177734,-0.016160860657691956
188,16800.0,1.32818341255188,-9.55705451965332,0.1885433793067932
189,16900.0,1.32818341255188,-9.55705451965332,0.1885433793067932
190,17000.0,2.6862943172454834,-9.196128845214844,-0.1586158573627472
191,17100.0,2.6862943172454834,-9.196128845214844,-0.1586158573627472
192,17200.0,2.1625626087188716,-9.421183586120604,-0.3190273642539978
193,17300.0,-0.2082955539226532,-9.702502250671387,0.2106897532939911
194,17400.0,-0.2082955539226532,-9.702502250671387,0.2106897532939911
195,17500.0,1.6825252771377563,-9.59596061706543,0.272938996553421
196,17600.0,1.6825252771377563,-9.59596061706543,0.272938996553421
197,17700.0,2.0614075660705566,-9.59596061706543,-0.32620999217033386
198,17800.0,2.0614075660705566,-9.59596061706543,-0.32620999217033386
199,17900.0,0.7428010702133179,-9.536704063415527,-0.012569558806717396
200,17000.0,2.6862943172454834,-9.196128845214844,-0.1586158573627472
201,17100.0,2.6862943172454834,-9.196128845214844,-0.1586158573627472
202,17200.0,2.1625626087188716,-9.421183586120604,-0.3190273642539978
203,17300.0,-0.2082955539226532,-9.702502250671387,0.2106897532939911
204,17400.0,-0.2082955539226532,-9.702502250671387,0.2106897532939911
205,17500.0,1.6825252771377563,-9.59596061706543,0.272938996553421
206,17600.0,1.6825252771377563,-9.59596061706543,0.272938996553421
207,17700.0,2.0614075660705566,-9.59596061706543,-0.32620999217033386
208,17800.0,2.0614075660705566,-9.59596061706543,-0.32620999217033386
209,17900.0,0.7428010702133179,-9.536704063415527,-0.012569558806717396
210,18000.0,0.7428010702133179,-9.536704063415527,-0.012569558806717396
211,18100.0,1.602918028831482,-9.5809965133667,0.3052607178688049
212,18200.0,2.0165164470672607,-9.440936088562012,-0.12749123573303225
213,18300.0,2.0165164470672607,-9.440936088562012,-0.12749123573303225
214,18400.0,0.7284358739852905,-9.644442558288574,0.839766263961792
215,18500.0,0.7284358739852905,-9.644442558288574,0.839766263961792
216,18600.0,0.9481038451194764,-9.64564037322998,0.2795230448246002
217,18700.0,0.9481038451194764,-9.64564037322998,0.2795230448246002
218,18800.0,2.544437885284424,-9.54628086090088,-0.2621650993824005
219,18900.0,2.544437885284424,-9.54628086090088,-0.2621650993824005
220,18000.0,0.7428010702133179,-9.536704063415527,-0.012569558806717396
221,18100.0,1.602918028831482,-9.5809965133667,0.3052607178688049
222,18200.0,2.0165164470672607,-9.440936088562012,-0.12749123573303225
223,18300.0,2.0165164470672607,-9.440936088562012,-0.12749123573303225
224,18400.0,0.7284358739852905,-9.644442558288574,0.839766263961792
225,18500.0,0.7284358739852905,-9.644442558288574,0.839766263961792
226,18600.0,0.9481038451194764,-9.64564037322998,0.2795230448246002
227,18700.0,0.9481038451194764,-9.64564037322998,0.2795230448246002
228,18800.0,2.544437885284424,-9.54628086090088,-0.2621650993824005
229,18900.0,2.544437885284424,-9.54628086090088,-0.2621650993824005
230,19000.0,-0.14484919607639313,-9.785700798034668,-0.2214636504650116
231,19100.0,3.047818660736084,-9.59715747833252,1.0271124839782717
232,19200.0,3.047818660736084,-9.59715747833252,1.0271124839782717
233,19300.0,-1.2348095178604126,-9.509170532226564,-0.5698199868202211
234,19400.0,-1.2348095178604126,-9.509170532226564,-0.5698199868202211
235,19500.0,0.5931634902954102,-9.87967300415039,0.4537012279033661
236,19600.0,0.5931634902954102,-9.87967300415039,0.4537012279033661
237,19700.0,1.8273744583129885,-9.47146224975586,-0.4590881764888763
238,19800.0,1.8273744583129885,-9.47146224975586,-0.4590881764888763
239,19900.0,0.7667431235313416,-9.595361709594727,0.09157821536064148
240,19000.0,-0.14484919607639313,-9.785700798034668,-0.2214636504650116
241,19100.0,3.047818660736084,-9.59715747833252,1.0271124839782717
242,19200.0,3.047818660736084,-9.59715747833252,1.0271124839782717
243,19300.0,-1.2348095178604126,-9.509170532226564,-0.5698199868202211
244,19400.0,-1.2348095178604126,-9.509170532226564,-0.5698199868202211
245,19500.0,0.5931634902954102,-9.87967300415039,0.4537012279033661
246,19600.0,0.5931634902954102,-9.87967300415039,0.4537012279033661
247,19700.0,1.8273744583129885,-9.47146224975586,-0.4590881764888763
248,19800.0,1.8273744583129885,-9.47146224975586,-0.4590881764888763
249,19900.0,0.7667431235313416,-9.595361709594727,0.09157821536064148
250,20000.0,0.2669534981250763,-9.70310115814209,0.12330138683319093
251,20100.0,0.2669534981250763,-9.70310115814209,0.12330138683319093
252,20200.0,3.4243068695068364,-9.220669746398926,-0.376488208770752
253,20300.0,3.4243068695068364,-9.220669746398926,-0.376488208770752
254,20400.0,3.2142157554626465,-9.48462963104248,0.6254851818084717
255,20500.0,3.2142157554626465,-9.48462963104248,0.6254851818084717
256,20600.0,1.7244237661361694,-9.395445823669434,0.10594342648983003
257,20700.0,1.7244237661361694,-9.395445823669434,0.10594342648983003
258,20800.0,0.05386953800916672,-9.680954933166504,0.17477671802043915
259,20900.0,1.7639280557632446,-9.394248962402344,-0.262763649225235
260,20000.0,0.2669534981250763,-9.70310115814209,0.12330138683319093
261,20100.0,0.2669534981250763,-9.70310115814209,0.12330138683319093
262,20200.0,3.4243068695068364,-9.220669746398926,-0.376488208770752
263,20300.0,3.4243068695068364,-9.220669746398926,-0.376488208770752
264,20400.0,3.2142157554626465,-9.48462963104248,0.6254851818084717
265,20500.0,3.2142157554626465,-9.48462963104248,0.6254851818084717
266,20600.0,1.7244237661361694,-9.395445823669434,0.10594342648983003
267,20700.0,1.7244237661361694,-9.395445823669434,0.10594342648983003
268,20800.0,0.05386953800916672,-9.680954933166504,0.17477671802043915
269,20900.0,1.7639280557632446,-9.394248962402344,-0.262763649225235
270,21000.0,1.7639280557632446,-9.394248962402344,-0.262763649225235
271,21100.0,2.6575639247894287,-9.694122314453123,0.03950432687997818
272,21200.0,2.6575639247894287,-9.694122314453123,0.03950432687997818
273,21300.0,1.972822189331055,-9.25957489013672,0.22625206410884854
274,21400.0,1.972822189331055,-9.25957489013672,0.22625206410884854
275,21500.0,-1.2563573122024536,-9.50737476348877,0.1191115379333496
276,21600.0,-1.2563573122024536,-9.50737476348877,0.1191115379333496
277,21700.0,1.2246341705322266,-9.468469619750977,-0.2980781197547913
278,21800.0,2.4917654991149902,-9.510367393493652,0.018555063754320145
279,21900.0,2.4917654991149902,-9.510367393493652,0.018555063754320145
280,21000.0,1.7639280557632446,-9.394248962402344,-0.262763649225235
281,21100.0,2.6575639247894287,-9.694122314453123,0.03950432687997818
282,21200.0,2.6575639247894287,-9.694122314453123,0.03950432687997818
283,21300.0,1.972822189331055,-9.25957489013672,0.22625206410884854
284,21400.0,1.972822189331055,-9.25957489013672,0.22625206410884854
285,21500.0,-1.2563573122024536,-9.50737476348877,0.1191115379333496
286,21600.0,-1.2563573122024536,-9.50737476348877,0.1191115379333496
287,21700.0,1.2246341705322266,-9.468469619750977,-0.2980781197547913
288,21800.0,2.4917654991149902,-9.510367393493652,0.018555063754320145
289,21900.0,2.4917654991149902,-9.510367393493652,0.018555063754320145
290,22000.0,1.432929754257202,-9.537302017211914,0.5033808946609497
291,22100.0,1.432929754257202,-9.537302017211914,0.5033808946609497
292,22200.0,2.2236149311065674,-9.566631317138672,0.13347674906253815
293,22300.0,2.2236149311065674,-9.566631317138672,0.13347674906253815
294,22400.0,-0.8481459617614746,-9.701904296875,0.3423708379268646
295,22500.0,-0.8481459617614746,-9.701904296875,0.3423708379268646
296,22600.0,2.7012581825256348,-9.319430351257324,-0.4985924959182739
297,22700.0,2.4666264057159424,-9.517550468444824,0.4531026780605316
298,22800.0,2.4666264057159424,-9.517550468444824,0.4531026780605316
299,22900.0,-2.1673510074615483,-9.548076629638672,0.055665191262960434
300,22000.0,1.432929754257202,-9.537302017211914,0.5033808946609497
301,22100.0,1.432929754257202,-9.537302017211914,0.5033808946609497
302,22200.0,2.2236149311065674,-9.566631317138672,0.13347674906253815
303,22300.0,2.2236149311065674,-9.566631317138672,0.13347674906253815
304,22400.0,-0.8481459617614746,-9.701904296875,0.3423708379268646
305,22500.0,-0.8481459617614746,-9.701904296875,0.3423708379268646
306,22600.0,2.7012581825256348,-9.319430351257324,-0.4985924959182739
307,22700.0,2.4666264057159424,-9.517550468444824,0.4531026780605316
308,22800.0,2.4666264057159424,-9.517550468444824,0.4531026780605316
309,22900.0,-2.1673510074615483,-9.548076629638672,0.055665191262960434
310,23000.0,-2.1673510074615483,-9.548076629638672,0.055665191262960434
311,23100.0,3.576937437057495,-9.211092948913574,-1.0301052331924438
312,23200.0,3.576937437057495,-9.211092948913574,-1.0301052331924438
313,23300.0,2.646191358566284,-9.326014518737793,-0.13287819921970367
314,23400.0,2.646191358566284,-9.326014518737793,-0.13287819921970367
315,23500.0,-1.623268723487854,-9.6618013381958,0.2274491637945175
316,23600.0,1.6376339197158811,-9.537302017211914,-0.5063736438751221
317,23700.0,1.6376339197158811,-9.537302017211914,-0.5063736438751221
318,23800.0,2.142810583114624,-9.625288963317873,-0.016160860657691956
319,23900.0,2.142810583114624,-9.625288963317873,-0.016160860657691956
320,23000.0,-2.1673510074615483,-9.548076629638672,0.055665191262960434
321,23100.0,3.576937437057495,-9.211092948913574,-1.0301052331924438
322,23200.0,3.576937437057495,-9.211092948913574,-1.0301052331924438
323,23300.0,2.646191358566284,-9.326014518737793,-0.13287819921970367
324,23400.0,2.646191358566284,-9.326014518737793,-0.13287819921970367
325,23500.0,-1.623268723487854,-9.6618013381958,0.2274491637945175
326,23600.0,1.6376339197158811,-9.537302017211914,-0.5063736438751221
327,23700.0,1.6376339197158811,-9.537302017211914,-0.5063736438751221
328,23800.0,2.142810583114624,-9.625288963317873,-0.016160860657691956
329,23900.0,2.142810583114624,-9.625288963317873,-0.016160860657691956
330,24000.0,0.4638765752315521,-9.581595420837402,0.5225345492362976
331,24100.0,0.4638765752315521,-9.581595420837402,0.5225345492362976
332,24200.0,1.2988544702529907,-9.622296333312988,0.4578910768032074
333,24300.0,1.2988544702529907,-9.622296333312988,0.4578910768032074
334,24400.0,2.562394380569458,-9.570821762084961,-0.4333505034446716
335,24500.0,1.6699557304382324,-9.576807022094727,0.2867056429386139
336,24600.0,1.6699557304382324,-9.576807022094727,0.2867056429386139
337,24700.0,0.4351461529731751,-9.5408935546875,-0.2723404467105865
338,24800.0,0.4351461529731751,-9.5408935546875,-0.2723404467105865
339,24900.0,1.0869675874710083,-9.657610893249512,-0.3770867586135864
340,24000.0,0.4638765752315521,-9.581595420837402,0.5225345492362976
341,24100.0,0.4638765752315521,-9.581595420837402,0.5225345492362976
342,24200.0,1.2988544702529907,-9.622296333312988,0.4578910768032074
343,24300.0,1.2988544702529907,-9.622296333312988,0.4578910768032074
344,24400.0,2.562394380569458,-9.570821762084961,-0.4333505034446716
345,24500.0,1.6699557304382324,-9.576807022094727,0.2867056429386139
346,24600.0,1.6699557304382324,-9.576807022094727,0.2867056429386139
347,24700.0,0.4351461529731751,-9.5408935546875,-0.2723404467105865
348,24800.0,0.4351461529731751,-9.5408935546875,-0.2723404467105865
349,24900.0,1.0869675874710083,-9.657610893249512,-0.3770867586135864
350,25000.0,1.0869675874710083,-9.657610893249512,-0.3770867586135864
351,25100.0,1.3862427473068235,-9.533711433410645,-0.3082534670829773
352,25200.0,1.3862427473068235,-9.533711433410645,-0.3082534670829773
353,25300.0,1.5520412921905518,-9.426570892333984,-0.3705027103424072
354,25400.0,1.6190788745880127,-9.64923095703125,0.38486793637275696
355,25500.0,1.6190788745880127,-9.64923095703125,0.38486793637275696
356,25600.0,0.9732429981231691,-9.512762069702148,0.3866635859012604
357,25700.0,0.9732429981231691,-9.512762069702148,0.3866635859012604
358,25800.0,0.7751228213310242,-9.651026725769043,-0.1107318252325058
359,25900.0,0.7751228213310242,-9.651026725769043,-0.1107318252325058
360,25000.0,1.0869675874710083,-9.657610893249512,-0.3770867586135864
361,25100.0,1.3862427473068235,-9.533711433410645,-0.3082534670829773
362,25200.0,1.3862427473068235,-9.533711433410645,-0.3082534670829773
363,25300.0,1.5520412921905518,-9.426570892333984,-0.3705027103424072
364,25400.0,1.6190788745880127,-9.64923095703125,0.38486793637275696
365,25500.0,1.6190788745880127,-9.64923095703125,0.38486793637275696
366,25600.0,0.9732429981231691,-9.512762069702148,0.3866635859012604
367,25700.0,0.9732429981231691,-9.512762069702148,0.3866635859012604
368,25800.0,0.7751228213310242,-9.651026725769043,-0.1107318252325058
369,25900.0,0.7751228213310242,-9.651026725769043,-0.1107318252325058
370,26000.0,1.0217255353927612,-9.61212158203125,-0.2645592987537384
371,26100.0,1.0217255353927612,-9.61212158203125,-0.2645592987537384
372,26200.0,1.5131354331970217,-9.531316757202148,0.10953472554683684
373,26300.0,1.5131354331970217,-9.531316757202148,0.10953472554683684
374,26400.0,1.5310919284820557,-9.603741645812988,0.2950853705406189
375,26500.0,1.391629695892334,-9.561842918395996,0.16998831927776334
376,26600.0,1.391629695892334,-9.561842918395996,0.16998831927776334
377,26700.0,1.4748282432556152,-9.555258750915527,0.23104046285152435
378,26800.0,1.4748282432556152,-9.555258750915527,0.23104046285152435
379,26900.0,0.8631097078323364,-9.411606788635254,-0.1735796183347702
380,26000.0,1.0217255353927612,-9.61212158203125,-0.2645592987537384
381,26100.0,1.0217255353927612,-9.61212158203125,-0.2645592987537384
382,26200.0,1.5131354331970217,-9.531316757202148,0.10953472554683684
383,26300.0,1.5131354331970217,-9.531316757202148,0.10953472554683684
384,26400.0,1.5310919284820557,-9.603741645812988,0.2950853705406189
385,26500.0,1.391629695892334,-9.561842918395996,0.16998831927776334
386,26600.0,1.391629695892334,-9.561842918395996,0.16998831927776334
387,26700.0,1.4748282432556152,-9.555258750915527,0.23104046285152435
388,26800.0,1.4748282432556152,-9.555258750915527,0.23104046285152435
389,26900.0,0.8631097078323364,-9.411606788635254,-0.1735796183347702
390,27000.0,0.8631097078323364,-9.411606788635254,-0.1735796183347702
391,27100.0,1.4323312044143677,-9.584588050842283,0.3986345827579498
392,27200.0,1.4323312044143677,-9.584588050842283,0.3986345827579498
393,27300.0,1.5873557329177856,-9.673172950744627,0.13587094843387604
394,27400.0,1.7507599592208862,-9.487024307250977,0.013766659423708916
395,27500.0,1.7507599592208862,-9.487024307250977,0.013766659423708916
396,27600.0,0.9062053561210632,-9.695320129394533,0.35913026332855225
397,27700.0,0.9062053561210632,-9.695320129394533,0.35913026332855225
398,27800.0,1.0169371366500854,-9.553462982177734,-0.2477998733520508
399,27900.0,1.0169371366500854,-9.553462982177734,-0.2477998733520508
400,27000.0,0.8631097078323364,-9.411606788635254,-0.1735796183347702
401,27100.0,1.4323312044143677,-9.584588050842283,0.3986345827579498
402,27200.0,1.4323312044143677,-9.584588050842283,0.3986345827579498
403,27300.0,1.5873557329177856,-9.673172950744627,0.13587094843387604
404,27400.0,1.7507599592208862,-9.487024307250977,0.013766659423708916
405,27500.0,1.7507599592208862,-9.487024307250977,0.013766659423708916
406,27600.0,0.9062053561210632,-9.695320129394533,0.35913026332855225
407,27700.0,0.9062053561210632,-9.695320129394533,0.35913026332855225
408,27800.0,1.0169371366500854,-9.553462982177734,-0.2477998733520508
409,27900.0,1.0169371366500854,-9.553462982177734,-0.2477998733520508
410,28000.0,1.0157400369644165,-9.433155059814453,-0.14604631066322327
411,28100.0,1.0157400369644165,-9.433155059814453,-0.14604631066322327
412,28200.0,1.5179238319396973,-9.570222854614258,0.4985924959182739
413,28300.0,1.9291280508041384,-9.470264434814453,-0.026336219161748886
414,28400.0,1.9291280508041384,-9.470264434814453,-0.026336219161748886
415,28500.0,1.2443863153457642,-9.531915664672852,0.15023615956306458
416,28600.0,1.2443863153457642,-9.531915664672852,0.15023615956306458
417,28700.0,1.0737994909286501,-9.531915664672852,-0.12868833541870114
418,28800.0,1.0737994909286501,-9.531915664672852,-0.12868833541870114
419,28900.0,3.1112651824951167,-9.415796279907227,0.03770867735147476
420,28000.0,1.0157400369644165,-9.433155059814453,-0.14604631066322327
421,28100.0,1.0157400369644165,-9.433155059814453,-0.14604631066322327
422,28200.0,1.5179238319396973,-9.570222854614258,0.4985924959182739
423,28300.0,1.9291280508041384,-9.470264434814453,-0.026336219161748886
424,28400.0,1.9291280508041384,-9.470264434814453,-0.026336219161748886
425,28500.0,1.2443863153457642,-9.531915664672852,0.15023615956306458
426,28600.0,1.2443863153457642,-9.531915664672852,0.15023615956306458
427,28700.0,1.0737994909286501,-9.531915664672852,-0.12868833541870114
428,28800.0,1.0737994909286501,-9.531915664672852,-0.12868833541870114
429,28900.0,3.1112651824951167,-9.415796279907227,0.03770867735147476
430,29000.0,3.1112651824951167,-9.415796279907227,0.03770867735147476
431,29100.0,1.8297686576843264,-9.591172218322754,0.3280056416988373
432,29200.0,1.611896276473999,-9.547477722167967,-0.2190694510936737
433,29300.0,1.611896276473999,-9.547477722167967,-0.2190694510936737
434,29400.0,-0.6865373253822327,-9.570222854614258,-0.005985504016280174
435,29500.0,-0.6865373253822327,-9.570222854614258,-0.005985504016280174
436,29600.0,1.7741034030914309,-9.463082313537598,0.03591302409768105
437,29700.0,1.7741034030914309,-9.463082313537598,0.03591302409768105
438,29800.0,2.5671827793121342,-9.617507934570312,-0.0035913025494664907
439,29900.0,2.5671827793121342,-9.617507934570312,-0.0035913025494664907
440,29000.0,3.1112651824951167,-9.415796279907227,0.03770867735147476
441,29100.0,1.8297686576843264,-9.591172218322754,0.3280056416988373
442,29200.0,1.611896276473999,-9.547477722167967,-0.2190694510936737
443,29300.0,1.611896276473999,-9.547477722167967,-0.2190694510936737
444,29400.0,-0.6865373253822327,-9.570222854614258,-0.005985504016280174
445,29500.0,-0.6865373253822327,-9.570222854614258,-0.005985504016280174
446,29600.0,1.7741034030914309,-9.463082313537598,0.03591302409768105
447,29700.0,1.7741034030914309,-9.463082313537598,0.03591302409768105
448,29800.0,2.5671827793121342,-9.617507934570312,-0.0035913025494664907
449,29900.0,2.5671827793121342,-9.617507934570312,-0.0035913025494664907
450,30000.0,1.2533645629882812,-9.405022621154783,0.014365210197865963
451,30100.0,-0.8254010081291199,-9.623494148254396,-0.4387374520301819
452,30200.0,-0.8254010081291199,-9.623494148254396,-0.4387374520301819
453,30300.0,2.882618904113769,-9.53011989593506,-0.016160860657691956
454,30400.0,2.882618904113769,-9.53011989593506,-0.016160860657691956
455,30500.0,1.877652645111084,-9.493608474731444,-0.07541735470294952
456,30600.0,1.877652645111084,-9.493608474731444,-0.07541735470294952
457,30700.0,0.924760401248932,-9.48762321472168,0.3184288144111633
458,30800.0,0.924760401248932,-9.48762321472168,0.3184288144111633
459,30900.0,0.768538773059845,-9.596558570861816,0.06643909960985184
460,30000.0,1.2533645629882812,-9.405022621154783,0.014365210197865963
461,30100.0,-0.8254010081291199,-9.623494148254396,-0.4387374520301819
462,30200.0,-0.8254010081291199,-9.623494148254396,-0.4387374520301819
463,30300.0,2.882618904113769,-9.53011989593506,-0.016160860657691956
464,30400.0,2.882618904113769,-9.53011989593506,-0.016160860657691956
465,30500.0,1.877652645111084,-9.493608474731444,-0.07541735470294952
466,30600.0,1.877652645111084,-9.493608474731444,-0.07541735470294952
467,30700.0,0.924760401248932,-9.48762321472168,0.3184288144111633
468,30800.0,0.924760401248932,-9.48762321472168,0.3184288144111633
469,30900.0,0.768538773059845,-9.596558570861816,0.06643909960985184
470,31000.0,2.0937294960021973,-9.64803409576416,0.0454898327589035
471,31100.0,2.0937294960021973,-9.64803409576416,0.0454898327589035
472,31200.0,0.405218631029129,-9.438541412353516,0.2561795711517334
473,31300.0,0.405218631029129,-9.438541412353516,0.2561795711517334
474,31400.0,1.0833762884140017,-9.625288963317873,0.14185644686222074
475,31500.0,1.0833762884140017,-9.625288963317873,0.14185644686222074
476,31600.0,2.5995044708251958,-9.5007905960083,-0.3286041915416717
477,31700.0,2.5995044708251958,-9.5007905960083,-0.3286041915416717
478,31800.0,1.380257248878479,-9.63067626953125,0.18136078119277954
479,31900.0,-0.28131869435310364,-9.649829864501953,0.18195933103561399
480,31000.0,2.0937294960021973,-9.64803409576416,0.0454898327589035
481,31100.0,2.0937294960021973,-9.64803409576416,0.0454898327589035
482,31200.0,0.405218631029129,-9.438541412353516,0.2561795711517334
483,31300.0,0.405218631029129,-9.438541412353516,0.2561795711517334
484,31400.0,1.0833762884140017,-9.625288963317873,0.14185644686222074
485,31500.0,1.0833762884140017,-9.625288963317873,0.14185644686222074
486,31600.0,2.5995044708251958,-9.5007905960083,-0.3286041915416717
487,31700.0,2.5995044708251958,-9.5007905960083,-0.3286041915416717
488,31800.0,1.380257248878479,-9.63067626953125,0.18136078119277954
489,31900.0,-0.28131869435310364,-9.649829864501953,0.18195933103561399
490,32000.0,-0.28131869435310364,-9.649829864501953,0.18195933103561399
491,32100.0,2.275688648223877,-9.601945877075195,-0.1651999205350876
492,32200.0,2.275688648223877,-9.601945877075195,-0.1651999205350876
493,32300.0,1.9045875072479248,-9.534908294677734,0.2477998733520508
494,32400.0,1.9045875072479248,-9.534908294677734,0.2477998733520508
495,32500.0,-0.27413609623909,-9.543886184692383,0.09277531504631042
496,32600.0,-0.27413609623909,-9.543886184692383,0.09277531504631042
497,32700.0,2.8592753410339355,-9.366117477416992,-0.396240383386612
498,32800.0,1.68970787525177,-9.634865760803224,0.2495955228805542
499,32900.0,1.68970787525177,-9.634865760803224,0.2495955228805542
500,32000.0,-0.28131869435310364,-9.649829864501953,0.18195933103561399
501,32100.0,2.275688648223877,-9.601945877075195,-0.1651999205350876
502,32200.0,2.275688648223877,-9.601945877075195,-0.1651999205350876
503,32300.0,1.9045875072479248,-9.534908294677734,0.2477998733520508
504,32400.0,1.9045875072479248,-9.534908294677734,0.2477998733520508
505,32500.0,-0.27413609623909,-9.543886184692383,0.09277531504631042
506,32600.0,-0.27413609623909,-9.543886184692383,0.09277531504631042
507,32700.0,2.8592753410339355,-9.366117477416992,-0.396240383386612
508,32800.0,1.68970787525177,-9.634865760803224,0.2495955228805542
509,32900.0,1.68970787525177,-9.634865760803224,0.2495955228805542
510,33000.0,0.27473464608192444,-9.572616577148438,0.2454056739807129
511,33100.0,0.27473464608192444,-9.572616577148438,0.2454056739807129
512,33200.0,0.8870517015457153,-9.61331844329834,-0.14604631066322327
513,33300.0,0.8870517015457153,-9.61331844329834,-0.14604631066322327
514,33400.0,1.3569138050079346,-9.569623947143556,-0.2112883031368256
515,33500.0,1.3569138050079346,-9.569623947143556,-0.2112883031368256
516,33600.0,1.7818846702575684,-9.545083999633787,-0.16579847037792206
517,33700.0,1.6962919235229492,-9.61331844329834,0.28371289372444153
518,33800.0,1.6962919235229492,-9.61331844329834,0.28371289372444153
519,33900.0,0.839766263961792,-9.530718803405762,0.1711854189634323
520,33000.0,0.27473464608192444,-9.572616577148438,0.2454056739807129
521,33100.0,0.27473464608192444,-9.572616577148438,0.2454056739807129
522,33200.0,0.8870517015457153,-9.61331844329834,-0.14604631066322327
523,33300.0,0.8870517015457153,-9.61331844329834,-0.14604631066322327
524,33400.0,1.3569138050079346,-9.569623947143556,-0.2112883031368256
525,33500.0,1.3569138050079346,-9.569623947143556,-0.2112883031368256
526,33600.0,1.7818846702575684,-9.545083999633787,-0.16579847037792206
527,33700.0,1.6962919235229492,-9.61331844329834,0.28371289372444153
528,33800.0,1.6962919235229492,-9.61331844329834,0.28371289372444153
529,33900.0,0.839766263961792,-9.530718803405762,0.1711854189634323
530,34000.0,0.839766263961792,-9.530718803405762,0.1711854189634323
531,34100.0,1.3808557987213137,-9.55825138092041,-0.1430535465478897
532,34200.0,1.3808557987213137,-9.55825138092041,-0.1430535465478897
533,34300.0,1.810615062713623,-9.503783226013184,-0.30705636739730835
534,34400.0,1.810615062713623,-9.503783226013184,-0.30705636739730835
535,34500.0,1.3467384576797483,-9.671976089477539,0.3878606855869293
536,34600.0,1.22642982006073,-9.521739959716797,0.35733461380004883
537,34700.0,1.22642982006073,-9.521739959716797,0.35733461380004883
538,34800.0,1.0875661373138428,-9.512762069702148,-0.12330138683319093
539,34900.0,1.0875661373138428,-9.512762069702148,-0.12330138683319093
540,34000.0,0.839766263961792,-9.530718803405762,0.1711854189634323
541,34100.0,1.3808557987213137,-9.55825138092041,-0.1430535465478897
542,34200.0,1.3808557987213137,-9.55825138092041,-0.1430535465478897
543,34300.0,1.810615062713623,-9.503783226013184,-0.30705636739730835
544,34400.0,1.810615062713623,-9.503783226013184,-0.30705636739730835
545,34500.0,1.3467384576797483,-9.671976089477539,0.3878606855869293
546,34600.0,1.22642982006073,-9.521739959716797,0.35733461380004883
547,34700.0,1.22642982006073,-9.521739959716797,0.35733461380004883
548,34800.0,1.0875661373138428,-9.512762069702148,-0.12330138683319093
549,34900.0,1.0875661373138428,-9.512762069702148,-0.12330138683319093
550,35000.0,1.3605051040649414,-9.550470352172852,-0.21368250250816345
551,35100.0,1.3605051040649414,-9.550470352172852,-0.21368250250816345
552,35200.0,1.6879122257232666,-9.621099472045898,0.2657563984394073
553,35300.0,1.6879122257232666,-9.621099472045898,0.2657563984394073
554,35400.0,0.9917980432510376,-9.53969669342041,0.1711854189634323
555,35500.0,0.5973533391952515,-9.552865028381348,-0.3214215636253357
556,35600.0,0.5973533391952515,-9.552865028381348,-0.3214215636253357
557,35700.0,1.5502456426620483,-9.49839687347412,-0.22385786473751068
558,35800.0,1.5502456426620483,-9.49839687347412,-0.22385786473751068
559,35900.0,1.7244237661361694,-9.476250648498537,-0.4393360018730164
560,35000.0,1.3605051040649414,-9.550470352172852,-0.21368250250816345
561,35100.0,1.3605051040649414,-9.550470352172852,-0.21368250250816345
562,35200.0,1.6879122257232666,-9.621099472045898,0.2657563984394073
563,35300.0,1.6879122257232666,-9.621099472045898,0.2657563984394073
564,35400.0,0.9917980432510376,-9.53969669342041,0.1711854189634323
565,35500.0,0.5973533391952515,-9.552865028381348,-0.3214215636253357
566,35600.0,0.5973533391952515,-9.552865028381348,-0.3214215636253357
567,35700.0,1.5502456426620483,-9.49839687347412,-0.22385786473751068
568,35800.0,1.5502456426620483,-9.49839687347412,-0.22385786473751068
569,35900.0,1.7244237661361694,-9.476250648498537,-0.4393360018730164
570,36000.0,1.7244237661361694,-9.476250648498537,-0.4393360018730164
571,36100.0,1.7304092645645142,-9.695320129394533,0.2124854028224945
572,36200.0,1.7304092645645142,-9.695320129394533,0.2124854028224945
573,36300.0,1.026513934135437,-9.559449195861816,0.23283611238002774
574,36400.0,0.761954665184021,-9.544485092163086,0.19572599232196808
575,36500.0,0.761954665184021,-9.544485092163086,0.19572599232196808
576,36600.0,1.1635819673538208,-9.5408935546875,-0.18734627962112427
577,36700.0,1.1635819673538208,-9.5408935546875,-0.18734627962112427
578,36800.0,1.911171555519104,-9.631275177001953,-0.17717093229293826
579,36900.0,1.911171555519104,-9.631275177001953,-0.17717093229293826
580,36000.0,1.7244237661361694,-9.476250648498537,-0.4393360018730164
581,36100.0,1.7304092645645142,-9.695320129394533,0.2124854028224945
582,36200.0,1.7304092645645142,-9.695320129394533,0.2124854028224945
583,36300.0,1.026513934135437,-9.559449195861816,0.23283611238002774
584,36400.0,0.761954665184021,-9.544485092163086,0.19572599232196808
585,36500.0,0.761954665184021,-9.544485092163086,0.19572599232196808
586,36600.0,1.1635819673538208,-9.5408935546875,-0.18734627962112427
587,36700.0,1.1635819673538208,-9.5408935546875,-0.18734627962112427
588,36800.0,1.911171555519104,-9.631275177001953,-0.17717093229293826
589,36900.0,1.911171555519104,-9.631275177001953,-0.17717093229293826
590,37000.0,1.6268600225448608,-9.55166721343994,0.1885433793067932
591,37100.0,1.6268600225448608,-9.55166721343994,0.1885433793067932
592,37200.0,0.8475474119186401,-9.389460563659668,-0.15562310814857486
593,37300.0,1.1420341730117798,-9.485827445983887,-0.12270283699035645
594,37400.0,1.1420341730117798,-9.485827445983887,-0.12270283699035645
595,37500.0,1.811812162399292,-9.588777542114258,-0.15801730751991272
596,37600.0,1.811812162399292,-9.588777542114258,-0.15801730751991272
597,37700.0,1.7495628595352173,-9.552865028381348,0.09097966551780699
598,37800.0,1.7495628595352173,-9.552865028381348,0.09097966551780699
599,37900.0,1.3958195447921753,-9.493009567260742,0.0975637212395668
600,37000.0,1.6268600225448608,-9.55166721343994,0.1885433793067932
601,37100.0,1.6268600225448608,-9.55166721343994,0.1885433793067932
602,37200.0,0.8475474119186401,-9.389460563659668,-0.15562310814857486
603,37300.0,1.1420341730117798,-9.485827445983887,-0.12270283699035645
604,37400.0,1.1420341730117798,-9.485827445983887,-0.12270283699035645
605,37500.0,1.811812162399292,-9.588777542114258,-0.15801730751991272
606,37600.0,1.811812162399292,-9.588777542114258,-0.15801730751991272
607,37700.0,1.7495628595352173,-9.552865028381348,0.09097966551780699
608,37800.0,1.7495628595352173,-9.552865028381348,0.09097966551780699
609,37900.0,1.3958195447921753,-9.493009567260742,0.0975637212395668
610,38000.0,1.3958195447921753,-9.493009567260742,0.0975637212395668
611,38100.0,1.4311341047286987,-9.41100788116455,-0.17178396880626678
612,38200.0,1.5963339805603027,-9.484031677246094,-0.3250128924846649
613,38300.0,1.5963339805603027,-9.484031677246094,-0.3250128924846649
614,38400.0,1.5125368833541868,-9.636661529541016,0.16639702022075653
615,38500.0,1.5125368833541868,-9.636661529541016,0.16639702022075653
616,38600.0,1.1941081285476685,-9.55585765838623,-0.2017114907503128
617,38700.0,1.1941081285476685,-9.55585765838623,-0.2017114907503128
618,38800.0,1.4640543460845947,-9.512163162231444,0.2890998423099518
619,38900.0,1.4640543460845947,-9.512163162231444,0.2890998423099518
620,38000.0,1.3958195447921753,-9.493009567260742,0.0975637212395668
621,38100.0,1.4311341047286987,-9.41100788116455,-0.17178396880626678
622,38200.0,1.5963339805603027,-9.484031677246094,-0.3250128924846649
623,38300.0,1.5963339805603027,-9.484031677246094,-0.3250128924846649
624,38400.0,1.5125368833541868,-9.636661529541016,0.16639702022075653
625,38500.0,1.5125368833541868,-9.636661529541016,0.16639702022075653
626,38600.0,1.1941081285476685,-9.55585765838623,-0.2017114907503128
627,38700.0,1.1941081285476685,-9.55585765838623,-0.2017114907503128
628,38800.0,1.4640543460845947,-9.512163162231444,0.2890998423099518
629,38900.0,1.4640543460845947,-9.512163162231444,0.2890998423099518
630,39000.0,1.0809820890426636,-9.510367393493652,0.10474632680416107
631,39100.0,1.4431051015853882,-9.679757118225098,0.2178723514080048
632,39200.0,1.4431051015853882,-9.679757118225098,0.2178723514080048
633,39300.0,1.9829975366592407,-9.531316757202148,0.12090718746185306
634,39400.0,1.9829975366592407,-9.531316757202148,0.12090718746185306
635,39500.0,-0.2579752206802368,-9.777320861816406,0.5530605912208557
636,39600.0,-0.2579752206802368,-9.777320861816406,0.5530605912208557
637,39700.0,1.953668594360352,-9.534908294677734,0.4716577231884002
638,39800.0,1.953668594360352,-9.534908294677734,0.4716577231884002
639,39900.0,1.2629413604736328,-9.549872398376463,0.1999158412218094
640,39000.0,1.0809820890426636,-9.510367393493652,0.10474632680416107
641,39100.0,1.4431051015853882,-9.679757118225098,0.2178723514080048
642,39200.0,1.4431051015853882,-9.679757118225098,0.2178723514080048
643,39300.0,1.9829975366592407,-9.531316757202148,0.12090718746185306
644,39400.0,1.9829975366592407,-9.531316757202148,0.12090718746185306
645,39500.0,-0.2579752206802368,-9.777320861816406,0.5530605912208557
646,39600.0,-0.2579752206802368,-9.777320861816406,0.5530605912208557
647,39700.0,1.953668594360352,-9.534908294677734,0.4716577231884002
648,39800.0,1.953668594360352,-9.534908294677734,0.4716577231884002
649,39900.0,1.2629413604736328,-9.549872398376463,0.1999158412218094
650,40000.0,1.5837644338607788,-9.564237594604492,-0.07721300423145294
651,40100.0,1.5837644338607788,-9.564237594604492,-0.07721300423145294
652,40200.0,1.170764684677124,-9.581595420837402,0.17238251864910126
653,40300.0,1.170764684677124,-9.581595420837402,0.17238251864910126
654,40400.0,1.5897499322891235,-9.408614158630373,-0.4938040971755981
655,40500.0,1.5897499322891235,-9.408614158630373,-0.4938040971755981
656,40600.0,1.104325532913208,-9.583391189575195,-0.3118447661399841
657,40700.0,1.104325532913208,-9.583391189575195,-0.3118447661399841
658,40800.0,1.4981716871261597,-9.44991397857666,0.03770867735147476
659,40900.0,0.690727174282074,-9.623494148254396,-0.023942016065120697
660,40000.0,1.5837644338607788,-9.564237594604492,-0.07721300423145294
661,40100.0,1.5837644338607788,-9.564237594604492,-0.07721300423145294
662,40200.0,1.170764684677124,-9.581595420837402,0.17238251864910126
663,40300.0,1.170764684677124,-9.581595420837402,0.17238251864910126
664,40400.0,1.5897499322891235,-9.408614158630373,-0.4938040971755981
665,40500.0,1.5897499322891235,-9.408614158630373,-0.4938040971755981
666,40600.0,1.104325532913208,-9.583391189575195,-0.3118447661399841
667,40700.0,1.104325532913208,-9.583391189575195,-0.3118447661399841
668,40800.0,1.4981716871261597,-9.44991397857666,0.03770867735147476
669,40900.0,0.690727174282074,-9.623494148254396,-0.023942016065120697
670,41000.0,0.690727174282074,-9.623494148254396,-0.023942016065120697
671,41100.0,2.48757553100586,-9.537900924682617,0.08499415963888167
672,41200.0,2.48757553100586,-9.537900924682617,0.08499415963888167
673,41300.0,1.0905588865280151,-9.516353607177734,-0.026336219161748886
674,41400.0,1.0905588865280151,-9.516353607177734,-0.026336219161748886
675,41500.0,1.0534487962722778,-9.646238327026367,0.023343466222286224
676,41600.0,1.0534487962722778,-9.646238327026367,0.023343466222286224
677,41700.0,1.5280991792678833,-9.68274974822998,0.14604631066322327
678,41800.0,1.1857284307479858,-9.516353607177734,0.09696517139673233
679,41900.0,1.1857284307479858,-9.516353607177734,0.09696517139673233
680,41000.0,0.690727174282074,-9.623494148254396,-0.023942016065120697
681,41100.0,2.48757553100586,-9.537900924682617,0.08499415963888167
682,41200.0,2.48757553100586,-9.537900924682617,0.08499415963888167
683,41300.0,1.0905588865280151,-9.516353607177734,-0.026336219161748886
684,41400.0,1.0905588865280151,-9.516353607177734,-0.026336219161748886
685,41500.0,1.0534487962722778,-9.646238327026367,0.023343466222286224
686,41600.0,1.0534487962722778,-9.646238327026367,0.023343466222286224
687,41700.0,1.5280991792678833,-9.68274974822998,0.14604631066322327
688,41800.0,1.1857284307479858,-9.516353607177734,0.09696517139673233
689,41900.0,1.1857284307479858,-9.516353607177734,0.09696517139673233
690,42000.0,1.5580267906188965,-9.636063575744627,0.023942016065120697
691,42100.0,1.5580267906188965,-9.636063575744627,0.023942016065120697
692,42200.0,0.4040215313434601,-9.704896926879883,0.3369838893413544
693,42300.0,0.4040215313434601,-9.704896926879883,0.3369838893413544
694,42400.0,0.15741875767707825,-9.570821762084961,-0.4028244316577912
695,42500.0,0.15741875767707825,-9.570821762084961,-0.4028244316577912
696,42600.0,3.139995574951172,-9.540295600891113,-0.6985083222389221
697,42700.0,2.1164743900299072,-9.577404975891113,-0.5668272376060486
698,42800.0,2.1164743900299072,-9.577404975891113,-0.5668272376060486
699,42900.0,-0.3130418658256531,-9.670180320739746,0.2501940727233887
700,42000.0,1.5580267906188965,-9.636063575744627,0.023942016065120697
701,42100.0,1.5580267906188965,-9.636063575744627,0.023942016065120697
702,42200.0,0.4040215313434601,-9.704896926879883,0.3369838893413544
703,42300.0,0.4040215313434601,-9.704896926879883,0.3369838893413544
704,42400.0,0.15741875767707825,-9.570821762084961,-0.4028244316577912
705,42500.0,0.15741875767707825,-9.570821762084961,-0.4028244316577912
706,42600.0,3.139995574951172,-9.540295600891113,-0.6985083222389221
707,42700.0,2.1164743900299072,-9.577404975891113,-0.5668272376060486
708,42800.0,2.1164743900299072,-9.577404975891113,-0.5668272376060486
709,42900.0,-0.3130418658256531,-9.670180320739746,0.2501940727233887
710,43000.0,-0.3130418658256531,-9.670180320739746,0.2501940727233887
711,43100.0,0.044292733073234565,-9.49121379852295,-0.6416460275650024
712,43200.0,0.044292733073234565,-9.49121379852295,-0.6416460275650024
713,43300.0,2.652775526046753,-9.533711433410645,-0.4501099288463593
714,43400.0,2.652775526046753,-9.533711433410645,-0.4501099288463593
715,43500.0,2.5546131134033203,-9.587580680847168,-0.2322375625371933
716,43600.0,0.15442600846290588,-9.66958236694336,0.4644751250743866
717,43700.0,0.15442600846290588,-9.66958236694336,0.4644751250743866
718,43800.0,0.15143325924873352,-9.588777542114258,0.0957680642604828
719,43900.0,0.15143325924873352,-9.588777542114258,0.0957680642604828
720,43000.0,-0.3130418658256531,-9.670180320739746,0.2501940727233887
721,43100.0,0.044292733073234565,-9.49121379852295,-0.6416460275650024
722,43200.0,0.044292733073234565,-9.49121379852295,-0.6416460275650024
723,43300.0,2.652775526046753,-9.533711433410645,-0.4501099288463593
724,43400.0,2.652775526046753,-9.533711433410645,-0.4501099288463593
725,43500.0,2.5546131134033203,-9.587580680847168,-0.2322375625371933
726,43600.0,0.15442600846290588,-9.66958236694336,0.4644751250743866
727,43700.0,0.15442600846290588,-9.66958236694336,0.4644751250743866
728,43800.0,0.15143325924873352,-9.588777542114258,0.0957680642604828
729,43900.0,0.15143325924873352,-9.588777542114258,0.0957680642604828
730,44000.0,1.1797429323196411,-9.493608474731444,-0.4495113790035248
731,44100.0,1.1797429323196411,-9.493608474731444,-0.4495113790035248
732,44200.0,1.7729063034057615,-9.55166721343994,-0.517746090888977
733,44300.0,1.7729063034057615,-9.55166721343994,-0.517746090888977
734,44400.0,1.6944962739944458,-9.497797966003418,0.047884032130241394
735,44500.0,0.8086416125297546,-9.478046417236328,0.10594342648983003
736,44600.0,0.8086416125297546,-9.478046417236328,0.10594342648983003
737,44700.0,1.2306196689605713,-9.459490776062012,-0.5895721912384033
738,44800.0,1.2306196689605713,-9.459490776062012,-0.5895721912384033
739,44900.0,1.8656816482543943,-9.46487808227539,-0.4596867263317108
740,44000.0,1.1797429323196411,-9.493608474731444,-0.4495113790035248
741,44100.0,1.1797429323196411,-9.493608474731444,-0.4495113790035248
742,44200.0,1.7729063034057615,-9.55166721343994,-0.517746090888977
743,44300.0,1.7729063034057615,-9.55166721343994,-0.517746090888977
744,44400.0,1.6944962739944458,-9.497797966003418,0.047884032130241394
745,44500.0,0.8086416125297546,-9.478046417236328,0.10594342648983003
746,44600.0,0.8086416125297546,-9.478046417236328,0.10594342648983003
747,44700.0,1.2306196689605713,-9.459490776062012,-0.5895721912384033
748,44800.0,1.2306196689605713,-9.459490776062012,-0.5895721912384033
749,44900.0,1.8656816482543943,-9.46487808227539,-0.4596867263317108
750,45000.0,1.8656816482543943,-9.46487808227539,-0.4596867263317108
751,45100.0,1.4879963397979736,-9.581595420837402,0.2148796021938324
752,45200.0,1.4879963397979736,-9.581595420837402,0.2148796021938324
753,45300.0,1.048660397529602,-9.619902610778807,0.2717418968677521
754,45400.0,1.048660397529602,-9.619902610778807,0.2717418968677521
755,45500.0,0.884058952331543,-9.57979965209961,-0.2382230758666992
756,45600.0,1.6095020771026611,-9.52473258972168,-0.3519476354122162
757,45700.0,1.6095020771026611,-9.52473258972168,-0.3519476354122162
758,45800.0,1.58795428276062,-9.496601104736328,-0.03770867735147476
759,45900.0,1.58795428276062,-9.496601104736328,-0.03770867735147476
760,45000.0,1.8656816482543943,-9.46487808227539,-0.4596867263317108
761,45100.0,1.4879963397979736,-9.581595420837402,0.2148796021938324
762,45200.0,1.4879963397979736,-9.581595420837402,0.2148796021938324
763,45300.0,1.048660397529602,-9.619902610778807,0.2717418968677521
764,45400.0,1.048660397529602,-9.619902610778807,0.2717418968677521
765,45500.0,0.884058952331543,-9.57979965209961,-0.2382230758666992
766,45600.0,1.6095020771026611,-9.52473258972168,-0.3519476354122162
767,45700.0,1.6095020771026611,-9.52473258972168,-0.3519476354122162
768,45800.0,1.58795428276062,-9.496601104736328,-0.03770867735147476
769,45900.0,1.58795428276062,-9.496601104736328,-0.03770867735147476
770,46000.0,1.9375077486038208,-9.560047149658203,-0.2340332120656967
771,46100.0,1.9375077486038208,-9.560047149658203,-0.2340332120656967
772,46200.0,0.67815762758255,-9.738415718078613,0.3603273630142212
773,46300.0,0.67815762758255,-9.738415718078613,0.3603273630142212
774,46400.0,1.069011092185974,-9.636661529541016,-0.02513911761343479
775,46500.0,1.207874774932861,-9.434351921081543,-0.6272808313369751
776,46600.0,1.207874774932861,-9.434351921081543,-0.6272808313369751
777,46700.0,1.6992846727371216,-9.620500564575195,0.06404489278793335
778,46800.0,1.6992846727371216,-9.620500564575195,0.06404489278793335
779,46900.0,1.399410843849182,-9.634267807006836,0.19033902883529666
780,46000.0,1.9375077486038208,-9.560047149658203,-0.2340332120656967
781,46100.0,1.9375077486038208,-9.560047149658203,-0.2340332120656967
782,46200.0,0.67815762758255,-9.738415718078613,0.3603273630142212
783,46300.0,0.67815762758255,-9.738415718078613,0.3603273630142212
784,46400.0,1.069011092185974,-9.636661529541016,-0.02513911761343479
785,46500.0,1.207874774932861,-9.434351921081543,-0.6272808313369751
786,46600.0,1.207874774932861,-9.434351921081543,-0.6272808313369751
787,46700.0,1.6992846727371216,-9.620500564575195,0.06404489278793335
788,46800.0,1.6992846727371216,-9.620500564575195,0.06404489278793335
789,46900.0,1.399410843849182,-9.634267807006836,0.19033902883529666
790,47000.0,1.399410843849182,-9.634267807006836,0.19033902883529666
791,47100.0,1.2653355598449707,-9.643245697021484,0.05327098816633225
792,47200.0,1.2653355598449707,-9.643245697021484,0.05327098816633225
793,47300.0,0.9056068062782288,-9.578003883361816,-0.3148375153541565
794,47400.0,1.490989089012146,-9.582792282104492,-0.009576806798577309
795,47500.0,1.490989089012146,-9.582792282104492,-0.009576806798577309
796,47600.0,1.4371196031570437,-9.588179588317873,0.16101007163524628
797,47700.0,1.4371196031570437,-9.588179588317873,0.16101007163524628
798,47800.0,1.4024035930633545,-9.589376449584961,-0.08140286058187485
799,47900.0,1.4024035930633545,-9.589376449584961,-0.08140286058187485
800,47000.0,1.399410843849182,-9.634267807006836,0.19033902883529666
801,47100.0,1.2653355598449707,-9.643245697021484,0.05327098816633225
802,47200.0,1.2653355598449707,-9.643245697021484,0.05327098816633225
803,47300.0,0.9056068062782288,-9.578003883361816,-0.3148375153541565
804,47400.0,1.490989089012146,-9.582792282104492,-0.009576806798577309
805,47500.0,1.490989089012146,-9.582792282104492,-0.009576806798577309
806,47600.0,1.4371196031570437,-9.588179588317873,0.16101007163524628
807,47700.0,1.4371196031570437,-9.588179588317873,0.16101007163524628
808,47800.0,1.4024035930633545,-9.589376449584961,-0.08140286058187485
809,47900.0,1.4024035930633545,-9.589376449584961,-0.08140286058187485
810,48000.0,1.6921020746231081,-9.55705451965332,-0.5051765441894531
811,48100.0,1.2521674633026123,-9.47146224975586,-0.3345896899700165
812,48200.0,1.2521674633026123,-9.47146224975586,-0.3345896899700165
813,48300.0,0.4818331003189087,-9.741408348083496,-0.2112883031368256
814,48400.0,0.4818331003189087,-9.741408348083496,-0.2112883031368256
815,48500.0,2.5073277950286865,-9.53969669342041,-0.5015852451324463
816,48600.0,2.5073277950286865,-9.53969669342041,-0.5015852451324463
817,48700.0,1.4006079435348509,-9.478644371032717,-0.3938461840152741
818,48800.0,1.4006079435348509,-9.478644371032717,-0.3938461840152741
819,48900.0,0.1867477297782898,-9.651625633239746,-0.18136078119277954
820,48000.0,1.6921020746231081,-9.55705451965332,-0.5051765441894531
821,48100.0,1.2521674633026123,-9.47146224975586,-0.3345896899700165
822,48200.0,1.2521674633026123,-9.47146224975586,-0.3345896899700165
823,48300.0,0.4818331003189087,-9.741408348083496,-0.2112883031368256
824,48400.0,0.4818331003189087,-9.741408348083496,-0.2112883031368256
825,48500.0,2.5073277950286865,-9.53969669342041,-0.5015852451324463
826,48600.0,2.5073277950286865,-9.53969669342041,-0.5015852451324463
827,48700.0,1.4006079435348509,-9.478644371032717,-0.3938461840152741
828,48800.0,1.4006079435348509,-9.478644371032717,-0.3938461840152741
829,48900.0,0.1867477297782898,-9.651625633239746,-0.18136078119277954
830,49000.0,1.8920178413391116,-9.583391189575195,-0.08499415963888167
831,49100.0,1.8920178413391116,-9.583391189575195,-0.08499415963888167
832,49200.0,1.7232266664505005,-9.622895240783693,-0.3645172119140625
833,49300.0,1.7232266664505005,-9.622895240783693,-0.3645172119140625
834,49400.0,0.44532153010368347,-9.539097785949707,0.21308395266532895
835,49500.0,0.44532153010368347,-9.539097785949707,0.21308395266532895
836,49600.0,1.1007342338562012,-9.633070945739746,-0.2753331959247589
837,49700.0,1.1007342338562012,-9.633070945739746,-0.2753331959247589
838,49800.0,2.3744494915008545,-9.503783226013184,-0.646434485912323
839,49900.0,2.3744494915008545,-9.503783226013184,-0.646434485912323
840,49000.0,1.8920178413391116,-9.583391189575195,-0.08499415963888167
841,49100.0,1.8920178413391116,-9.583391189575195,-0.08499415963888167
842,49200.0,1.7232266664505005,-9.622895240783693,-0.3645172119140625
843,49300.0,1.7232266664505005,-9.622895240783693,-0.3645172119140625
844,49400.0,0.44532153010368347,-9.539097785949707,0.21308395266532895
845,49500.0,0.44532153010368347,-9.539097785949707,0.21308395266532895
846,49600.0,1.1007342338562012,-9.633070945739746,-0.2753331959247589
847,49700.0,1.1007342338562012,-9.633070945739746,-0.2753331959247589
848,49800.0,2.3744494915008545,-9.503783226013184,-0.646434485912323
849,49900.0,2.3744494915008545,-9.503783226013184,-0.646434485912323
850,50000.0,1.4760253429412842,-9.478644371032717,-0.3770867586135864
851,50100.0,-0.08319851011037828,-9.569623947143556,-0.2783259451389313
852,50200.0,-0.08319851011037828,-9.569623947143556,-0.2783259451389313
853,50300.0,1.8740613460540767,-9.359533309936523,-0.7380126714706421
854,50400.0,1.8740613460540767,-9.359533309936523,-0.7380126714706421
855,50500.0,1.8968062400817869,-9.604340553283693,-0.06464344263076782
856,50600.0,1.8968062400817869,-9.604340553283693,-0.06464344263076782
857,50700.0,1.2395979166030884,-9.497797966003418,0.005985504016280174
858,50800.0,1.2395979166030884,-9.497797966003418,0.005985504016280174
859,50900.0,0.8254010081291199,-9.652822494506836,-0.04010287672281265
860,50000.0,1.4760253429412842,-9.478644371032717,-0.3770867586135864
861,50100.0,-0.08319851011037828,-9.569623947143556,-0.2783259451389313
862,50200.0,-0.08319851011037828,-9.569623947143556,-0.2783259451389313
863,50300.0,1.8740613460540767,-9.359533309936523,-0.7380126714706421
864,50400.0,1.8740613460540767,-9.359533309936523,-0.7380126714706421
865,50500.0,1.8968062400817869,-9.604340553283693,-0.06464344263076782
866,50600.0,1.8968062400817869,-9.604340553283693,-0.06464344263076782
867,50700.0,1.2395979166030884,-9.497797966003418,0.005985504016280174
868,50800.0,1.2395979166030884,-9.497797966003418,0.005985504016280174
869,50900.0,0.8254010081291199,-9.652822494506836,-0.04010287672281265
870,51000.0,1.2964602708816528,-9.588777542114258,-0.11432313174009325
871,51100.0,1.2964602708816528,-9.588777542114258,-0.11432313174009325
872,51200.0,1.6639702320098877,-9.695320129394533,-0.44412440061569214
873,51300.0,1.6639702320098877,-9.695320129394533,-0.44412440061569214
874,51400.0,1.3467384576797483,-9.541492462158203,-0.10354922711849213
875,51500.0,1.3467384576797483,-9.541492462158203,-0.10354922711849213
876,51600.0,-0.10235211998224257,-9.742605209350586,-0.07781155407428741
877,51700.0,-0.10235211998224257,-9.742605209350586,-0.07781155407428741
878,51800.0,2.626439332962036,-9.497797966003418,0.3902548849582672
879,51900.0,2.0620062351226807,-9.68574333190918,-0.21188685297966006
880,51000.0,1.2964602708816528,-9.588777542114258,-0.11432313174009325
881,51100.0,1.2964602708816528,-9.588777542114258,-0.11432313174009325
882,51200.0,1.6639702320098877,-9.695320129394533,-0.44412440061569214
883,51300.0,1.6639702320098877,-9.695320129394533,-0.44412440061569214
884,51400.0,1.3467384576797483,-9.541492462158203,-0.10354922711849213
885,51500.0,1.3467384576797483,-9.541492462158203,-0.10354922711849213
886,51600.0,-0.10235211998224257,-9.742605209350586,-0.07781155407428741
887,51700.0,-0.10235211998224257,-9.742605209350586,-0.07781155407428741
888,51800.0,2.626439332962036,-9.497797966003418,0.3902548849582672
889,51900.0,2.0620062351226807,-9.68574333190918,-0.21188685297966006
890,52000.0,2.0620062351226807,-9.68574333190918,-0.21188685297966006
891,52100.0,0.9732429981231691,-9.436745643615724,-0.26336219906806946
892,52200.0,0.9732429981231691,-9.436745643615724,-0.26336219906806946
893,52300.0,0.7164648771286011,-9.615114212036133,-0.30047231912612915
894,52400.0,0.7164648771286011,-9.615114212036133,-0.30047231912612915
895,52500.0,2.236783027648926,-9.311050415039064,-0.467467874288559
896,52600.0,2.236783027648926,-9.311050415039064,-0.467467874288559
897,52700.0,1.7262194156646729,-9.512163162231444,-0.3609259128570557
898,52800.0,1.3694833517074585,-9.507973670959473,-0.12030863761901855
899,52900.0,1.3694833517074585,-9.507973670959473,-0.12030863761901855
900,52000.0,2.0620062351226807,-9.68574333190918,-0.21188685297966006
901,52100.0,0.9732429981231691,-9.436745643615724,-0.26336219906806946
902,52200.0,0.9732429981231691,-9.436745643615724,-0.26336219906806946
903,52300.0,0.7164648771286011,-9.615114212036133,-0.30047231912612915
904,52400.0,0.7164648771286011,-9.615114212036133,-0.30047231912612915
905,52500.0,2.236783027648926,-9.311050415039064,-0.467467874288559
906,52600.0,2.236783027648926,-9.311050415039064,-0.467467874288559
907,52700.0,1.7262194156646729,-9.512163162231444,-0.3609259128570557
908,52800.0,1.3694833517074585,-9.507973670959473,-0.12030863761901855
909,52900.0,1.3694833517074585,-9.507973670959473,-0.12030863761901855
910,53000.0,0.7858967185020447,-9.443329811096193,-0.5464765429496765
911,53100.0,0.7858967185020447,-9.443329811096193,-0.5464765429496765
912,53200.0,2.0183119773864746,-9.43135929107666,-0.7164648771286011
913,53300.0,2.0183119773864746,-9.43135929107666,-0.7164648771286011
914,53400.0,2.437297344207764,-9.604938507080078,0.06763619929552077
915,53500.0,2.437297344207764,-9.604938507080078,0.06763619929552077
916,53600.0,0.6667851805686951,-9.520543098449707,0.2980781197547913
917,53700.0,1.2455834150314329,-9.542689323425293,-0.5530605912208557
918,53800.0,1.2455834150314329,-9.542689323425293,-0.5530605912208557
919,53900.0,2.342726469039917,-9.48882007598877,-0.021547814831137657
920,53000.0,0.7858967185020447,-9.443329811096193,-0.5464765429496765
921,53100.0,0.7858967185020447,-9.443329811096193,-0.5464765429496765
922,53200.0,2.0183119773864746,-9.43135929107666,-0.7164648771286011
923,53300.0,2.0183119773864746,-9.43135929107666,-0.7164648771286011
924,53400.0,2.437297344207764,-9.604938507080078,0.06763619929552077
925,53500.0,2.437297344207764,-9.604938507080078,0.06763619929552077
926,53600.0,0.6667851805686951,-9.520543098449707,0.2980781197547913
927,53700.0,1.2455834150314329,-9.542689323425293,-0.5530605912208557
928,53800.0,1.2455834150314329,-9.542689323425293,-0.5530605912208557
929,53900.0,2.342726469039917,-9.48882007598877,-0.021547814831137657
930,54000.0,2.342726469039917,-9.48882007598877,-0.021547814831137657
931,54100.0,1.27191960811615,-9.457097053527832,-0.07422025501728058
932,54200.0,1.27191960811615,-9.457097053527832,-0.07422025501728058
933,54300.0,0.7793126702308655,-9.677961349487305,0.05267243832349777
934,54400.0,0.7793126702308655,-9.677961349487305,0.05267243832349777
935,54500.0,1.620874524116516,-9.476250648498537,-0.6326677799224854
936,54600.0,1.7387889623641968,-9.598953247070312,-0.2370259612798691
937,54700.0,1.7387889623641968,-9.598953247070312,-0.2370259612798691
938,54800.0,1.4604630470275881,-9.524134635925293,-0.20530278980731964
939,54900.0,1.4604630470275881,-9.524134635925293,-0.20530278980731964
940,54000.0,2.342726469039917,-9.48882007598877,-0.021547814831137657
941,54100.0,1.27191960811615,-9.457097053527832,-0.07422025501728058
942,54200.0,1.27191960811615,-9.457097053527832,-0.07422025501728058
943,54300.0,0.7793126702308655,-9.677961349487305,0.05267243832349777
944,54400.0,0.7793126702308655,-9.677961349487305,0.05267243832349777
945,54500.0,1.620874524116516,-9.476250648498537,-0.6326677799224854
946,54600.0,1.7387889623641968,-9.598953247070312,-0.2370259612798691
947,54700.0,1.7387889623641968,-9.598953247070312,-0.2370259612798691
948,54800.0,1.4604630470275881,-9.524134635925293,-0.20530278980731964
949,54900.0,1.4604630470275881,-9.524134635925293,-0.20530278980731964
950,55000.0,1.4981716871261597,-9.541492462158203,-0.2825157940387726
951,55100.0,1.4981716871261597,-9.541492462158203,-0.2825157940387726
952,55200.0,1.3527239561080933,-9.546878814697266,-0.32261869311332697
953,55300.0,1.3527239561080933,-9.546878814697266,-0.32261869311332697
954,55400.0,1.6065093278884888,-9.396642684936523,-0.4525041282176971
955,55500.0,1.3299790620803833,-9.528324127197266,-0.517746090888977
956,55600.0,1.3299790620803833,-9.528324127197266,-0.517746090888977
957,55700.0,1.48081374168396,-9.453505516052246,-0.28371289372444153
958,55800.0,1.48081374168396,-9.453505516052246,-0.28371289372444153
959,55900.0,1.105522632598877,-9.611522674560547,-0.2382230758666992
960,55000.0,1.4981716871261597,-9.541492462158203,-0.2825157940387726
961,55100.0,1.4981716871261597,-9.541492462158203,-0.2825157940387726
962,55200.0,1.3527239561080933,-9.546878814697266,-0.32261869311332697
963,55300.0,1.3527239561080933,-9.546878814697266,-0.32261869311332697
964,55400.0,1.6065093278884888,-9.396642684936523,-0.4525041282176971
965,55500.0,1.3299790620803833,-9.528324127197266,-0.517746090888977
966,55600.0,1.3299790620803833,-9.528324127197266,-0.517746090888977
967,55700.0,1.48081374168396,-9.453505516052246,-0.28371289372444153
968,55800.0,1.48081374168396,-9.453505516052246,-0.28371289372444153
969,55900.0,1.105522632598877,-9.611522674560547,-0.2382230758666992
970,56000.0,1.105522632598877,-9.611522674560547,-0.2382230758666992
971,56100.0,1.4036006927490234,-9.43914031982422,-0.547075092792511
972,56200.0,1.4036006927490234,-9.43914031982422,-0.547075092792511
973,56300.0,1.4520833492279053,-9.474454879760742,-0.22086510062217712
974,56400.0,1.741183161735535,-9.540295600891113,-0.20889410376548767
975,56500.0,1.741183161735535,-9.540295600891113,-0.20889410376548767
976,56600.0,1.0743980407714844,-9.589975357055664,-0.10773907601833344
977,56700.0,1.0743980407714844,-9.589975357055664,-0.10773907601833344
978,56800.0,1.7357962131500244,-9.5007905960083,-0.27054479718208313
979,56900.0,1.7357962131500244,-9.5007905960083,-0.27054479718208313
980,56000.0,1.105522632598877,-9.611522674560547,-0.2382230758666992
981,56100.0,1.4036006927490234,-9.43914031982422,-0.547075092792511
982,56200.0,1.4036006927490234,-9.43914031982422,-0.547075092792511
983,56300.0,1.4520833492279053,-9.474454879760742,-0.22086510062217712
984,56400.0,1.741183161735535,-9.540295600891113,-0.20889410376548767
985,56500.0,1.741183161735535,-9.540295600891113,-0.20889410376548767
986,56600.0,1.0743980407714844,-9.589975357055664,-0.10773907601833344
987,56700.0,1.0743980407714844,-9.589975357055664,-0.10773907601833344
988,56800.0,1.7357962131500244,-9.5007905960083,-0.27054479718208313
989,56900.0,1.7357962131500244,-9.5007905960083,-0.27054479718208313
990,57000.0,2.2613234519958496,-9.386467933654783,-0.3429693877696991
991,57100.0,2.2613234519958496,-9.386467933654783,-0.3429693877696991
992,57200.0,1.590348482131958,-9.52473258972168,-0.10773907601833344
993,57300.0,1.8255788087844849,-9.48762321472168,-0.2585737705230713
994,57400.0,1.8255788087844849,-9.48762321472168,-0.2585737705230713
995,57500.0,-0.7314286231994629,-9.550470352172852,-0.09696517139673233
996,57600.0,-0.7314286231994629,-9.550470352172852,-0.09696517139673233
997,57700.0,3.5266590118408203,-9.317035675048828,-0.5596446394920349
998,57800.0,3.5266590118408203,-9.317035675048828,-0.5596446394920349
999,57900.0,1.61069917678833,-9.46607494354248,-0.152031809091568
1000,57000.0,2.2613234519958496,-9.386467933654783,-0.3429693877696991
1001,57100.0,2.2613234519958496,-9.386467933654783,-0.3429693877696991
1002,57200.0,1.590348482131958,-9.52473258972168,-0.10773907601833344
1003,57300.0,1.8255788087844849,-9.48762321472168,-0.2585737705230713
1004,57400.0,1.8255788087844849,-9.48762321472168,-0.2585737705230713
1005,57500.0,-0.7314286231994629,-9.550470352172852,-0.09696517139673233
1006,57600.0,-0.7314286231994629,-9.550470352172852,-0.09696517139673233
1007,57700.0,3.5266590118408203,-9.317035675048828,-0.5596446394920349
1008,57800.0,3.5266590118408203,-9.317035675048828,-0.5596446394920349
1009,57900.0,1.61069917678833,-9.46607494354248,-0.152031809091568
1010,58000.0,1.61069917678833,-9.46607494354248,-0.152031809091568
1011,58100.0,-0.882861852645874,-9.619303703308104,-0.262763649225235
1012,58200.0,3.714603900909424,-9.242815971374512,-0.6937199234962463
1013,58300.0,3.714603900909424,-9.242815971374512,-0.6937199234962463
1014,58400.0,1.7549498081207275,-9.49121379852295,-0.3435679376125336
1015,58500.0,1.7549498081207275,-9.49121379852295,-0.3435679376125336
1016,58600.0,0.6278793811798096,-9.553462982177734,0.07900865375995636
1017,58700.0,0.6278793811798096,-9.553462982177734,0.07900865375995636
1018,58800.0,1.4538789987564087,-9.595361709594727,0.07422025501728058
1019,58900.0,1.4538789987564087,-9.595361709594727,0.07422025501728058
1020,58000.0,1.61069917678833,-9.46607494354248,-0.152031809091568
1021,58100.0,-0.882861852645874,-9.619303703308104,-0.262763649225235
1022,58200.0,3.714603900909424,-9.242815971374512,-0.6937199234962463
1023,58300.0,3.714603900909424,-9.242815971374512,-0.6937199234962463
1024,58400.0,1.7549498081207275,-9.49121379852295,-0.3435679376125336
1025,58500.0,1.7549498081207275,-9.49121379852295,-0.3435679376125336
1026,58600.0,0.6278793811798096,-9.553462982177734,0.07900865375995636
1027,58700.0,0.6278793811798096,-9.553462982177734,0.07900865375995636
1028,58800.0,1.4538789987564087,-9.595361709594727,0.07422025501728058
1029,58900.0,1.4538789987564087,-9.595361709594727,0.07422025501728058
1030,59000.0,1.9734207391738887,-9.304466247558594,-0.3956418335437775
1031,59100.0,2.164358377456665,-9.74440097808838,0.011372458189725876
1032,59200.0,2.164358377456665,-9.74440097808838,0.011372458189725876
1033,59300.0,0.9983820915222168,-9.379284858703613,0.009576806798577309
1034,59400.0,0.9983820915222168,-9.379284858703613,0.009576806798577309
1035,59500.0,1.0259153842926023,-9.71926212310791,0.018555063754320145
1036,59600.0,1.0259153842926023,-9.71926212310791,0.018555063754320145
1037,59700.0,1.394023895263672,-9.527725219726564,-0.395043283700943
1038,59800.0,1.394023895263672,-9.527725219726564,-0.395043283700943
1039,59900.0,1.4897919893264768,-9.502586364746094,-0.3495534360408783
1040,59000.0,1.9734207391738887,-9.304466247558594,-0.3956418335437775
1041,59100.0,2.164358377456665,-9.74440097808838,0.011372458189725876
1042,59200.0,2.164358377456665,-9.74440097808838,0.011372458189725876
1043,59300.0,0.9983820915222168,-9.379284858703613,0.009576806798577309
1044,59400.0,0.9983820915222168,-9.379284858703613,0.009576806798577309
1045,59500.0,1.0259153842926023,-9.71926212310791,0.018555063754320145
1046,59600.0,1.0259153842926023,-9.71926212310791,0.018555063754320145
1047,59700.0,1.394023895263672,-9.527725219726564,-0.395043283700943
1048,59800.0,1.394023895263672,-9.527725219726564,-0.395043283700943
1049,59900.0,1.4897919893264768,-9.502586364746094,-0.3495534360408783
1050,60000.0,1.580173134803772,-9.610923767089844,-0.2292448133230209
1051,60100.0,1.580173134803772,-9.610923767089844,-0.2292448133230209
1052,60200.0,1.3509283065795898,-9.664793968200684,0.12988543510437012
1053,60300.0,1.3509283065795898,-9.664793968200684,0.12988543510437012
1054,60400.0,1.1342530250549316,-9.521739959716797,-0.323815792798996
1055,60500.0,1.1342530250549316,-9.521739959716797,-0.323815792798996
1056,60600.0,1.845929503440857,-9.564237594604492,-0.3286041915416717
1057,60700.0,1.845929503440857,-9.564237594604492,-0.3286041915416717
1058,60800.0,1.7471686601638794,-9.560047149658203,0.09516951441764833
1059,60900.0,1.2665326595306396,-9.628880500793457,0.10953472554683684
1060,60000.0,1.580173134803772,-9.610923767089844,-0.2292448133230209
1061,60100.0,1.580173134803772,-9.610923767089844,-0.2292448133230209
1062,60200.0,1.3509283065795898,-9.664793968200684,0.12988543510437012
1063,60300.0,1.3509283065795898,-9.664793968200684,0.12988543510437012
1064,60400.0,1.1342530250549316,-9.521739959716797,-0.323815792798996
1065,60500.0,1.1342530250549316,-9.521739959716797,-0.323815792798996
1066,60600.0,1.845929503440857,-9.564237594604492,-0.3286041915416717
1067,60700.0,1.845929503440857,-9.564237594604492,-0.3286041915416717
1068,60800.0,1.7471686601638794,-9.560047149658203,0.09516951441764833
1069,60900.0,1.2665326595306396,-9.628880500793457,0.10953472554683684
1070,61000.0,1.2665326595306396,-9.628880500793457,0.10953472554683684
1071,61100.0,1.1665748357772827,-9.616909980773926,-0.020350715145468712
1072,61200.0,1.1665748357772827,-9.616909980773926,-0.020350715145468712
1073,61300.0,1.6041151285171509,-9.384073257446287,-0.4129997789859772
1074,61400.0,1.6041151285171509,-9.384073257446287,-0.4129997789859772
1075,61500.0,1.655590534210205,-9.524134635925293,-0.11611878126859665
1076,61600.0,1.655590534210205,-9.524134635925293,-0.11611878126859665
1077,61700.0,1.6855180263519287,-9.520543098449707,0.0065840547904372215
1078,61800.0,1.4544775485992432,-9.575610160827637,0.3208230137825012
1079,61900.0,1.4544775485992432,-9.575610160827637,0.3208230137825012
1080,61000.0,1.2665326595306396,-9.628880500793457,0.10953472554683684
1081,61100.0,1.1665748357772827,-9.616909980773926,-0.020350715145468712
1082,61200.0,1.1665748357772827,-9.616909980773926,-0.020350715145468712
1083,61300.0,1.6041151285171509,-9.384073257446287,-0.4129997789859772
1084,61400.0,1.6041151285171509,-9.384073257446287,-0.4129997789859772
1085,61500.0,1.655590534210205,-9.524134635925293,-0.11611878126859665
1086,61600.0,1.655590534210205,-9.524134635925293,-0.11611878126859665
1087,61700.0,1.6855180263519287,-9.520543098449707,0.0065840547904372215
1088,61800.0,1.4544775485992432,-9.575610160827637,0.3208230137825012
1089,61900.0,1.4544775485992432,-9.575610160827637,0.3208230137825012
1090,62000.0,0.9858125448226928,-9.592369079589844,-0.12509703636169436
1091,62100.0,0.9858125448226928,-9.592369079589844,-0.12509703636169436
1092,62200.0,1.1546037197113037,-9.51455783843994,-0.15921440720558167
1093,62300.0,1.1546037197113037,-9.51455783843994,-0.15921440720558167
1094,62400.0,1.7076643705368042,-9.698312759399414,0.2693476974964142
1095,62500.0,1.7076643705368042,-9.698312759399414,0.2693476974964142
1096,62600.0,1.225232720375061,-9.594164848327637,0.2783259451389313
1097,62700.0,0.7368155717849731,-9.603741645812988,-0.08499415963888167
1098,62800.0,0.7368155717849731,-9.603741645812988,-0.08499415963888167
1099,62900.0,1.8297686576843264,-9.576208114624023,-0.050876785069704056
1100,62000.0,0.9858125448226928,-9.592369079589844,-0.12509703636169436
1101,62100.0,0.9858125448226928,-9.592369079589844,-0.12509703636169436
1102,62200.0,1.1546037197113037,-9.51455783843994,-0.15921440720558167
1103,62300.0,1.1546037197113037,-9.51455783843994,-0.15921440720558167
1104,62400.0,1.7076643705368042,-9.698312759399414,0.2693476974964142
1105,62500.0,1.7076643705368042,-9.698312759399414,0.2693476974964142
1106,62600.0,1.225232720375061,-9.594164848327637,0.2783259451389313
1107,62700.0,0.7368155717849731,-9.603741645812988,-0.08499415963888167
1108,62800.0,0.7368155717849731,-9.603741645812988,-0.08499415963888167
1109,62900.0,1.8297686576843264,-9.576208114624023,-0.050876785069704056
1110,63000.0,1.8297686576843264,-9.576208114624023,-0.050876785069704056
1111,63100.0,1.291671872138977,-9.572616577148438,0.4686649739742279
1112,63200.0,1.291671872138977,-9.572616577148438,0.4686649739742279
1113,63300.0,1.2545616626739502,-9.50857162475586,-0.33279404044151306
1114,63400.0,1.2545616626739502,-9.50857162475586,-0.33279404044151306
1115,63500.0,1.4838064908981323,-9.524134635925293,-0.1993172913789749
1116,63600.0,1.6915035247802734,-9.506776809692383,-0.17298106849193573
1117,63700.0,1.6915035247802734,-9.506776809692383,-0.17298106849193573
1118,63800.0,1.3293805122375488,-9.601945877075195,0.1538274586200714
1119,63900.0,1.3293805122375488,-9.601945877075195,0.1538274586200714
1120,63000.0,1.8297686576843264,-9.576208114624023,-0.050876785069704056
1121,63100.0,1.291671872138977,-9.572616577148438,0.4686649739742279
1122,63200.0,1.291671872138977,-9.572616577148438,0.4686649739742279
1123,63300.0,1.2545616626739502,-9.50857162475586,-0.33279404044151306
1124,63400.0,1.2545616626739502,-9.50857162475586,-0.33279404044151306
1125,63500.0,1.4838064908981323,-9.524134635925293,-0.1993172913789749
1126,63600.0,1.6915035247802734,-9.506776809692383,-0.17298106849193573
1127,63700.0,1.6915035247802734,-9.506776809692383,-0.17298106849193573
1128,63800.0,1.3293805122375488,-9.601945877075195,0.1538274586200714
1129,63900.0,1.3293805122375488,-9.601945877075195,0.1538274586200714
1130,64000.0,0.9636662006378174,-9.627683639526367,0.3298012912273407
1131,64100.0,0.9636662006378174,-9.627683639526367,0.3298012912273407
1132,64200.0,1.3628993034362793,-9.585186958312988,0.2292448133230209
1133,64300.0,1.3628993034362793,-9.585186958312988,0.2292448133230209
1134,64400.0,1.7094600200653076,-9.59715747833252,-0.060453593730926514
1135,64500.0,1.3072341680526731,-9.609128952026367,0.011372458189725876
1136,64600.0,1.3072341680526731,-9.609128952026367,0.011372458189725876
1137,64700.0,0.8918401598930359,-9.45410442352295,-0.25977087020874023
1138,64800.0,0.8918401598930359,-9.45410442352295,-0.25977087020874023
1139,64900.0,1.114500880241394,-9.660603523254396,-0.4315548539161682
1140,64000.0,0.9636662006378174,-9.627683639526367,0.3298012912273407
1141,64100.0,0.9636662006378174,-9.627683639526367,0.3298012912273407
1142,64200.0,1.3628993034362793,-9.585186958312988,0.2292448133230209
1143,64300.0,1.3628993034362793,-9.585186958312988,0.2292448133230209
1144,64400.0,1.7094600200653076,-9.59715747833252,-0.060453593730926514
1145,64500.0,1.3072341680526731,-9.609128952026367,0.011372458189725876
1146,64600.0,1.3072341680526731,-9.609128952026367,0.011372458189725876
1147,64700.0,0.8918401598930359,-9.45410442352295,-0.25977087020874023
1148,64800.0,0.8918401598930359,-9.45410442352295,-0.25977087020874023
1149,64900.0,1.114500880241394,-9.660603523254396,-0.4315548539161682
1150,65000.0,1.114500880241394,-9.660603523254396,-0.4315548539161682
1151,65100.0,1.807023763656616,-9.577404975891113,0.020949264988303185
1152,65200.0,1.807023763656616,-9.577404975891113,0.020949264988303185
1153,65300.0,1.6699557304382324,-9.620500564575195,-0.0520738884806633
1154,65400.0,1.0552444458007812,-9.53011989593506,0.20231004059314728
1155,65500.0,1.0552444458007812,-9.53011989593506,0.20231004059314728
1156,65600.0,1.1558008193969729,-9.62828254699707,-0.05267243832349777
1157,65700.0,1.1558008193969729,-9.62828254699707,-0.05267243832349777
1158,65800.0,1.679532527923584,-9.601346969604492,-0.06703764945268631
1159,65900.0,1.679532527923584,-9.601346969604492,-0.06703764945268631
1160,65000.0,1.114500880241394,-9.660603523254396,-0.4315548539161682
1161,65100.0,1.807023763656616,-9.577404975891113,0.020949264988303185
1162,65200.0,1.807023763656616,-9.577404975891113,0.020949264988303185
1163,65300.0,1.6699557304382324,-9.620500564575195,-0.0520738884806633
1164,65400.0,1.0552444458007812,-9.53011989593506,0.20231004059314728
1165,65500.0,1.0552444458007812,-9.53011989593506,0.20231004059314728
1166,65600.0,1.1558008193969729,-9.62828254699707,-0.05267243832349777
1167,65700.0,1.1558008193969729,-9.62828254699707,-0.05267243832349777
1168,65800.0,1.679532527923584,-9.601346969604492,-0.06703764945268631
1169,65900.0,1.679532527923584,-9.601346969604492,-0.06703764945268631
1170,66000.0,1.6124948263168335,-9.525331497192383,-0.019153613597154617
1171,66100.0,1.6124948263168335,-9.525331497192383,-0.019153613597154617
1172,66200.0,0.9810241460800172,-9.526528358459473,0.1651999205350876
1173,66300.0,1.039083480834961,-9.57201862335205,-0.0017956512747332454
1174,66400.0,1.039083480834961,-9.57201862335205,-0.0017956512747332454
1175,66500.0,1.7142484188079834,-9.509769439697266,-0.21667525172233584
1176,66600.0,1.7142484188079834,-9.509769439697266,-0.21667525172233584
1177,66700.0,1.6549919843673706,-9.418190956115724,-0.18614917993545527
1178,66800.0,1.6549919843673706,-9.418190956115724,-0.18614917993545527
1179,66900.0,1.432929754257202,-9.556455612182617,-0.13946224749088287
1180,66000.0,1.6124948263168335,-9.525331497192383,-0.019153613597154617
1181,66100.0,1.6124948263168335,-9.525331497192383,-0.019153613597154617
1182,66200.0,0.9810241460800172,-9.526528358459473,0.1651999205350876
1183,66300.0,1.039083480834961,-9.57201862335205,-0.0017956512747332454
1184,66400.0,1.039083480834961,-9.57201862335205,-0.0017956512747332454
1185,66500.0,1.7142484188079834,-9.509769439697266,-0.21667525172233584
1186,66600.0,1.7142484188079834,-9.509769439697266,-0.21667525172233584
1187,66700.0,1.6549919843673706,-9.418190956115724,-0.18614917993545527
1188,66800.0,1.6549919843673706,-9.418190956115724,-0.18614917993545527
1189,66900.0,1.432929754257202,-9.556455612182617,-0.13946224749088287
1190,67000.0,1.432929754257202,-9.556455612182617,-0.13946224749088287
1191,67100.0,0.9983820915222168,-9.566033363342283,-0.04728548228740692
1192,67200.0,1.1480196714401243,-9.54628086090088,0.08439560979604721
1193,67300.0,1.1480196714401243,-9.54628086090088,0.08439560979604721
1194,67400.0,2.0620062351226807,-9.416994094848633,-0.26156654953956604
1195,67500.0,2.0620062351226807,-9.416994094848633,-0.26156654953956604
1196,67600.0,1.681926727294922,-9.567828178405762,-0.059855043888092034
1197,67700.0,1.681926727294922,-9.567828178405762,-0.059855043888092034
1198,67800.0,0.942716896533966,-9.48462963104248,-0.011971008032560349
1199,67900.0,0.942716896533966,-9.48462963104248,-0.011971008032560349
1200,67000.0,1.432929754257202,-9.556455612182617,-0.13946224749088287
1201,67100.0,0.9983820915222168,-9.566033363342283,-0.04728548228740692
1202,67200.0,1.1480196714401243,-9.54628086090088,0.08439560979604721
1203,67300.0,1.1480196714401243,-9.54628086090088,0.08439560979604721
1204,67400.0,2.0620062351226807,-9.416994094848633,-0.26156654953956604
1205,67500.0,2.0620062351226807,-9.416994094848633,-0.26156654953956604
1206,67600.0,1.681926727294922,-9.567828178405762,-0.059855043888092034
1207,67700.0,1.681926727294922,-9.567828178405762,-0.059855043888092034
1208,67800.0,0.942716896533966,-9.48462963104248,-0.011971008032560349
1209,67900.0,0.942716896533966,-9.48462963104248,-0.011971008032560349
1210,68000.0,1.493383288383484,-9.628880500793457,-0.038905777037143714
1211,68100.0,1.493383288383484,-9.628880500793457,-0.038905777037143714
1212,68200.0,1.7872716188430786,-9.566631317138672,-0.3274070918560028
1213,68300.0,1.2946646213531494,-9.552865028381348,0.14185644686222074
1214,68400.0,1.2946646213531494,-9.552865028381348,0.14185644686222074
1215,68500.0,0.8571242094039917,-9.583391189575195,-0.2214636504650116
1216,68600.0,0.8571242094039917,-9.583391189575195,-0.2214636504650116
1217,68700.0,1.486799240112305,-9.609726905822754,-0.43754035234451294
1218,68800.0,1.486799240112305,-9.609726905822754,-0.43754035234451294
1219,68900.0,1.1150994300842283,-9.486425399780273,-0.3908534348011017
1220,68000.0,1.493383288383484,-9.628880500793457,-0.038905777037143714
1221,68100.0,1.493383288383484,-9.628880500793457,-0.038905777037143714
1222,68200.0,1.7872716188430786,-9.566631317138672,-0.3274070918560028
1223,68300.0,1.2946646213531494,-9.552865028381348,0.14185644686222074
1224,68400.0,1.2946646213531494,-9.552865028381348,0.14185644686222074
1225,68500.0,0.8571242094039917,-9.583391189575195,-0.2214636504650116
1226,68600.0,0.8571242094039917,-9.583391189575195,-0.2214636504650116
1227,68700.0,1.486799240112305,-9.609726905822754,-0.43754035234451294
1228,68800.0,1.486799240112305,-9.609726905822754,-0.43754035234451294
1229,68900.0,1.1150994300842283,-9.486425399780273,-0.3908534348011017
1230,69000.0,1.1150994300842283,-9.486425399780273,-0.3908534348011017
1231,69100.0,1.10193133354187,-9.596558570861816,-0.05506663769483566
1232,69200.0,1.4897919893264768,-9.609128952026367,-0.09277531504631042
1233,69300.0,1.4897919893264768,-9.609128952026367,-0.09277531504631042
1234,69400.0,1.4586673974990845,-9.549273490905762,-0.013766659423708916
1235,69500.0,1.4586673974990845,-9.549273490905762,-0.013766659423708916
1236,69600.0,1.0767922401428225,-9.557653427124023,-0.03172317147254944
1237,69700.0,1.0767922401428225,-9.557653427124023,-0.03172317147254944
1238,69800.0,1.3748703002929688,-9.524134635925293,0.06404489278793335
1239,69900.0,1.3748703002929688,-9.524134635925293,0.06404489278793335
1240,69000.0,1.1150994300842283,-9.486425399780273,-0.3908534348011017
1241,69100.0,1.10193133354187,-9.596558570861816,-0.05506663769483566
1242,69200.0,1.4897919893264768,-9.609128952026367,-0.09277531504631042
1243,69300.0,1.4897919893264768,-9.609128952026367,-0.09277531504631042
1244,69400.0,1.4586673974990845,-9.549273490905762,-0.013766659423708916
1245,69500.0,1.4586673974990845,-9.549273490905762,-0.013766659423708916
1246,69600.0,1.0767922401428225,-9.557653427124023,-0.03172317147254944
1247,69700.0,1.0767922401428225,-9.557653427124023,-0.03172317147254944
1248,69800.0,1.3748703002929688,-9.524134635925293,0.06404489278793335
1249,69900.0,1.3748703002929688,-9.524134635925293,0.06404489278793335
1250,70000.0,1.5119383335113523,-9.546878814697266,-0.20709845423698425
1251,70100.0,1.4401123523712158,-9.550470352172852,-0.0628477931022644
1252,70200.0,1.4401123523712158,-9.550470352172852,-0.0628477931022644
1253,70300.0,1.348534107208252,-9.507973670959473,-0.17537526786327362
1254,70400.0,1.348534107208252,-9.507973670959473,-0.17537526786327362
1255,70500.0,1.3820528984069824,-9.561842918395996,-0.14425064623355865
1256,70600.0,1.3820528984069824,-9.561842918395996,-0.14425064623355865
1257,70700.0,1.4508862495422363,-9.549273490905762,-0.029927521944046017
1258,70800.0,1.269525408744812,-9.53011989593506,-0.12689268589019775
1259,70900.0,1.269525408744812,-9.53011989593506,-0.12689268589019775
1260,70000.0,1.5119383335113523,-9.546878814697266,-0.20709845423698425
1261,70100.0,1.4401123523712158,-9.550470352172852,-0.0628477931022644
1262,70200.0,1.4401123523712158,-9.550470352172852,-0.0628477931022644
1263,70300.0,1.348534107208252,-9.507973670959473,-0.17537526786327362
1264,70400.0,1.348534107208252,-9.507973670959473,-0.17537526786327362
1265,70500.0,1.3820528984069824,-9.561842918395996,-0.14425064623355865
1266,70600.0,1.3820528984069824,-9.561842918395996,-0.14425064623355865
1267,70700.0,1.4508862495422363,-9.549273490905762,-0.029927521944046017
1268,70800.0,1.269525408744812,-9.53011989593506,-0.12689268589019775
1269,70900.0,1.269525408744812,-9.53011989593506,-0.12689268589019775
1270,71000.0,1.33357036113739,-9.546878814697266,-0.3100491166114807
1271,71100.0,1.33357036113739,-9.546878814697266,-0.3100491166114807
1272,71200.0,1.2210428714752195,-9.533711433410645,-0.10833762586116792
1273,71300.0,1.2210428714752195,-9.533711433410645,-0.10833762586116792
1274,71400.0,1.314416766166687,-9.440337181091307,-0.5297171473503113
1275,71500.0,1.314416766166687,-9.440337181091307,-0.5297171473503113
1276,71600.0,1.5646108388900757,-9.570821762084961,0.010175357572734356
1277,71700.0,1.5646108388900757,-9.570821762084961,0.010175357572734356
1278,71800.0,1.701080322265625,-9.603142738342283,-0.04668693244457245
1279,71900.0,1.394023895263672,-9.549872398376463,0.1191115379333496
1280,71000.0,1.33357036113739,-9.546878814697266,-0.3100491166114807
1281,71100.0,1.33357036113739,-9.546878814697266,-0.3100491166114807
1282,71200.0,1.2210428714752195,-9.533711433410645,-0.10833762586116792
1283,71300.0,1.2210428714752195,-9.533711433410645,-0.10833762586116792
1284,71400.0,1.314416766166687,-9.440337181091307,-0.5297171473503113
1285,71500.0,1.314416766166687,-9.440337181091307,-0.5297171473503113
1286,71600.0,1.5646108388900757,-9.570821762084961,0.010175357572734356
1287,71700.0,1.5646108388900757,-9.570821762084961,0.010175357572734356
1288,71800.0,1.701080322265625,-9.603142738342283,-0.04668693244457245
1289,71900.0,1.394023895263672,-9.549872398376463,0.1191115379333496
1290,72000.0,1.394023895263672,-9.549872398376463,0.1191115379333496
1291,72100.0,1.083974838256836,-9.603741645812988,-0.025737667456269264
1292,72200.0,1.083974838256836,-9.603741645812988,-0.025737667456269264
1293,72300.0,1.2826935052871704,-9.478644371032717,-0.4459200799465179
1294,72400.0,1.2826935052871704,-9.478644371032717,-0.4459200799465179
1295,72500.0,1.499967336654663,-9.543288230895996,-0.2454056739807129
1296,72600.0,1.499967336654663,-9.543288230895996,-0.2454056739807129
1297,72700.0,1.5622166395187378,-9.551069259643556,-0.09277531504631042
1298,72800.0,1.0947487354278564,-9.564237594604492,0.05267243832349777
1299,72900.0,1.0947487354278564,-9.564237594604492,0.05267243832349777
1300,72000.0,1.394023895263672,-9.549872398376463,0.1191115379333496
1301,72100.0,1.083974838256836,-9.603741645812988,-0.025737667456269264
1302,72200.0,1.083974838256836,-9.603741645812988,-0.025737667456269264
1303,72300.0,1.2826935052871704,-9.478644371032717,-0.4459200799465179
1304,72400.0,1.2826935052871704,-9.478644371032717,-0.4459200799465179
1305,72500.0,1.499967336654663,-9.543288230895996,-0.2454056739807129
1306,72600.0,1.499967336654663,-9.543288230895996,-0.2454056739807129
1307,72700.0,1.5622166395187378,-9.551069259643556,-0.09277531504631042
1308,72800.0,1.0947487354278564,-9.564237594604492,0.05267243832349777
1309,72900.0,1.0947487354278564,-9.564237594604492,0.05267243832349777
1310,73000.0,1.301847219467163,-9.49839687347412,-0.44771572947502136
1311,73100.0,1.301847219467163,-9.49839687347412,-0.44771572947502136
1312,73200.0,1.8483237028121948,-9.604340553283693,-0.016160860657691956
1313,73300.0,1.8483237028121948,-9.604340553283693,-0.016160860657691956
1314,73400.0,1.7369933128356934,-9.527127265930176,-0.1256955862045288
1315,73500.0,1.7369933128356934,-9.527127265930176,-0.1256955862045288
1316,73600.0,1.3557167053222656,-9.56483554840088,-0.08858546614646913
1317,73700.0,1.0055646896362305,-9.545083999633787,-0.13108254969120026
1318,73800.0,1.0055646896362305,-9.545083999633787,-0.13108254969120026
1319,73900.0,1.756745457649231,-9.476848602294922,-0.3280056416988373
1320,73000.0,1.301847219467163,-9.49839687347412,-0.44771572947502136
1321,73100.0,1.301847219467163,-9.49839687347412,-0.44771572947502136
1322,73200.0,1.8483237028121948,-9.604340553283693,-0.016160860657691956
1323,73300.0,1.8483237028121948,-9.604340553283693,-0.016160860657691956
1324,73400.0,1.7369933128356934,-9.527127265930176,-0.1256955862045288
1325,73500.0,1.7369933128356934,-9.527127265930176,-0.1256955862045288
1326,73600.0,1.3557167053222656,-9.56483554840088,-0.08858546614646913
1327,73700.0,1.0055646896362305,-9.545083999633787,-0.13108254969120026
1328,73800.0,1.0055646896362305,-9.545083999633787,-0.13108254969120026
1329,73900.0,1.756745457649231,-9.476848602294922,-0.3280056416988373
1330,74000.0,1.756745457649231,-9.476848602294922,-0.3280056416988373
1331,74100.0,1.4556746482849119,-9.518148422241213,-0.1496376097202301
1332,74200.0,1.4556746482849119,-9.518148422241213,-0.1496376097202301
1333,74300.0,1.3760673999786377,-9.529520988464355,-0.25977087020874023
1334,74400.0,1.3760673999786377,-9.529520988464355,-0.25977087020874023
1335,74500.0,1.2970588207244873,-9.473258018493652,-0.5087678432464601
1336,74600.0,1.81959331035614,-9.529520988464355,-0.08319851011037828
1337,74700.0,1.81959331035614,-9.529520988464355,-0.08319851011037828
1338,74800.0,1.468244194984436,-9.570222854614258,-0.010773907415568829
1339,74900.0,1.468244194984436,-9.570222854614258,-0.010773907415568829
1340,74000.0,1.756745457649231,-9.476848602294922,-0.3280056416988373
1341,74100.0,1.4556746482849119,-9.518148422241213,-0.1496376097202301
1342,74200.0,1.4556746482849119,-9.518148422241213,-0.1496376097202301
1343,74300.0,1.3760673999786377,-9.529520988464355,-0.25977087020874023
1344,74400.0,1.3760673999786377,-9.529520988464355,-0.25977087020874023
1345,74500.0,1.2970588207244873,-9.473258018493652,-0.5087678432464601
1346,74600.0,1.81959331035614,-9.529520988464355,-0.08319851011037828
1347,74700.0,1.81959331035614,-9.529520988464355,-0.08319851011037828
1348,74800.0,1.468244194984436,-9.570222854614258,-0.010773907415568829
1349,74900.0,1.468244194984436,-9.570222854614258,-0.010773907415568829
1350,75000.0,1.2461819648742676,-9.548076629638672,-0.1107318252325058
1351,75100.0,1.2461819648742676,-9.548076629638672,-0.1107318252325058
1352,75200.0,1.3198037147521973,-9.540295600891113,-0.1909375786781311
1353,75300.0,1.3198037147521973,-9.540295600891113,-0.1909375786781311
1354,75400.0,2.0488381385803223,-9.519944190979004,-0.2825157940387726
1355,75500.0,1.5280991792678833,-9.59177017211914,0.09457096457481384
1356,75600.0,1.5280991792678833,-9.59177017211914,0.09457096457481384
1357,75700.0,1.2563573122024536,-9.604340553283693,-0.03711012750864029
1358,75800.0,1.2563573122024536,-9.604340553283693,-0.03711012750864029
1359,75900.0,0.9415197968482972,-9.552865028381348,-0.0999579206109047
1360,75000.0,1.2461819648742676,-9.548076629638672,-0.1107318252325058
1361,75100.0,1.2461819648742676,-9.548076629638672,-0.1107318252325058
1362,75200.0,1.3198037147521973,-9.540295600891113,-0.1909375786781311
1363,75300.0,1.3198037147521973,-9.540295600891113,-0.1909375786781311
1364,75400.0,2.0488381385803223,-9.519944190979004,-0.2825157940387726
1365,75500.0,1.5280991792678833,-9.59177017211914,0.09457096457481384
1366,75600.0,1.5280991792678833,-9.59177017211914,0.09457096457481384
1367,75700.0,1.2563573122024536,-9.604340553283693,-0.03711012750864029
1368,75800.0,1.2563573122024536,-9.604340553283693,-0.03711012750864029
1369,75900.0,0.9415197968482972,-9.552865028381348,-0.0999579206109047
1370,76000.0,0.9415197968482972,-9.552865028381348,-0.0999579206109047
1371,76100.0,1.413776159286499,-9.48462963104248,-0.3100491166114807
1372,76200.0,1.413776159286499,-9.48462963104248,-0.3100491166114807
1373,76300.0,1.5245078802108765,-9.61571216583252,-0.13407529890537262
1374,76400.0,1.4269442558288574,-9.55166721343994,-0.02274491637945175
1375,76500.0,1.4269442558288574,-9.55166721343994,-0.02274491637945175
1376,76600.0,1.0079588890075684,-9.5223388671875,-0.4303577542304993
1377,76700.0,1.0079588890075684,-9.5223388671875,-0.4303577542304993
1378,76800.0,1.1965023279190063,-9.527725219726564,-0.535702645778656
1379,76900.0,1.1965023279190063,-9.527725219726564,-0.535702645778656
1380,76000.0,0.9415197968482972,-9.552865028381348,-0.0999579206109047
1381,76100.0,1.413776159286499,-9.48462963104248,-0.3100491166114807
1382,76200.0,1.413776159286499,-9.48462963104248,-0.3100491166114807
1383,76300.0,1.5245078802108765,-9.61571216583252,-0.13407529890537262
1384,76400.0,1.4269442558288574,-9.55166721343994,-0.02274491637945175
1385,76500.0,1.4269442558288574,-9.55166721343994,-0.02274491637945175
1386,76600.0,1.0079588890075684,-9.5223388671875,-0.4303577542304993
1387,76700.0,1.0079588890075684,-9.5223388671875,-0.4303577542304993
1388,76800.0,1.1965023279190063,-9.527725219726564,-0.535702645778656
1389,76900.0,1.1965023279190063,-9.527725219726564,-0.535702645778656
1390,77000.0,1.577778935432434,-9.559449195861816,0.076015904545784
1391,77100.0,1.577778935432434,-9.559449195861816,0.076015904545784
1392,77200.0,1.0540473461151123,-9.62947940826416,-0.0293289702385664
1393,77300.0,1.5017629861831665,-9.459490776062012,-0.4213795065879822
1394,77400.0,1.5017629861831665,-9.459490776062012,-0.4213795065879822
1395,77500.0,1.4012064933776855,-9.520543098449707,-0.22266076505184174
1396,77600.0,1.4012064933776855,-9.520543098449707,-0.22266076505184174
1397,77700.0,1.898003339767456,-9.485228538513184,-0.3064578175544739
1398,77800.0,1.898003339767456,-9.485228538513184,-0.3064578175544739
1399,77900.0,1.3186066150665283,-9.676764488220217,0.3256114423274994
1400,77000.0,1.577778935432434,-9.559449195861816,0.076015904545784
1401,77100.0,1.577778935432434,-9.559449195861816,0.076015904545784
1402,77200.0,1.0540473461151123,-9.62947940826416,-0.0293289702385664
1403,77300.0,1.5017629861831665,-9.459490776062012,-0.4213795065879822
1404,77400.0,1.5017629861831665,-9.459490776062012,-0.4213795065879822
1405,77500.0,1.4012064933776855,-9.520543098449707,-0.22266076505184174
1406,77600.0,1.4012064933776855,-9.520543098449707,-0.22266076505184174
1407,77700.0,1.898003339767456,-9.485228538513184,-0.3064578175544739
1408,77800.0,1.898003339767456,-9.485228538513184,-0.3064578175544739
1409,77900.0,1.3186066150665283,-9.676764488220217,0.3256114423274994
1410,78000.0,1.3186066150665283,-9.676764488220217,0.3256114423274994
1411,78100.0,1.216254472732544,-9.564237594604492,-0.07242459803819656
1412,78200.0,1.3162124156951904,-9.531915664672852,-0.2801215946674347
1413,78300.0,1.3162124156951904,-9.531915664672852,-0.2801215946674347
1414,78400.0,1.874659895896912,-9.485827445983887,-0.2064998894929886
1415,78500.0,1.874659895896912,-9.485827445983887,-0.2064998894929886
1416,78600.0,1.3569138050079346,-9.634267807006836,-0.038307227194309235
1417,78700.0,1.3569138050079346,-9.634267807006836,-0.038307227194309235
1418,78800.0,1.4359225034713743,-9.53011989593506,-0.14006079733371735
1419,78900.0,1.4359225034713743,-9.53011989593506,-0.14006079733371735
1420,78000.0,1.3186066150665283,-9.676764488220217,0.3256114423274994
1421,78100.0,1.216254472732544,-9.564237594604492,-0.07242459803819656
1422,78200.0,1.3162124156951904,-9.531915664672852,-0.2801215946674347
1423,78300.0,1.3162124156951904,-9.531915664672852,-0.2801215946674347
1424,78400.0,1.874659895896912,-9.485827445983887,-0.2064998894929886
1425,78500.0,1.874659895896912,-9.485827445983887,-0.2064998894929886
1426,78600.0,1.3569138050079346,-9.634267807006836,-0.038307227194309235
1427,78700.0,1.3569138050079346,-9.634267807006836,-0.038307227194309235
1428,78800.0,1.4359225034713743,-9.53011989593506,-0.14006079733371735
1429,78900.0,1.4359225034713743,-9.53011989593506,-0.14006079733371735
1430,79000.0,0.9750386476516724,-9.622895240783693,-0.345363587141037
1431,79100.0,1.6813281774520874,-9.41759204864502,-0.07003039866685867
1432,79200.0,1.6813281774520874,-9.41759204864502,-0.07003039866685867
1433,79300.0,1.68970787525177,-9.4822359085083,-0.4207809567451477
1434,79400.0,1.68970787525177,-9.4822359085083,-0.4207809567451477
1435,79500.0,1.7160440683364868,-9.678560256958008,-0.05506663769483566
1436,79600.0,1.7160440683364868,-9.678560256958008,-0.05506663769483566
1437,79700.0,1.9937714338302608,-9.596558570861816,-0.061052143573760986
1438,79800.0,1.9937714338302608,-9.596558570861816,-0.061052143573760986
1439,79900.0,0.8092401623725891,-9.51156520843506,-0.2388216257095337
1440,79000.0,0.9750386476516724,-9.622895240783693,-0.345363587141037
1441,79100.0,1.6813281774520874,-9.41759204864502,-0.07003039866685867
1442,79200.0,1.6813281774520874,-9.41759204864502,-0.07003039866685867
1443,79300.0,1.68970787525177,-9.4822359085083,-0.4207809567451477
1444,79400.0,1.68970787525177,-9.4822359085083,-0.4207809567451477
1445,79500.0,1.7160440683364868,-9.678560256958008,-0.05506663769483566
1446,79600.0,1.7160440683364868,-9.678560256958008,-0.05506663769483566
1447,79700.0,1.9937714338302608,-9.596558570861816,-0.061052143573760986
1448,79800.0,1.9937714338302608,-9.596558570861816,-0.061052143573760986
1449,79900.0,0.8092401623725891,-9.51156520843506,-0.2388216257095337
1450,80000.0,1.4508862495422363,-9.46727180480957,-0.32680854201316833
1451,80100.0,1.4508862495422363,-9.46727180480957,-0.32680854201316833
1452,80200.0,1.5245078802108765,-9.61331844329834,-0.2657563984394073
1453,80300.0,1.5245078802108765,-9.61331844329834,-0.2657563984394073
1454,80400.0,1.590348482131958,-9.495404243469238,-0.07661445438861847
1455,80500.0,1.590348482131958,-9.495404243469238,-0.07661445438861847
1456,80600.0,0.9133879542350768,-9.553462982177734,-0.04010287672281265
1457,80700.0,0.9133879542350768,-9.553462982177734,-0.04010287672281265
1458,80800.0,1.874659895896912,-9.484031677246094,-0.3405751883983612
1459,80900.0,1.4233529567718506,-9.63067626953125,-0.14245499670505524
1460,80000.0,1.4508862495422363,-9.46727180480957,-0.32680854201316833
1461,80100.0,1.4508862495422363,-9.46727180480957,-0.32680854201316833
1462,80200.0,1.5245078802108765,-9.61331844329834,-0.2657563984394073
1463,80300.0,1.5245078802108765,-9.61331844329834,-0.2657563984394073
1464,80400.0,1.590348482131958,-9.495404243469238,-0.07661445438861847
1465,80500.0,1.590348482131958,-9.495404243469238,-0.07661445438861847
1466,80600.0,0.9133879542350768,-9.553462982177734,-0.04010287672281265
1467,80700.0,0.9133879542350768,-9.553462982177734,-0.04010287672281265
1468,80800.0,1.874659895896912,-9.484031677246094,-0.3405751883983612
1469,80900.0,1.4233529567718506,-9.63067626953125,-0.14245499670505524
1470,81000.0,1.4233529567718506,-9.63067626953125,-0.14245499670505524
1471,81100.0,0.8768763542175293,-9.479841232299805,-0.17178396880626678
1472,81200.0,0.8768763542175293,-9.479841232299805,-0.17178396880626678
1473,81300.0,0.4764461517333984,-9.67077922821045,-0.044292733073234565
1474,81400.0,0.4764461517333984,-9.67077922821045,-0.044292733073234565
1475,81500.0,1.4407109022140503,-9.56483554840088,-0.3046621680259705
1476,81600.0,1.4407109022140503,-9.56483554840088,-0.3046621680259705
1477,81700.0,2.078166961669922,-9.554061889648438,-0.2950853705406189
1478,81800.0,1.0366892814636228,-9.587580680847168,-0.014365210197865963
1479,81900.0,1.0366892814636228,-9.587580680847168,-0.014365210197865963
1480,81000.0,1.4233529567718506,-9.63067626953125,-0.14245499670505524
1481,81100.0,0.8768763542175293,-9.479841232299805,-0.17178396880626678
1482,81200.0,0.8768763542175293,-9.479841232299805,-0.17178396880626678
1483,81300.0,0.4764461517333984,-9.67077922821045,-0.044292733073234565
1484,81400.0,0.4764461517333984,-9.67077922821045,-0.044292733073234565
1485,81500.0,1.4407109022140503,-9.56483554840088,-0.3046621680259705
1486,81600.0,1.4407109022140503,-9.56483554840088,-0.3046621680259705
1487,81700.0,2.078166961669922,-9.554061889648438,-0.2950853705406189
1488,81800.0,1.0366892814636228,-9.587580680847168,-0.014365210197865963
1489,81900.0,1.0366892814636228,-9.587580680847168,-0.014365210197865963
1490,82000.0,0.44771572947502136,-9.545083999633787,-0.04967968538403511
1491,82100.0,0.44771572947502136,-9.545083999633787,-0.04967968538403511
1492,82200.0,1.1198878288269043,-9.75637149810791,-0.25917232036590576
1493,82300.0,1.1198878288269043,-9.75637149810791,-0.25917232036590576
1494,82400.0,1.6699557304382324,-9.521739959716797,-0.30047231912612915
1495,82500.0,1.6699557304382324,-9.521739959716797,-0.30047231912612915
1496,82600.0,1.681926727294922,-9.639056205749512,-0.12030863761901855
1497,82700.0,0.5207388401031494,-9.540295600891113,-0.11791443079710008
1498,82800.0,0.5207388401031494,-9.540295600891113,-0.11791443079710008
1499,82900.0,1.4754267930984497,-9.567230224609377,-0.29628247022628784
1500,82000.0,0.44771572947502136,-9.545083999633787,-0.04967968538403511
1501,82100.0,0.44771572947502136,-9.545083999633787,-0.04967968538403511
1502,82200.0,1.1198878288269043,-9.75637149810791,-0.25917232036590576
1503,82300.0,1.1198878288269043,-9.75637149810791,-0.25917232036590576
1504,82400.0,1.6699557304382324,-9.521739959716797,-0.30047231912612915
1505,82500.0,1.6699557304382324,-9.521739959716797,-0.30047231912612915
1506,82600.0,1.681926727294922,-9.639056205749512,-0.12030863761901855
1507,82700.0,0.5207388401031494,-9.540295600891113,-0.11791443079710008
1508,82800.0,0.5207388401031494,-9.540295600891113,-0.11791443079710008
1509,82900.0,1.4754267930984497,-9.567230224609377,-0.29628247022628784
1510,83000.0,1.4754267930984497,-9.567230224609377,-0.29628247022628784
1511,83100.0,1.9458874464035036,-9.549273490905762,-0.2178723514080048
1512,83200.0,1.9458874464035036,-9.549273490905762,-0.2178723514080048
1513,83300.0,1.2533645629882812,-9.632472038269043,-0.09397241473197936
1514,83400.0,1.2533645629882812,-9.632472038269043,-0.09397241473197936
1515,83500.0,1.2108675241470337,-9.453505516052246,0.016160860657691956
1516,83600.0,1.1186907291412354,-9.485228538513184,-0.3405751883983612
1517,83700.0,1.1186907291412354,-9.485228538513184,-0.3405751883983612
1518,83800.0,1.6992846727371216,-9.45111083984375,-0.3190273642539978
1519,83900.0,1.6992846727371216,-9.45111083984375,-0.3190273642539978
1520,83000.0,1.4754267930984497,-9.567230224609377,-0.29628247022628784
1521,83100.0,1.9458874464035036,-9.549273490905762,-0.2178723514080048
1522,83200.0,1.9458874464035036,-9.549273490905762,-0.2178723514080048
1523,83300.0,1.2533645629882812,-9.632472038269043,-0.09397241473197936
1524,83400.0,1.2533645629882812,-9.632472038269043,-0.09397241473197936
1525,83500.0,1.2108675241470337,-9.453505516052246,0.016160860657691956
1526,83600.0,1.1186907291412354,-9.485228538513184,-0.3405751883983612
1527,83700.0,1.1186907291412354,-9.485228538513184,-0.3405751883983612
1528,83800.0,1.6992846727371216,-9.45111083984375,-0.3190273642539978
1529,83900.0,1.6992846727371216,-9.45111083984375,-0.3190273642539978
1530,84000.0,1.5089455842971802,-9.43494987487793,-0.2944868206977844
1531,84100.0,1.5089455842971802,-9.43494987487793,-0.2944868206977844
1532,84200.0,1.708262920379639,-9.559449195861816,0.18914192914962769
1533,84300.0,1.708262920379639,-9.559449195861816,0.18914192914962769
1534,84400.0,1.0797849893569946,-9.524134635925293,-0.1646013706922531
1535,84500.0,1.4897919893264768,-9.492411613464355,-0.3250128924846649
1536,84600.0,1.4897919893264768,-9.492411613464355,-0.3250128924846649
1537,84700.0,1.3084312677383425,-9.568427085876463,0.035314474254846566
1538,84800.0,1.3084312677383425,-9.568427085876463,0.035314474254846566
1539,84900.0,1.4903905391693115,-9.584588050842283,-0.4770447015762329
1540,84000.0,1.5089455842971802,-9.43494987487793,-0.2944868206977844
1541,84100.0,1.5089455842971802,-9.43494987487793,-0.2944868206977844
1542,84200.0,1.708262920379639,-9.559449195861816,0.18914192914962769
1543,84300.0,1.708262920379639,-9.559449195861816,0.18914192914962769
1544,84400.0,1.0797849893569946,-9.524134635925293,-0.1646013706922531
1545,84500.0,1.4897919893264768,-9.492411613464355,-0.3250128924846649
1546,84600.0,1.4897919893264768,-9.492411613464355,-0.3250128924846649
1547,84700.0,1.3084312677383425,-9.568427085876463,0.035314474254846566
1548,84800.0,1.3084312677383425,-9.568427085876463,0.035314474254846566
1549,84900.0,1.4903905391693115,-9.584588050842283,-0.4770447015762329
1550,85000.0,1.4903905391693115,-9.584588050842283,-0.4770447015762329
1551,85100.0,1.6160861253738403,-9.518747329711914,0.2364274114370346
1552,85200.0,1.6160861253738403,-9.518747329711914,0.2364274114370346
1553,85300.0,-0.2735375463962555,-9.55585765838623,-0.5895721912384033
1554,85400.0,1.6687586307525637,-9.50857162475586,-0.6224924325942993
1555,85500.0,1.6687586307525637,-9.50857162475586,-0.6224924325942993
1556,85600.0,1.944091796875,-9.582193374633787,0.14245499670505524
1557,85700.0,1.944091796875,-9.582193374633787,0.14245499670505524
1558,85800.0,0.7056909799575806,-9.554061889648438,0.3675099611282349
1559,85900.0,0.7056909799575806,-9.554061889648438,0.3675099611282349
1560,85000.0,1.4903905391693115,-9.584588050842283,-0.4770447015762329
1561,85100.0,1.6160861253738403,-9.518747329711914,0.2364274114370346
1562,85200.0,1.6160861253738403,-9.518747329711914,0.2364274114370346
1563,85300.0,-0.2735375463962555,-9.55585765838623,-0.5895721912384033
1564,85400.0,1.6687586307525637,-9.50857162475586,-0.6224924325942993
1565,85500.0,1.6687586307525637,-9.50857162475586,-0.6224924325942993
1566,85600.0,1.944091796875,-9.582193374633787,0.14245499670505524
1567,85700.0,1.944091796875,-9.582193374633787,0.14245499670505524
1568,85800.0,0.7056909799575806,-9.554061889648438,0.3675099611282349
1569,85900.0,0.7056909799575806,-9.554061889648438,0.3675099611282349
1570,86000.0,2.1757307052612305,-9.39245319366455,-0.2513911724090576
1571,86100.0,2.1757307052612305,-9.39245319366455,-0.2513911724090576
1572,86200.0,1.8477251529693604,-9.653421401977539,0.04369417950510979
1573,86300.0,1.2964602708816528,-9.39903736114502,-0.3830722570419312
1574,86400.0,1.2964602708816528,-9.39903736114502,-0.3830722570419312
1575,86500.0,-0.8774749040603638,-9.609128952026367,-0.4997895956039429
1576,86600.0,-0.8774749040603638,-9.609128952026367,-0.4997895956039429
1577,86700.0,2.78625226020813,-9.30027675628662,-0.07062894850969315
1578,86800.0,2.78625226020813,-9.30027675628662,-0.07062894850969315
1579,86900.0,1.3820528984069824,-9.639654159545898,0.08439560979604721
1580,86000.0,2.1757307052612305,-9.39245319366455,-0.2513911724090576
1581,86100.0,2.1757307052612305,-9.39245319366455,-0.2513911724090576
1582,86200.0,1.8477251529693604,-9.653421401977539,0.04369417950510979
1583,86300.0,1.2964602708816528,-9.39903736114502,-0.3830722570419312
1584,86400.0,1.2964602708816528,-9.39903736114502,-0.3830722570419312
1585,86500.0,-0.8774749040603638,-9.609128952026367,-0.4997895956039429
1586,86600.0,-0.8774749040603638,-9.609128952026367,-0.4997895956039429
1587,86700.0,2.78625226020813,-9.30027675628662,-0.07062894850969315
1588,86800.0,2.78625226020813,-9.30027675628662,-0.07062894850969315
1589,86900.0,1.3820528984069824,-9.639654159545898,0.08439560979604721
1590,87000.0,1.3820528984069824,-9.639654159545898,0.08439560979604721
1591,87100.0,0.2567781209945679,-9.544485092163086,0.2286462634801865
1592,87200.0,1.746570110321045,-9.618106842041016,0.10474632680416107
1593,87300.0,1.746570110321045,-9.618106842041016,0.10474632680416107
1594,87400.0,1.911171555519104,-9.603142738342283,-0.17417816817760468
1595,87500.0,1.911171555519104,-9.603142738342283,-0.17417816817760468
1596,87600.0,1.5418659448623655,-9.453505516052246,0.2579752206802368
1597,87700.0,1.5418659448623655,-9.453505516052246,0.2579752206802368
1598,87800.0,1.988384485244751,-9.645041465759276,-0.17537526786327362
1599,87900.0,1.988384485244751,-9.645041465759276,-0.17537526786327362
1600,87000.0,1.3820528984069824,-9.639654159545898,0.08439560979604721
1601,87100.0,0.2567781209945679,-9.544485092163086,0.2286462634801865
1602,87200.0,1.746570110321045,-9.618106842041016,0.10474632680416107
1603,87300.0,1.746570110321045,-9.618106842041016,0.10474632680416107
1604,87400.0,1.911171555519104,-9.603142738342283,-0.17417816817760468
1605,87500.0,1.911171555519104,-9.603142738342283,-0.17417816817760468
1606,87600.0,1.5418659448623655,-9.453505516052246,0.2579752206802368
1607,87700.0,1.5418659448623655,-9.453505516052246,0.2579752206802368
1608,87800.0,1.988384485244751,-9.645041465759276,-0.17537526786327362
1609,87900.0,1.988384485244751,-9.645041465759276,-0.17537526786327362
1610,88000.0,1.269525408744812,-9.412803649902344,-0.14844051003456116
1611,88100.0,-0.21607670187950132,-9.791088104248047,0.0011971008498221636
1612,88200.0,-0.21607670187950132,-9.791088104248047,0.0011971008498221636
1613,88300.0,2.846705913543701,-9.374496459960938,-0.1149216815829277
1614,88400.0,2.846705913543701,-9.374496459960938,-0.1149216815829277
1615,88500.0,1.8938134908676147,-9.362525939941406,-0.11013327538967133
1616,88600.0,1.8938134908676147,-9.362525939941406,-0.11013327538967133
1617,88700.0,-0.4285621047019959,-9.536105155944824,-0.09277531504631042
1618,88800.0,-0.4285621047019959,-9.536105155944824,-0.09277531504631042
1619,88900.0,1.9925743341445925,-9.43135929107666,-0.020350715145468712
1620,88000.0,1.269525408744812,-9.412803649902344,-0.14844051003456116
1621,88100.0,-0.21607670187950132,-9.791088104248047,0.0011971008498221636
1622,88200.0,-0.21607670187950132,-9.791088104248047,0.0011971008498221636
1623,88300.0,2.846705913543701,-9.374496459960938,-0.1149216815829277
1624,88400.0,2.846705913543701,-9.374496459960938,-0.1149216815829277
1625,88500.0,1.8938134908676147,-9.362525939941406,-0.11013327538967133
1626,88600.0,1.8938134908676147,-9.362525939941406,-0.11013327538967133
1627,88700.0,-0.4285621047019959,-9.536105155944824,-0.09277531504631042
1628,88800.0,-0.4285621047019959,-9.536105155944824,-0.09277531504631042
1629,88900.0,1.9925743341445925,-9.43135929107666,-0.020350715145468712
1630,89000.0,1.9925743341445925,-9.43135929107666,-0.020350715145468712
1631,89100.0,2.364872694015503,-9.592967987060547,0.005985504016280174
1632,89200.0,1.0223240852355957,-9.485827445983887,0.17836803197860718
1633,89300.0,1.0223240852355957,-9.485827445983887,0.17836803197860718
1634,89400.0,0.025737667456269264,-9.821015357971193,0.018555063754320145
1635,89500.0,0.025737667456269264,-9.821015357971193,0.018555063754320145
1636,89600.0,2.9730000495910645,-9.591172218322754,-0.12868833541870114
1637,89700.0,2.9730000495910645,-9.591172218322754,-0.12868833541870114
1638,89800.0,1.095347285270691,-9.421183586120604,-0.20350714027881625
1639,89900.0,-0.03232172131538391,-9.686341285705566,-0.5117605924606323
1640,89000.0,1.9925743341445925,-9.43135929107666,-0.020350715145468712
1641,89100.0,2.364872694015503,-9.592967987060547,0.005985504016280174
1642,89200.0,1.0223240852355957,-9.485827445983887,0.17836803197860718
1643,89300.0,1.0223240852355957,-9.485827445983887,0.17836803197860718
1644,89400.0,0.025737667456269264,-9.821015357971193,0.018555063754320145
1645,89500.0,0.025737667456269264,-9.821015357971193,0.018555063754320145
1646,89600.0,2.9730000495910645,-9.591172218322754,-0.12868833541870114
1647,89700.0,2.9730000495910645,-9.591172218322754,-0.12868833541870114
1648,89800.0,1.095347285270691,-9.421183586120604,-0.20350714027881625
1649,89900.0,-0.03232172131538391,-9.686341285705566,-0.5117605924606323
1650,90000.0,-0.03232172131538391,-9.686341285705566,-0.5117605924606323
1651,90100.0,2.6240451335906982,-9.446921348571776,0.03292027488350868
1652,90200.0,2.6240451335906982,-9.446921348571776,0.03292027488350868
1653,90300.0,1.2665326595306396,-9.43375301361084,-0.2388216257095337
1654,90400.0,1.2665326595306396,-9.43375301361084,-0.2388216257095337
1655,90500.0,0.7984662652015686,-9.654618263244627,0.1173158809542656
1656,90600.0,0.7984662652015686,-9.654618263244627,0.1173158809542656
1657,90700.0,0.9678560495376588,-9.50617790222168,-0.2944868206977844
1658,90800.0,0.9678560495376588,-9.50617790222168,-0.2944868206977844
1659,90900.0,1.3982137441635132,-9.66958236694336,0.1364694982767105
1660,90000.0,-0.03232172131538391,-9.686341285705566,-0.5117605924606323
1661,90100.0,2.6240451335906982,-9.446921348571776,0.03292027488350868
1662,90200.0,2.6240451335906982,-9.446921348571776,0.03292027488350868
1663,90300.0,1.2665326595306396,-9.43375301361084,-0.2388216257095337
1664,90400.0,1.2665326595306396,-9.43375301361084,-0.2388216257095337
1665,90500.0,0.7984662652015686,-9.654618263244627,0.1173158809542656
1666,90600.0,0.7984662652015686,-9.654618263244627,0.1173158809542656
1667,90700.0,0.9678560495376588,-9.50617790222168,-0.2944868206977844
1668,90800.0,0.9678560495376588,-9.50617790222168,-0.2944868206977844
1669,90900.0,1.3982137441635132,-9.66958236694336,0.1364694982767105
1670,91000.0,1.0821791887283323,-9.63067626953125,0.2178723514080048
1671,91100.0,1.0821791887283323,-9.63067626953125,0.2178723514080048
1672,91200.0,1.115697979927063,-9.600749015808104,0.1238999366760254
1673,91300.0,1.115697979927063,-9.600749015808104,0.1238999366760254
1674,91400.0,1.4431051015853882,-9.379883766174316,-0.44831427931785583
1675,91500.0,1.4431051015853882,-9.379883766174316,-0.44831427931785583
1676,91600.0,1.620874524116516,-9.577404975891113,-0.08798690885305405
1677,91700.0,1.620874524116516,-9.577404975891113,-0.08798690885305405
1678,91800.0,1.6065093278884888,-9.476848602294922,-0.02454056777060032
1679,91900.0,1.3012486696243286,-9.624691009521484,0.31603461503982544
1680,91000.0,1.0821791887283323,-9.63067626953125,0.2178723514080048
1681,91100.0,1.0821791887283323,-9.63067626953125,0.2178723514080048
1682,91200.0,1.115697979927063,-9.600749015808104,0.1238999366760254
1683,91300.0,1.115697979927063,-9.600749015808104,0.1238999366760254
1684,91400.0,1.4431051015853882,-9.379883766174316,-0.44831427931785583
1685,91500.0,1.4431051015853882,-9.379883766174316,-0.44831427931785583
1686,91600.0,1.620874524116516,-9.577404975891113,-0.08798690885305405
1687,91700.0,1.620874524116516,-9.577404975891113,-0.08798690885305405
1688,91800.0,1.6065093278884888,-9.476848602294922,-0.02454056777060032
1689,91900.0,1.3012486696243286,-9.624691009521484,0.31603461503982544
1690,92000.0,1.3012486696243286,-9.624691009521484,0.31603461503982544
1691,92100.0,0.960673451423645,-9.60553741455078,0.06703764945268631
1692,92200.0,0.960673451423645,-9.60553741455078,0.06703764945268631
1693,92300.0,1.2018892765045166,-9.481039047241213,-0.05327098816633225
1694,92400.0,1.2018892765045166,-9.481039047241213,-0.05327098816633225
1695,92500.0,1.4437036514282229,-9.528324127197266,-0.20530278980731964
1696,92600.0,1.4437036514282229,-9.528324127197266,-0.20530278980731964
1697,92700.0,1.742978811264038,-9.558850288391113,0.10534487664699554
1698,92800.0,1.3964180946350098,-9.65222454071045,0.023942016065120697
1699,92900.0,1.3964180946350098,-9.65222454071045,0.023942016065120697
1700,92000.0,1.3012486696243286,-9.624691009521484,0.31603461503982544
1701,92100.0,0.960673451423645,-9.60553741455078,0.06703764945268631
1702,92200.0,0.960673451423645,-9.60553741455078,0.06703764945268631
1703,92300.0,1.2018892765045166,-9.481039047241213,-0.05327098816633225
1704,92400.0,1.2018892765045166,-9.481039047241213,-0.05327098816633225
1705,92500.0,1.4437036514282229,-9.528324127197266,-0.20530278980731964
1706,92600.0,1.4437036514282229,-9.528324127197266,-0.20530278980731964
1707,92700.0,1.742978811264038,-9.558850288391113,0.10534487664699554
1708,92800.0,1.3964180946350098,-9.65222454071045,0.023942016065120697
1709,92900.0,1.3964180946350098,-9.65222454071045,0.023942016065120697
1710,93000.0,0.884058952331543,-9.537900924682617,0.0041898530907928935
