,timestamp,ax,ay,az
0,7000.0,-0.7034898400306702,7.231109619140625,-6.269195556640625
1,7100.0,-0.7034898400306702,7.231109619140625,-6.269195556640625
2,7200.0,-0.7034898400306702,7.231109619140625,-6.269195556640625
3,7300.0,-0.7034898400306702,7.231109619140625,-6.269195556640625
4,7400.0,-0.7034898400306702,7.231109619140625,-6.269195556640625
5,7500.0,-2.9623143672943115,7.802994728088379,-5.44845724105835
6,7600.0,-2.9623143672943115,7.802994728088379,-5.44845724105835
7,7700.0,-1.0193424224853516,5.010570526123047,-7.549355506896973
8,7800.0,-1.0193424224853516,5.010570526123047,-7.549355506896973
9,7900.0,-0.9667003750801086,6.7621169090271,-7.070791244506836
10,8000.0,-0.9667003750801086,6.7621169090271,-7.070791244506836
11,8100.0,-0.9667003750801086,6.7621169090271,-7.070791244506836
12,8200.0,-0.8566305041313171,5.982056617736816,-7.307680606842041
13,8300.0,-0.8566305041313171,5.982056617736816,-7.307680606842041
14,8400.0,-0.9762716889381408,6.3290162086486825,-7.458428382873535
15,8500.0,-0.9762716889381408,6.3290162086486825,-7.458428382873535
16,8600.0,-0.5503491759300232,5.898308277130128,-7.898707389831543
17,8700.0,-0.5503491759300232,5.898308277130128,-7.898707389831543
18,8800.0,-0.3684946894645691,8.195417404174805,-6.640083312988281
19,8900.0,-0.3684946894645691,8.195417404174805,-6.640083312988281
20,9000.0,-0.3684946894645691,8.195417404174805,-6.640083312988281
21,9100.0,-0.7465606331825256,8.322237014770508,-7.896315097808838
22,9200.0,-0.7465606331825256,8.322237014770508,-7.896315097808838
23,9300.0,-0.07657032459974289,5.716453552246094,-8.255237579345701
24,9400.0,-0.07657032459974289,5.716453552246094,-8.255237579345701
25,9500.0,-0.4881358444690704,5.548955917358398,-8.200202941894531
26,9600.0,-0.4881358444690704,5.548955917358398,-8.200202941894531
27,9700.0,-0.4881358444690704,5.548955917358398,-8.200202941894531
28,9800.0,-1.5553346872329712,6.204589366912843,-7.463213920593263
29,9900.0,-1.5553346872329712,6.204589366912843,-7.463213920593263
30,8500.0,-0.9762716889381408,6.3290162086486825,-7.458428382873535
31,8600.0,-0.5503491759300232,5.898308277130128,-7.898707389831543
32,8700.0,-0.5503491759300232,5.898308277130128,-7.898707389831543
33,8800.0,-0.3684946894645691,8.195417404174805,-6.640083312988281
34,8900.0,-0.3684946894645691,8.195417404174805,-6.640083312988281
35,9000.0,-0.3684946894645691,8.195417404174805,-6.640083312988281
36,9100.0,-0.7465606331825256,8.322237014770508,-7.896315097808838
37,9200.0,-0.7465606331825256,8.322237014770508,-7.896315097808838
38,9300.0,-0.07657032459974289,5.716453552246094,-8.255237579345701
39,9400.0,-0.07657032459974289,5.716453552246094,-8.255237579345701
40,9500.0,-0.4881358444690704,5.548955917358398,-8.200202941894531
41,9600.0,-0.4881358444690704,5.548955917358398,-8.200202941894531
42,9700.0,-0.4881358444690704,5.548955917358398,-8.200202941894531
43,9800.0,-1.5553346872329712,6.204589366912843,-7.463213920593263
44,9900.0,-1.5553346872329712,6.204589366912843,-7.463213920593263
45,10000.0,-0.5599204897880554,4.555934429168701,-7.948956489562987
46,10100.0,-0.5599204897880554,4.555934429168701,-7.948956489562987
47,10200.0,-1.1820544004440308,6.405585765838622,-7.030113220214844
48,10300.0,-1.1820544004440308,6.405585765838622,-7.030113220214844
49,10400.0,-0.6939185857772827,6.491727352142334,-7.630711555480957
50,10500.0,-0.6939185857772827,6.491727352142334,-7.630711555480957
51,10600.0,-0.6939185857772827,6.491727352142334,-7.630711555480957
52,10700.0,-1.497907042503357,6.8554368019104,-6.661618232727051
53,10800.0,-1.497907042503357,6.8554368019104,-6.661618232727051
54,10900.0,-2.2779672145843506,5.931807041168213,-7.429713726043701
55,11000.0,-2.2779672145843506,5.931807041168213,-7.429713726043701
56,11100.0,-0.4785645008087158,5.745166778564452,-8.030312538146973
57,11200.0,-0.4785645008087158,5.745166778564452,-8.030312538146973
58,11300.0,-0.4785645008087158,5.745166778564452,-8.030312538146973
59,11400.0,-0.7657032012939453,6.137589931488037,-7.676175117492676
60,10000.0,-0.5599204897880554,4.555934429168701,-7.948956489562987
61,10100.0,-0.5599204897880554,4.555934429168701,-7.948956489562987
62,10200.0,-1.1820544004440308,6.405585765838622,-7.030113220214844
63,10300.0,-1.1820544004440308,6.405585765838622,-7.030113220214844
64,10400.0,-0.6939185857772827,6.491727352142334,-7.630711555480957
65,10500.0,-0.6939185857772827,6.491727352142334,-7.630711555480957
66,10600.0,-0.6939185857772827,6.491727352142334,-7.630711555480957
67,10700.0,-1.497907042503357,6.8554368019104,-6.661618232727051
68,10800.0,-1.497907042503357,6.8554368019104,-6.661618232727051
69,10900.0,-2.2779672145843506,5.931807041168213,-7.429713726043701
70,11000.0,-2.2779672145843506,5.931807041168213,-7.429713726043701
71,11100.0,-0.4785645008087158,5.745166778564452,-8.030312538146973
72,11200.0,-0.4785645008087158,5.745166778564452,-8.030312538146973
73,11300.0,-0.4785645008087158,5.745166778564452,-8.030312538146973
74,11400.0,-0.7657032012939453,6.137589931488037,-7.676175117492676
75,11500.0,-0.7657032012939453,6.137589931488037,-7.676175117492676
76,11600.0,-1.1485549211502075,9.121439933776855,-7.439285278320312
77,11700.0,-1.1485549211502075,9.121439933776855,-7.439285278320312
78,11800.0,-1.1485549211502075,9.121439933776855,-7.439285278320312
79,11900.0,-0.7465606331825256,5.178067684173584,-7.616354942321777
80,12000.0,-0.7465606331825256,5.178067684173584,-7.616354942321777
81,12100.0,-1.1389836072921753,6.463014125823975,-7.331608772277832
82,12200.0,-1.1389836072921753,6.463014125823975,-7.331608772277832
83,12300.0,-0.5599204897880554,6.111269474029541,-8.166703224182129
84,12400.0,-0.5599204897880554,6.111269474029541,-8.166703224182129
85,12500.0,-0.6029912829399109,6.269195556640625,-7.783851623535156
86,12600.0,-0.6029912829399109,6.269195556640625,-7.783851623535156
87,12700.0,-0.6029912829399109,6.269195556640625,-7.783851623535156
88,12800.0,-0.7226324081420898,6.2500529289245605,-7.381857395172119
89,12900.0,-0.7226324081420898,6.2500529289245605,-7.381857395172119
90,11500.0,-0.7657032012939453,6.137589931488037,-7.676175117492676
91,11600.0,-1.1485549211502075,9.121439933776855,-7.439285278320312
92,11700.0,-1.1485549211502075,9.121439933776855,-7.439285278320312
93,11800.0,-1.1485549211502075,9.121439933776855,-7.439285278320312
94,11900.0,-0.7465606331825256,5.178067684173584,-7.616354942321777
95,12000.0,-0.7465606331825256,5.178067684173584,-7.616354942321777
96,12100.0,-1.1389836072921753,6.463014125823975,-7.331608772277832
97,12200.0,-1.1389836072921753,6.463014125823975,-7.331608772277832
98,12300.0,-0.5599204897880554,6.111269474029541,-8.166703224182129
99,12400.0,-0.5599204897880554,6.111269474029541,-8.166703224182129
100,12500.0,-0.6029912829399109,6.269195556640625,-7.783851623535156
101,12600.0,-0.6029912829399109,6.269195556640625,-7.783851623535156
102,12700.0,-0.6029912829399109,6.269195556640625,-7.783851623535156
103,12800.0,-0.7226324081420898,6.2500529289245605,-7.381857395172119
104,12900.0,-0.7226324081420898,6.2500529289245605,-7.381857395172119
105,13000.0,-0.8757730722427368,4.651647090911865,-7.192824840545653
106,13100.0,-0.8757730722427368,4.651647090911865,-7.192824840545653
107,13200.0,-0.8039883971214294,5.773881435394287,-8.039883613586426
108,13300.0,-0.8039883971214294,5.773881435394287,-8.039883613586426
109,13400.0,-0.8039883971214294,5.773881435394287,-8.039883613586426
110,13500.0,-0.7369893789291382,6.005984783172607,-7.592426776885986
111,13600.0,-0.7369893789291382,6.005984783172607,-7.592426776885986
112,13700.0,-0.4211367666721344,5.7403812408447275,-8.267202377319336
113,13800.0,-0.4211367666721344,5.7403812408447275,-8.267202377319336
114,13900.0,-1.0049854516983032,6.001199245452881,-7.654639720916747
115,14000.0,-1.0049854516983032,6.001199245452881,-7.654639720916747
116,14100.0,-1.0049854516983032,6.001199245452881,-7.654639720916747
117,14200.0,-0.5886343717575073,5.967699527740479,-7.831708431243896
118,14300.0,-0.5886343717575073,5.967699527740479,-7.831708431243896
119,14400.0,-0.7226324081420898,6.075376510620117,-7.685746192932129
120,13000.0,-0.8757730722427368,4.651647090911865,-7.192824840545653
121,13100.0,-0.8757730722427368,4.651647090911865,-7.192824840545653
122,13200.0,-0.8039883971214294,5.773881435394287,-8.039883613586426
123,13300.0,-0.8039883971214294,5.773881435394287,-8.039883613586426
124,13400.0,-0.8039883971214294,5.773881435394287,-8.039883613586426
125,13500.0,-0.7369893789291382,6.005984783172607,-7.592426776885986
126,13600.0,-0.7369893789291382,6.005984783172607,-7.592426776885986
127,13700.0,-0.4211367666721344,5.7403812408447275,-8.267202377319336
128,13800.0,-0.4211367666721344,5.7403812408447275,-8.267202377319336
129,13900.0,-1.0049854516983032,6.001199245452881,-7.654639720916747
130,14000.0,-1.0049854516983032,6.001199245452881,-7.654639720916747
131,14100.0,-1.0049854516983032,6.001199245452881,-7.654639720916747
132,14200.0,-0.5886343717575073,5.967699527740479,-7.831708431243896
133,14300.0,-0.5886343717575073,5.967699527740479,-7.831708431243896
134,14400.0,-0.7226324081420898,6.075376510620117,-7.685746192932129
135,14500.0,-0.7226324081420898,6.075376510620117,-7.685746192932129
136,14600.0,-0.7513462901115417,5.9533424377441415,-8.25284481048584
137,14700.0,-0.7513462901115417,5.9533424377441415,-8.25284481048584
138,14800.0,-0.7513462901115417,5.9533424377441415,-8.25284481048584
139,14900.0,-0.5407779216766357,5.8097734451293945,-7.671389579772949
140,15000.0,-0.5407779216766357,5.8097734451293945,-7.671389579772949
141,15100.0,-0.5072783827781677,4.620540142059326,-8.228917121887207
142,15200.0,-0.5072783827781677,4.620540142059326,-8.228917121887207
143,15300.0,-0.6652047038078308,6.216552734375,-7.872386455535889
144,15400.0,-0.6652047038078308,6.216552734375,-7.872386455535889
145,15500.0,-0.5982056856155396,5.860023021697997,-7.8867435455322275
146,15600.0,-0.5982056856155396,5.860023021697997,-7.8867435455322275
147,15700.0,-0.5982056856155396,5.860023021697997,-7.8867435455322275
148,15800.0,-0.6843472719192505,6.001199245452881,-7.654639720916747
149,15900.0,-0.6843472719192505,6.001199245452881,-7.654639720916747
150,14500.0,-0.7226324081420898,6.075376510620117,-7.685746192932129
151,14600.0,-0.7513462901115417,5.9533424377441415,-8.25284481048584
152,14700.0,-0.7513462901115417,5.9533424377441415,-8.25284481048584
153,14800.0,-0.7513462901115417,5.9533424377441415,-8.25284481048584
154,14900.0,-0.5407779216766357,5.8097734451293945,-7.671389579772949
155,15000.0,-0.5407779216766357,5.8097734451293945,-7.671389579772949
156,15100.0,-0.5072783827781677,4.620540142059326,-8.228917121887207
157,15200.0,-0.5072783827781677,4.620540142059326,-8.228917121887207
158,15300.0,-0.6652047038078308,6.216552734375,-7.872386455535889
159,15400.0,-0.6652047038078308,6.216552734375,-7.872386455535889
160,15500.0,-0.5982056856155396,5.860023021697997,-7.8867435455322275
161,15600.0,-0.5982056856155396,5.860023021697997,-7.8867435455322275
162,15700.0,-0.5982056856155396,5.860023021697997,-7.8867435455322275
163,15800.0,-0.6843472719192505,6.001199245452881,-7.654639720916747
164,15900.0,-0.6843472719192505,6.001199245452881,-7.654639720916747
165,16000.0,-0.8135597109794617,5.965306758880615,-7.34357213973999
166,16100.0,-0.8135597109794617,5.965306758880615,-7.34357213973999
167,16200.0,-0.22492533922195435,6.113661766052246,-7.984848976135254
168,16300.0,-0.22492533922195435,6.113661766052246,-7.984848976135254
169,16400.0,-0.22492533922195435,6.113661766052246,-7.984848976135254
170,16500.0,-0.6173481941223145,5.6350975036621085,-7.597211837768555
171,16600.0,-0.6173481941223145,5.6350975036621085,-7.597211837768555
172,16700.0,-0.5886343717575073,6.10887622833252,-7.477570533752441
173,16800.0,-0.5886343717575073,6.10887622833252,-7.477570533752441
174,16900.0,-0.4354937374591827,6.135197162628174,-7.680960178375244
175,17000.0,-0.4354937374591827,6.135197162628174,-7.680960178375244
176,17100.0,-0.5934200286865234,6.02512788772583,-7.637890338897705
177,17200.0,-0.5934200286865234,6.02512788772583,-7.637890338897705
178,17300.0,-0.5934200286865234,6.02512788772583,-7.637890338897705
179,17400.0,-0.5551348924636841,5.874379634857178,-7.791030406951903
180,16000.0,-0.8135597109794617,5.965306758880615,-7.34357213973999
181,16100.0,-0.8135597109794617,5.965306758880615,-7.34357213973999
182,16200.0,-0.22492533922195435,6.113661766052246,-7.984848976135254
183,16300.0,-0.22492533922195435,6.113661766052246,-7.984848976135254
184,16400.0,-0.22492533922195435,6.113661766052246,-7.984848976135254
185,16500.0,-0.6173481941223145,5.6350975036621085,-7.597211837768555
186,16600.0,-0.6173481941223145,5.6350975036621085,-7.597211837768555
187,16700.0,-0.5886343717575073,6.10887622833252,-7.477570533752441
188,16800.0,-0.5886343717575073,6.10887622833252,-7.477570533752441
189,16900.0,-0.4354937374591827,6.135197162628174,-7.680960178375244
190,17000.0,-0.4354937374591827,6.135197162628174,-7.680960178375244
191,17100.0,-0.5934200286865234,6.02512788772583,-7.637890338897705
192,17200.0,-0.5934200286865234,6.02512788772583,-7.637890338897705
193,17300.0,-0.5934200286865234,6.02512788772583,-7.637890338897705
194,17400.0,-0.5551348924636841,5.874379634857178,-7.791030406951903
195,17500.0,-0.5551348924636841,5.874379634857178,-7.791030406951903
196,17600.0,-0.5934200286865234,5.776273727416992,-7.75753116607666
197,17700.0,-0.5934200286865234,5.776273727416992,-7.75753116607666
198,17800.0,-0.4354937374591827,5.651846885681152,-8.11406135559082
199,17900.0,-0.4354937374591827,5.651846885681152,-8.11406135559082
200,18000.0,-0.4354937374591827,5.651846885681152,-8.11406135559082
201,18100.0,-0.4642075896263122,5.9030938148498535,-8.018348693847656
202,18200.0,-0.4642075896263122,5.9030938148498535,-8.018348693847656
203,18300.0,-0.4833501875400543,6.166304588317871,-7.795816421508789
204,18400.0,-0.4833501875400543,6.166304588317871,-7.795816421508789
205,18500.0,-0.7034898400306702,6.111269474029541,-7.39142894744873
206,18600.0,-0.7034898400306702,6.111269474029541,-7.39142894744873
207,18700.0,-0.7034898400306702,6.111269474029541,-7.39142894744873
208,18800.0,-0.4833501875400543,6.051448345184326,-7.377072334289551
209,18900.0,-0.4833501875400543,6.051448345184326,-7.377072334289551
210,17500.0,-0.5551348924636841,5.874379634857178,-7.791030406951903
211,17600.0,-0.5934200286865234,5.776273727416992,-7.75753116607666
212,17700.0,-0.5934200286865234,5.776273727416992,-7.75753116607666
213,17800.0,-0.4354937374591827,5.651846885681152,-8.11406135559082
214,17900.0,-0.4354937374591827,5.651846885681152,-8.11406135559082
215,18000.0,-0.4354937374591827,5.651846885681152,-8.11406135559082
216,18100.0,-0.4642075896263122,5.9030938148498535,-8.018348693847656
217,18200.0,-0.4642075896263122,5.9030938148498535,-8.018348693847656
218,18300.0,-0.4833501875400543,6.166304588317871,-7.795816421508789
219,18400.0,-0.4833501875400543,6.166304588317871,-7.795816421508789
220,18500.0,-0.7034898400306702,6.111269474029541,-7.39142894744873
221,18600.0,-0.7034898400306702,6.111269474029541,-7.39142894744873
222,18700.0,-0.7034898400306702,6.111269474029541,-7.39142894744873
223,18800.0,-0.4833501875400543,6.051448345184326,-7.377072334289551
224,18900.0,-0.4833501875400543,6.051448345184326,-7.377072334289551
225,19000.0,-0.4881358444690704,5.883951187133789,-7.929814338684082
226,19100.0,-0.4881358444690704,5.883951187133789,-7.929814338684082
227,19200.0,-0.12921242415905002,5.886343479156494,-8.094919204711914
228,19300.0,-0.12921242415905002,5.886343479156494,-8.094919204711914
229,19400.0,-0.12921242415905002,5.886343479156494,-8.094919204711914
230,19500.0,-0.9332008361816406,7.657032012939452,-6.467799663543701
231,19600.0,-0.9332008361816406,7.657032012939452,-6.467799663543701
232,19700.0,-1.1581261157989502,7.767102241516112,-5.053641319274902
233,19800.0,-1.1581261157989502,7.767102241516112,-5.053641319274902
234,19900.0,-1.1006983518600464,7.16650390625,-8.3629150390625
235,20000.0,-1.1006983518600464,7.16650390625,-8.3629150390625
236,20100.0,-1.1006983518600464,7.16650390625,-8.3629150390625
237,20200.0,-1.1868400573730469,7.209574222564697,-6.838686943054199
238,20300.0,-1.1868400573730469,7.209574222564697,-6.838686943054199
239,20400.0,0.1627119481563568,6.544370174407959,-8.13798999786377
240,19000.0,-0.4881358444690704,5.883951187133789,-7.929814338684082
241,19100.0,-0.4881358444690704,5.883951187133789,-7.929814338684082
242,19200.0,-0.12921242415905002,5.886343479156494,-8.094919204711914
243,19300.0,-0.12921242415905002,5.886343479156494,-8.094919204711914
244,19400.0,-0.12921242415905002,5.886343479156494,-8.094919204711914
245,19500.0,-0.9332008361816406,7.657032012939452,-6.467799663543701
246,19600.0,-0.9332008361816406,7.657032012939452,-6.467799663543701
247,19700.0,-1.1581261157989502,7.767102241516112,-5.053641319274902
248,19800.0,-1.1581261157989502,7.767102241516112,-5.053641319274902
249,19900.0,-1.1006983518600464,7.16650390625,-8.3629150390625
250,20000.0,-1.1006983518600464,7.16650390625,-8.3629150390625
251,20100.0,-1.1006983518600464,7.16650390625,-8.3629150390625
252,20200.0,-1.1868400573730469,7.209574222564697,-6.838686943054199
253,20300.0,-1.1868400573730469,7.209574222564697,-6.838686943054199
254,20400.0,0.1627119481563568,6.544370174407959,-8.13798999786377
255,20500.0,0.1627119481563568,6.544370174407959,-8.13798999786377
256,20600.0,-0.5934200286865234,6.302694320678711,-7.487142086029053
257,20700.0,-0.5934200286865234,6.302694320678711,-7.487142086029053
258,20800.0,-0.5934200286865234,6.302694320678711,-7.487142086029053
259,20900.0,-0.5551348924636841,5.769095420837402,-7.714460372924805
260,21000.0,-0.5551348924636841,5.769095420837402,-7.714460372924805
261,21100.0,-0.36370906233787537,6.27158784866333,-7.688138484954834
262,21200.0,-0.36370906233787537,6.27158784866333,-7.688138484954834
263,21300.0,-0.5407779216766357,6.527620315551758,-7.477570533752441
264,21400.0,-0.5407779216766357,6.527620315551758,-7.477570533752441
265,21500.0,-0.5694918036460876,5.737988471984862,-7.850851535797119
266,21600.0,-0.5694918036460876,5.737988471984862,-7.850851535797119
267,21700.0,-0.5694918036460876,5.737988471984862,-7.850851535797119
268,21800.0,-0.6604190468788147,6.51326322555542,-7.190432548522949
269,21900.0,-0.6604190468788147,6.51326322555542,-7.190432548522949
270,20500.0,0.1627119481563568,6.544370174407959,-8.13798999786377
271,20600.0,-0.5934200286865234,6.302694320678711,-7.487142086029053
272,20700.0,-0.5934200286865234,6.302694320678711,-7.487142086029053
273,20800.0,-0.5934200286865234,6.302694320678711,-7.487142086029053
274,20900.0,-0.5551348924636841,5.769095420837402,-7.714460372924805
275,21000.0,-0.5551348924636841,5.769095420837402,-7.714460372924805
276,21100.0,-0.36370906233787537,6.27158784866333,-7.688138484954834
277,21200.0,-0.36370906233787537,6.27158784866333,-7.688138484954834
278,21300.0,-0.5407779216766357,6.527620315551758,-7.477570533752441
279,21400.0,-0.5407779216766357,6.527620315551758,-7.477570533752441
280,21500.0,-0.5694918036460876,5.737988471984862,-7.850851535797119
281,21600.0,-0.5694918036460876,5.737988471984862,-7.850851535797119
282,21700.0,-0.5694918036460876,5.737988471984862,-7.850851535797119
283,21800.0,-0.6604190468788147,6.51326322555542,-7.190432548522949
284,21900.0,-0.6604190468788147,6.51326322555542,-7.190432548522949
285,22000.0,-0.5264209508895874,5.855237007141112,-7.781459331512451
286,22100.0,-0.5264209508895874,5.855237007141112,-7.781459331512451
287,22200.0,-0.25842484831810003,5.757131576538086,-7.9106712341308585
288,22300.0,-0.25842484831810003,5.757131576538086,-7.9106712341308585
289,22400.0,-1.497907042503357,6.654439926147461,-6.86261510848999
290,22500.0,-1.497907042503357,6.654439926147461,-6.86261510848999
291,22600.0,-0.3876372575759888,5.989234924316406,-7.422535419464111
292,22700.0,-0.3876372575759888,5.989234924316406,-7.422535419464111
293,22800.0,-0.3876372575759888,5.989234924316406,-7.422535419464111
294,22900.0,-0.0813559740781784,5.6997032165527335,-8.12123966217041
295,23000.0,-0.0813559740781784,5.6997032165527335,-8.12123966217041
296,23100.0,-0.22492533922195435,5.72841739654541,-8.059026718139647
297,23200.0,-0.22492533922195435,5.72841739654541,-8.059026718139647
298,23300.0,-0.22492533922195435,5.72841739654541,-8.059026718139647
299,23400.0,-0.5934200286865234,6.230910301208496,-7.448856830596924
300,22000.0,-0.5264209508895874,5.855237007141112,-7.781459331512451
301,22100.0,-0.5264209508895874,5.855237007141112,-7.781459331512451
302,22200.0,-0.25842484831810003,5.757131576538086,-7.9106712341308585
303,22300.0,-0.25842484831810003,5.757131576538086,-7.9106712341308585
304,22400.0,-1.497907042503357,6.654439926147461,-6.86261510848999
305,22500.0,-1.497907042503357,6.654439926147461,-6.86261510848999
306,22600.0,-0.3876372575759888,5.989234924316406,-7.422535419464111
307,22700.0,-0.3876372575759888,5.989234924316406,-7.422535419464111
308,22800.0,-0.3876372575759888,5.989234924316406,-7.422535419464111
309,22900.0,-0.0813559740781784,5.6997032165527335,-8.12123966217041
310,23000.0,-0.0813559740781784,5.6997032165527335,-8.12123966217041
311,23100.0,-0.22492533922195435,5.72841739654541,-8.059026718139647
312,23200.0,-0.22492533922195435,5.72841739654541,-8.059026718139647
313,23300.0,-0.22492533922195435,5.72841739654541,-8.059026718139647
314,23400.0,-0.5934200286865234,6.230910301208496,-7.448856830596924
315,23500.0,-0.5934200286865234,6.230910301208496,-7.448856830596924
316,23600.0,-0.794417142868042,5.752345561981201,-7.252645492553711
317,23700.0,-0.794417142868042,5.752345561981201,-7.252645492553711
318,23800.0,-0.7226324081420898,6.92482852935791,-6.982256412506104
319,23900.0,-0.7226324081420898,6.92482852935791,-6.982256412506104
320,24000.0,-0.9379864931106568,7.276573657989503,-6.2979087829589835
321,24100.0,-0.9379864931106568,7.276573657989503,-6.2979087829589835
322,24200.0,-0.9379864931106568,7.276573657989503,-6.2979087829589835
323,24300.0,-0.6173481941223145,6.616154670715332,-6.936792850494385
324,24400.0,-0.6173481941223145,6.616154670715332,-6.936792850494385
325,24500.0,-0.10049854964017868,6.345765590667725,-7.355536937713622
326,24600.0,-0.10049854964017868,6.345765590667725,-7.355536937713622
327,24700.0,-0.10049854964017868,6.345765590667725,-7.355536937713622
328,24800.0,-0.3062812983989716,6.740581512451173,-7.097111701965332
329,24900.0,-0.3062812983989716,6.740581512451173,-7.097111701965332
330,23500.0,-0.5934200286865234,6.230910301208496,-7.448856830596924
331,23600.0,-0.794417142868042,5.752345561981201,-7.252645492553711
332,23700.0,-0.794417142868042,5.752345561981201,-7.252645492553711
333,23800.0,-0.7226324081420898,6.92482852935791,-6.982256412506104
334,23900.0,-0.7226324081420898,6.92482852935791,-6.982256412506104
335,24000.0,-0.9379864931106568,7.276573657989503,-6.2979087829589835
336,24100.0,-0.9379864931106568,7.276573657989503,-6.2979087829589835
337,24200.0,-0.9379864931106568,7.276573657989503,-6.2979087829589835
338,24300.0,-0.6173481941223145,6.616154670715332,-6.936792850494385
339,24400.0,-0.6173481941223145,6.616154670715332,-6.936792850494385
340,24500.0,-0.10049854964017868,6.345765590667725,-7.355536937713622
341,24600.0,-0.10049854964017868,6.345765590667725,-7.355536937713622
342,24700.0,-0.10049854964017868,6.345765590667725,-7.355536937713622
343,24800.0,-0.3062812983989716,6.740581512451173,-7.097111701965332
344,24900.0,-0.3062812983989716,6.740581512451173,-7.097111701965332
345,25000.0,-0.12442677468061447,6.185446262359619,-7.604390144348144
346,25100.0,-0.12442677468061447,6.185446262359619,-7.604390144348144
347,25200.0,-0.19142580032348636,6.482156753540039,-7.477570533752441
348,25300.0,-0.19142580032348636,6.482156753540039,-7.477570533752441
349,25400.0,-0.3110669553279877,6.144768238067628,-7.623533248901367
350,25500.0,-0.3110669553279877,6.144768238067628,-7.623533248901367
351,25600.0,-0.3110669553279877,6.144768238067628,-7.623533248901367
352,25700.0,-0.5886343717575073,6.843472957611084,-6.6903319358825675
353,25800.0,-0.5886343717575073,6.843472957611084,-6.6903319358825675
354,25900.0,-0.28235307335853577,5.869593620300293,-7.688138484954834
355,26000.0,-0.28235307335853577,5.869593620300293,-7.688138484954834
356,26100.0,-0.28235307335853577,5.869593620300293,-7.688138484954834
357,26200.0,-0.8997013568878174,8.439485549926758,-7.063612461090088
358,26300.0,-0.8997013568878174,8.439485549926758,-7.063612461090088
359,26400.0,-1.9621145725250244,4.706681728363037,-6.0466628074646
360,25000.0,-0.12442677468061447,6.185446262359619,-7.604390144348144
361,25100.0,-0.12442677468061447,6.185446262359619,-7.604390144348144
362,25200.0,-0.19142580032348636,6.482156753540039,-7.477570533752441
363,25300.0,-0.19142580032348636,6.482156753540039,-7.477570533752441
364,25400.0,-0.3110669553279877,6.144768238067628,-7.623533248901367
365,25500.0,-0.3110669553279877,6.144768238067628,-7.623533248901367
366,25600.0,-0.3110669553279877,6.144768238067628,-7.623533248901367
367,25700.0,-0.5886343717575073,6.843472957611084,-6.6903319358825675
368,25800.0,-0.5886343717575073,6.843472957611084,-6.6903319358825675
369,25900.0,-0.28235307335853577,5.869593620300293,-7.688138484954834
370,26000.0,-0.28235307335853577,5.869593620300293,-7.688138484954834
371,26100.0,-0.28235307335853577,5.869593620300293,-7.688138484954834
372,26200.0,-0.8997013568878174,8.439485549926758,-7.063612461090088
373,26300.0,-0.8997013568878174,8.439485549926758,-7.063612461090088
374,26400.0,-1.9621145725250244,4.706681728363037,-6.0466628074646
375,26500.0,-1.9621145725250244,4.706681728363037,-6.0466628074646
376,26600.0,-0.2488535493612289,8.506484031677246,-7.28375244140625
377,26700.0,-0.2488535493612289,8.506484031677246,-7.28375244140625
378,26800.0,-0.2488535493612289,8.506484031677246,-7.28375244140625
379,26900.0,-0.9954141974449158,6.8482584953308105,-7.41535758972168
380,27000.0,-0.9954141974449158,6.8482584953308105,-7.41535758972168
381,27100.0,-0.7465606331825256,6.63051176071167,-6.805188179016112
382,27200.0,-0.7465606331825256,6.63051176071167,-6.805188179016112
383,27300.0,-0.2919243574142456,5.804987907409668,-7.793423175811768
384,27400.0,-0.2919243574142456,5.804987907409668,-7.793423175811768
385,27500.0,-0.2919243574142456,5.804987907409668,-7.793423175811768
386,27600.0,-0.4977070987224579,6.63051176071167,-7.257431030273437
387,27700.0,-0.4977070987224579,6.63051176071167,-7.257431030273437
388,27800.0,-0.25842484831810003,6.020341873168945,-7.920242786407472
389,27900.0,-0.25842484831810003,6.020341873168945,-7.920242786407472
390,26500.0,-1.9621145725250244,4.706681728363037,-6.0466628074646
391,26600.0,-0.2488535493612289,8.506484031677246,-7.28375244140625
392,26700.0,-0.2488535493612289,8.506484031677246,-7.28375244140625
393,26800.0,-0.2488535493612289,8.506484031677246,-7.28375244140625
394,26900.0,-0.9954141974449158,6.8482584953308105,-7.41535758972168
395,27000.0,-0.9954141974449158,6.8482584953308105,-7.41535758972168
396,27100.0,-0.7465606331825256,6.63051176071167,-6.805188179016112
397,27200.0,-0.7465606331825256,6.63051176071167,-6.805188179016112
398,27300.0,-0.2919243574142456,5.804987907409668,-7.793423175811768
399,27400.0,-0.2919243574142456,5.804987907409668,-7.793423175811768
400,27500.0,-0.2919243574142456,5.804987907409668,-7.793423175811768
401,27600.0,-0.4977070987224579,6.63051176071167,-7.257431030273437
402,27700.0,-0.4977070987224579,6.63051176071167,-7.257431030273437
403,27800.0,-0.25842484831810003,6.020341873168945,-7.920242786407472
404,27900.0,-0.25842484831810003,6.020341873168945,-7.920242786407472
405,28000.0,-0.4259224236011505,6.0945191383361825,-7.618747234344482
406,28100.0,-0.4259224236011505,6.0945191383361825,-7.618747234344482
407,28200.0,-0.4259224236011505,6.0945191383361825,-7.618747234344482
408,28300.0,-0.6604190468788147,6.419942855834961,-7.52303409576416
409,28400.0,-0.6604190468788147,6.419942855834961,-7.52303409576416
410,28500.0,-0.8422735333442688,6.005984783172607,-7.623533248901367
411,28600.0,-0.8422735333442688,6.005984783172607,-7.623533248901367
412,28700.0,-0.7369893789291382,6.506085395812987,-7.133004188537598
413,28800.0,-0.7369893789291382,6.506085395812987,-7.133004188537598
414,28900.0,-0.30149564146995544,5.402993679046631,-7.88913631439209
415,29000.0,-0.30149564146995544,5.402993679046631,-7.88913631439209
416,29100.0,-0.3397807776927948,5.843273162841798,-7.740781307220459
417,29200.0,-0.3397807776927948,5.843273162841798,-7.740781307220459
418,29300.0,-0.3397807776927948,5.843273162841798,-7.740781307220459
419,29400.0,-0.5216353535652161,6.788437843322754,-7.0923261642456055
420,28000.0,-0.4259224236011505,6.0945191383361825,-7.618747234344482
421,28100.0,-0.4259224236011505,6.0945191383361825,-7.618747234344482
422,28200.0,-0.4259224236011505,6.0945191383361825,-7.618747234344482
423,28300.0,-0.6604190468788147,6.419942855834961,-7.52303409576416
424,28400.0,-0.6604190468788147,6.419942855834961,-7.52303409576416
425,28500.0,-0.8422735333442688,6.005984783172607,-7.623533248901367
426,28600.0,-0.8422735333442688,6.005984783172607,-7.623533248901367
427,28700.0,-0.7369893789291382,6.506085395812987,-7.133004188537598
428,28800.0,-0.7369893789291382,6.506085395812987,-7.133004188537598
429,28900.0,-0.30149564146995544,5.402993679046631,-7.88913631439209
430,29000.0,-0.30149564146995544,5.402993679046631,-7.88913631439209
431,29100.0,-0.3397807776927948,5.843273162841798,-7.740781307220459
432,29200.0,-0.3397807776927948,5.843273162841798,-7.740781307220459
433,29300.0,-0.3397807776927948,5.843273162841798,-7.740781307220459
434,29400.0,-0.5216353535652161,6.788437843322754,-7.0923261642456055
435,29500.0,-0.5216353535652161,6.788437843322754,-7.0923261642456055
436,29600.0,-0.35413774847984314,5.960521221160889,-7.716853141784668
437,29700.0,-0.35413774847984314,5.960521221160889,-7.716853141784668
438,29800.0,-0.9044869542121888,6.221338748931885,-7.125825881958008
439,29900.0,-0.9044869542121888,6.221338748931885,-7.125825881958008
440,30000.0,-0.7752745151519775,6.4151573181152335,-7.101897716522218
441,30100.0,-0.7752745151519775,6.4151573181152335,-7.101897716522218
442,30200.0,-0.7752745151519775,6.4151573181152335,-7.101897716522218
443,30300.0,-0.7178468108177185,6.632904052734375,-7.032505512237549
444,30400.0,-0.7178468108177185,6.632904052734375,-7.032505512237549
445,30500.0,-0.5790630578994751,6.226124286651611,-7.853243827819824
446,30600.0,-0.5790630578994751,6.226124286651611,-7.853243827819824
447,30700.0,-1.5601203441619873,6.5084776878356925,-6.98704195022583
448,30800.0,-1.5601203441619873,6.5084776878356925,-6.98704195022583
449,30900.0,-1.5601203441619873,6.5084776878356925,-6.98704195022583
450,29500.0,-0.5216353535652161,6.788437843322754,-7.0923261642456055
451,29600.0,-0.35413774847984314,5.960521221160889,-7.716853141784668
452,29700.0,-0.35413774847984314,5.960521221160889,-7.716853141784668
453,29800.0,-0.9044869542121888,6.221338748931885,-7.125825881958008
454,29900.0,-0.9044869542121888,6.221338748931885,-7.125825881958008
455,30000.0,-0.7752745151519775,6.4151573181152335,-7.101897716522218
456,30100.0,-0.7752745151519775,6.4151573181152335,-7.101897716522218
457,30200.0,-0.7752745151519775,6.4151573181152335,-7.101897716522218
458,30300.0,-0.7178468108177185,6.632904052734375,-7.032505512237549
459,30400.0,-0.7178468108177185,6.632904052734375,-7.032505512237549
460,30500.0,-0.5790630578994751,6.226124286651611,-7.853243827819824
461,30600.0,-0.5790630578994751,6.226124286651611,-7.853243827819824
462,30700.0,-1.5601203441619873,6.5084776878356925,-6.98704195022583
463,30800.0,-1.5601203441619873,6.5084776878356925,-6.98704195022583
464,30900.0,-1.5601203441619873,6.5084776878356925,-6.98704195022583
465,31000.0,-0.7704889178276062,7.372286796569824,-6.721438884735107
466,31100.0,-0.7704889178276062,7.372286796569824,-6.721438884735107
467,31200.0,-0.7082754969596863,6.589833736419678,-7.393822193145753
468,31300.0,-0.7082754969596863,6.589833736419678,-7.393822193145753
469,31400.0,-0.8422735333442688,6.2979087829589835,-7.2502522468566895
470,31500.0,-0.8422735333442688,6.2979087829589835,-7.2502522468566895
471,31600.0,-0.8422735333442688,6.2979087829589835,-7.2502522468566895
472,31700.0,-0.7704889178276062,6.247659683227539,-7.39860725402832
473,31800.0,-0.7704889178276062,6.247659683227539,-7.39860725402832
474,31900.0,-0.7513462901115417,6.376872539520264,-7.39142894744873
475,32000.0,-0.7513462901115417,6.376872539520264,-7.39142894744873
476,32100.0,-0.3158525824546814,5.37906551361084,-8.11406135559082
477,32200.0,-0.3158525824546814,5.37906551361084,-8.11406135559082
478,32300.0,-0.4354937374591827,6.197411060333253,-8.863015174865723
479,32400.0,-0.4354937374591827,6.197411060333253,-8.863015174865723
480,31000.0,-0.7704889178276062,7.372286796569824,-6.721438884735107
481,31100.0,-0.7704889178276062,7.372286796569824,-6.721438884735107
482,31200.0,-0.7082754969596863,6.589833736419678,-7.393822193145753
483,31300.0,-0.7082754969596863,6.589833736419678,-7.393822193145753
484,31400.0,-0.8422735333442688,6.2979087829589835,-7.2502522468566895
485,31500.0,-0.8422735333442688,6.2979087829589835,-7.2502522468566895
486,31600.0,-0.8422735333442688,6.2979087829589835,-7.2502522468566895
487,31700.0,-0.7704889178276062,6.247659683227539,-7.39860725402832
488,31800.0,-0.7704889178276062,6.247659683227539,-7.39860725402832
489,31900.0,-0.7513462901115417,6.376872539520264,-7.39142894744873
490,32000.0,-0.7513462901115417,6.376872539520264,-7.39142894744873
491,32100.0,-0.3158525824546814,5.37906551361084,-8.11406135559082
492,32200.0,-0.3158525824546814,5.37906551361084,-8.11406135559082
493,32300.0,-0.4354937374591827,6.197411060333253,-8.863015174865723
494,32400.0,-0.4354937374591827,6.197411060333253,-8.863015174865723
495,32500.0,-0.4354937374591827,6.197411060333253,-8.863015174865723
496,32600.0,-0.35413774847984314,4.869394302368164,-8.248059272766112
497,32700.0,-0.35413774847984314,4.869394302368164,-8.248059272766112
498,32800.0,-0.8949156999588013,5.663811206817628,-7.410572052001952
499,32900.0,-0.8949156999588013,5.663811206817628,-7.410572052001952
500,33000.0,-0.4785645008087158,6.300302028656006,-7.491927623748778
501,33100.0,-0.4785645008087158,6.300302028656006,-7.491927623748778
502,33200.0,-0.8757730722427368,6.434299945831299,-6.778866291046143
503,33300.0,-0.8757730722427368,6.434299945831299,-6.778866291046143
504,33400.0,-1.5026925802230835,4.661218643188477,-7.082754611968994
505,33500.0,-1.5026925802230835,4.661218643188477,-7.082754611968994
506,33600.0,-1.5026925802230835,4.661218643188477,-7.082754611968994
507,33700.0,-0.607776939868927,6.247659683227539,-7.458428382873535
508,33800.0,-0.607776939868927,6.247659683227539,-7.458428382873535
509,33900.0,-0.7704889178276062,6.096912384033202,-7.592426776885986
510,32500.0,-0.4354937374591827,6.197411060333253,-8.863015174865723
511,32600.0,-0.35413774847984314,4.869394302368164,-8.248059272766112
512,32700.0,-0.35413774847984314,4.869394302368164,-8.248059272766112
513,32800.0,-0.8949156999588013,5.663811206817628,-7.410572052001952
514,32900.0,-0.8949156999588013,5.663811206817628,-7.410572052001952
515,33000.0,-0.4785645008087158,6.300302028656006,-7.491927623748778
516,33100.0,-0.4785645008087158,6.300302028656006,-7.491927623748778
517,33200.0,-0.8757730722427368,6.434299945831299,-6.778866291046143
518,33300.0,-0.8757730722427368,6.434299945831299,-6.778866291046143
519,33400.0,-1.5026925802230835,4.661218643188477,-7.082754611968994
520,33500.0,-1.5026925802230835,4.661218643188477,-7.082754611968994
521,33600.0,-1.5026925802230835,4.661218643188477,-7.082754611968994
522,33700.0,-0.607776939868927,6.247659683227539,-7.458428382873535
523,33800.0,-0.607776939868927,6.247659683227539,-7.458428382873535
524,33900.0,-0.7704889178276062,6.096912384033202,-7.592426776885986
525,34000.0,-0.7704889178276062,6.096912384033202,-7.592426776885986
526,34100.0,-0.5072783827781677,5.994020462036133,-7.716853141784668
527,34200.0,-0.5072783827781677,5.994020462036133,-7.716853141784668
528,34300.0,-0.5072783827781677,5.994020462036133,-7.716853141784668
529,34400.0,-0.3493521213531494,5.9988059997558585,-7.850851535797119
530,34500.0,-0.3493521213531494,5.9988059997558585,-7.850851535797119
531,34600.0,-0.22492533922195435,6.9344000816345215,-7.446464061737059
532,34700.0,-0.22492533922195435,6.9344000816345215,-7.446464061737059
533,34800.0,-1.2634103298187256,6.606583118438722,-6.853044033050537
534,34900.0,-1.2634103298187256,6.606583118438722,-6.853044033050537
535,35000.0,-0.9667003750801086,10.262815475463867,-7.0851478576660165
536,35100.0,-0.9667003750801086,10.262815475463867,-7.0851478576660165
537,35200.0,-0.9667003750801086,10.262815475463867,-7.0851478576660165
538,35300.0,-0.6795615553855896,6.675975322723389,-7.008577823638916
539,35400.0,-0.6795615553855896,6.675975322723389,-7.008577823638916
540,34000.0,-0.7704889178276062,6.096912384033202,-7.592426776885986
541,34100.0,-0.5072783827781677,5.994020462036133,-7.716853141784668
542,34200.0,-0.5072783827781677,5.994020462036133,-7.716853141784668
543,34300.0,-0.5072783827781677,5.994020462036133,-7.716853141784668
544,34400.0,-0.3493521213531494,5.9988059997558585,-7.850851535797119
545,34500.0,-0.3493521213531494,5.9988059997558585,-7.850851535797119
546,34600.0,-0.22492533922195435,6.9344000816345215,-7.446464061737059
547,34700.0,-0.22492533922195435,6.9344000816345215,-7.446464061737059
548,34800.0,-1.2634103298187256,6.606583118438722,-6.853044033050537
549,34900.0,-1.2634103298187256,6.606583118438722,-6.853044033050537
550,35000.0,-0.9667003750801086,10.262815475463867,-7.0851478576660165
551,35100.0,-0.9667003750801086,10.262815475463867,-7.0851478576660165
552,35200.0,-0.9667003750801086,10.262815475463867,-7.0851478576660165
553,35300.0,-0.6795615553855896,6.675975322723389,-7.008577823638916
554,35400.0,-0.6795615553855896,6.675975322723389,-7.008577823638916
555,35500.0,-0.7322037816047668,6.0921263694763175,-7.7048888206481925
556,35600.0,-0.7322037816047668,6.0921263694763175,-7.7048888206481925
557,35700.0,-0.5551348924636841,5.670989990234375,-7.987241268157959
558,35800.0,-0.5551348924636841,5.670989990234375,-7.987241268157959
559,35900.0,-0.5551348924636841,5.670989990234375,-7.987241268157959
560,36000.0,-1.584048628807068,4.828716278076172,-7.104290962219237
561,36100.0,-1.584048628807068,4.828716278076172,-7.104290962219237
562,36200.0,-1.1198409795761108,6.824329853057861,-6.721438884735107
563,36300.0,-1.1198409795761108,6.824329853057861,-6.721438884735107
564,36400.0,-0.9284151792526244,6.8482584953308105,-6.915257453918457
565,36500.0,-0.9284151792526244,6.8482584953308105,-6.915257453918457
566,36600.0,-0.5790630578994751,5.623133182525635,-8.461020469665527
567,36700.0,-0.5790630578994751,5.623133182525635,-8.461020469665527
568,36800.0,-0.4929214715957642,6.001199245452881,-7.427321434020996
569,36900.0,-0.4929214715957642,6.001199245452881,-7.427321434020996
570,35500.0,-0.7322037816047668,6.0921263694763175,-7.7048888206481925
571,35600.0,-0.7322037816047668,6.0921263694763175,-7.7048888206481925
572,35700.0,-0.5551348924636841,5.670989990234375,-7.987241268157959
573,35800.0,-0.5551348924636841,5.670989990234375,-7.987241268157959
574,35900.0,-0.5551348924636841,5.670989990234375,-7.987241268157959
575,36000.0,-1.584048628807068,4.828716278076172,-7.104290962219237
576,36100.0,-1.584048628807068,4.828716278076172,-7.104290962219237
577,36200.0,-1.1198409795761108,6.824329853057861,-6.721438884735107
578,36300.0,-1.1198409795761108,6.824329853057861,-6.721438884735107
579,36400.0,-0.9284151792526244,6.8482584953308105,-6.915257453918457
580,36500.0,-0.9284151792526244,6.8482584953308105,-6.915257453918457
581,36600.0,-0.5790630578994751,5.623133182525635,-8.461020469665527
582,36700.0,-0.5790630578994751,5.623133182525635,-8.461020469665527
583,36800.0,-0.4929214715957642,6.001199245452881,-7.427321434020996
584,36900.0,-0.4929214715957642,6.001199245452881,-7.427321434020996
585,37000.0,-0.9954141974449158,6.8721866607666025,-6.943971633911133
586,37100.0,-0.9954141974449158,6.8721866607666025,-6.943971633911133
587,37200.0,-0.9954141974449158,6.8721866607666025,-6.943971633911133
588,37300.0,-0.3158525824546814,5.644669055938722,-7.690531730651855
589,37400.0,-0.3158525824546814,5.644669055938722,-7.690531730651855
590,37500.0,-0.5120640397071838,5.565705299377441,-7.590033531188965
591,37600.0,-0.5120640397071838,5.565705299377441,-7.590033531188965
592,37700.0,-0.7513462901115417,5.785844802856445,-7.568498134613037
593,37800.0,-0.7513462901115417,5.785844802856445,-7.568498134613037
594,37900.0,-0.7513462901115417,5.785844802856445,-7.568498134613037
595,38000.0,-1.4500504732131958,6.168696403503418,-7.58524751663208
596,38100.0,-1.4500504732131958,6.168696403503418,-7.58524751663208
597,38200.0,-0.8805587291717529,6.668797016143799,-7.1712894439697275
598,38300.0,-0.8805587291717529,6.668797016143799,-7.1712894439697275
599,38400.0,-1.0336993932724001,6.7070817947387695,-7.3052873611450195
600,37000.0,-0.9954141974449158,6.8721866607666025,-6.943971633911133
601,37100.0,-0.9954141974449158,6.8721866607666025,-6.943971633911133
602,37200.0,-0.9954141974449158,6.8721866607666025,-6.943971633911133
603,37300.0,-0.3158525824546814,5.644669055938722,-7.690531730651855
604,37400.0,-0.3158525824546814,5.644669055938722,-7.690531730651855
605,37500.0,-0.5120640397071838,5.565705299377441,-7.590033531188965
606,37600.0,-0.5120640397071838,5.565705299377441,-7.590033531188965
607,37700.0,-0.7513462901115417,5.785844802856445,-7.568498134613037
608,37800.0,-0.7513462901115417,5.785844802856445,-7.568498134613037
609,37900.0,-0.7513462901115417,5.785844802856445,-7.568498134613037
610,38000.0,-1.4500504732131958,6.168696403503418,-7.58524751663208
611,38100.0,-1.4500504732131958,6.168696403503418,-7.58524751663208
612,38200.0,-0.8805587291717529,6.668797016143799,-7.1712894439697275
613,38300.0,-0.8805587291717529,6.668797016143799,-7.1712894439697275
614,38400.0,-1.0336993932724001,6.7070817947387695,-7.3052873611450195
615,38500.0,-1.0336993932724001,6.7070817947387695,-7.3052873611450195
616,38600.0,-1.0336993932724001,6.7070817947387695,-7.3052873611450195
617,38700.0,-0.7752745151519775,6.625725746154785,-7.245467185974121
618,38800.0,-0.7752745151519775,6.625725746154785,-7.245467185974121
619,38900.0,-0.9762716889381408,6.309873104095459,-7.568498134613037
620,39000.0,-0.9762716889381408,6.309873104095459,-7.568498134613037
621,39100.0,-0.9332008361816406,7.010970115661621,-8.394021987915039
622,39200.0,-0.9332008361816406,7.010970115661621,-8.394021987915039
623,39300.0,-0.9332008361816406,7.010970115661621,-8.394021987915039
624,39400.0,-0.8087739944458008,6.269195556640625,-7.692924976348878
625,39500.0,-0.8087739944458008,6.269195556640625,-7.692924976348878
626,39600.0,-0.9858429431915284,8.042276382446289,-7.29810905456543
627,39700.0,-0.9858429431915284,8.042276382446289,-7.29810905456543
628,39800.0,-0.861416220664978,5.965306758880615,-7.29810905456543
629,39900.0,-0.861416220664978,5.965306758880615,-7.29810905456543
630,38500.0,-1.0336993932724001,6.7070817947387695,-7.3052873611450195
631,38600.0,-1.0336993932724001,6.7070817947387695,-7.3052873611450195
632,38700.0,-0.7752745151519775,6.625725746154785,-7.245467185974121
633,38800.0,-0.7752745151519775,6.625725746154785,-7.245467185974121
634,38900.0,-0.9762716889381408,6.309873104095459,-7.568498134613037
635,39000.0,-0.9762716889381408,6.309873104095459,-7.568498134613037
636,39100.0,-0.9332008361816406,7.010970115661621,-8.394021987915039
637,39200.0,-0.9332008361816406,7.010970115661621,-8.394021987915039
638,39300.0,-0.9332008361816406,7.010970115661621,-8.394021987915039
639,39400.0,-0.8087739944458008,6.269195556640625,-7.692924976348878
640,39500.0,-0.8087739944458008,6.269195556640625,-7.692924976348878
641,39600.0,-0.9858429431915284,8.042276382446289,-7.29810905456543
642,39700.0,-0.9858429431915284,8.042276382446289,-7.29810905456543
643,39800.0,-0.861416220664978,5.965306758880615,-7.29810905456543
644,39900.0,-0.861416220664978,5.965306758880615,-7.29810905456543
645,40000.0,-0.7226324081420898,6.099304676055907,-7.556533336639403
646,40100.0,-0.7226324081420898,6.099304676055907,-7.556533336639403
647,40200.0,-0.9092726111412048,6.453442573547362,-7.496713638305664
648,40300.0,-0.9092726111412048,6.453442573547362,-7.496713638305664
649,40400.0,-0.9092726111412048,6.453442573547362,-7.496713638305664
650,40500.0,-0.8901299238204956,6.240481376647949,-7.183253765106201
651,40600.0,-0.8901299238204956,6.240481376647949,-7.183253765106201
652,40700.0,-1.0767701864242554,6.113661766052246,-7.231109619140625
653,40800.0,-1.0767701864242554,6.113661766052246,-7.231109619140625
654,40900.0,-1.0767701864242554,6.113661766052246,-7.231109619140625
655,41000.0,-0.8327022790908813,6.262016773223878,-7.34357213973999
656,41100.0,-0.8327022790908813,6.262016773223878,-7.34357213973999
657,41200.0,-0.7082754969596863,6.111269474029541,-7.46799898147583
658,41300.0,-0.7082754969596863,6.111269474029541,-7.46799898147583
659,41400.0,-0.9140582084655762,7.039684295654298,-7.149754047393799
660,40000.0,-0.7226324081420898,6.099304676055907,-7.556533336639403
661,40100.0,-0.7226324081420898,6.099304676055907,-7.556533336639403
662,40200.0,-0.9092726111412048,6.453442573547362,-7.496713638305664
663,40300.0,-0.9092726111412048,6.453442573547362,-7.496713638305664
664,40400.0,-0.9092726111412048,6.453442573547362,-7.496713638305664
665,40500.0,-0.8901299238204956,6.240481376647949,-7.183253765106201
666,40600.0,-0.8901299238204956,6.240481376647949,-7.183253765106201
667,40700.0,-1.0767701864242554,6.113661766052246,-7.231109619140625
668,40800.0,-1.0767701864242554,6.113661766052246,-7.231109619140625
669,40900.0,-1.0767701864242554,6.113661766052246,-7.231109619140625
670,41000.0,-0.8327022790908813,6.262016773223878,-7.34357213973999
671,41100.0,-0.8327022790908813,6.262016773223878,-7.34357213973999
672,41200.0,-0.7082754969596863,6.111269474029541,-7.46799898147583
673,41300.0,-0.7082754969596863,6.111269474029541,-7.46799898147583
674,41400.0,-0.9140582084655762,7.039684295654298,-7.149754047393799
675,41500.0,-0.9140582084655762,7.039684295654298,-7.149754047393799
676,41600.0,-0.9140582084655762,7.039684295654298,-7.149754047393799
677,41700.0,-1.191625714302063,7.29093074798584,-7.245467185974121
678,41800.0,-1.191625714302063,7.29093074798584,-7.245467185974121
679,41900.0,-0.7178468108177185,5.625525951385498,-7.5254268646240225
680,42000.0,-0.7178468108177185,5.625525951385498,-7.5254268646240225
681,42100.0,-1.1006983518600464,6.733402729034424,-7.018148422241211
682,42200.0,-1.1006983518600464,6.733402729034424,-7.018148422241211
683,42300.0,-0.6269195079803467,6.015556335449219,-7.5326056480407715
684,42400.0,-0.6269195079803467,6.015556335449219,-7.5326056480407715
685,42500.0,-0.6269195079803467,6.015556335449219,-7.5326056480407715
686,42600.0,-0.794417142868042,6.228517532348633,-7.594818592071532
687,42700.0,-0.794417142868042,6.228517532348633,-7.594818592071532
688,42800.0,-0.7274181246757507,5.879165172576903,-7.558926582336426
689,42900.0,-0.7274181246757507,5.879165172576903,-7.558926582336426
690,41500.0,-0.9140582084655762,7.039684295654298,-7.149754047393799
691,41600.0,-0.9140582084655762,7.039684295654298,-7.149754047393799
692,41700.0,-1.191625714302063,7.29093074798584,-7.245467185974121
693,41800.0,-1.191625714302063,7.29093074798584,-7.245467185974121
694,41900.0,-0.7178468108177185,5.625525951385498,-7.5254268646240225
695,42000.0,-0.7178468108177185,5.625525951385498,-7.5254268646240225
696,42100.0,-1.1006983518600464,6.733402729034424,-7.018148422241211
697,42200.0,-1.1006983518600464,6.733402729034424,-7.018148422241211
698,42300.0,-0.6269195079803467,6.015556335449219,-7.5326056480407715
699,42400.0,-0.6269195079803467,6.015556335449219,-7.5326056480407715
700,42500.0,-0.6269195079803467,6.015556335449219,-7.5326056480407715
701,42600.0,-0.794417142868042,6.228517532348633,-7.594818592071532
702,42700.0,-0.794417142868042,6.228517532348633,-7.594818592071532
703,42800.0,-0.7274181246757507,5.879165172576903,-7.558926582336426
704,42900.0,-0.7274181246757507,5.879165172576903,-7.558926582336426
705,43000.0,-0.8231310248374939,6.340980052947997,-7.046862602233888
706,43100.0,-0.8231310248374939,6.340980052947997,-7.046862602233888
707,43200.0,-0.8231310248374939,6.340980052947997,-7.046862602233888
708,43300.0,-0.7465606331825256,6.783651828765869,-7.822136878967285
709,43400.0,-0.7465606331825256,6.783651828765869,-7.822136878967285
710,43500.0,-0.5024927258491516,6.441478729248048,-7.420143127441406
711,43600.0,-0.5024927258491516,6.441478729248048,-7.420143127441406
712,43700.0,-0.5024927258491516,6.441478729248048,-7.420143127441406
713,43800.0,-0.6317051649093628,6.1399827003479,-7.635497093200684
714,43900.0,-0.6317051649093628,6.1399827003479,-7.635497093200684
715,44000.0,-0.5455635190010071,6.671189785003662,-7.487142086029053
716,44100.0,-0.5455635190010071,6.671189785003662,-7.487142086029053
717,44200.0,-0.6891329884529114,5.92223596572876,-7.786244869232178
718,44300.0,-0.6891329884529114,5.92223596572876,-7.786244869232178
719,44400.0,-0.861416220664978,5.982056617736816,-7.133004188537598
720,43000.0,-0.8231310248374939,6.340980052947997,-7.046862602233888
721,43100.0,-0.8231310248374939,6.340980052947997,-7.046862602233888
722,43200.0,-0.8231310248374939,6.340980052947997,-7.046862602233888
723,43300.0,-0.7465606331825256,6.783651828765869,-7.822136878967285
724,43400.0,-0.7465606331825256,6.783651828765869,-7.822136878967285
725,43500.0,-0.5024927258491516,6.441478729248048,-7.420143127441406
726,43600.0,-0.5024927258491516,6.441478729248048,-7.420143127441406
727,43700.0,-0.5024927258491516,6.441478729248048,-7.420143127441406
728,43800.0,-0.6317051649093628,6.1399827003479,-7.635497093200684
729,43900.0,-0.6317051649093628,6.1399827003479,-7.635497093200684
730,44000.0,-0.5455635190010071,6.671189785003662,-7.487142086029053
731,44100.0,-0.5455635190010071,6.671189785003662,-7.487142086029053
732,44200.0,-0.6891329884529114,5.92223596572876,-7.786244869232178
733,44300.0,-0.6891329884529114,5.92223596572876,-7.786244869232178
734,44400.0,-0.861416220664978,5.982056617736816,-7.133004188537598
735,44500.0,-0.861416220664978,5.982056617736816,-7.133004188537598
736,44600.0,-0.9092726111412048,5.67338228225708,-6.467799663543701
737,44700.0,-0.9092726111412048,5.67338228225708,-6.467799663543701
738,44800.0,-0.9092726111412048,5.67338228225708,-6.467799663543701
739,44900.0,-0.9044869542121888,6.410372257232666,-6.288337707519531
740,45000.0,-0.9044869542121888,6.410372257232666,-6.288337707519531
741,45100.0,-0.7992027401924133,6.850651264190674,-6.728617191314697
742,45200.0,-0.7992027401924133,6.850651264190674,-6.728617191314697
743,45300.0,-0.7992027401924133,6.850651264190674,-6.728617191314697
744,45400.0,-0.3924228847026825,6.31944465637207,-7.511070251464844
745,45500.0,-0.3924228847026825,6.31944465637207,-7.511070251464844
746,45600.0,-1.1629117727279663,6.836294651031494,-6.759723663330077
747,45700.0,-1.1629117727279663,6.836294651031494,-6.759723663330077
748,45800.0,-0.5072783827781677,6.654439926147461,-7.240681171417236
749,45900.0,-0.5072783827781677,6.654439926147461,-7.240681171417236
750,44500.0,-0.861416220664978,5.982056617736816,-7.133004188537598
751,44600.0,-0.9092726111412048,5.67338228225708,-6.467799663543701
752,44700.0,-0.9092726111412048,5.67338228225708,-6.467799663543701
753,44800.0,-0.9092726111412048,5.67338228225708,-6.467799663543701
754,44900.0,-0.9044869542121888,6.410372257232666,-6.288337707519531
755,45000.0,-0.9044869542121888,6.410372257232666,-6.288337707519531
756,45100.0,-0.7992027401924133,6.850651264190674,-6.728617191314697
757,45200.0,-0.7992027401924133,6.850651264190674,-6.728617191314697
758,45300.0,-0.7992027401924133,6.850651264190674,-6.728617191314697
759,45400.0,-0.3924228847026825,6.31944465637207,-7.511070251464844
760,45500.0,-0.3924228847026825,6.31944465637207,-7.511070251464844
761,45600.0,-1.1629117727279663,6.836294651031494,-6.759723663330077
762,45700.0,-1.1629117727279663,6.836294651031494,-6.759723663330077
763,45800.0,-0.5072783827781677,6.654439926147461,-7.240681171417236
764,45900.0,-0.5072783827781677,6.654439926147461,-7.240681171417236
765,46000.0,-0.36370906233787537,6.592226982116699,-7.185646057128906
766,46100.0,-0.36370906233787537,6.592226982116699,-7.185646057128906
767,46200.0,-0.3397807776927948,6.929614543914795,-7.125825881958008
768,46300.0,-0.3397807776927948,6.929614543914795,-7.125825881958008
769,46400.0,-0.3397807776927948,6.929614543914795,-7.125825881958008
770,46500.0,-0.7369893789291382,6.687938690185548,-6.8721866607666025
771,46600.0,-0.7369893789291382,6.687938690185548,-6.8721866607666025
772,46700.0,-0.5455635190010071,6.5180487632751465,-7.190432548522949
773,46800.0,-0.5455635190010071,6.5180487632751465,-7.190432548522949
774,46900.0,-0.5455635190010071,6.5180487632751465,-7.190432548522949
775,47000.0,-0.2488535493612289,6.0299134254455575,-7.544569969177246
776,47100.0,-0.2488535493612289,6.0299134254455575,-7.544569969177246
777,47200.0,-0.4594219326972962,7.2263240814208975,-6.597012042999268
778,47300.0,-0.4594219326972962,7.2263240814208975,-6.597012042999268
779,47400.0,-0.4642075896263122,6.7692952156066895,-6.750153064727782
780,46000.0,-0.36370906233787537,6.592226982116699,-7.185646057128906
781,46100.0,-0.36370906233787537,6.592226982116699,-7.185646057128906
782,46200.0,-0.3397807776927948,6.929614543914795,-7.125825881958008
783,46300.0,-0.3397807776927948,6.929614543914795,-7.125825881958008
784,46400.0,-0.3397807776927948,6.929614543914795,-7.125825881958008
785,46500.0,-0.7369893789291382,6.687938690185548,-6.8721866607666025
786,46600.0,-0.7369893789291382,6.687938690185548,-6.8721866607666025
787,46700.0,-0.5455635190010071,6.5180487632751465,-7.190432548522949
788,46800.0,-0.5455635190010071,6.5180487632751465,-7.190432548522949
789,46900.0,-0.5455635190010071,6.5180487632751465,-7.190432548522949
790,47000.0,-0.2488535493612289,6.0299134254455575,-7.544569969177246
791,47100.0,-0.2488535493612289,6.0299134254455575,-7.544569969177246
792,47200.0,-0.4594219326972962,7.2263240814208975,-6.597012042999268
793,47300.0,-0.4594219326972962,7.2263240814208975,-6.597012042999268
794,47400.0,-0.4642075896263122,6.7692952156066895,-6.750153064727782
795,47500.0,-0.4642075896263122,6.7692952156066895,-6.750153064727782
796,47600.0,-0.4594219326972962,6.917649745941162,-7.025327682495117
797,47700.0,-0.4594219326972962,6.917649745941162,-7.025327682495117
798,47800.0,-0.4594219326972962,6.917649745941162,-7.025327682495117
799,47900.0,-0.3158525824546814,6.73818826675415,-7.1066832542419425
800,48000.0,-0.3158525824546814,6.73818826675415,-7.1066832542419425
801,48100.0,-0.4977070987224579,6.908078193664551,-6.946363925933838
802,48200.0,-0.4977070987224579,6.908078193664551,-6.946363925933838
803,48300.0,-0.3876372575759888,6.597012042999268,-8.204988479614258
804,48400.0,-0.3876372575759888,6.597012042999268,-8.204988479614258
805,48500.0,-1.6606187820434568,8.597411155700684,-5.687739372253418
806,48600.0,-1.6606187820434568,8.597411155700684,-5.687739372253418
807,48700.0,-0.9044869542121888,6.75493860244751,-5.905486583709718
808,48800.0,-0.9044869542121888,6.75493860244751,-5.905486583709718
809,48900.0,-0.9044869542121888,6.75493860244751,-5.905486583709718
810,47500.0,-0.4642075896263122,6.7692952156066895,-6.750153064727782
811,47600.0,-0.4594219326972962,6.917649745941162,-7.025327682495117
812,47700.0,-0.4594219326972962,6.917649745941162,-7.025327682495117
813,47800.0,-0.4594219326972962,6.917649745941162,-7.025327682495117
814,47900.0,-0.3158525824546814,6.73818826675415,-7.1066832542419425
815,48000.0,-0.3158525824546814,6.73818826675415,-7.1066832542419425
816,48100.0,-0.4977070987224579,6.908078193664551,-6.946363925933838
817,48200.0,-0.4977070987224579,6.908078193664551,-6.946363925933838
818,48300.0,-0.3876372575759888,6.597012042999268,-8.204988479614258
819,48400.0,-0.3876372575759888,6.597012042999268,-8.204988479614258
820,48500.0,-1.6606187820434568,8.597411155700684,-5.687739372253418
821,48600.0,-1.6606187820434568,8.597411155700684,-5.687739372253418
822,48700.0,-0.9044869542121888,6.75493860244751,-5.905486583709718
823,48800.0,-0.9044869542121888,6.75493860244751,-5.905486583709718
824,48900.0,-0.9044869542121888,6.75493860244751,-5.905486583709718
825,49000.0,-0.7034898400306702,8.365307807922362,-5.190032482147217
826,49100.0,-0.7034898400306702,8.365307807922362,-5.190032482147217
827,49200.0,-0.9667003750801086,7.472784996032715,-6.364907741546631
828,49300.0,-0.9667003750801086,7.472784996032715,-6.364907741546631
829,49400.0,-1.4644075632095337,6.953542709350586,-6.69990348815918
830,49500.0,-1.4644075632095337,6.953542709350586,-6.69990348815918
831,49600.0,-1.0911270380020142,6.429513931274414,-6.886543273925781
832,49700.0,-1.0911270380020142,6.429513931274414,-6.886543273925781
833,49800.0,-1.0911270380020142,6.429513931274414,-6.886543273925781
834,49900.0,-1.191625714302063,6.7860450744628915,-6.8650078773498535
835,50000.0,-1.191625714302063,6.7860450744628915,-6.8650078773498535
836,50100.0,-0.607776939868927,5.639883518218994,-7.597211837768555
837,50200.0,-0.607776939868927,5.639883518218994,-7.597211837768555
838,50300.0,-0.5694918036460876,5.249853134155273,-7.838886737823486
839,50400.0,-0.5694918036460876,5.249853134155273,-7.838886737823486
840,49000.0,-0.7034898400306702,8.365307807922362,-5.190032482147217
841,49100.0,-0.7034898400306702,8.365307807922362,-5.190032482147217
842,49200.0,-0.9667003750801086,7.472784996032715,-6.364907741546631
843,49300.0,-0.9667003750801086,7.472784996032715,-6.364907741546631
844,49400.0,-1.4644075632095337,6.953542709350586,-6.69990348815918
845,49500.0,-1.4644075632095337,6.953542709350586,-6.69990348815918
846,49600.0,-1.0911270380020142,6.429513931274414,-6.886543273925781
847,49700.0,-1.0911270380020142,6.429513931274414,-6.886543273925781
848,49800.0,-1.0911270380020142,6.429513931274414,-6.886543273925781
849,49900.0,-1.191625714302063,6.7860450744628915,-6.8650078773498535
850,50000.0,-1.191625714302063,6.7860450744628915,-6.8650078773498535
851,50100.0,-0.607776939868927,5.639883518218994,-7.597211837768555
852,50200.0,-0.607776939868927,5.639883518218994,-7.597211837768555
853,50300.0,-0.5694918036460876,5.249853134155273,-7.838886737823486
854,50400.0,-0.5694918036460876,5.249853134155273,-7.838886737823486
855,50500.0,-0.5694918036460876,5.249853134155273,-7.838886737823486
856,50600.0,-1.0384850502014158,6.223731517791747,-6.982256412506104
857,50700.0,-1.0384850502014158,6.223731517791747,-6.982256412506104
858,50800.0,-0.3062812983989716,7.077969074249268,-7.767102241516112
859,50900.0,-0.3062812983989716,7.077969074249268,-7.767102241516112
860,51000.0,-1.1150553226470947,6.474977493286133,-7.209574222564697
861,51100.0,-1.1150553226470947,6.474977493286133,-7.209574222564697
862,51200.0,-0.9475577473640442,6.860222339630128,-7.1090760231018075
863,51300.0,-0.9475577473640442,6.860222339630128,-7.1090760231018075
864,51400.0,-0.9427721500396729,6.027520179748535,-7.444070816040039
865,51500.0,-0.9427721500396729,6.027520179748535,-7.444070816040039
866,51600.0,-0.9427721500396729,6.027520179748535,-7.444070816040039
867,51700.0,-0.6652047038078308,6.384050369262695,-7.458428382873535
868,51800.0,-0.6652047038078308,6.384050369262695,-7.458428382873535
869,51900.0,-0.4067798554897308,6.123232841491699,-7.831708431243896
870,50500.0,-0.5694918036460876,5.249853134155273,-7.838886737823486
871,50600.0,-1.0384850502014158,6.223731517791747,-6.982256412506104
872,50700.0,-1.0384850502014158,6.223731517791747,-6.982256412506104
873,50800.0,-0.3062812983989716,7.077969074249268,-7.767102241516112
874,50900.0,-0.3062812983989716,7.077969074249268,-7.767102241516112
875,51000.0,-1.1150553226470947,6.474977493286133,-7.209574222564697
876,51100.0,-1.1150553226470947,6.474977493286133,-7.209574222564697
877,51200.0,-0.9475577473640442,6.860222339630128,-7.1090760231018075
878,51300.0,-0.9475577473640442,6.860222339630128,-7.1090760231018075
879,51400.0,-0.9427721500396729,6.027520179748535,-7.444070816040039
880,51500.0,-0.9427721500396729,6.027520179748535,-7.444070816040039
881,51600.0,-0.9427721500396729,6.027520179748535,-7.444070816040039
882,51700.0,-0.6652047038078308,6.384050369262695,-7.458428382873535
883,51800.0,-0.6652047038078308,6.384050369262695,-7.458428382873535
884,51900.0,-0.4067798554897308,6.123232841491699,-7.831708431243896
885,52000.0,-0.4067798554897308,6.123232841491699,-7.831708431243896
886,52100.0,-0.6173481941223145,6.8315086364746085,-6.759723663330077
887,52200.0,-0.6173481941223145,6.8315086364746085,-6.759723663330077
888,52300.0,-1.105484127998352,6.685546875,-7.099504470825195
889,52400.0,-1.105484127998352,6.685546875,-7.099504470825195
890,52500.0,-1.105484127998352,6.685546875,-7.099504470825195
891,52600.0,-0.7322037816047668,6.410372257232666,-7.0133628845214835
892,52700.0,-0.7322037816047668,6.410372257232666,-7.0133628845214835
893,52800.0,-0.6843472719192505,6.089733123779298,-7.420143127441406
894,52900.0,-0.6843472719192505,6.089733123779298,-7.420143127441406
895,53000.0,-0.9188438653945924,6.687938690185548,-6.721438884735107
896,53100.0,-0.9188438653945924,6.687938690185548,-6.721438884735107
897,53200.0,-0.9188438653945924,6.687938690185548,-6.721438884735107
898,53300.0,-0.6556334495544434,6.199803352355957,-7.822136878967285
899,53400.0,-0.6556334495544434,6.199803352355957,-7.822136878967285
900,52000.0,-0.4067798554897308,6.123232841491699,-7.831708431243896
901,52100.0,-0.6173481941223145,6.8315086364746085,-6.759723663330077
902,52200.0,-0.6173481941223145,6.8315086364746085,-6.759723663330077
903,52300.0,-1.105484127998352,6.685546875,-7.099504470825195
904,52400.0,-1.105484127998352,6.685546875,-7.099504470825195
905,52500.0,-1.105484127998352,6.685546875,-7.099504470825195
906,52600.0,-0.7322037816047668,6.410372257232666,-7.0133628845214835
907,52700.0,-0.7322037816047668,6.410372257232666,-7.0133628845214835
908,52800.0,-0.6843472719192505,6.089733123779298,-7.420143127441406
909,52900.0,-0.6843472719192505,6.089733123779298,-7.420143127441406
910,53000.0,-0.9188438653945924,6.687938690185548,-6.721438884735107
911,53100.0,-0.9188438653945924,6.687938690185548,-6.721438884735107
912,53200.0,-0.9188438653945924,6.687938690185548,-6.721438884735107
913,53300.0,-0.6556334495544434,6.199803352355957,-7.822136878967285
914,53400.0,-0.6556334495544434,6.199803352355957,-7.822136878967285
915,53500.0,-0.8709874749183655,7.511070251464844,-6.963113307952881
916,53600.0,-0.8709874749183655,7.511070251464844,-6.963113307952881
917,53700.0,-0.8709874749183655,7.511070251464844,-6.963113307952881
918,53800.0,-0.5216353535652161,7.551748275756836,-7.3052873611450195
919,53900.0,-0.5216353535652161,7.551748275756836,-7.3052873611450195
920,54000.0,-0.9188438653945924,6.6281185150146475,-7.183253765106201
921,54100.0,-0.9188438653945924,6.6281185150146475,-7.183253765106201
922,54200.0,-1.129412293434143,7.118647575378418,-6.5108704566955575
923,54300.0,-1.129412293434143,7.118647575378418,-6.5108704566955575
924,54400.0,-0.9140582084655762,6.494120597839356,-7.097111701965332
925,54500.0,-0.9140582084655762,6.494120597839356,-7.097111701965332
926,54600.0,-0.9140582084655762,6.494120597839356,-7.097111701965332
927,54700.0,-0.6843472719192505,6.640083312988281,-7.345965385437013
928,54800.0,-0.6843472719192505,6.640083312988281,-7.345965385437013
929,54900.0,-1.0815558433532717,5.060819625854492,-7.661818027496338
930,53500.0,-0.8709874749183655,7.511070251464844,-6.963113307952881
931,53600.0,-0.8709874749183655,7.511070251464844,-6.963113307952881
932,53700.0,-0.8709874749183655,7.511070251464844,-6.963113307952881
933,53800.0,-0.5216353535652161,7.551748275756836,-7.3052873611450195
934,53900.0,-0.5216353535652161,7.551748275756836,-7.3052873611450195
935,54000.0,-0.9188438653945924,6.6281185150146475,-7.183253765106201
936,54100.0,-0.9188438653945924,6.6281185150146475,-7.183253765106201
937,54200.0,-1.129412293434143,7.118647575378418,-6.5108704566955575
938,54300.0,-1.129412293434143,7.118647575378418,-6.5108704566955575
939,54400.0,-0.9140582084655762,6.494120597839356,-7.097111701965332
940,54500.0,-0.9140582084655762,6.494120597839356,-7.097111701965332
941,54600.0,-0.9140582084655762,6.494120597839356,-7.097111701965332
942,54700.0,-0.6843472719192505,6.640083312988281,-7.345965385437013
943,54800.0,-0.6843472719192505,6.640083312988281,-7.345965385437013
944,54900.0,-1.0815558433532717,5.060819625854492,-7.661818027496338
945,55000.0,-1.0815558433532717,5.060819625854492,-7.661818027496338
946,55100.0,0.20578275620937347,5.893522262573242,-8.815157890319824
947,55200.0,0.20578275620937347,5.893522262573242,-8.815157890319824
948,55300.0,0.20578275620937347,5.893522262573242,-8.815157890319824
949,55400.0,-0.8231310248374939,7.417750358581543,-7.219145774841309
950,55500.0,-0.8231310248374939,7.417750358581543,-7.219145774841309
951,55600.0,-0.7609176039695741,5.9988059997558585,-7.558926582336426
952,55700.0,-0.7609176039695741,5.9988059997558585,-7.558926582336426
953,55800.0,-1.1533405780792236,6.747759819030763,-7.104290962219237
954,55900.0,-1.1533405780792236,6.747759819030763,-7.104290962219237
955,56000.0,-1.1533405780792236,6.747759819030763,-7.104290962219237
956,56100.0,-1.0193424224853516,6.860222339630128,-6.845865249633789
957,56200.0,-1.0193424224853516,6.860222339630128,-6.845865249633789
958,56300.0,-0.7465606331825256,6.853044033050537,-6.994220733642577
959,56400.0,-0.7465606331825256,6.853044033050537,-6.994220733642577
960,55000.0,-1.0815558433532717,5.060819625854492,-7.661818027496338
961,55100.0,0.20578275620937347,5.893522262573242,-8.815157890319824
962,55200.0,0.20578275620937347,5.893522262573242,-8.815157890319824
963,55300.0,0.20578275620937347,5.893522262573242,-8.815157890319824
964,55400.0,-0.8231310248374939,7.417750358581543,-7.219145774841309
965,55500.0,-0.8231310248374939,7.417750358581543,-7.219145774841309
966,55600.0,-0.7609176039695741,5.9988059997558585,-7.558926582336426
967,55700.0,-0.7609176039695741,5.9988059997558585,-7.558926582336426
968,55800.0,-1.1533405780792236,6.747759819030763,-7.104290962219237
969,55900.0,-1.1533405780792236,6.747759819030763,-7.104290962219237
970,56000.0,-1.1533405780792236,6.747759819030763,-7.104290962219237
971,56100.0,-1.0193424224853516,6.860222339630128,-6.845865249633789
972,56200.0,-1.0193424224853516,6.860222339630128,-6.845865249633789
973,56300.0,-0.7465606331825256,6.853044033050537,-6.994220733642577
974,56400.0,-0.7465606331825256,6.853044033050537,-6.994220733642577
975,56500.0,-1.0001999139785769,6.606583118438722,-7.010970115661621
976,56600.0,-1.0001999139785769,6.606583118438722,-7.010970115661621
977,56700.0,-0.8662018179893494,6.723831653594972,-6.955935001373291
978,56800.0,-0.8662018179893494,6.723831653594972,-6.955935001373291
979,56900.0,-0.7034898400306702,6.305087566375732,-7.726424217224121
980,57000.0,-0.7034898400306702,6.305087566375732,-7.726424217224121
981,57100.0,-0.7034898400306702,6.305087566375732,-7.726424217224121
982,57200.0,-0.9571290016174316,6.798008918762207,-6.967899799346924
983,57300.0,-0.9571290016174316,6.798008918762207,-6.967899799346924
984,57400.0,-0.7800601720809937,6.896114826202393,-6.7142601013183585
985,57500.0,-0.7800601720809937,6.896114826202393,-6.7142601013183585
986,57600.0,-0.8805587291717529,7.176074504852295,-6.860222339630128
987,57700.0,-0.8805587291717529,7.176074504852295,-6.860222339630128
988,57800.0,-0.861416220664978,6.489335060119629,-7.439285278320312
989,57900.0,-0.861416220664978,6.489335060119629,-7.439285278320312
990,56500.0,-1.0001999139785769,6.606583118438722,-7.010970115661621
991,56600.0,-1.0001999139785769,6.606583118438722,-7.010970115661621
992,56700.0,-0.8662018179893494,6.723831653594972,-6.955935001373291
993,56800.0,-0.8662018179893494,6.723831653594972,-6.955935001373291
994,56900.0,-0.7034898400306702,6.305087566375732,-7.726424217224121
995,57000.0,-0.7034898400306702,6.305087566375732,-7.726424217224121
996,57100.0,-0.7034898400306702,6.305087566375732,-7.726424217224121
997,57200.0,-0.9571290016174316,6.798008918762207,-6.967899799346924
998,57300.0,-0.9571290016174316,6.798008918762207,-6.967899799346924
999,57400.0,-0.7800601720809937,6.896114826202393,-6.7142601013183585
1000,57500.0,-0.7800601720809937,6.896114826202393,-6.7142601013183585
1001,57600.0,-0.8805587291717529,7.176074504852295,-6.860222339630128
1002,57700.0,-0.8805587291717529,7.176074504852295,-6.860222339630128
1003,57800.0,-0.861416220664978,6.489335060119629,-7.439285278320312
1004,57900.0,-0.861416220664978,6.489335060119629,-7.439285278320312
1005,58000.0,-0.861416220664978,6.489335060119629,-7.439285278320312
1006,58100.0,-0.033499516546726234,7.379465103149414,-8.183453559875487
1007,58200.0,-0.033499516546726234,7.379465103149414,-8.183453559875487
1008,58300.0,-1.4404792785644531,6.67836856842041,-6.553941249847412
1009,58400.0,-1.4404792785644531,6.67836856842041,-6.553941249847412
1010,58500.0,-0.784845769405365,6.132804393768311,-7.630711555480957
1011,58600.0,-0.784845769405365,6.132804393768311,-7.630711555480957
1012,58700.0,-0.784845769405365,6.132804393768311,-7.630711555480957
1013,58800.0,-1.1724830865859983,6.132804393768311,-7.22871732711792
1014,58900.0,-1.1724830865859983,6.132804393768311,-7.22871732711792
1015,59000.0,-1.4021940231323242,4.728217601776123,-7.444070816040039
1016,59100.0,-1.4021940231323242,4.728217601776123,-7.444070816040039
1017,59200.0,-0.861416220664978,6.69990348815918,-7.487142086029053
1018,59300.0,-0.861416220664978,6.69990348815918,-7.487142086029053
1019,59400.0,-0.861416220664978,6.69990348815918,-7.487142086029053
1020,58000.0,-0.861416220664978,6.489335060119629,-7.439285278320312
1021,58100.0,-0.033499516546726234,7.379465103149414,-8.183453559875487
1022,58200.0,-0.033499516546726234,7.379465103149414,-8.183453559875487
1023,58300.0,-1.4404792785644531,6.67836856842041,-6.553941249847412
1024,58400.0,-1.4404792785644531,6.67836856842041,-6.553941249847412
1025,58500.0,-0.784845769405365,6.132804393768311,-7.630711555480957
1026,58600.0,-0.784845769405365,6.132804393768311,-7.630711555480957
1027,58700.0,-0.784845769405365,6.132804393768311,-7.630711555480957
1028,58800.0,-1.1724830865859983,6.132804393768311,-7.22871732711792
1029,58900.0,-1.1724830865859983,6.132804393768311,-7.22871732711792
1030,59000.0,-1.4021940231323242,4.728217601776123,-7.444070816040039
1031,59100.0,-1.4021940231323242,4.728217601776123,-7.444070816040039
1032,59200.0,-0.861416220664978,6.69990348815918,-7.487142086029053
1033,59300.0,-0.861416220664978,6.69990348815918,-7.487142086029053
1034,59400.0,-0.861416220664978,6.69990348815918,-7.487142086029053
1035,59500.0,-1.3016955852508545,6.599405288696289,-6.776473522186278
1036,59600.0,-1.3016955852508545,6.599405288696289,-6.776473522186278
1037,59700.0,-0.7800601720809937,6.130411148071289,-7.57806921005249
1038,59800.0,-0.7800601720809937,6.130411148071289,-7.57806921005249
1039,59900.0,-0.7800601720809937,6.130411148071289,-7.57806921005249
1040,60000.0,-1.129412293434143,6.240481376647949,-7.2502522468566895
1041,60100.0,-1.129412293434143,6.240481376647949,-7.2502522468566895
1042,60200.0,-0.9906285405158995,6.9344000816345215,-6.967899799346924
1043,60300.0,-0.9906285405158995,6.9344000816345215,-6.967899799346924
1044,60400.0,-0.5407779216766357,6.2093749046325675,-7.848458290100098
1045,60500.0,-0.5407779216766357,6.2093749046325675,-7.848458290100098
1046,60600.0,-0.5407779216766357,6.2093749046325675,-7.848458290100098
1047,60700.0,-0.8039883971214294,6.530013084411621,-7.300501823425293
1048,60800.0,-0.8039883971214294,6.530013084411621,-7.300501823425293
1049,60900.0,-0.5599204897880554,6.247659683227539,-7.518248558044434
1050,59500.0,-1.3016955852508545,6.599405288696289,-6.776473522186278
1051,59600.0,-1.3016955852508545,6.599405288696289,-6.776473522186278
1052,59700.0,-0.7800601720809937,6.130411148071289,-7.57806921005249
1053,59800.0,-0.7800601720809937,6.130411148071289,-7.57806921005249
1054,59900.0,-0.7800601720809937,6.130411148071289,-7.57806921005249
1055,60000.0,-1.129412293434143,6.240481376647949,-7.2502522468566895
1056,60100.0,-1.129412293434143,6.240481376647949,-7.2502522468566895
1057,60200.0,-0.9906285405158995,6.9344000816345215,-6.967899799346924
1058,60300.0,-0.9906285405158995,6.9344000816345215,-6.967899799346924
1059,60400.0,-0.5407779216766357,6.2093749046325675,-7.848458290100098
1060,60500.0,-0.5407779216766357,6.2093749046325675,-7.848458290100098
1061,60600.0,-0.5407779216766357,6.2093749046325675,-7.848458290100098
1062,60700.0,-0.8039883971214294,6.530013084411621,-7.300501823425293
1063,60800.0,-0.8039883971214294,6.530013084411621,-7.300501823425293
1064,60900.0,-0.5599204897880554,6.247659683227539,-7.518248558044434
1065,61000.0,-0.5599204897880554,6.247659683227539,-7.518248558044434
1066,61100.0,-0.82791668176651,6.8554368019104,-6.9583282470703125
1067,61200.0,-0.82791668176651,6.8554368019104,-6.9583282470703125
1068,61300.0,-0.82791668176651,6.8554368019104,-6.9583282470703125
1069,61400.0,-0.82791668176651,5.979663372039795,-7.223931312561035
1070,61500.0,-0.82791668176651,5.979663372039795,-7.223931312561035
1071,61600.0,-0.8422735333442688,6.429513931274414,-7.319644451141357
1072,61700.0,-0.8422735333442688,6.429513931274414,-7.319644451141357
1073,61800.0,-0.7752745151519775,5.8480587005615225,-7.805387496948242
1074,61900.0,-0.7752745151519775,5.8480587005615225,-7.805387496948242
1075,62000.0,-0.4881358444690704,5.8337016105651855,-6.752545356750487
1076,62100.0,-0.4881358444690704,5.8337016105651855,-6.752545356750487
1077,62200.0,-0.4881358444690704,5.8337016105651855,-6.752545356750487
1078,62300.0,-1.239482045173645,7.728816509246826,-6.070591449737549
1079,62400.0,-1.239482045173645,7.728816509246826,-6.070591449737549
1080,61000.0,-0.5599204897880554,6.247659683227539,-7.518248558044434
1081,61100.0,-0.82791668176651,6.8554368019104,-6.9583282470703125
1082,61200.0,-0.82791668176651,6.8554368019104,-6.9583282470703125
1083,61300.0,-0.82791668176651,6.8554368019104,-6.9583282470703125
1084,61400.0,-0.82791668176651,5.979663372039795,-7.223931312561035
1085,61500.0,-0.82791668176651,5.979663372039795,-7.223931312561035
1086,61600.0,-0.8422735333442688,6.429513931274414,-7.319644451141357
1087,61700.0,-0.8422735333442688,6.429513931274414,-7.319644451141357
1088,61800.0,-0.7752745151519775,5.8480587005615225,-7.805387496948242
1089,61900.0,-0.7752745151519775,5.8480587005615225,-7.805387496948242
1090,62000.0,-0.4881358444690704,5.8337016105651855,-6.752545356750487
1091,62100.0,-0.4881358444690704,5.8337016105651855,-6.752545356750487
1092,62200.0,-0.4881358444690704,5.8337016105651855,-6.752545356750487
1093,62300.0,-1.239482045173645,7.728816509246826,-6.070591449737549
1094,62400.0,-1.239482045173645,7.728816509246826,-6.070591449737549
1095,62500.0,-0.9571290016174316,6.434299945831299,-7.147361278533936
1096,62600.0,-0.9571290016174316,6.434299945831299,-7.147361278533936
1097,62700.0,-0.9954141974449158,6.443871021270753,-7.4703922271728525
1098,62800.0,-0.9954141974449158,6.443871021270753,-7.4703922271728525
1099,62900.0,-0.9954141974449158,6.443871021270753,-7.4703922271728525
1100,63000.0,-0.9379864931106568,5.814558982849121,-7.654639720916747
1101,63100.0,-0.9379864931106568,5.814558982849121,-7.654639720916747
1102,63200.0,-0.8518448472023009,6.33380126953125,-7.5014991760253915
1103,63300.0,-0.8518448472023009,6.33380126953125,-7.5014991760253915
1104,63400.0,-1.306481122970581,6.113661766052246,-7.276573657989503
1105,63500.0,-1.306481122970581,6.113661766052246,-7.276573657989503
1106,63600.0,-0.9523434042930604,6.317051887512207,-7.310072898864746
1107,63700.0,-0.9523434042930604,6.317051887512207,-7.310072898864746
1108,63800.0,-0.9523434042930604,6.317051887512207,-7.310072898864746
1109,63900.0,-1.0767701864242554,6.458228588104247,-7.329216003417969
1110,62500.0,-0.9571290016174316,6.434299945831299,-7.147361278533936
1111,62600.0,-0.9571290016174316,6.434299945831299,-7.147361278533936
1112,62700.0,-0.9954141974449158,6.443871021270753,-7.4703922271728525
1113,62800.0,-0.9954141974449158,6.443871021270753,-7.4703922271728525
1114,62900.0,-0.9954141974449158,6.443871021270753,-7.4703922271728525
1115,63000.0,-0.9379864931106568,5.814558982849121,-7.654639720916747
1116,63100.0,-0.9379864931106568,5.814558982849121,-7.654639720916747
1117,63200.0,-0.8518448472023009,6.33380126953125,-7.5014991760253915
1118,63300.0,-0.8518448472023009,6.33380126953125,-7.5014991760253915
1119,63400.0,-1.306481122970581,6.113661766052246,-7.276573657989503
1120,63500.0,-1.306481122970581,6.113661766052246,-7.276573657989503
1121,63600.0,-0.9523434042930604,6.317051887512207,-7.310072898864746
1122,63700.0,-0.9523434042930604,6.317051887512207,-7.310072898864746
1123,63800.0,-0.9523434042930604,6.317051887512207,-7.310072898864746
1124,63900.0,-1.0767701864242554,6.458228588104247,-7.329216003417969
1125,64000.0,-1.0767701864242554,6.458228588104247,-7.329216003417969
1126,64100.0,-0.9427721500396729,5.8959150314331055,-7.472784996032715
1127,64200.0,-0.9427721500396729,5.8959150314331055,-7.472784996032715
1128,64300.0,-0.9332008361816406,5.986842632293701,-7.678568363189697
1129,64400.0,-0.9332008361816406,5.986842632293701,-7.678568363189697
1130,64500.0,-0.9332008361816406,5.986842632293701,-7.678568363189697
1131,64600.0,-0.9188438653945924,6.561119556427003,-7.195217609405518
1132,64700.0,-0.9188438653945924,6.561119556427003,-7.195217609405518
1133,64800.0,-0.7704889178276062,5.840879917144775,-7.599604606628418
1134,64900.0,-0.7704889178276062,5.840879917144775,-7.599604606628418
1135,65000.0,-0.7800601720809937,6.384050369262695,-7.3842506408691415
1136,65100.0,-0.7800601720809937,6.384050369262695,-7.3842506408691415
1137,65200.0,-1.1676974296569824,6.259624004364014,-7.3531436920166025
1138,65300.0,-1.1676974296569824,6.259624004364014,-7.3531436920166025
1139,65400.0,-1.1676974296569824,6.259624004364014,-7.3531436920166025
1140,64000.0,-1.0767701864242554,6.458228588104247,-7.329216003417969
1141,64100.0,-0.9427721500396729,5.8959150314331055,-7.472784996032715
1142,64200.0,-0.9427721500396729,5.8959150314331055,-7.472784996032715
1143,64300.0,-0.9332008361816406,5.986842632293701,-7.678568363189697
1144,64400.0,-0.9332008361816406,5.986842632293701,-7.678568363189697
1145,64500.0,-0.9332008361816406,5.986842632293701,-7.678568363189697
1146,64600.0,-0.9188438653945924,6.561119556427003,-7.195217609405518
1147,64700.0,-0.9188438653945924,6.561119556427003,-7.195217609405518
1148,64800.0,-0.7704889178276062,5.840879917144775,-7.599604606628418
1149,64900.0,-0.7704889178276062,5.840879917144775,-7.599604606628418
1150,65000.0,-0.7800601720809937,6.384050369262695,-7.3842506408691415
1151,65100.0,-0.7800601720809937,6.384050369262695,-7.3842506408691415
1152,65200.0,-1.1676974296569824,6.259624004364014,-7.3531436920166025
1153,65300.0,-1.1676974296569824,6.259624004364014,-7.3531436920166025
1154,65400.0,-1.1676974296569824,6.259624004364014,-7.3531436920166025
1155,65500.0,-0.9236294627189636,6.525227069854736,-7.362715244293213
1156,65600.0,-0.9236294627189636,6.525227069854736,-7.362715244293213
1157,65700.0,-0.7800601720809937,6.15673303604126,-7.700103282928468
1158,65800.0,-0.7800601720809937,6.15673303604126,-7.700103282928468
1159,65900.0,-0.5359922647476196,6.673582077026367,-7.802994728088379
1160,66000.0,-0.5359922647476196,6.673582077026367,-7.802994728088379
1161,66100.0,-0.5359922647476196,6.673582077026367,-7.802994728088379
1162,66200.0,-0.8518448472023009,6.434299945831299,-7.302894115447997
1163,66300.0,-0.8518448472023009,6.434299945831299,-7.302894115447997
1164,66400.0,-0.5503491759300232,7.39142894744873,-7.444070816040039
1165,66500.0,-0.5503491759300232,7.39142894744873,-7.444070816040039
1166,66600.0,-1.2251251935958862,6.178267955780028,-6.795616626739503
1167,66700.0,-1.2251251935958862,6.178267955780028,-6.795616626739503
1168,66800.0,-0.9332008361816406,6.058626651763916,-7.243074417114258
1169,66900.0,-0.9332008361816406,6.058626651763916,-7.243074417114258
1170,65500.0,-0.9236294627189636,6.525227069854736,-7.362715244293213
1171,65600.0,-0.9236294627189636,6.525227069854736,-7.362715244293213
1172,65700.0,-0.7800601720809937,6.15673303604126,-7.700103282928468
1173,65800.0,-0.7800601720809937,6.15673303604126,-7.700103282928468
1174,65900.0,-0.5359922647476196,6.673582077026367,-7.802994728088379
1175,66000.0,-0.5359922647476196,6.673582077026367,-7.802994728088379
1176,66100.0,-0.5359922647476196,6.673582077026367,-7.802994728088379
1177,66200.0,-0.8518448472023009,6.434299945831299,-7.302894115447997
1178,66300.0,-0.8518448472023009,6.434299945831299,-7.302894115447997
1179,66400.0,-0.5503491759300232,7.39142894744873,-7.444070816040039
1180,66500.0,-0.5503491759300232,7.39142894744873,-7.444070816040039
1181,66600.0,-1.2251251935958862,6.178267955780028,-6.795616626739503
1182,66700.0,-1.2251251935958862,6.178267955780028,-6.795616626739503
1183,66800.0,-0.9332008361816406,6.058626651763916,-7.243074417114258
1184,66900.0,-0.9332008361816406,6.058626651763916,-7.243074417114258
1185,67000.0,-0.9332008361816406,6.058626651763916,-7.243074417114258
1186,67100.0,-0.9954141974449158,6.441478729248048,-7.274180889129639
1187,67200.0,-0.9954141974449158,6.441478729248048,-7.274180889129639
1188,67300.0,-1.0241280794143677,6.7142601013183585,-7.130610942840576
1189,67400.0,-1.0241280794143677,6.7142601013183585,-7.130610942840576
1190,67500.0,-0.8949156999588013,6.3529438972473145,-7.28375244140625
1191,67600.0,-0.8949156999588013,6.3529438972473145,-7.28375244140625
1192,67700.0,-0.8949156999588013,6.3529438972473145,-7.28375244140625
1193,67800.0,-0.8327022790908813,6.477370738983153,-6.599405288696289
1194,67900.0,-0.8327022790908813,6.477370738983153,-6.599405288696289
1195,68000.0,-0.6269195079803467,6.539584159851074,-7.317252159118652
1196,68100.0,-0.6269195079803467,6.539584159851074,-7.317252159118652
1197,68200.0,-0.6843472719192505,6.037091255187987,-7.5014991760253915
1198,68300.0,-0.6843472719192505,6.037091255187987,-7.5014991760253915
1199,68400.0,-0.7752745151519775,7.018148422241211,-6.403193473815918
1200,67000.0,-0.9332008361816406,6.058626651763916,-7.243074417114258
1201,67100.0,-0.9954141974449158,6.441478729248048,-7.274180889129639
1202,67200.0,-0.9954141974449158,6.441478729248048,-7.274180889129639
1203,67300.0,-1.0241280794143677,6.7142601013183585,-7.130610942840576
1204,67400.0,-1.0241280794143677,6.7142601013183585,-7.130610942840576
1205,67500.0,-0.8949156999588013,6.3529438972473145,-7.28375244140625
1206,67600.0,-0.8949156999588013,6.3529438972473145,-7.28375244140625
1207,67700.0,-0.8949156999588013,6.3529438972473145,-7.28375244140625
1208,67800.0,-0.8327022790908813,6.477370738983153,-6.599405288696289
1209,67900.0,-0.8327022790908813,6.477370738983153,-6.599405288696289
1210,68000.0,-0.6269195079803467,6.539584159851074,-7.317252159118652
1211,68100.0,-0.6269195079803467,6.539584159851074,-7.317252159118652
1212,68200.0,-0.6843472719192505,6.037091255187987,-7.5014991760253915
1213,68300.0,-0.6843472719192505,6.037091255187987,-7.5014991760253915
1214,68400.0,-0.7752745151519775,7.018148422241211,-6.403193473815918
1215,68500.0,-0.7752745151519775,7.018148422241211,-6.403193473815918
1216,68600.0,-0.7752745151519775,7.018148422241211,-6.403193473815918
1217,68700.0,-0.9140582084655762,6.525227069854736,-6.8554368019104
1218,68800.0,-0.9140582084655762,6.525227069854736,-6.8554368019104
1219,68900.0,-0.4689932465553284,6.238089084625244,-7.551748275756836
1220,69000.0,-0.4689932465553284,6.238089084625244,-7.551748275756836
1221,69100.0,-0.7226324081420898,6.063412666320801,-7.52303409576416
1222,69200.0,-0.7226324081420898,6.063412666320801,-7.52303409576416
1223,69300.0,-0.8039883971214294,6.458228588104247,-7.142575740814209
1224,69400.0,-0.8039883971214294,6.458228588104247,-7.142575740814209
1225,69500.0,-0.8039883971214294,6.458228588104247,-7.142575740814209
1226,69600.0,-0.397208571434021,6.853044033050537,-7.0851478576660165
1227,69700.0,-0.397208571434021,6.853044033050537,-7.0851478576660165
1228,69800.0,-0.3062812983989716,6.372087001800537,-7.544569969177246
1229,69900.0,-0.3062812983989716,6.372087001800537,-7.544569969177246
1230,68500.0,-0.7752745151519775,7.018148422241211,-6.403193473815918
1231,68600.0,-0.7752745151519775,7.018148422241211,-6.403193473815918
1232,68700.0,-0.9140582084655762,6.525227069854736,-6.8554368019104
1233,68800.0,-0.9140582084655762,6.525227069854736,-6.8554368019104
1234,68900.0,-0.4689932465553284,6.238089084625244,-7.551748275756836
1235,69000.0,-0.4689932465553284,6.238089084625244,-7.551748275756836
1236,69100.0,-0.7226324081420898,6.063412666320801,-7.52303409576416
1237,69200.0,-0.7226324081420898,6.063412666320801,-7.52303409576416
1238,69300.0,-0.8039883971214294,6.458228588104247,-7.142575740814209
1239,69400.0,-0.8039883971214294,6.458228588104247,-7.142575740814209
1240,69500.0,-0.8039883971214294,6.458228588104247,-7.142575740814209
1241,69600.0,-0.397208571434021,6.853044033050537,-7.0851478576660165
1242,69700.0,-0.397208571434021,6.853044033050537,-7.0851478576660165
1243,69800.0,-0.3062812983989716,6.372087001800537,-7.544569969177246
1244,69900.0,-0.3062812983989716,6.372087001800537,-7.544569969177246
1245,70000.0,-0.5216353535652161,6.92482852935791,-7.111469268798827
1246,70100.0,-0.5216353535652161,6.92482852935791,-7.111469268798827
1247,70200.0,-0.5216353535652161,6.92482852935791,-7.111469268798827
1248,70300.0,-0.5551348924636841,6.522834300994872,-7.142575740814209
1249,70400.0,-0.5551348924636841,6.522834300994872,-7.142575740814209
1250,70500.0,-0.5359922647476196,6.5491557121276855,-7.436892509460449
1251,70600.0,-0.5359922647476196,6.5491557121276855,-7.436892509460449
1252,70700.0,-0.6412764191627502,6.281159400939941,-6.999006271362305
1253,70800.0,-0.6412764191627502,6.281159400939941,-6.999006271362305
1254,70900.0,-0.6412764191627502,6.281159400939941,-6.999006271362305
1255,71000.0,-2.344966173171997,7.1641106605529785,-5.881557941436768
1256,71100.0,-2.344966173171997,7.1641106605529785,-5.881557941436768
1257,71200.0,-0.784845769405365,6.642475128173827,-6.455835819244385
1258,71300.0,-0.784845769405365,6.642475128173827,-6.455835819244385
1259,71400.0,-0.8662018179893494,5.711667537689209,-7.52303409576416
1260,70000.0,-0.5216353535652161,6.92482852935791,-7.111469268798827
1261,70100.0,-0.5216353535652161,6.92482852935791,-7.111469268798827
1262,70200.0,-0.5216353535652161,6.92482852935791,-7.111469268798827
1263,70300.0,-0.5551348924636841,6.522834300994872,-7.142575740814209
1264,70400.0,-0.5551348924636841,6.522834300994872,-7.142575740814209
1265,70500.0,-0.5359922647476196,6.5491557121276855,-7.436892509460449
1266,70600.0,-0.5359922647476196,6.5491557121276855,-7.436892509460449
1267,70700.0,-0.6412764191627502,6.281159400939941,-6.999006271362305
1268,70800.0,-0.6412764191627502,6.281159400939941,-6.999006271362305
1269,70900.0,-0.6412764191627502,6.281159400939941,-6.999006271362305
1270,71000.0,-2.344966173171997,7.1641106605529785,-5.881557941436768
1271,71100.0,-2.344966173171997,7.1641106605529785,-5.881557941436768
1272,71200.0,-0.784845769405365,6.642475128173827,-6.455835819244385
1273,71300.0,-0.784845769405365,6.642475128173827,-6.455835819244385
1274,71400.0,-0.8662018179893494,5.711667537689209,-7.52303409576416
1275,71500.0,-0.8662018179893494,5.711667537689209,-7.52303409576416
1276,71600.0,-0.8662018179893494,5.711667537689209,-7.52303409576416
1277,71700.0,-1.0815558433532717,5.7930235862731925,-7.542177200317383
1278,71800.0,-1.0815558433532717,5.7930235862731925,-7.542177200317383
1279,71900.0,-1.0193424224853516,6.558726787567139,-7.176074504852295
1280,72000.0,-1.0193424224853516,6.558726787567139,-7.176074504852295
1281,72100.0,-0.7561319470405579,6.005984783172607,-7.597211837768555
1282,72200.0,-0.7561319470405579,6.005984783172607,-7.597211837768555
1283,72300.0,-0.7561319470405579,6.005984783172607,-7.597211837768555
1284,72400.0,-0.9284151792526244,6.223731517791747,-7.401000499725343
1285,72500.0,-0.9284151792526244,6.223731517791747,-7.401000499725343
1286,72600.0,-0.8949156999588013,6.434299945831299,-7.393822193145753
1287,72700.0,-0.8949156999588013,6.434299945831299,-7.393822193145753
1288,72800.0,-1.1724830865859983,6.709475040435791,-7.329216003417969
1289,72900.0,-1.1724830865859983,6.709475040435791,-7.329216003417969
1290,71500.0,-0.8662018179893494,5.711667537689209,-7.52303409576416
1291,71600.0,-0.8662018179893494,5.711667537689209,-7.52303409576416
1292,71700.0,-1.0815558433532717,5.7930235862731925,-7.542177200317383
1293,71800.0,-1.0815558433532717,5.7930235862731925,-7.542177200317383
1294,71900.0,-1.0193424224853516,6.558726787567139,-7.176074504852295
1295,72000.0,-1.0193424224853516,6.558726787567139,-7.176074504852295
1296,72100.0,-0.7561319470405579,6.005984783172607,-7.597211837768555
1297,72200.0,-0.7561319470405579,6.005984783172607,-7.597211837768555
1298,72300.0,-0.7561319470405579,6.005984783172607,-7.597211837768555
1299,72400.0,-0.9284151792526244,6.223731517791747,-7.401000499725343
1300,72500.0,-0.9284151792526244,6.223731517791747,-7.401000499725343
1301,72600.0,-0.8949156999588013,6.434299945831299,-7.393822193145753
1302,72700.0,-0.8949156999588013,6.434299945831299,-7.393822193145753
1303,72800.0,-1.1724830865859983,6.709475040435791,-7.329216003417969
1304,72900.0,-1.1724830865859983,6.709475040435791,-7.329216003417969
1305,73000.0,-0.6412764191627502,6.0394840240478525,-7.853243827819824
1306,73100.0,-0.6412764191627502,6.0394840240478525,-7.853243827819824
1307,73200.0,-0.6412764191627502,6.0394840240478525,-7.853243827819824
1308,73300.0,-0.7322037816047668,5.816952228546143,-7.649853706359862
1309,73400.0,-0.7322037816047668,5.816952228546143,-7.649853706359862
1310,73500.0,-0.9332008361816406,6.03230619430542,-7.52303409576416
1311,73600.0,-0.9332008361816406,6.03230619430542,-7.52303409576416
1312,73700.0,-0.8949156999588013,5.649453639984131,-7.908278465270996
1313,73800.0,-0.8949156999588013,5.649453639984131,-7.908278465270996
1314,73900.0,-0.784845769405365,9.501898765563963,-7.15932559967041
1315,74000.0,-0.784845769405365,9.501898765563963,-7.15932559967041
1316,74100.0,-0.784845769405365,9.501898765563963,-7.15932559967041
1317,74200.0,-0.8901299238204956,7.133004188537598,-6.833901405334473
1318,74300.0,-0.8901299238204956,7.133004188537598,-6.833901405334473
1319,74400.0,-0.8662018179893494,5.950949668884277,-7.630711555480957
1320,73000.0,-0.6412764191627502,6.0394840240478525,-7.853243827819824
1321,73100.0,-0.6412764191627502,6.0394840240478525,-7.853243827819824
1322,73200.0,-0.6412764191627502,6.0394840240478525,-7.853243827819824
1323,73300.0,-0.7322037816047668,5.816952228546143,-7.649853706359862
1324,73400.0,-0.7322037816047668,5.816952228546143,-7.649853706359862
1325,73500.0,-0.9332008361816406,6.03230619430542,-7.52303409576416
1326,73600.0,-0.9332008361816406,6.03230619430542,-7.52303409576416
1327,73700.0,-0.8949156999588013,5.649453639984131,-7.908278465270996
1328,73800.0,-0.8949156999588013,5.649453639984131,-7.908278465270996
1329,73900.0,-0.784845769405365,9.501898765563963,-7.15932559967041
1330,74000.0,-0.784845769405365,9.501898765563963,-7.15932559967041
1331,74100.0,-0.784845769405365,9.501898765563963,-7.15932559967041
1332,74200.0,-0.8901299238204956,7.133004188537598,-6.833901405334473
1333,74300.0,-0.8901299238204956,7.133004188537598,-6.833901405334473
1334,74400.0,-0.8662018179893494,5.950949668884277,-7.630711555480957
1335,74500.0,-0.8662018179893494,5.950949668884277,-7.630711555480957
1336,74600.0,-0.8662018179893494,5.950949668884277,-7.630711555480957
1337,74700.0,-1.244267821311951,6.668797016143799,-7.030113220214844
1338,74800.0,-1.244267821311951,6.668797016143799,-7.030113220214844
1339,74900.0,-0.8949156999588013,6.4079790115356445,-7.2813591957092285
1340,75000.0,-0.8949156999588013,6.4079790115356445,-7.2813591957092285
1341,75100.0,-1.4021940231323242,6.936792850494385,-5.967699527740479
1342,75200.0,-1.4021940231323242,6.936792850494385,-5.967699527740479
1343,75300.0,-0.8422735333442688,6.515655517578125,-7.3675007820129395
1344,75400.0,-0.8422735333442688,6.515655517578125,-7.3675007820129395
1345,75500.0,-0.7322037816047668,6.494120597839356,-7.334001541137695
1346,75600.0,-0.7322037816047668,6.494120597839356,-7.334001541137695
1347,75700.0,-0.7322037816047668,6.494120597839356,-7.334001541137695
1348,75800.0,-1.1102697849273682,6.195017814636231,-7.338787078857423
1349,75900.0,-1.1102697849273682,6.195017814636231,-7.338787078857423
1350,74500.0,-0.8662018179893494,5.950949668884277,-7.630711555480957
1351,74600.0,-0.8662018179893494,5.950949668884277,-7.630711555480957
1352,74700.0,-1.244267821311951,6.668797016143799,-7.030113220214844
1353,74800.0,-1.244267821311951,6.668797016143799,-7.030113220214844
1354,74900.0,-0.8949156999588013,6.4079790115356445,-7.2813591957092285
1355,75000.0,-0.8949156999588013,6.4079790115356445,-7.2813591957092285
1356,75100.0,-1.4021940231323242,6.936792850494385,-5.967699527740479
1357,75200.0,-1.4021940231323242,6.936792850494385,-5.967699527740479
1358,75300.0,-0.8422735333442688,6.515655517578125,-7.3675007820129395
1359,75400.0,-0.8422735333442688,6.515655517578125,-7.3675007820129395
1360,75500.0,-0.7322037816047668,6.494120597839356,-7.334001541137695
1361,75600.0,-0.7322037816047668,6.494120597839356,-7.334001541137695
1362,75700.0,-0.7322037816047668,6.494120597839356,-7.334001541137695
1363,75800.0,-1.1102697849273682,6.195017814636231,-7.338787078857423
1364,75900.0,-1.1102697849273682,6.195017814636231,-7.338787078857423
1365,76000.0,-0.7896314859390259,6.783651828765869,-6.771688461303711
1366,76100.0,-0.7896314859390259,6.783651828765869,-6.771688461303711
1367,76200.0,-0.7896314859390259,6.783651828765869,-6.771688461303711
1368,76300.0,-0.9523434042930604,6.9320068359375,-6.929614543914795
1369,76400.0,-0.9523434042930604,6.9320068359375,-6.929614543914795
1370,76500.0,0.2153540551662445,7.077969074249268,-8.496913909912111
1371,76600.0,0.2153540551662445,7.077969074249268,-8.496913909912111
1372,76700.0,-1.244267821311951,5.778666496276856,-6.850651264190674
1373,76800.0,-1.244267821311951,5.778666496276856,-6.850651264190674
1374,76900.0,-1.244267821311951,5.778666496276856,-6.850651264190674
1375,77000.0,-1.0719845294952393,6.321837425231934,-7.448856830596924
1376,77100.0,-1.0719845294952393,6.321837425231934,-7.448856830596924
1377,77200.0,-0.7274181246757507,6.632904052734375,-7.403393745422362
1378,77300.0,-0.7274181246757507,6.632904052734375,-7.403393745422362
1379,77400.0,-1.057627558708191,6.788437843322754,-6.891329765319824
1380,76000.0,-0.7896314859390259,6.783651828765869,-6.771688461303711
1381,76100.0,-0.7896314859390259,6.783651828765869,-6.771688461303711
1382,76200.0,-0.7896314859390259,6.783651828765869,-6.771688461303711
1383,76300.0,-0.9523434042930604,6.9320068359375,-6.929614543914795
1384,76400.0,-0.9523434042930604,6.9320068359375,-6.929614543914795
1385,76500.0,0.2153540551662445,7.077969074249268,-8.496913909912111
1386,76600.0,0.2153540551662445,7.077969074249268,-8.496913909912111
1387,76700.0,-1.244267821311951,5.778666496276856,-6.850651264190674
1388,76800.0,-1.244267821311951,5.778666496276856,-6.850651264190674
1389,76900.0,-1.244267821311951,5.778666496276856,-6.850651264190674
1390,77000.0,-1.0719845294952393,6.321837425231934,-7.448856830596924
1391,77100.0,-1.0719845294952393,6.321837425231934,-7.448856830596924
1392,77200.0,-0.7274181246757507,6.632904052734375,-7.403393745422362
1393,77300.0,-0.7274181246757507,6.632904052734375,-7.403393745422362
1394,77400.0,-1.057627558708191,6.788437843322754,-6.891329765319824
1395,77500.0,-1.057627558708191,6.788437843322754,-6.891329765319824
1396,77600.0,-1.057627558708191,6.788437843322754,-6.891329765319824
1397,77700.0,-0.7992027401924133,6.355337142944336,-7.630711555480957
1398,77800.0,-0.7992027401924133,6.355337142944336,-7.630711555480957
1399,77900.0,-0.5694918036460876,7.36032247543335,-7.549355506896973
1400,78000.0,-0.5694918036460876,7.36032247543335,-7.549355506896973
1401,78100.0,-1.062413215637207,6.766902446746826,-7.058826446533202
1402,78200.0,-1.062413215637207,6.766902446746826,-7.058826446533202
1403,78300.0,-0.8470591902732849,6.309873104095459,-7.3531436920166025
1404,78400.0,-0.8470591902732849,6.309873104095459,-7.3531436920166025
1405,78500.0,-0.8470591902732849,6.309873104095459,-7.3531436920166025
1406,78600.0,-0.7657032012939453,6.422336101531982,-7.355536937713622
1407,78700.0,-0.7657032012939453,6.422336101531982,-7.355536937713622
1408,78800.0,-0.5982056856155396,6.300302028656006,-7.647461414337157
1409,78900.0,-0.5982056856155396,6.300302028656006,-7.647461414337157
1410,77500.0,-1.057627558708191,6.788437843322754,-6.891329765319824
1411,77600.0,-1.057627558708191,6.788437843322754,-6.891329765319824
1412,77700.0,-0.7992027401924133,6.355337142944336,-7.630711555480957
1413,77800.0,-0.7992027401924133,6.355337142944336,-7.630711555480957
1414,77900.0,-0.5694918036460876,7.36032247543335,-7.549355506896973
1415,78000.0,-0.5694918036460876,7.36032247543335,-7.549355506896973
1416,78100.0,-1.062413215637207,6.766902446746826,-7.058826446533202
1417,78200.0,-1.062413215637207,6.766902446746826,-7.058826446533202
1418,78300.0,-0.8470591902732849,6.309873104095459,-7.3531436920166025
1419,78400.0,-0.8470591902732849,6.309873104095459,-7.3531436920166025
1420,78500.0,-0.8470591902732849,6.309873104095459,-7.3531436920166025
1421,78600.0,-0.7657032012939453,6.422336101531982,-7.355536937713622
1422,78700.0,-0.7657032012939453,6.422336101531982,-7.355536937713622
1423,78800.0,-0.5982056856155396,6.300302028656006,-7.647461414337157
1424,78900.0,-0.5982056856155396,6.300302028656006,-7.647461414337157
1425,79000.0,-0.7417750358581543,6.625725746154785,-7.441678524017334
1426,79100.0,-0.7417750358581543,6.625725746154785,-7.441678524017334
1427,79200.0,-1.1006983518600464,8.104490280151367,-6.608975887298584
1428,79300.0,-1.1006983518600464,8.104490280151367,-6.608975887298584
1429,79400.0,-1.1006983518600464,8.104490280151367,-6.608975887298584
1430,79500.0,-0.8231310248374939,6.888936519622803,-7.077969074249268
1431,79600.0,-0.8231310248374939,6.888936519622803,-7.077969074249268
1432,79700.0,-0.8662018179893494,6.982256412506104,-6.853044033050537
1433,79800.0,-0.8662018179893494,6.982256412506104,-6.853044033050537
1434,79900.0,-0.8805587291717529,6.537191867828369,-7.156932830810548
1435,80000.0,-0.8805587291717529,6.537191867828369,-7.156932830810548
1436,80100.0,-0.818345308303833,7.082754611968994,-6.742973804473878
1437,80200.0,-0.818345308303833,7.082754611968994,-6.742973804473878
1438,80300.0,-0.818345308303833,7.082754611968994,-6.742973804473878
1439,80400.0,-0.9858429431915284,6.838686943054199,-6.965506553649902
1440,79000.0,-0.7417750358581543,6.625725746154785,-7.441678524017334
1441,79100.0,-0.7417750358581543,6.625725746154785,-7.441678524017334
1442,79200.0,-1.1006983518600464,8.104490280151367,-6.608975887298584
1443,79300.0,-1.1006983518600464,8.104490280151367,-6.608975887298584
1444,79400.0,-1.1006983518600464,8.104490280151367,-6.608975887298584
1445,79500.0,-0.8231310248374939,6.888936519622803,-7.077969074249268
1446,79600.0,-0.8231310248374939,6.888936519622803,-7.077969074249268
1447,79700.0,-0.8662018179893494,6.982256412506104,-6.853044033050537
1448,79800.0,-0.8662018179893494,6.982256412506104,-6.853044033050537
1449,79900.0,-0.8805587291717529,6.537191867828369,-7.156932830810548
1450,80000.0,-0.8805587291717529,6.537191867828369,-7.156932830810548
1451,80100.0,-0.818345308303833,7.082754611968994,-6.742973804473878
1452,80200.0,-0.818345308303833,7.082754611968994,-6.742973804473878
1453,80300.0,-0.818345308303833,7.082754611968994,-6.742973804473878
1454,80400.0,-0.9858429431915284,6.838686943054199,-6.965506553649902
1455,80500.0,-0.9858429431915284,6.838686943054199,-6.965506553649902
1456,80600.0,-1.9621145725250244,3.5270204544067383,-7.259823799133301
1457,80700.0,-1.9621145725250244,3.5270204544067383,-7.259823799133301
1458,80800.0,-1.722832441329956,6.266802310943604,-5.917449951171875
1459,80900.0,-1.722832441329956,6.266802310943604,-5.917449951171875
1460,81000.0,-1.722832441329956,6.266802310943604,-5.917449951171875
1461,81100.0,-1.4069796800613403,6.530013084411621,-6.496513843536378
1462,81200.0,-1.4069796800613403,6.530013084411621,-6.496513843536378
1463,81300.0,-1.196411371231079,6.546762466430664,-7.16650390625
1464,81400.0,-1.196411371231079,6.546762466430664,-7.16650390625
1465,81500.0,-1.196411371231079,6.546762466430664,-7.16650390625
1466,81600.0,-0.8757730722427368,5.929414749145508,-7.838886737823486
1467,81700.0,-0.8757730722427368,5.929414749145508,-7.838886737823486
1468,81800.0,-0.8135597109794617,5.790630340576173,-8.250452041625978
1469,81900.0,-0.8135597109794617,5.790630340576173,-8.250452041625978
1470,80500.0,-0.9858429431915284,6.838686943054199,-6.965506553649902
1471,80600.0,-1.9621145725250244,3.5270204544067383,-7.259823799133301
1472,80700.0,-1.9621145725250244,3.5270204544067383,-7.259823799133301
1473,80800.0,-1.722832441329956,6.266802310943604,-5.917449951171875
1474,80900.0,-1.722832441329956,6.266802310943604,-5.917449951171875
1475,81000.0,-1.722832441329956,6.266802310943604,-5.917449951171875
1476,81100.0,-1.4069796800613403,6.530013084411621,-6.496513843536378
1477,81200.0,-1.4069796800613403,6.530013084411621,-6.496513843536378
1478,81300.0,-1.196411371231079,6.546762466430664,-7.16650390625
1479,81400.0,-1.196411371231079,6.546762466430664,-7.16650390625
1480,81500.0,-1.196411371231079,6.546762466430664,-7.16650390625
1481,81600.0,-0.8757730722427368,5.929414749145508,-7.838886737823486
1482,81700.0,-0.8757730722427368,5.929414749145508,-7.838886737823486
1483,81800.0,-0.8135597109794617,5.790630340576173,-8.250452041625978
1484,81900.0,-0.8135597109794617,5.790630340576173,-8.250452041625978
1485,82000.0,-0.6843472719192505,5.338387489318848,-7.7599239349365225
1486,82100.0,-0.6843472719192505,5.338387489318848,-7.7599239349365225
1487,82200.0,-0.6843472719192505,5.338387489318848,-7.7599239349365225
1488,82300.0,-0.9044869542121888,5.603990077972412,-7.812565803527832
1489,82400.0,-0.9044869542121888,5.603990077972412,-7.812565803527832
1490,82500.0,-0.8231310248374939,5.446063995361328,-7.838886737823486
1491,82600.0,-0.8231310248374939,5.446063995361328,-7.838886737823486
1492,82700.0,-1.0719845294952393,5.8265228271484375,-7.137789726257324
1493,82800.0,-1.0719845294952393,5.8265228271484375,-7.137789726257324
1494,82900.0,-1.0719845294952393,5.8265228271484375,-7.137789726257324
1495,83000.0,-0.6508477926254272,6.5491557121276855,-7.657032012939452
1496,83100.0,-0.6508477926254272,6.5491557121276855,-7.657032012939452
1497,83200.0,-1.0719845294952393,7.156932830810548,-7.051648139953612
1498,83300.0,-1.0719845294952393,7.156932830810548,-7.051648139953612
1499,83400.0,-1.1581261157989502,6.15673303604126,-6.9894347190856925
1500,82000.0,-0.6843472719192505,5.338387489318848,-7.7599239349365225
1501,82100.0,-0.6843472719192505,5.338387489318848,-7.7599239349365225
1502,82200.0,-0.6843472719192505,5.338387489318848,-7.7599239349365225
1503,82300.0,-0.9044869542121888,5.603990077972412,-7.812565803527832
1504,82400.0,-0.9044869542121888,5.603990077972412,-7.812565803527832
1505,82500.0,-0.8231310248374939,5.446063995361328,-7.838886737823486
1506,82600.0,-0.8231310248374939,5.446063995361328,-7.838886737823486
1507,82700.0,-1.0719845294952393,5.8265228271484375,-7.137789726257324
1508,82800.0,-1.0719845294952393,5.8265228271484375,-7.137789726257324
1509,82900.0,-1.0719845294952393,5.8265228271484375,-7.137789726257324
1510,83000.0,-0.6508477926254272,6.5491557121276855,-7.657032012939452
1511,83100.0,-0.6508477926254272,6.5491557121276855,-7.657032012939452
1512,83200.0,-1.0719845294952393,7.156932830810548,-7.051648139953612
1513,83300.0,-1.0719845294952393,7.156932830810548,-7.051648139953612
1514,83400.0,-1.1581261157989502,6.15673303604126,-6.9894347190856925
1515,83500.0,-1.1581261157989502,6.15673303604126,-6.9894347190856925
1516,83600.0,-1.1581261157989502,6.15673303604126,-6.9894347190856925
1517,83700.0,-1.0863415002822876,6.422336101531982,-7.386643409729004
1518,83800.0,-1.0863415002822876,6.422336101531982,-7.386643409729004
1519,83900.0,-0.8709874749183655,5.843273162841798,-7.640282154083253
1520,84000.0,-0.8709874749183655,5.843273162841798,-7.640282154083253
1521,84100.0,-0.9188438653945924,6.384050369262695,-7.2885379791259775
1522,84200.0,-0.9188438653945924,6.384050369262695,-7.2885379791259775
1523,84300.0,-0.9188438653945924,6.384050369262695,-7.2885379791259775
1524,84400.0,-0.7274181246757507,5.682953834533691,-7.934599876403809
1525,84500.0,-0.7274181246757507,5.682953834533691,-7.934599876403809
1526,84600.0,-0.9858429431915284,5.845665454864503,-7.135397434234619
1527,84700.0,-0.9858429431915284,5.845665454864503,-7.135397434234619
1528,84800.0,-0.7896314859390259,6.604190349578857,-7.558926582336426
1529,84900.0,-0.7896314859390259,6.604190349578857,-7.558926582336426
1530,83500.0,-1.1581261157989502,6.15673303604126,-6.9894347190856925
1531,83600.0,-1.1581261157989502,6.15673303604126,-6.9894347190856925
1532,83700.0,-1.0863415002822876,6.422336101531982,-7.386643409729004
1533,83800.0,-1.0863415002822876,6.422336101531982,-7.386643409729004
1534,83900.0,-0.8709874749183655,5.843273162841798,-7.640282154083253
1535,84000.0,-0.8709874749183655,5.843273162841798,-7.640282154083253
1536,84100.0,-0.9188438653945924,6.384050369262695,-7.2885379791259775
1537,84200.0,-0.9188438653945924,6.384050369262695,-7.2885379791259775
1538,84300.0,-0.9188438653945924,6.384050369262695,-7.2885379791259775
1539,84400.0,-0.7274181246757507,5.682953834533691,-7.934599876403809
1540,84500.0,-0.7274181246757507,5.682953834533691,-7.934599876403809
1541,84600.0,-0.9858429431915284,5.845665454864503,-7.135397434234619
1542,84700.0,-0.9858429431915284,5.845665454864503,-7.135397434234619
1543,84800.0,-0.7896314859390259,6.604190349578857,-7.558926582336426
1544,84900.0,-0.7896314859390259,6.604190349578857,-7.558926582336426
1545,85000.0,-0.7896314859390259,6.604190349578857,-7.558926582336426
1546,85100.0,-0.8757730722427368,6.453442573547362,-7.22153902053833
1547,85200.0,-0.8757730722427368,6.453442573547362,-7.22153902053833
1548,85300.0,-1.2681961059570312,7.22871732711792,-6.9583282470703125
1549,85400.0,-1.2681961059570312,7.22871732711792,-6.9583282470703125
1550,85500.0,-0.7704889178276062,6.369694232940674,-7.348358631134032
1551,85600.0,-0.7704889178276062,6.369694232940674,-7.348358631134032
1552,85700.0,-0.7704889178276062,6.369694232940674,-7.348358631134032
1553,85800.0,-0.7465606331825256,6.4462642669677725,-7.695317268371582
1554,85900.0,-0.7465606331825256,6.4462642669677725,-7.695317268371582
1555,86000.0,-1.325623631477356,6.5730838775634775,-6.92482852935791
1556,86100.0,-1.325623631477356,6.5730838775634775,-6.92482852935791
1557,86200.0,-1.2059825658798218,5.948556900024414,-6.955935001373291
1558,86300.0,-1.2059825658798218,5.948556900024414,-6.955935001373291
1559,86400.0,-1.2059825658798218,5.948556900024414,-6.955935001373291
1560,85000.0,-0.7896314859390259,6.604190349578857,-7.558926582336426
1561,85100.0,-0.8757730722427368,6.453442573547362,-7.22153902053833
1562,85200.0,-0.8757730722427368,6.453442573547362,-7.22153902053833
1563,85300.0,-1.2681961059570312,7.22871732711792,-6.9583282470703125
1564,85400.0,-1.2681961059570312,7.22871732711792,-6.9583282470703125
1565,85500.0,-0.7704889178276062,6.369694232940674,-7.348358631134032
1566,85600.0,-0.7704889178276062,6.369694232940674,-7.348358631134032
1567,85700.0,-0.7704889178276062,6.369694232940674,-7.348358631134032
1568,85800.0,-0.7465606331825256,6.4462642669677725,-7.695317268371582
1569,85900.0,-0.7465606331825256,6.4462642669677725,-7.695317268371582
1570,86000.0,-1.325623631477356,6.5730838775634775,-6.92482852935791
1571,86100.0,-1.325623631477356,6.5730838775634775,-6.92482852935791
1572,86200.0,-1.2059825658798218,5.948556900024414,-6.955935001373291
1573,86300.0,-1.2059825658798218,5.948556900024414,-6.955935001373291
1574,86400.0,-1.2059825658798218,5.948556900024414,-6.955935001373291
1575,86500.0,-1.0241280794143677,6.7453670501708975,-7.025327682495117
1576,86600.0,-1.0241280794143677,6.7453670501708975,-7.025327682495117
1577,86700.0,-0.8518448472023009,6.3936219215393075,-7.350750923156737
1578,86800.0,-0.8518448472023009,6.3936219215393075,-7.350750923156737
1579,86900.0,-1.1341978311538696,6.238089084625244,-7.008577823638916
1580,87000.0,-1.1341978311538696,6.238089084625244,-7.008577823638916
1581,87100.0,-1.1341978311538696,6.238089084625244,-7.008577823638916
1582,87200.0,-0.8805587291717529,6.3912291526794425,-7.326822757720947
1583,87300.0,-0.8805587291717529,6.3912291526794425,-7.326822757720947
1584,87400.0,-0.7465606331825256,6.374479293823242,-7.259823799133301
1585,87500.0,-0.7465606331825256,6.374479293823242,-7.259823799133301
1586,87600.0,-1.043270707130432,6.439085483551025,-7.104290962219237
1587,87700.0,-1.043270707130432,6.439085483551025,-7.104290962219237
1588,87800.0,-1.043270707130432,6.439085483551025,-7.104290962219237
1589,87900.0,-0.7417750358581543,5.568098068237305,-7.764709949493407
1590,86500.0,-1.0241280794143677,6.7453670501708975,-7.025327682495117
1591,86600.0,-1.0241280794143677,6.7453670501708975,-7.025327682495117
1592,86700.0,-0.8518448472023009,6.3936219215393075,-7.350750923156737
1593,86800.0,-0.8518448472023009,6.3936219215393075,-7.350750923156737
1594,86900.0,-1.1341978311538696,6.238089084625244,-7.008577823638916
1595,87000.0,-1.1341978311538696,6.238089084625244,-7.008577823638916
1596,87100.0,-1.1341978311538696,6.238089084625244,-7.008577823638916
1597,87200.0,-0.8805587291717529,6.3912291526794425,-7.326822757720947
1598,87300.0,-0.8805587291717529,6.3912291526794425,-7.326822757720947
1599,87400.0,-0.7465606331825256,6.374479293823242,-7.259823799133301
1600,87500.0,-0.7465606331825256,6.374479293823242,-7.259823799133301
1601,87600.0,-1.043270707130432,6.439085483551025,-7.104290962219237
1602,87700.0,-1.043270707130432,6.439085483551025,-7.104290962219237
1603,87800.0,-1.043270707130432,6.439085483551025,-7.104290962219237
1604,87900.0,-0.7417750358581543,5.568098068237305,-7.764709949493407
1605,88000.0,-0.7417750358581543,5.568098068237305,-7.764709949493407
1606,88100.0,-1.3351951837539673,6.2189459800720215,-6.97986364364624
1607,88200.0,-1.3351951837539673,6.2189459800720215,-6.97986364364624
1608,88300.0,-0.6939185857772827,6.2333030700683585,-7.613961696624756
1609,88400.0,-0.6939185857772827,6.2333030700683585,-7.613961696624756
1610,88500.0,-0.8709874749183655,6.530013084411621,-7.377072334289551
1611,88600.0,-0.8709874749183655,6.530013084411621,-7.377072334289551
1612,88700.0,-0.8709874749183655,6.530013084411621,-7.377072334289551
1613,88800.0,-0.9523434042930604,6.659225463867188,-6.867401123046875
1614,88900.0,-0.9523434042930604,6.659225463867188,-6.867401123046875
1615,89000.0,-0.5312066078186035,6.149554252624513,-7.680960178375244
1616,89100.0,-0.5312066078186035,6.149554252624513,-7.680960178375244
1617,89200.0,-0.5312066078186035,6.149554252624513,-7.680960178375244
1618,89300.0,-1.0336993932724001,6.434299945831299,-6.606583118438722
1619,89400.0,-1.0336993932724001,6.434299945831299,-6.606583118438722
1620,88000.0,-0.7417750358581543,5.568098068237305,-7.764709949493407
1621,88100.0,-1.3351951837539673,6.2189459800720215,-6.97986364364624
1622,88200.0,-1.3351951837539673,6.2189459800720215,-6.97986364364624
1623,88300.0,-0.6939185857772827,6.2333030700683585,-7.613961696624756
1624,88400.0,-0.6939185857772827,6.2333030700683585,-7.613961696624756
1625,88500.0,-0.8709874749183655,6.530013084411621,-7.377072334289551
1626,88600.0,-0.8709874749183655,6.530013084411621,-7.377072334289551
1627,88700.0,-0.8709874749183655,6.530013084411621,-7.377072334289551
1628,88800.0,-0.9523434042930604,6.659225463867188,-6.867401123046875
1629,88900.0,-0.9523434042930604,6.659225463867188,-6.867401123046875
1630,89000.0,-0.5312066078186035,6.149554252624513,-7.680960178375244
1631,89100.0,-0.5312066078186035,6.149554252624513,-7.680960178375244
1632,89200.0,-0.5312066078186035,6.149554252624513,-7.680960178375244
1633,89300.0,-1.0336993932724001,6.434299945831299,-6.606583118438722
1634,89400.0,-1.0336993932724001,6.434299945831299,-6.606583118438722
1635,89500.0,-0.9762716889381408,7.439285278320312,-6.613761901855469
1636,89600.0,-0.9762716889381408,7.439285278320312,-6.613761901855469
1637,89700.0,-0.7082754969596863,6.065804958343506,-7.518248558044434
1638,89800.0,-0.7082754969596863,6.065804958343506,-7.518248558044434
1639,89900.0,-0.8327022790908813,6.441478729248048,-7.259823799133301
1640,90000.0,-0.8327022790908813,6.441478729248048,-7.259823799133301
1641,90100.0,-0.6269195079803467,6.367300987243652,-7.238288879394531
1642,90200.0,-0.6269195079803467,6.367300987243652,-7.238288879394531
1643,90300.0,-0.6269195079803467,6.367300987243652,-7.238288879394531
1644,90400.0,-0.8039883971214294,6.506085395812987,-7.41535758972168
1645,90500.0,-0.8039883971214294,6.506085395812987,-7.41535758972168
1646,90600.0,-0.7704889178276062,7.037291049957275,-6.819544315338135
1647,90700.0,-0.7704889178276062,7.037291049957275,-6.819544315338135
1648,90800.0,-0.7704889178276062,7.037291049957275,-6.819544315338135
1649,90900.0,-0.9858429431915284,6.587440490722656,-6.687938690185548
1650,89500.0,-0.9762716889381408,7.439285278320312,-6.613761901855469
1651,89600.0,-0.9762716889381408,7.439285278320312,-6.613761901855469
1652,89700.0,-0.7082754969596863,6.065804958343506,-7.518248558044434
1653,89800.0,-0.7082754969596863,6.065804958343506,-7.518248558044434
1654,89900.0,-0.8327022790908813,6.441478729248048,-7.259823799133301
1655,90000.0,-0.8327022790908813,6.441478729248048,-7.259823799133301
1656,90100.0,-0.6269195079803467,6.367300987243652,-7.238288879394531
1657,90200.0,-0.6269195079803467,6.367300987243652,-7.238288879394531
1658,90300.0,-0.6269195079803467,6.367300987243652,-7.238288879394531
1659,90400.0,-0.8039883971214294,6.506085395812987,-7.41535758972168
1660,90500.0,-0.8039883971214294,6.506085395812987,-7.41535758972168
1661,90600.0,-0.7704889178276062,7.037291049957275,-6.819544315338135
1662,90700.0,-0.7704889178276062,7.037291049957275,-6.819544315338135
1663,90800.0,-0.7704889178276062,7.037291049957275,-6.819544315338135
1664,90900.0,-0.9858429431915284,6.587440490722656,-6.687938690185548
1665,91000.0,-0.9858429431915284,6.587440490722656,-6.687938690185548
1666,91100.0,-0.8757730722427368,6.63769006729126,-6.970292568206787
1667,91200.0,-0.8757730722427368,6.63769006729126,-6.970292568206787
1668,91300.0,-0.5982056856155396,6.4462642669677725,-7.183253765106201
1669,91400.0,-0.5982056856155396,6.4462642669677725,-7.183253765106201
1670,91500.0,-0.22492533922195435,6.372087001800537,-7.544569969177246
1671,91600.0,-0.22492533922195435,6.372087001800537,-7.544569969177246
1672,91700.0,-0.22492533922195435,6.372087001800537,-7.544569969177246
1673,91800.0,-0.2679961323738098,6.3290162086486825,-7.613961696624756
1674,91900.0,-0.2679961323738098,6.3290162086486825,-7.613961696624756
1675,92000.0,-0.430708110332489,6.451050281524657,-7.322037220001222
1676,92100.0,-0.430708110332489,6.451050281524657,-7.322037220001222
1677,92200.0,-0.430708110332489,6.451050281524657,-7.322037220001222
1678,92300.0,-1.7754744291305542,6.269195556640625,-5.850451469421388
1679,92400.0,-1.7754744291305542,6.269195556640625,-5.850451469421388
1680,91000.0,-0.9858429431915284,6.587440490722656,-6.687938690185548
1681,91100.0,-0.8757730722427368,6.63769006729126,-6.970292568206787
1682,91200.0,-0.8757730722427368,6.63769006729126,-6.970292568206787
1683,91300.0,-0.5982056856155396,6.4462642669677725,-7.183253765106201
1684,91400.0,-0.5982056856155396,6.4462642669677725,-7.183253765106201
1685,91500.0,-0.22492533922195435,6.372087001800537,-7.544569969177246
1686,91600.0,-0.22492533922195435,6.372087001800537,-7.544569969177246
1687,91700.0,-0.22492533922195435,6.372087001800537,-7.544569969177246
1688,91800.0,-0.2679961323738098,6.3290162086486825,-7.613961696624756
1689,91900.0,-0.2679961323738098,6.3290162086486825,-7.613961696624756
1690,92000.0,-0.430708110332489,6.451050281524657,-7.322037220001222
1691,92100.0,-0.430708110332489,6.451050281524657,-7.322037220001222
1692,92200.0,-0.430708110332489,6.451050281524657,-7.322037220001222
1693,92300.0,-1.7754744291305542,6.269195556640625,-5.850451469421388
1694,92400.0,-1.7754744291305542,6.269195556640625,-5.850451469421388
1695,92500.0,-0.7800601720809937,5.862415313720702,-7.417750358581543
1696,92600.0,-0.7800601720809937,5.862415313720702,-7.417750358581543
1697,92700.0,-1.0911270380020142,6.173482418060303,-7.216752529144287
1698,92800.0,-1.0911270380020142,6.173482418060303,-7.216752529144287
1699,92900.0,-0.8566305041313171,6.257230758666992,-7.032505512237549
1700,93000.0,-0.8566305041313171,6.257230758666992,-7.032505512237549
1701,93100.0,-0.6891329884529114,5.828916072845459,-7.7599239349365225
1702,93200.0,-0.6891329884529114,5.828916072845459,-7.7599239349365225
1703,93300.0,-0.6891329884529114,5.828916072845459,-7.7599239349365225
1704,93400.0,-1.0336993932724001,6.348158359527588,-7.520641803741455
1705,93500.0,-1.0336993932724001,6.348158359527588,-7.520641803741455
1706,93600.0,-0.3732803165912628,5.828916072845459,-8.214560508728027
1707,93700.0,-0.3732803165912628,5.828916072845459,-8.214560508728027
1708,93800.0,-0.3732803165912628,5.828916072845459,-8.214560508728027
1709,93900.0,-1.2059825658798218,6.884150981903076,-7.152146816253662
1710,92500.0,-0.7800601720809937,5.862415313720702,-7.417750358581543
1711,92600.0,-0.7800601720809937,5.862415313720702,-7.417750358581543
1712,92700.0,-1.0911270380020142,6.173482418060303,-7.216752529144287
1713,92800.0,-1.0911270380020142,6.173482418060303,-7.216752529144287
1714,92900.0,-0.8566305041313171,6.257230758666992,-7.032505512237549
1715,93000.0,-0.8566305041313171,6.257230758666992,-7.032505512237549
1716,93100.0,-0.6891329884529114,5.828916072845459,-7.7599239349365225
1717,93200.0,-0.6891329884529114,5.828916072845459,-7.7599239349365225
1718,93300.0,-0.6891329884529114,5.828916072845459,-7.7599239349365225
1719,93400.0,-1.0336993932724001,6.348158359527588,-7.520641803741455
1720,93500.0,-1.0336993932724001,6.348158359527588,-7.520641803741455
1721,93600.0,-0.3732803165912628,5.828916072845459,-8.214560508728027
1722,93700.0,-0.3732803165912628,5.828916072845459,-8.214560508728027
1723,93800.0,-0.3732803165912628,5.828916072845459,-8.214560508728027
1724,93900.0,-1.2059825658798218,6.884150981903076,-7.152146816253662
1725,94000.0,-1.2059825658798218,6.884150981903076,-7.152146816253662
1726,94100.0,-0.8566305041313171,6.379265785217285,-7.506284713745117
1727,94200.0,-0.8566305041313171,6.379265785217285,-7.506284713745117
1728,94300.0,-0.7561319470405579,6.384050369262695,-7.302894115447997
1729,94400.0,-0.7561319470405579,6.384050369262695,-7.302894115447997
1730,94500.0,-0.82791668176651,6.017949104309082,-7.573283672332764
1731,94600.0,-0.82791668176651,6.017949104309082,-7.573283672332764
