,timestamp,ax,ay,az
0,0.0,1.7609353065490725,0.018555063754320145,8.333617210388184
1,100.0,1.7609353065490725,0.018555063754320145,8.333617210388184
2,200.0,0.5913678407669067,-0.7428010702133179,8.225878715515138
3,300.0,0.5913678407669067,-0.7428010702133179,8.225878715515138
4,400.0,-0.1825578808784485,3.1968579292297363,14.105439186096193
5,500.0,-0.1825578808784485,3.1968579292297363,14.105439186096193
6,600.0,-2.6575639247894287,0.6901286244392395,7.095815181732178
7,700.0,-2.6575639247894287,0.6901286244392395,7.095815181732178
8,800.0,-4.464587688446045,-2.5911247730255127,-2.994547843933105
9,900.0,-4.464587688446045,-2.5911247730255127,-2.994547843933105
10,1000.0,-4.796782970428467,-0.6655880808830261,7.795520782470702
11,1100.0,-4.3640313148498535,0.44532153010368347,4.501697540283203
12,1200.0,-4.3640313148498535,0.44532153010368347,4.501697540283203
13,1300.0,-5.70897388458252,5.505466938018799,4.314351558685304
14,1400.0,-5.70897388458252,5.505466938018799,4.314351558685304
15,1500.0,-8.117541313171388,-7.561487674713135,4.977545261383057
16,1600.0,-8.117541313171388,-7.561487674713135,4.977545261383057
17,1700.0,-4.988917827606201,-3.296815633773804,6.151901245117188
18,1800.0,-4.988917827606201,-3.296815633773804,6.151901245117188
19,1900.0,-6.640318393707275,0.3998316824436188,8.277952194213867
20,2000.0,-7.102997779846191,-6.415263652801514,1.623268723487854
21,2100.0,-7.102997779846191,-6.415263652801514,1.623268723487854
22,2200.0,-7.703343868255615,-5.5306057929992685,5.55514669418335
23,2300.0,-7.703343868255615,-5.5306057929992685,5.55514669418335
24,2400.0,-7.296928405761719,-3.998915433883667,7.762001991271973
25,2500.0,-7.296928405761719,-3.998915433883667,7.762001991271973
26,2600.0,-2.1733365058898926,-2.4594438076019287,14.953585624694824
27,2700.0,-2.1733365058898926,-2.4594438076019287,14.953585624694824
28,2800.0,-4.416703701019287,-3.2938230037689213,8.76577091217041
29,2900.0,-4.63397741317749,-0.304063618183136,8.35456657409668
30,3000.0,-4.63397741317749,-0.304063618183136,8.35456657409668
31,3100.0,-3.8965632915496826,-0.9864110946655272,8.44315242767334
32,3200.0,-3.8965632915496826,-0.9864110946655272,8.44315242767334
33,3300.0,-3.796605348587036,-1.4119805097579956,8.574832916259767
34,3400.0,-3.796605348587036,-1.4119805097579956,8.574832916259767
35,3500.0,-3.90554141998291,-2.589329242706299,8.318055152893066
36,3600.0,-3.90554141998291,-2.589329242706299,8.318055152893066
37,3700.0,-3.266289710998535,-2.020107746124268,8.53532886505127
38,3800.0,-3.755903959274292,-1.9357120990753172,8.464101791381836
39,3900.0,-3.755903959274292,-1.9357120990753172,8.464101791381836
40,2000.0,-7.102997779846191,-6.415263652801514,1.623268723487854
41,2100.0,-7.102997779846191,-6.415263652801514,1.623268723487854
42,2200.0,-7.703343868255615,-5.5306057929992685,5.55514669418335
43,2300.0,-7.703343868255615,-5.5306057929992685,5.55514669418335
44,2400.0,-7.296928405761719,-3.998915433883667,7.762001991271973
45,2500.0,-7.296928405761719,-3.998915433883667,7.762001991271973
46,2600.0,-2.1733365058898926,-2.4594438076019287,14.953585624694824
47,2700.0,-2.1733365058898926,-2.4594438076019287,14.953585624694824
48,2800.0,-4.416703701019287,-3.2938230037689213,8.76577091217041
49,2900.0,-4.63397741317749,-0.304063618183136,8.35456657409668
50,3000.0,-4.63397741317749,-0.304063618183136,8.35456657409668
51,3100.0,-3.8965632915496826,-0.9864110946655272,8.44315242767334
52,3200.0,-3.8965632915496826,-0.9864110946655272,8.44315242767334
53,3300.0,-3.796605348587036,-1.4119805097579956,8.574832916259767
54,3400.0,-3.796605348587036,-1.4119805097579956,8.574832916259767
55,3500.0,-3.90554141998291,-2.589329242706299,8.318055152893066
56,3600.0,-3.90554141998291,-2.589329242706299,8.318055152893066
57,3700.0,-3.266289710998535,-2.020107746124268,8.53532886505127
58,3800.0,-3.755903959274292,-1.9357120990753172,8.464101791381836
59,3900.0,-3.755903959274292,-1.9357120990753172,8.464101791381836
60,4000.0,-3.7954082489013667,-1.8489222526550293,8.455122947692871
61,4100.0,-3.7954082489013667,-1.8489222526550293,8.455122947692871
62,4200.0,-3.801393747329712,-1.6962919235229492,8.416217803955076
63,4300.0,-3.801393747329712,-1.6962919235229492,8.416217803955076
64,4400.0,-3.876811027526856,-1.8052281141281128,8.451532363891603
65,4500.0,-3.876811027526856,-1.8052281141281128,8.451532363891603
66,4600.0,-3.929483652114868,-1.6035165786743164,8.339004516601562
67,4700.0,-3.6750996112823486,-1.6968904733657837,8.504802703857424
68,4800.0,-3.6750996112823486,-1.6968904733657837,8.504802703857424
69,4900.0,-3.6750996112823486,-1.6968904733657837,8.504802703857424
70,5000.0,-3.706224203109741,-1.6178817749023438,8.487444877624513
71,5100.0,-3.863642930984497,-1.7292121648788452,8.438961982727049
72,5200.0,-3.863642930984497,-1.7292121648788452,8.438961982727049
73,5300.0,-3.7624878883361816,-1.5747861862182615,8.44195556640625
74,5400.0,-3.7624878883361816,-1.5747861862182615,8.44195556640625
75,5500.0,-3.7421371936798096,-1.6765397787094116,8.465298652648926
76,5600.0,-3.7481226921081534,-1.5538369417190552,8.485051155090332
77,5700.0,-3.7481226921081534,-1.5538369417190552,8.485051155090332
78,5800.0,-3.773860454559326,-1.5705963373184204,8.483853340148926
79,5900.0,-3.773860454559326,-1.5705963373184204,8.483853340148926
80,4000.0,-3.7954082489013667,-1.8489222526550293,8.455122947692871
81,4100.0,-3.7954082489013667,-1.8489222526550293,8.455122947692871
82,4200.0,-3.801393747329712,-1.6962919235229492,8.416217803955076
83,4300.0,-3.801393747329712,-1.6962919235229492,8.416217803955076
84,4400.0,-3.876811027526856,-1.8052281141281128,8.451532363891603
85,4500.0,-3.876811027526856,-1.8052281141281128,8.451532363891603
86,4600.0,-3.929483652114868,-1.6035165786743164,8.339004516601562
87,4700.0,-3.6750996112823486,-1.6968904733657837,8.504802703857424
88,4800.0,-3.6750996112823486,-1.6968904733657837,8.504802703857424
89,4900.0,-3.6750996112823486,-1.6968904733657837,8.504802703857424
90,5000.0,-3.706224203109741,-1.6178817749023438,8.487444877624513
91,5100.0,-3.863642930984497,-1.7292121648788452,8.438961982727049
92,5200.0,-3.863642930984497,-1.7292121648788452,8.438961982727049
93,5300.0,-3.7624878883361816,-1.5747861862182615,8.44195556640625
94,5400.0,-3.7624878883361816,-1.5747861862182615,8.44195556640625
95,5500.0,-3.7421371936798096,-1.6765397787094116,8.465298652648926
96,5600.0,-3.7481226921081534,-1.5538369417190552,8.485051155090332
97,5700.0,-3.7481226921081534,-1.5538369417190552,8.485051155090332
98,5800.0,-3.773860454559326,-1.5705963373184204,8.483853340148926
99,5900.0,-3.773860454559326,-1.5705963373184204,8.483853340148926
100,6000.0,-3.7576994895935063,-1.6053122282028198,8.463502883911133
101,6100.0,-3.7576994895935063,-1.6053122282028198,8.463502883911133
102,6200.0,-3.766079187393189,-1.6735470294952393,8.485649108886719
103,6300.0,-3.766079187393189,-1.6735470294952393,8.485649108886719
104,6400.0,-3.6619315147399902,-1.5047557353973389,8.477270126342772
105,6500.0,-3.70742130279541,-1.3623007535934448,8.507197380065918
106,6600.0,-3.70742130279541,-1.3623007535934448,8.507197380065918
107,6700.0,-3.7624878883361816,-1.4047977924346924,8.533533096313478
108,6800.0,-3.7624878883361816,-1.4047977924346924,8.533533096313478
109,6900.0,-3.6050691604614262,-1.6861165761947632,8.492832183837889
110,7000.0,-3.6050691604614262,-1.6861165761947632,8.492832183837889
111,7100.0,-3.626616954803467,-1.4652514457702637,8.546701431274414
112,7200.0,-3.626616954803467,-1.4652514457702637,8.546701431274414
113,7300.0,-3.247136116027832,-0.67815762758255,7.733870029449463
114,7400.0,-3.733757495880127,-1.7836803197860718,8.668207168579103
115,7500.0,-3.733757495880127,-1.7836803197860718,8.668207168579103
116,7600.0,-3.691260576248169,-1.6885107755661009,8.503006935119629
117,7700.0,-3.691260576248169,-1.6885107755661009,8.503006935119629
118,7800.0,-3.6254198551177983,-1.590348482131958,8.526948928833008
119,7900.0,-3.6254198551177983,-1.590348482131958,8.526948928833008
120,6000.0,-3.7576994895935063,-1.6053122282028198,8.463502883911133
121,6100.0,-3.7576994895935063,-1.6053122282028198,8.463502883911133
122,6200.0,-3.766079187393189,-1.6735470294952393,8.485649108886719
123,6300.0,-3.766079187393189,-1.6735470294952393,8.485649108886719
124,6400.0,-3.6619315147399902,-1.5047557353973389,8.477270126342772
125,6500.0,-3.70742130279541,-1.3623007535934448,8.507197380065918
126,6600.0,-3.70742130279541,-1.3623007535934448,8.507197380065918
127,6700.0,-3.7624878883361816,-1.4047977924346924,8.533533096313478
128,6800.0,-3.7624878883361816,-1.4047977924346924,8.533533096313478
129,6900.0,-3.6050691604614262,-1.6861165761947632,8.492832183837889
130,7000.0,-3.6050691604614262,-1.6861165761947632,8.492832183837889
131,7100.0,-3.626616954803467,-1.4652514457702637,8.546701431274414
132,7200.0,-3.626616954803467,-1.4652514457702637,8.546701431274414
133,7300.0,-3.247136116027832,-0.67815762758255,7.733870029449463
134,7400.0,-3.733757495880127,-1.7836803197860718,8.668207168579103
135,7500.0,-3.733757495880127,-1.7836803197860718,8.668207168579103
136,7600.0,-3.691260576248169,-1.6885107755661009,8.503006935119629
137,7700.0,-3.691260576248169,-1.6885107755661009,8.503006935119629
138,7800.0,-3.6254198551177983,-1.590348482131958,8.526948928833008
139,7900.0,-3.6254198551177983,-1.590348482131958,8.526948928833008
140,8000.0,-3.653551816940308,-1.6430208683013916,8.528744697570799
141,8100.0,-3.653551816940308,-1.6430208683013916,8.528744697570799
142,8200.0,-3.711611270904541,-1.590348482131958,8.462306022644043
143,8300.0,-3.700837373733521,-1.726817965507507,8.424596786499022
144,8400.0,-3.700837373733521,-1.726817965507507,8.424596786499022
145,8500.0,-3.626018524169922,-1.5861586332321167,8.497620582580566
146,8600.0,-3.626018524169922,-1.5861586332321167,8.497620582580566
147,8700.0,-3.774458885192871,-1.811812162399292,8.490437507629395
148,8800.0,-3.774458885192871,-1.811812162399292,8.490437507629395
149,8900.0,-3.621230125427246,-1.7208324670791626,8.511386871337889
150,9000.0,-3.621230125427246,-1.7208324670791626,8.511386871337889
151,9100.0,-3.7690720558166495,-1.765723705291748,8.468890190124513
152,9200.0,-3.669114112854004,-1.7256208658218384,8.496423721313478
153,9300.0,-3.669114112854004,-1.7256208658218384,8.496423721313478
154,9400.0,-3.6978445053100586,-1.7298107147216797,8.481459617614746
155,9500.0,-3.6978445053100586,-1.7298107147216797,8.481459617614746
156,9600.0,-3.687669277191162,-1.6837223768234253,8.514978408813478
157,9700.0,-3.687669277191162,-1.6837223768234253,8.514978408813478
158,9800.0,-3.64577054977417,-1.7220295667648315,8.540117263793945
159,9900.0,-3.64577054977417,-1.7220295667648315,8.540117263793945
160,8000.0,-3.653551816940308,-1.6430208683013916,8.528744697570799
161,8100.0,-3.653551816940308,-1.6430208683013916,8.528744697570799
162,8200.0,-3.711611270904541,-1.590348482131958,8.462306022644043
163,8300.0,-3.700837373733521,-1.726817965507507,8.424596786499022
164,8400.0,-3.700837373733521,-1.726817965507507,8.424596786499022
165,8500.0,-3.626018524169922,-1.5861586332321167,8.497620582580566
166,8600.0,-3.626018524169922,-1.5861586332321167,8.497620582580566
167,8700.0,-3.774458885192871,-1.811812162399292,8.490437507629395
168,8800.0,-3.774458885192871,-1.811812162399292,8.490437507629395
169,8900.0,-3.621230125427246,-1.7208324670791626,8.511386871337889
170,9000.0,-3.621230125427246,-1.7208324670791626,8.511386871337889
171,9100.0,-3.7690720558166495,-1.765723705291748,8.468890190124513
172,9200.0,-3.669114112854004,-1.7256208658218384,8.496423721313478
173,9300.0,-3.669114112854004,-1.7256208658218384,8.496423721313478
174,9400.0,-3.6978445053100586,-1.7298107147216797,8.481459617614746
175,9500.0,-3.6978445053100586,-1.7298107147216797,8.481459617614746
176,9600.0,-3.687669277191162,-1.6837223768234253,8.514978408813478
177,9700.0,-3.687669277191162,-1.6837223768234253,8.514978408813478
178,9800.0,-3.64577054977417,-1.7220295667648315,8.540117263793945
179,9900.0,-3.64577054977417,-1.7220295667648315,8.540117263793945
180,10000.0,-3.633201122283936,-1.5400702953338623,8.439560890197754
181,10100.0,-3.443460702896118,-1.6424223184585571,8.37192440032959
182,10200.0,-3.443460702896118,-1.6424223184585571,8.37192440032959
183,10300.0,-3.813963413238525,-1.6430208683013916,8.467094421386719
184,10400.0,-3.813963413238525,-1.6430208683013916,8.467094421386719
185,10500.0,-3.5176808834075928,-1.5723919868469238,8.742427825927733
186,10600.0,-3.5176808834075928,-1.5723919868469238,8.742427825927733
187,10700.0,-3.522469282150269,-1.7423802614212036,8.722675323486326
188,10800.0,-3.522469282150269,-1.7423802614212036,8.722675323486326
189,10900.0,-3.7690720558166495,-1.6879122257232666,8.55148983001709
190,11000.0,-3.6355953216552734,-1.675342679023743,8.533533096313478
191,11100.0,-3.6355953216552734,-1.675342679023743,8.533533096313478
192,11200.0,-3.642777919769287,-1.6490063667297363,8.507795333862305
193,11300.0,-3.642777919769287,-1.6490063667297363,8.507795333862305
194,11400.0,-3.6403837203979488,-1.6717513799667358,8.516175270080566
195,11500.0,-3.6403837203979488,-1.6717513799667358,8.516175270080566
196,11600.0,-3.698443174362183,-1.6250643730163574,8.499416351318361
197,11700.0,-3.698443174362183,-1.6250643730163574,8.499416351318361
198,11800.0,-3.6086604595184326,-1.644816517829895,8.528146743774414
199,11900.0,-3.648763418197632,-1.625662922859192,8.527547836303711
200,10000.0,-3.633201122283936,-1.5400702953338623,8.439560890197754
201,10100.0,-3.443460702896118,-1.6424223184585571,8.37192440032959
202,10200.0,-3.443460702896118,-1.6424223184585571,8.37192440032959
203,10300.0,-3.813963413238525,-1.6430208683013916,8.467094421386719
204,10400.0,-3.813963413238525,-1.6430208683013916,8.467094421386719
205,10500.0,-3.5176808834075928,-1.5723919868469238,8.742427825927733
206,10600.0,-3.5176808834075928,-1.5723919868469238,8.742427825927733
207,10700.0,-3.522469282150269,-1.7423802614212036,8.722675323486326
208,10800.0,-3.522469282150269,-1.7423802614212036,8.722675323486326
209,10900.0,-3.7690720558166495,-1.6879122257232666,8.55148983001709
210,11000.0,-3.6355953216552734,-1.675342679023743,8.533533096313478
211,11100.0,-3.6355953216552734,-1.675342679023743,8.533533096313478
212,11200.0,-3.642777919769287,-1.6490063667297363,8.507795333862305
213,11300.0,-3.642777919769287,-1.6490063667297363,8.507795333862305
214,11400.0,-3.6403837203979488,-1.6717513799667358,8.516175270080566
215,11500.0,-3.6403837203979488,-1.6717513799667358,8.516175270080566
216,11600.0,-3.698443174362183,-1.6250643730163574,8.499416351318361
217,11700.0,-3.698443174362183,-1.6250643730163574,8.499416351318361
218,11800.0,-3.6086604595184326,-1.644816517829895,8.528146743774414
219,11900.0,-3.648763418197632,-1.625662922859192,8.527547836303711
220,12000.0,-3.648763418197632,-1.625662922859192,8.527547836303711
221,12100.0,-3.6553473472595215,-1.5711948871612549,8.507197380065918
222,12200.0,-3.6553473472595215,-1.5711948871612549,8.507197380065918
223,12300.0,-3.765480756759644,-1.5191209316253662,8.547898292541504
224,12400.0,-3.765480756759644,-1.5191209316253662,8.547898292541504
225,12500.0,-3.772663354873657,-1.7627309560775757,8.488641738891603
226,12600.0,-3.772663354873657,-1.7627309560775757,8.488641738891603
227,12700.0,-3.8827965259552,-1.821987509727478,8.516175270080566
228,12800.0,-3.5302503108978267,-1.5957354307174685,8.503006935119629
229,12900.0,-3.5302503108978267,-1.5957354307174685,8.503006935119629
230,13000.0,-3.7026329040527344,-1.4742296934127808,8.469488143920897
231,13100.0,-3.7026329040527344,-1.4742296934127808,8.469488143920897
232,13200.0,-3.7636849880218506,-1.5221136808395386,8.499416351318361
233,13300.0,-3.7636849880218506,-1.5221136808395386,8.499416351318361
234,13400.0,-3.8247373104095463,-1.4431051015853882,8.312667846679688
235,13500.0,-3.8247373104095463,-1.4431051015853882,8.312667846679688
236,13600.0,-3.53204607963562,-1.569997787475586,8.540117263793945
237,13700.0,-3.914519786834717,-1.6525976657867432,8.391676902770996
238,13800.0,-3.914519786834717,-1.6525976657867432,8.391676902770996
239,13900.0,-3.6296098232269287,-2.007538080215454,8.620922088623049
240,12000.0,-3.648763418197632,-1.625662922859192,8.527547836303711
241,12100.0,-3.6553473472595215,-1.5711948871612549,8.507197380065918
242,12200.0,-3.6553473472595215,-1.5711948871612549,8.507197380065918
243,12300.0,-3.765480756759644,-1.5191209316253662,8.547898292541504
244,12400.0,-3.765480756759644,-1.5191209316253662,8.547898292541504
245,12500.0,-3.772663354873657,-1.7627309560775757,8.488641738891603
246,12600.0,-3.772663354873657,-1.7627309560775757,8.488641738891603
247,12700.0,-3.8827965259552,-1.821987509727478,8.516175270080566
248,12800.0,-3.5302503108978267,-1.5957354307174685,8.503006935119629
249,12900.0,-3.5302503108978267,-1.5957354307174685,8.503006935119629
250,13000.0,-3.7026329040527344,-1.4742296934127808,8.469488143920897
251,13100.0,-3.7026329040527344,-1.4742296934127808,8.469488143920897
252,13200.0,-3.7636849880218506,-1.5221136808395386,8.499416351318361
253,13300.0,-3.7636849880218506,-1.5221136808395386,8.499416351318361
254,13400.0,-3.8247373104095463,-1.4431051015853882,8.312667846679688
255,13500.0,-3.8247373104095463,-1.4431051015853882,8.312667846679688
256,13600.0,-3.53204607963562,-1.569997787475586,8.540117263793945
257,13700.0,-3.914519786834717,-1.6525976657867432,8.391676902770996
258,13800.0,-3.914519786834717,-1.6525976657867432,8.391676902770996
259,13900.0,-3.6296098232269287,-2.007538080215454,8.620922088623049
260,14000.0,-3.6296098232269287,-2.007538080215454,8.620922088623049
261,14100.0,-3.3901896476745605,-1.502361536026001,8.162431716918945
262,14200.0,-3.3901896476745605,-1.502361536026001,8.162431716918945
263,14300.0,-3.5631706714630127,-1.6789339780807495,8.65863037109375
264,14400.0,-3.5631706714630127,-1.6789339780807495,8.65863037109375
265,14500.0,-3.5865142345428467,-1.6519991159439087,8.482656478881836
266,14600.0,-3.639785051345825,-1.6837223768234253,8.53293514251709
267,14700.0,-3.639785051345825,-1.6837223768234253,8.53293514251709
268,14800.0,-3.5972881317138667,-1.6418237686157229,8.476072311401367
269,14900.0,-3.5972881317138667,-1.6418237686157229,8.476072311401367
270,15000.0,-3.666121244430542,-1.6759412288665771,8.529343605041504
271,15100.0,-3.666121244430542,-1.6759412288665771,8.529343605041504
272,15200.0,-3.6068649291992183,-1.6879122257232666,8.510190010070799
273,15300.0,-3.6068649291992183,-1.6879122257232666,8.510190010070799
274,15400.0,-3.6164417266845694,-1.6370353698730469,8.525752067565918
275,15500.0,-3.584120035171509,-1.7220295667648315,8.506598472595215
276,15600.0,-3.584120035171509,-1.7220295667648315,8.506598472595215
277,15700.0,-3.6559460163116455,-1.7172411680221558,8.51557731628418
278,15800.0,-3.6559460163116455,-1.7172411680221558,8.51557731628418
279,15900.0,-3.6379895210266113,-1.6573861837387085,8.507197380065918
280,14000.0,-3.6296098232269287,-2.007538080215454,8.620922088623049
281,14100.0,-3.3901896476745605,-1.502361536026001,8.162431716918945
282,14200.0,-3.3901896476745605,-1.502361536026001,8.162431716918945
283,14300.0,-3.5631706714630127,-1.6789339780807495,8.65863037109375
284,14400.0,-3.5631706714630127,-1.6789339780807495,8.65863037109375
285,14500.0,-3.5865142345428467,-1.6519991159439087,8.482656478881836
286,14600.0,-3.639785051345825,-1.6837223768234253,8.53293514251709
287,14700.0,-3.639785051345825,-1.6837223768234253,8.53293514251709
288,14800.0,-3.5972881317138667,-1.6418237686157229,8.476072311401367
289,14900.0,-3.5972881317138667,-1.6418237686157229,8.476072311401367
290,15000.0,-3.666121244430542,-1.6759412288665771,8.529343605041504
291,15100.0,-3.666121244430542,-1.6759412288665771,8.529343605041504
292,15200.0,-3.6068649291992183,-1.6879122257232666,8.510190010070799
293,15300.0,-3.6068649291992183,-1.6879122257232666,8.510190010070799
294,15400.0,-3.6164417266845694,-1.6370353698730469,8.525752067565918
295,15500.0,-3.584120035171509,-1.7220295667648315,8.506598472595215
296,15600.0,-3.584120035171509,-1.7220295667648315,8.506598472595215
297,15700.0,-3.6559460163116455,-1.7172411680221558,8.51557731628418
298,15800.0,-3.6559460163116455,-1.7172411680221558,8.51557731628418
299,15900.0,-3.6379895210266113,-1.6573861837387085,8.507197380065918
300,16000.0,-3.6379895210266113,-1.6573861837387085,8.507197380065918
301,16100.0,-3.614047527313232,-1.6627731323242188,8.528146743774414
302,16200.0,-3.614047527313232,-1.6627731323242188,8.528146743774414
303,16300.0,-3.5924997329711914,-1.675342679023743,8.518569946289062
304,16400.0,-3.653551816940308,-1.6974890232086182,8.51258373260498
305,16500.0,-3.653551816940308,-1.6974890232086182,8.51258373260498
306,16600.0,-3.631405353546143,-1.7136498689651491,8.526948928833008
307,16700.0,-3.631405353546143,-1.7136498689651491,8.526948928833008
308,16800.0,-3.62302565574646,-1.6525976657867432,8.517372131347656
309,16900.0,-3.62302565574646,-1.6525976657867432,8.517372131347656
310,17000.0,-3.651756048202514,-1.6693571805953982,8.494627952575684
311,17100.0,-3.651756048202514,-1.6693571805953982,8.494627952575684
312,17200.0,-3.624821424484253,-1.6238672733306885,8.500613212585451
313,17300.0,-3.624821424484253,-1.6238672733306885,8.500613212585451
314,17400.0,-3.463212728500366,-1.6328455209732056,8.324040412902832
315,17500.0,-3.532644510269165,-1.5795745849609375,8.544905662536621
316,17600.0,-3.532644510269165,-1.5795745849609375,8.544905662536621
317,17700.0,-3.648763418197632,-1.6148890256881714,8.546701431274414
318,17800.0,-3.648763418197632,-1.6148890256881714,8.546701431274414
319,17900.0,-3.6373908519744873,-1.6879122257232666,8.496423721313478
320,16000.0,-3.6379895210266113,-1.6573861837387085,8.507197380065918
321,16100.0,-3.614047527313232,-1.6627731323242188,8.528146743774414
322,16200.0,-3.614047527313232,-1.6627731323242188,8.528146743774414
323,16300.0,-3.5924997329711914,-1.675342679023743,8.518569946289062
324,16400.0,-3.653551816940308,-1.6974890232086182,8.51258373260498
325,16500.0,-3.653551816940308,-1.6974890232086182,8.51258373260498
326,16600.0,-3.631405353546143,-1.7136498689651491,8.526948928833008
327,16700.0,-3.631405353546143,-1.7136498689651491,8.526948928833008
328,16800.0,-3.62302565574646,-1.6525976657867432,8.517372131347656
329,16900.0,-3.62302565574646,-1.6525976657867432,8.517372131347656
330,17000.0,-3.651756048202514,-1.6693571805953982,8.494627952575684
331,17100.0,-3.651756048202514,-1.6693571805953982,8.494627952575684
332,17200.0,-3.624821424484253,-1.6238672733306885,8.500613212585451
333,17300.0,-3.624821424484253,-1.6238672733306885,8.500613212585451
334,17400.0,-3.463212728500366,-1.6328455209732056,8.324040412902832
335,17500.0,-3.532644510269165,-1.5795745849609375,8.544905662536621
336,17600.0,-3.532644510269165,-1.5795745849609375,8.544905662536621
337,17700.0,-3.648763418197632,-1.6148890256881714,8.546701431274414
338,17800.0,-3.648763418197632,-1.6148890256881714,8.546701431274414
339,17900.0,-3.6373908519744873,-1.6879122257232666,8.496423721313478
340,18000.0,-3.6373908519744873,-1.6879122257232666,8.496423721313478
341,18100.0,-3.646369218826294,-1.6723499298095703,8.523358345031737
342,18200.0,-3.646369218826294,-1.6723499298095703,8.523358345031737
343,18300.0,-3.641580820083618,-1.6496049165725708,8.520963668823242
344,18400.0,-3.646967649459839,-1.6364368200302124,8.503006935119629
345,18500.0,-3.646967649459839,-1.6364368200302124,8.503006935119629
346,18600.0,-3.643975019454956,-1.5807716846466064,8.497021675109862
347,18700.0,-3.643975019454956,-1.5807716846466064,8.497021675109862
348,18800.0,-3.6409821510314937,-1.8064252138137815,8.479663848876951
349,18900.0,-3.6409821510314937,-1.8064252138137815,8.479663848876951
350,19000.0,-3.857657432556152,-1.6316484212875366,8.355165481567383
351,19100.0,-3.3877954483032227,-1.660977482795715,8.504802703857424
352,19200.0,-3.3877954483032227,-1.660977482795715,8.504802703857424
353,19300.0,-3.6954503059387207,-1.714846968650818,8.505401611328125
354,19400.0,-3.6954503059387207,-1.714846968650818,8.505401611328125
355,19500.0,-3.574543237686157,-1.6813281774520874,8.524555206298826
356,19600.0,-3.574543237686157,-1.6813281774520874,8.524555206298826
357,19700.0,-3.646967649459839,-1.6735470294952393,8.532336235046388
358,19800.0,-3.646967649459839,-1.6735470294952393,8.532336235046388
359,19900.0,-3.602674961090088,-1.6478092670440674,8.519167900085451
360,18000.0,-3.6373908519744873,-1.6879122257232666,8.496423721313478
361,18100.0,-3.646369218826294,-1.6723499298095703,8.523358345031737
362,18200.0,-3.646369218826294,-1.6723499298095703,8.523358345031737
363,18300.0,-3.641580820083618,-1.6496049165725708,8.520963668823242
364,18400.0,-3.646967649459839,-1.6364368200302124,8.503006935119629
365,18500.0,-3.646967649459839,-1.6364368200302124,8.503006935119629
366,18600.0,-3.643975019454956,-1.5807716846466064,8.497021675109862
367,18700.0,-3.643975019454956,-1.5807716846466064,8.497021675109862
368,18800.0,-3.6409821510314937,-1.8064252138137815,8.479663848876951
369,18900.0,-3.6409821510314937,-1.8064252138137815,8.479663848876951
370,19000.0,-3.857657432556152,-1.6316484212875366,8.355165481567383
371,19100.0,-3.3877954483032227,-1.660977482795715,8.504802703857424
372,19200.0,-3.3877954483032227,-1.660977482795715,8.504802703857424
373,19300.0,-3.6954503059387207,-1.714846968650818,8.505401611328125
374,19400.0,-3.6954503059387207,-1.714846968650818,8.505401611328125
375,19500.0,-3.574543237686157,-1.6813281774520874,8.524555206298826
376,19600.0,-3.574543237686157,-1.6813281774520874,8.524555206298826
377,19700.0,-3.646967649459839,-1.6735470294952393,8.532336235046388
378,19800.0,-3.646967649459839,-1.6735470294952393,8.532336235046388
379,19900.0,-3.602674961090088,-1.6478092670440674,8.519167900085451
380,20000.0,-3.602674961090088,-1.6478092670440674,8.519167900085451
381,20100.0,-3.6086604595184326,-1.6412252187728882,8.547300338745117
382,20200.0,-3.599682331085205,-1.7100585699081419,8.546701431274414
383,20300.0,-3.599682331085205,-1.7100585699081419,8.546701431274414
384,20400.0,-3.653551816940308,-1.660977482795715,8.547898292541504
385,20500.0,-3.653551816940308,-1.660977482795715,8.547898292541504
386,20600.0,-3.634398221969605,-1.6729484796524048,8.525154113769531
387,20700.0,-3.634398221969605,-1.6729484796524048,8.525154113769531
388,20800.0,-3.633201122283936,-1.7040730714797974,8.548497200012207
389,20900.0,-3.633201122283936,-1.7040730714797974,8.548497200012207
390,21000.0,-3.6068649291992183,-1.708262920379639,8.507795333862305
391,21100.0,-3.603273630142212,-1.6765397787094116,8.519167900085451
392,21200.0,-3.603273630142212,-1.6765397787094116,8.519167900085451
393,21300.0,-3.6302082538604736,-1.6160861253738403,8.528146743774414
394,21400.0,-3.6302082538604736,-1.6160861253738403,8.528146743774414
395,21500.0,-3.626616954803467,-1.7100585699081419,8.487444877624513
396,21600.0,-3.626616954803467,-1.7100585699081419,8.487444877624513
397,21700.0,-3.6254198551177983,-1.6418237686157229,8.547300338745117
398,21800.0,-3.6254198551177983,-1.6418237686157229,8.547300338745117
399,21900.0,-3.6254198551177983,-1.6508020162582395,8.503006935119629
400,20000.0,-3.602674961090088,-1.6478092670440674,8.519167900085451
401,20100.0,-3.6086604595184326,-1.6412252187728882,8.547300338745117
402,20200.0,-3.599682331085205,-1.7100585699081419,8.546701431274414
403,20300.0,-3.599682331085205,-1.7100585699081419,8.546701431274414
404,20400.0,-3.653551816940308,-1.660977482795715,8.547898292541504
405,20500.0,-3.653551816940308,-1.660977482795715,8.547898292541504
406,20600.0,-3.634398221969605,-1.6729484796524048,8.525154113769531
407,20700.0,-3.634398221969605,-1.6729484796524048,8.525154113769531
408,20800.0,-3.633201122283936,-1.7040730714797974,8.548497200012207
409,20900.0,-3.633201122283936,-1.7040730714797974,8.548497200012207
410,21000.0,-3.6068649291992183,-1.708262920379639,8.507795333862305
411,21100.0,-3.603273630142212,-1.6765397787094116,8.519167900085451
412,21200.0,-3.603273630142212,-1.6765397787094116,8.519167900085451
413,21300.0,-3.6302082538604736,-1.6160861253738403,8.528146743774414
414,21400.0,-3.6302082538604736,-1.6160861253738403,8.528146743774414
415,21500.0,-3.626616954803467,-1.7100585699081419,8.487444877624513
416,21600.0,-3.626616954803467,-1.7100585699081419,8.487444877624513
417,21700.0,-3.6254198551177983,-1.6418237686157229,8.547300338745117
418,21800.0,-3.6254198551177983,-1.6418237686157229,8.547300338745117
419,21900.0,-3.6254198551177983,-1.6508020162582395,8.503006935119629
420,22000.0,-3.136404275894165,-1.8237831592559812,8.699332237243652
421,22100.0,-3.136404275894165,-1.8237831592559812,8.699332237243652
422,22200.0,-3.621230125427246,-1.8004397153854368,8.488641738891603
423,22300.0,-3.621230125427246,-1.8004397153854368,8.488641738891603
424,22400.0,-3.599083662033081,-1.765723705291748,8.514379501342772
425,22500.0,-3.599083662033081,-1.765723705291748,8.514379501342772
426,22600.0,-3.60566782951355,-1.6711528301239014,8.555081367492676
427,22700.0,-3.60566782951355,-1.6711528301239014,8.555081367492676
428,22800.0,-3.6254198551177983,-1.6849194765090942,8.522160530090332
429,22900.0,-3.6296098232269287,-1.7549498081207275,8.53293514251709
430,23000.0,-3.6296098232269287,-1.7549498081207275,8.53293514251709
431,23100.0,-3.614047527313232,-1.7345991134643557,8.519766807556152
432,23200.0,-3.614047527313232,-1.7345991134643557,8.519766807556152
433,23300.0,-3.6086604595184326,-1.6525976657867432,8.571242332458496
434,23400.0,-3.6086604595184326,-1.6525976657867432,8.571242332458496
435,23500.0,-3.614047527313232,-1.5963339805603027,8.519766807556152
436,23600.0,-3.614047527313232,-1.5963339805603027,8.519766807556152
437,23700.0,-3.5685577392578125,-1.5849615335464478,8.543708801269531
438,23800.0,-3.5942952632904053,-1.6292542219161987,8.519766807556152
439,23900.0,-3.5942952632904053,-1.6292542219161987,8.519766807556152
440,22000.0,-3.136404275894165,-1.8237831592559812,8.699332237243652
441,22100.0,-3.136404275894165,-1.8237831592559812,8.699332237243652
442,22200.0,-3.621230125427246,-1.8004397153854368,8.488641738891603
443,22300.0,-3.621230125427246,-1.8004397153854368,8.488641738891603
444,22400.0,-3.599083662033081,-1.765723705291748,8.514379501342772
445,22500.0,-3.599083662033081,-1.765723705291748,8.514379501342772
446,22600.0,-3.60566782951355,-1.6711528301239014,8.555081367492676
447,22700.0,-3.60566782951355,-1.6711528301239014,8.555081367492676
448,22800.0,-3.6254198551177983,-1.6849194765090942,8.522160530090332
449,22900.0,-3.6296098232269287,-1.7549498081207275,8.53293514251709
450,23000.0,-3.6296098232269287,-1.7549498081207275,8.53293514251709
451,23100.0,-3.614047527313232,-1.7345991134643557,8.519766807556152
452,23200.0,-3.614047527313232,-1.7345991134643557,8.519766807556152
453,23300.0,-3.6086604595184326,-1.6525976657867432,8.571242332458496
454,23400.0,-3.6086604595184326,-1.6525976657867432,8.571242332458496
455,23500.0,-3.614047527313232,-1.5963339805603027,8.519766807556152
456,23600.0,-3.614047527313232,-1.5963339805603027,8.519766807556152
457,23700.0,-3.5685577392578125,-1.5849615335464478,8.543708801269531
458,23800.0,-3.5942952632904053,-1.6292542219161987,8.519766807556152
459,23900.0,-3.5942952632904053,-1.6292542219161987,8.519766807556152
460,24000.0,-3.602674961090088,-1.602918028831482,8.55029296875
461,24100.0,-3.602674961090088,-1.602918028831482,8.55029296875
462,24200.0,-3.5883097648620605,-1.646013617515564,8.520365715026855
463,24300.0,-3.5883097648620605,-1.646013617515564,8.520365715026855
464,24400.0,-3.5924997329711914,-1.6089035272598269,8.509591102600098
465,24500.0,-3.5924997329711914,-1.6089035272598269,8.509591102600098
466,24600.0,-3.6008794307708736,-1.6382324695587158,8.589199066162111
467,24700.0,-3.573944568634033,-1.6472107172012331,8.53413200378418
468,24800.0,-3.573944568634033,-1.6472107172012331,8.53413200378418
469,24900.0,-3.6379895210266113,-1.6394295692443848,8.522759437561035
470,25000.0,-3.6379895210266113,-1.6394295692443848,8.522759437561035
471,25100.0,-3.5709519386291504,-1.6615760326385498,8.572439193725586
472,25200.0,-3.5709519386291504,-1.6615760326385498,8.572439193725586
473,25300.0,-3.557185173034668,-1.6214730739593506,8.590395927429201
474,25400.0,-3.557185173034668,-1.6214730739593506,8.590395927429201
475,25500.0,-3.5907039642333984,-1.6053122282028198,8.539519309997559
476,25600.0,-3.5972881317138667,-1.646013617515564,8.540117263793945
477,25700.0,-3.5972881317138667,-1.646013617515564,8.540117263793945
478,25800.0,-3.5589809417724614,-1.61069917678833,8.555081367492676
479,25900.0,-3.5589809417724614,-1.61069917678833,8.555081367492676
480,24000.0,-3.602674961090088,-1.602918028831482,8.55029296875
481,24100.0,-3.602674961090088,-1.602918028831482,8.55029296875
482,24200.0,-3.5883097648620605,-1.646013617515564,8.520365715026855
483,24300.0,-3.5883097648620605,-1.646013617515564,8.520365715026855
484,24400.0,-3.5924997329711914,-1.6089035272598269,8.509591102600098
485,24500.0,-3.5924997329711914,-1.6089035272598269,8.509591102600098
486,24600.0,-3.6008794307708736,-1.6382324695587158,8.589199066162111
487,24700.0,-3.573944568634033,-1.6472107172012331,8.53413200378418
488,24800.0,-3.573944568634033,-1.6472107172012331,8.53413200378418
489,24900.0,-3.6379895210266113,-1.6394295692443848,8.522759437561035
490,25000.0,-3.6379895210266113,-1.6394295692443848,8.522759437561035
491,25100.0,-3.5709519386291504,-1.6615760326385498,8.572439193725586
492,25200.0,-3.5709519386291504,-1.6615760326385498,8.572439193725586
493,25300.0,-3.557185173034668,-1.6214730739593506,8.590395927429201
494,25400.0,-3.557185173034668,-1.6214730739593506,8.590395927429201
495,25500.0,-3.5907039642333984,-1.6053122282028198,8.539519309997559
496,25600.0,-3.5972881317138667,-1.646013617515564,8.540117263793945
497,25700.0,-3.5972881317138667,-1.646013617515564,8.540117263793945
498,25800.0,-3.5589809417724614,-1.61069917678833,8.555081367492676
499,25900.0,-3.5589809417724614,-1.61069917678833,8.555081367492676
500,26000.0,-3.5667619705200195,-1.5795745849609375,8.534730911254883
501,26100.0,-3.5667619705200195,-1.5795745849609375,8.534730911254883
502,26200.0,-3.5685577392578125,-1.602918028831482,8.547300338745117
503,26300.0,-3.5685577392578125,-1.602918028831482,8.547300338745117
504,26400.0,-3.5972881317138667,-1.614290475845337,8.56765079498291
505,26500.0,-3.621828556060791,-1.63344407081604,8.522160530090332
506,26600.0,-3.621828556060791,-1.63344407081604,8.522160530090332
507,26700.0,-3.6379895210266113,-1.6651673316955566,8.531737327575684
508,26800.0,-3.6379895210266113,-1.6651673316955566,8.531737327575684
509,26900.0,-3.580528736114502,-1.6633716821670532,8.530540466308594
510,27000.0,-3.580528736114502,-1.6633716821670532,8.530540466308594
511,27100.0,-3.6200330257415767,-1.6442179679870603,8.524555206298826
512,27200.0,-3.6200330257415767,-1.6442179679870603,8.524555206298826
513,27300.0,-3.603872060775757,-1.6729484796524048,8.539519309997559
514,27400.0,-3.646369218826294,-1.7142484188079834,8.531737327575684
515,27500.0,-3.646369218826294,-1.7142484188079834,8.531737327575684
516,27600.0,-3.575740337371826,-1.577778935432434,8.564059257507324
517,27700.0,-3.575740337371826,-1.577778935432434,8.564059257507324
518,27800.0,-3.5883097648620605,-1.648407816886902,8.561066627502441
519,27900.0,-3.5883097648620605,-1.648407816886902,8.561066627502441
520,26000.0,-3.5667619705200195,-1.5795745849609375,8.534730911254883
521,26100.0,-3.5667619705200195,-1.5795745849609375,8.534730911254883
522,26200.0,-3.5685577392578125,-1.602918028831482,8.547300338745117
523,26300.0,-3.5685577392578125,-1.602918028831482,8.547300338745117
524,26400.0,-3.5972881317138667,-1.614290475845337,8.56765079498291
525,26500.0,-3.621828556060791,-1.63344407081604,8.522160530090332
526,26600.0,-3.621828556060791,-1.63344407081604,8.522160530090332
527,26700.0,-3.6379895210266113,-1.6651673316955566,8.531737327575684
528,26800.0,-3.6379895210266113,-1.6651673316955566,8.531737327575684
529,26900.0,-3.580528736114502,-1.6633716821670532,8.530540466308594
530,27000.0,-3.580528736114502,-1.6633716821670532,8.530540466308594
531,27100.0,-3.6200330257415767,-1.6442179679870603,8.524555206298826
532,27200.0,-3.6200330257415767,-1.6442179679870603,8.524555206298826
533,27300.0,-3.603872060775757,-1.6729484796524048,8.539519309997559
534,27400.0,-3.646369218826294,-1.7142484188079834,8.531737327575684
535,27500.0,-3.646369218826294,-1.7142484188079834,8.531737327575684
536,27600.0,-3.575740337371826,-1.577778935432434,8.564059257507324
537,27700.0,-3.575740337371826,-1.577778935432434,8.564059257507324
538,27800.0,-3.5883097648620605,-1.648407816886902,8.561066627502441
539,27900.0,-3.5883097648620605,-1.648407816886902,8.561066627502441
540,28000.0,-3.606266260147095,-1.6166846752166748,8.523956298828125
541,28100.0,-3.606266260147095,-1.6166846752166748,8.523956298828125
542,28200.0,-3.557783842086792,-1.5526398420333862,8.555679321289062
543,28300.0,-3.558382272720337,-1.5873557329177856,8.552088737487793
544,28400.0,-3.558382272720337,-1.5873557329177856,8.552088737487793
545,28500.0,-3.615244626998901,-1.6268600225448608,8.550890922546388
546,28600.0,-3.615244626998901,-1.6268600225448608,8.550890922546388
547,28700.0,-3.580528736114502,-1.5909470319747925,8.557475090026855
548,28800.0,-3.580528736114502,-1.5909470319747925,8.557475090026855
549,28900.0,-3.5883097648620605,-1.6124948263168335,8.538920402526855
550,29000.0,-3.5883097648620605,-1.6124948263168335,8.538920402526855
551,29100.0,-3.556586742401123,-1.6298527717590332,8.540716171264647
552,29200.0,-3.6272156238555913,-1.6226701736450195,8.525752067565918
553,29300.0,-3.6272156238555913,-1.6226701736450195,8.525752067565918
554,29400.0,-3.608062028884888,-1.6801310777664185,8.548497200012207
555,29500.0,-3.608062028884888,-1.6801310777664185,8.548497200012207
556,29600.0,-3.603273630142212,-1.6394295692443848,8.536525726318361
557,29700.0,-3.603273630142212,-1.6394295692443848,8.536525726318361
558,29800.0,-3.60028076171875,-1.5909470319747925,8.538321495056152
559,29900.0,-3.60028076171875,-1.5909470319747925,8.538321495056152
560,28000.0,-3.606266260147095,-1.6166846752166748,8.523956298828125
561,28100.0,-3.606266260147095,-1.6166846752166748,8.523956298828125
562,28200.0,-3.557783842086792,-1.5526398420333862,8.555679321289062
563,28300.0,-3.558382272720337,-1.5873557329177856,8.552088737487793
564,28400.0,-3.558382272720337,-1.5873557329177856,8.552088737487793
565,28500.0,-3.615244626998901,-1.6268600225448608,8.550890922546388
566,28600.0,-3.615244626998901,-1.6268600225448608,8.550890922546388
567,28700.0,-3.580528736114502,-1.5909470319747925,8.557475090026855
568,28800.0,-3.580528736114502,-1.5909470319747925,8.557475090026855
569,28900.0,-3.5883097648620605,-1.6124948263168335,8.538920402526855
570,29000.0,-3.5883097648620605,-1.6124948263168335,8.538920402526855
571,29100.0,-3.556586742401123,-1.6298527717590332,8.540716171264647
572,29200.0,-3.6272156238555913,-1.6226701736450195,8.525752067565918
573,29300.0,-3.6272156238555913,-1.6226701736450195,8.525752067565918
574,29400.0,-3.608062028884888,-1.6801310777664185,8.548497200012207
575,29500.0,-3.608062028884888,-1.6801310777664185,8.548497200012207
576,29600.0,-3.603273630142212,-1.6394295692443848,8.536525726318361
577,29700.0,-3.603273630142212,-1.6394295692443848,8.536525726318361
578,29800.0,-3.60028076171875,-1.5909470319747925,8.538321495056152
579,29900.0,-3.60028076171875,-1.5909470319747925,8.538321495056152
580,30000.0,-3.6104562282562256,-1.6053122282028198,8.542511940002441
581,30100.0,-3.532644510269165,-1.5855600833892822,8.552088737487793
582,30200.0,-3.532644510269165,-1.5855600833892822,8.552088737487793
583,30300.0,-3.642777919769287,-1.6160861253738403,8.557475090026855
584,30400.0,-3.642777919769287,-1.6160861253738403,8.557475090026855
585,30500.0,-3.5595793724060063,-1.5987281799316406,8.56884765625
586,30600.0,-3.5595793724060063,-1.5987281799316406,8.56884765625
587,30700.0,-3.587711334228516,-1.6579847335815432,8.540117263793945
588,30800.0,-3.587711334228516,-1.6579847335815432,8.540117263793945
589,30900.0,-3.553593873977661,-1.568800687789917,8.547898292541504
590,31000.0,-3.602674961090088,-1.6148890256881714,8.527547836303711
591,31100.0,-3.602674961090088,-1.6148890256881714,8.527547836303711
592,31200.0,-3.5404257774353027,-1.5975310802459717,8.533533096313478
593,31300.0,-3.5404257774353027,-1.5975310802459717,8.533533096313478
594,31400.0,-3.5488054752349854,-1.5867571830749512,8.576628684997559
595,31500.0,-3.5488054752349854,-1.5867571830749512,8.576628684997559
596,31600.0,-3.579331636428833,-1.5568296909332275,8.524555206298826
597,31700.0,-3.579331636428833,-1.5568296909332275,8.524555206298826
598,31800.0,-3.535038709640503,-1.5610195398330688,8.538920402526855
599,31900.0,-3.598485231399536,-1.6352397203445437,8.563461303710938
600,30000.0,-3.6104562282562256,-1.6053122282028198,8.542511940002441
601,30100.0,-3.532644510269165,-1.5855600833892822,8.552088737487793
602,30200.0,-3.532644510269165,-1.5855600833892822,8.552088737487793
603,30300.0,-3.642777919769287,-1.6160861253738403,8.557475090026855
604,30400.0,-3.642777919769287,-1.6160861253738403,8.557475090026855
605,30500.0,-3.5595793724060063,-1.5987281799316406,8.56884765625
606,30600.0,-3.5595793724060063,-1.5987281799316406,8.56884765625
607,30700.0,-3.587711334228516,-1.6579847335815432,8.540117263793945
608,30800.0,-3.587711334228516,-1.6579847335815432,8.540117263793945
609,30900.0,-3.553593873977661,-1.568800687789917,8.547898292541504
610,31000.0,-3.602674961090088,-1.6148890256881714,8.527547836303711
611,31100.0,-3.602674961090088,-1.6148890256881714,8.527547836303711
612,31200.0,-3.5404257774353027,-1.5975310802459717,8.533533096313478
613,31300.0,-3.5404257774353027,-1.5975310802459717,8.533533096313478
614,31400.0,-3.5488054752349854,-1.5867571830749512,8.576628684997559
615,31500.0,-3.5488054752349854,-1.5867571830749512,8.576628684997559
616,31600.0,-3.579331636428833,-1.5568296909332275,8.524555206298826
617,31700.0,-3.579331636428833,-1.5568296909332275,8.524555206298826
618,31800.0,-3.535038709640503,-1.5610195398330688,8.538920402526855
619,31900.0,-3.598485231399536,-1.6352397203445437,8.563461303710938
620,32000.0,-3.598485231399536,-1.6352397203445437,8.563461303710938
621,32100.0,-3.5649664402008057,-1.581370234489441,8.561665534973145
622,32200.0,-3.5649664402008057,-1.581370234489441,8.561665534973145
623,32300.0,-3.6320040225982666,-1.5999252796173096,8.579621315002441
624,32400.0,-3.6320040225982666,-1.5999252796173096,8.579621315002441
625,32500.0,-3.6170401573181152,-1.6645687818527222,8.547898292541504
626,32600.0,-3.6170401573181152,-1.6645687818527222,8.547898292541504
627,32700.0,-3.5817258358001713,-1.5693992376327517,8.53293514251709
628,32800.0,-3.5733461380004883,-1.5819687843322754,8.542511940002441
629,32900.0,-3.5733461380004883,-1.5819687843322754,8.542511940002441
630,33000.0,-3.579930067062378,-1.590348482131958,8.541314125061035
631,33100.0,-3.579930067062378,-1.590348482131958,8.541314125061035
632,33200.0,-3.579331636428833,-1.6585832834243774,8.555679321289062
633,33300.0,-3.579331636428833,-1.6585832834243774,8.555679321289062
634,33400.0,-3.5781345367431636,-1.6508020162582395,8.519167900085451
635,33500.0,-3.5781345367431636,-1.6508020162582395,8.519167900085451
636,33600.0,-3.58292293548584,-1.6304513216018677,8.541314125061035
637,33700.0,-3.6571431159973145,-1.6172832250595093,8.548497200012207
638,33800.0,-3.6571431159973145,-1.6172832250595093,8.548497200012207
639,33900.0,-3.4823663234710693,-1.6101006269454956,8.450334548950195
640,32000.0,-3.598485231399536,-1.6352397203445437,8.563461303710938
641,32100.0,-3.5649664402008057,-1.581370234489441,8.561665534973145
642,32200.0,-3.5649664402008057,-1.581370234489441,8.561665534973145
643,32300.0,-3.6320040225982666,-1.5999252796173096,8.579621315002441
644,32400.0,-3.6320040225982666,-1.5999252796173096,8.579621315002441
645,32500.0,-3.6170401573181152,-1.6645687818527222,8.547898292541504
646,32600.0,-3.6170401573181152,-1.6645687818527222,8.547898292541504
647,32700.0,-3.5817258358001713,-1.5693992376327517,8.53293514251709
648,32800.0,-3.5733461380004883,-1.5819687843322754,8.542511940002441
649,32900.0,-3.5733461380004883,-1.5819687843322754,8.542511940002441
650,33000.0,-3.579930067062378,-1.590348482131958,8.541314125061035
651,33100.0,-3.579930067062378,-1.590348482131958,8.541314125061035
652,33200.0,-3.579331636428833,-1.6585832834243774,8.555679321289062
653,33300.0,-3.579331636428833,-1.6585832834243774,8.555679321289062
654,33400.0,-3.5781345367431636,-1.6508020162582395,8.519167900085451
655,33500.0,-3.5781345367431636,-1.6508020162582395,8.519167900085451
656,33600.0,-3.58292293548584,-1.6304513216018677,8.541314125061035
657,33700.0,-3.6571431159973145,-1.6172832250595093,8.548497200012207
658,33800.0,-3.6571431159973145,-1.6172832250595093,8.548497200012207
659,33900.0,-3.4823663234710693,-1.6101006269454956,8.450334548950195
660,34000.0,-3.4823663234710693,-1.6101006269454956,8.450334548950195
661,34100.0,-3.5913026332855225,-1.6406266689300537,8.578424453735353
662,34200.0,-3.5913026332855225,-1.6406266689300537,8.578424453735353
663,34300.0,-3.6308069229125977,-1.6352397203445437,8.500613212585451
664,34400.0,-3.6308069229125977,-1.6352397203445437,8.500613212585451
665,34500.0,-3.516483783721924,-1.5233107805252075,8.510788917541504
666,34600.0,-3.5727474689483643,-1.7280150651931765,8.544905662536621
667,34700.0,-3.5727474689483643,-1.7280150651931765,8.544905662536621
668,34800.0,-3.556586742401123,-1.6633716821670532,8.579023361206055
669,34900.0,-3.556586742401123,-1.6633716821670532,8.579023361206055
670,35000.0,-3.5296518802642822,-1.6304513216018677,8.545504570007324
671,35100.0,-3.5296518802642822,-1.6304513216018677,8.545504570007324
672,35200.0,-3.5835213661193848,-1.7196353673934937,8.522759437561035
673,35300.0,-3.5835213661193848,-1.7196353673934937,8.522759437561035
674,35400.0,-3.573944568634033,-1.6771383285522459,8.608352661132812
675,35500.0,-3.5272576808929443,-1.5987281799316406,8.525752067565918
676,35600.0,-3.5272576808929443,-1.5987281799316406,8.525752067565918
677,35700.0,-3.576338768005371,-1.6328455209732056,8.577227592468263
678,35800.0,-3.576338768005371,-1.6328455209732056,8.577227592468263
679,35900.0,-3.3859996795654297,-1.687313675880432,8.504204750061035
680,34000.0,-3.4823663234710693,-1.6101006269454956,8.450334548950195
681,34100.0,-3.5913026332855225,-1.6406266689300537,8.578424453735353
682,34200.0,-3.5913026332855225,-1.6406266689300537,8.578424453735353
683,34300.0,-3.6308069229125977,-1.6352397203445437,8.500613212585451
684,34400.0,-3.6308069229125977,-1.6352397203445437,8.500613212585451
685,34500.0,-3.516483783721924,-1.5233107805252075,8.510788917541504
686,34600.0,-3.5727474689483643,-1.7280150651931765,8.544905662536621
687,34700.0,-3.5727474689483643,-1.7280150651931765,8.544905662536621
688,34800.0,-3.556586742401123,-1.6633716821670532,8.579023361206055
689,34900.0,-3.556586742401123,-1.6633716821670532,8.579023361206055
690,35000.0,-3.5296518802642822,-1.6304513216018677,8.545504570007324
691,35100.0,-3.5296518802642822,-1.6304513216018677,8.545504570007324
692,35200.0,-3.5835213661193848,-1.7196353673934937,8.522759437561035
693,35300.0,-3.5835213661193848,-1.7196353673934937,8.522759437561035
694,35400.0,-3.573944568634033,-1.6771383285522459,8.608352661132812
695,35500.0,-3.5272576808929443,-1.5987281799316406,8.525752067565918
696,35600.0,-3.5272576808929443,-1.5987281799316406,8.525752067565918
697,35700.0,-3.576338768005371,-1.6328455209732056,8.577227592468263
698,35800.0,-3.576338768005371,-1.6328455209732056,8.577227592468263
699,35900.0,-3.3859996795654297,-1.687313675880432,8.504204750061035
700,36000.0,-3.3859996795654297,-1.687313675880432,8.504204750061035
701,36100.0,-3.614645957946777,-1.7591396570205688,8.473079681396483
702,36200.0,-3.614645957946777,-1.7591396570205688,8.473079681396483
703,36300.0,-3.5835213661193848,-1.6675615310668943,8.514978408813478
704,36400.0,-3.621828556060791,-1.7178397178649902,8.503006935119629
705,36500.0,-3.621828556060791,-1.7178397178649902,8.503006935119629
706,36600.0,-3.57753586769104,-1.7585411071777344,8.543109893798826
707,36700.0,-3.57753586769104,-1.7585411071777344,8.543109893798826
708,36800.0,-3.759495258331299,-1.6807296276092532,8.462904930114746
709,36900.0,-3.759495258331299,-1.6807296276092532,8.462904930114746
710,37000.0,-3.8211460113525386,-1.7806875705718994,8.454524993896483
711,37100.0,-3.8211460113525386,-1.7806875705718994,8.454524993896483
712,37200.0,-3.530848979949951,-1.7250223159790041,8.529942512512207
713,37300.0,-3.530848979949951,-1.7250223159790041,8.529942512512207
714,37400.0,-3.823540210723877,-1.4790180921554563,8.443750381469728
715,37500.0,-3.6745009422302246,-1.6974890232086182,8.485649108886719
716,37600.0,-3.6745009422302246,-1.6974890232086182,8.485649108886719
717,37700.0,-2.895188331604004,-1.6615760326385498,9.012971878051758
718,37800.0,-2.895188331604004,-1.6615760326385498,9.012971878051758
719,37900.0,-3.5110967159271236,-1.8722656965255735,8.55029296875
720,36000.0,-3.3859996795654297,-1.687313675880432,8.504204750061035
721,36100.0,-3.614645957946777,-1.7591396570205688,8.473079681396483
722,36200.0,-3.614645957946777,-1.7591396570205688,8.473079681396483
723,36300.0,-3.5835213661193848,-1.6675615310668943,8.514978408813478
724,36400.0,-3.621828556060791,-1.7178397178649902,8.503006935119629
725,36500.0,-3.621828556060791,-1.7178397178649902,8.503006935119629
726,36600.0,-3.57753586769104,-1.7585411071777344,8.543109893798826
727,36700.0,-3.57753586769104,-1.7585411071777344,8.543109893798826
728,36800.0,-3.759495258331299,-1.6807296276092532,8.462904930114746
729,36900.0,-3.759495258331299,-1.6807296276092532,8.462904930114746
730,37000.0,-3.8211460113525386,-1.7806875705718994,8.454524993896483
731,37100.0,-3.8211460113525386,-1.7806875705718994,8.454524993896483
732,37200.0,-3.530848979949951,-1.7250223159790041,8.529942512512207
733,37300.0,-3.530848979949951,-1.7250223159790041,8.529942512512207
734,37400.0,-3.823540210723877,-1.4790180921554563,8.443750381469728
735,37500.0,-3.6745009422302246,-1.6974890232086182,8.485649108886719
736,37600.0,-3.6745009422302246,-1.6974890232086182,8.485649108886719
737,37700.0,-2.895188331604004,-1.6615760326385498,9.012971878051758
738,37800.0,-2.895188331604004,-1.6615760326385498,9.012971878051758
739,37900.0,-3.5110967159271236,-1.8722656965255735,8.55029296875
740,38000.0,-3.5110967159271236,-1.8722656965255735,8.55029296875
741,38100.0,-3.645172119140625,-1.799242615699768,8.596381187438965
742,38200.0,-3.645172119140625,-1.799242615699768,8.596381187438965
743,38300.0,-3.6499605178833012,-1.655590534210205,8.492233276367188
744,38400.0,-3.6499605178833012,-1.655590534210205,8.492233276367188
745,38500.0,-3.6290111541748047,-1.6831238269805908,8.514379501342772
746,38600.0,-3.667917013168335,-1.6549919843673706,8.47906494140625
747,38700.0,-3.667917013168335,-1.6549919843673706,8.47906494140625
748,38800.0,-3.660135746002197,-1.6825252771377563,8.514379501342772
749,38900.0,-3.660135746002197,-1.6825252771377563,8.514379501342772
750,39000.0,-3.664924144744873,-1.5921441316604614,8.508394241333008
751,39100.0,-3.664924144744873,-1.5921441316604614,8.508394241333008
752,39200.0,-3.642777919769287,-1.7507599592208862,8.520963668823242
753,39300.0,-3.6086604595184326,-1.5987281799316406,8.51557731628418
754,39400.0,-3.6086604595184326,-1.5987281799316406,8.51557731628418
755,39500.0,-3.6637270450592037,-1.7675193548202517,8.514978408813478
756,39600.0,-3.6637270450592037,-1.7675193548202517,8.514978408813478
757,39700.0,-3.5960910320281982,-1.6496049165725708,8.535927772521973
758,39800.0,-3.5960910320281982,-1.6496049165725708,8.535927772521973
759,39900.0,-3.541622877120972,-1.6549919843673706,8.437765121459961
760,38000.0,-3.5110967159271236,-1.8722656965255735,8.55029296875
761,38100.0,-3.645172119140625,-1.799242615699768,8.596381187438965
762,38200.0,-3.645172119140625,-1.799242615699768,8.596381187438965
763,38300.0,-3.6499605178833012,-1.655590534210205,8.492233276367188
764,38400.0,-3.6499605178833012,-1.655590534210205,8.492233276367188
765,38500.0,-3.6290111541748047,-1.6831238269805908,8.514379501342772
766,38600.0,-3.667917013168335,-1.6549919843673706,8.47906494140625
767,38700.0,-3.667917013168335,-1.6549919843673706,8.47906494140625
768,38800.0,-3.660135746002197,-1.6825252771377563,8.514379501342772
769,38900.0,-3.660135746002197,-1.6825252771377563,8.514379501342772
770,39000.0,-3.664924144744873,-1.5921441316604614,8.508394241333008
771,39100.0,-3.664924144744873,-1.5921441316604614,8.508394241333008
772,39200.0,-3.642777919769287,-1.7507599592208862,8.520963668823242
773,39300.0,-3.6086604595184326,-1.5987281799316406,8.51557731628418
774,39400.0,-3.6086604595184326,-1.5987281799316406,8.51557731628418
775,39500.0,-3.6637270450592037,-1.7675193548202517,8.514978408813478
776,39600.0,-3.6637270450592037,-1.7675193548202517,8.514978408813478
777,39700.0,-3.5960910320281982,-1.6496049165725708,8.535927772521973
778,39800.0,-3.5960910320281982,-1.6496049165725708,8.535927772521973
779,39900.0,-3.541622877120972,-1.6549919843673706,8.437765121459961
780,40000.0,-3.231573820114136,-1.4628572463989258,8.12053394317627
781,40100.0,-3.231573820114136,-1.4628572463989258,8.12053394317627
782,40200.0,-3.5386300086975098,-1.14742112159729,8.375515937805176
783,40300.0,-3.5386300086975098,-1.14742112159729,8.375515937805176
784,40400.0,-3.91092848777771,-1.5705963373184204,8.27735424041748
785,40500.0,-3.91092848777771,-1.5705963373184204,8.27735424041748
786,40600.0,-3.587112665176392,-1.7986440658569336,8.471882820129395
787,40700.0,-3.587112665176392,-1.7986440658569336,8.471882820129395
788,40800.0,-3.727173566818237,-1.7058687210083008,8.442553520202638
789,40900.0,-3.727173566818237,-1.7058687210083008,8.442553520202638
790,41000.0,-3.7187938690185542,-1.7334020137786863,8.46051025390625
791,41100.0,-3.6361937522888175,-1.7070658206939695,8.497021675109862
792,41200.0,-3.6361937522888175,-1.7070658206939695,8.497021675109862
793,41300.0,-3.64577054977417,-1.7298107147216797,8.469488143920897
794,41400.0,-3.64577054977417,-1.7298107147216797,8.469488143920897
795,41500.0,-3.691260576248169,-1.7172411680221558,8.463502883911133
796,41600.0,-3.691260576248169,-1.7172411680221558,8.463502883911133
797,41700.0,-3.647566318511963,-1.7693150043487549,8.480860710144043
798,41800.0,-3.647566318511963,-1.7693150043487549,8.480860710144043
799,41900.0,-3.5817258358001713,-1.821388959884644,8.502408981323242
800,40000.0,-3.231573820114136,-1.4628572463989258,8.12053394317627
801,40100.0,-3.231573820114136,-1.4628572463989258,8.12053394317627
802,40200.0,-3.5386300086975098,-1.14742112159729,8.375515937805176
803,40300.0,-3.5386300086975098,-1.14742112159729,8.375515937805176
804,40400.0,-3.91092848777771,-1.5705963373184204,8.27735424041748
805,40500.0,-3.91092848777771,-1.5705963373184204,8.27735424041748
806,40600.0,-3.587112665176392,-1.7986440658569336,8.471882820129395
807,40700.0,-3.587112665176392,-1.7986440658569336,8.471882820129395
808,40800.0,-3.727173566818237,-1.7058687210083008,8.442553520202638
809,40900.0,-3.727173566818237,-1.7058687210083008,8.442553520202638
810,41000.0,-3.7187938690185542,-1.7334020137786863,8.46051025390625
811,41100.0,-3.6361937522888175,-1.7070658206939695,8.497021675109862
812,41200.0,-3.6361937522888175,-1.7070658206939695,8.497021675109862
813,41300.0,-3.64577054977417,-1.7298107147216797,8.469488143920897
814,41400.0,-3.64577054977417,-1.7298107147216797,8.469488143920897
815,41500.0,-3.691260576248169,-1.7172411680221558,8.463502883911133
816,41600.0,-3.691260576248169,-1.7172411680221558,8.463502883911133
817,41700.0,-3.647566318511963,-1.7693150043487549,8.480860710144043
818,41800.0,-3.647566318511963,-1.7693150043487549,8.480860710144043
819,41900.0,-3.5817258358001713,-1.821388959884644,8.502408981323242
820,42000.0,-3.62841272354126,-1.7220295667648315,8.477270126342772
821,42100.0,-3.62841272354126,-1.7220295667648315,8.477270126342772
822,42200.0,-3.658938646316528,-1.7998411655426023,8.485649108886719
823,42300.0,-3.658938646316528,-1.7998411655426023,8.485649108886719
824,42400.0,-3.631405353546143,-1.8112136125564573,8.483255386352539
825,42500.0,-3.631405353546143,-1.8112136125564573,8.483255386352539
826,42600.0,-3.694253206253052,-1.7693150043487549,8.468890190124513
827,42700.0,-3.694253206253052,-1.7693150043487549,8.468890190124513
828,42800.0,-3.642179250717163,-1.7447744607925415,8.47547435760498
829,42900.0,-3.6703112125396733,-1.7381904125213623,8.491036415100098
830,43000.0,-3.6703112125396733,-1.7381904125213623,8.491036415100098
831,43100.0,-3.669712543487549,-1.7884687185287476,8.496423721313478
832,43200.0,-3.669712543487549,-1.7884687185287476,8.496423721313478
833,43300.0,-3.646369218826294,-1.768117904663086,8.499416351318361
834,43400.0,-3.646369218826294,-1.768117904663086,8.499416351318361
835,43500.0,-3.626616954803467,-1.7639280557632446,8.508993148803711
836,43600.0,-3.626616954803467,-1.7639280557632446,8.508993148803711
837,43700.0,-3.57753586769104,-1.787870168685913,8.519167900085451
838,43800.0,-3.797203779220581,-1.834557056427002,8.420407295227049
839,43900.0,-3.797203779220581,-1.834557056427002,8.420407295227049
840,42000.0,-3.62841272354126,-1.7220295667648315,8.477270126342772
841,42100.0,-3.62841272354126,-1.7220295667648315,8.477270126342772
842,42200.0,-3.658938646316528,-1.7998411655426023,8.485649108886719
843,42300.0,-3.658938646316528,-1.7998411655426023,8.485649108886719
844,42400.0,-3.631405353546143,-1.8112136125564573,8.483255386352539
845,42500.0,-3.631405353546143,-1.8112136125564573,8.483255386352539
846,42600.0,-3.694253206253052,-1.7693150043487549,8.468890190124513
847,42700.0,-3.694253206253052,-1.7693150043487549,8.468890190124513
848,42800.0,-3.642179250717163,-1.7447744607925415,8.47547435760498
849,42900.0,-3.6703112125396733,-1.7381904125213623,8.491036415100098
850,43000.0,-3.6703112125396733,-1.7381904125213623,8.491036415100098
851,43100.0,-3.669712543487549,-1.7884687185287476,8.496423721313478
852,43200.0,-3.669712543487549,-1.7884687185287476,8.496423721313478
853,43300.0,-3.646369218826294,-1.768117904663086,8.499416351318361
854,43400.0,-3.646369218826294,-1.768117904663086,8.499416351318361
855,43500.0,-3.626616954803467,-1.7639280557632446,8.508993148803711
856,43600.0,-3.626616954803467,-1.7639280557632446,8.508993148803711
857,43700.0,-3.57753586769104,-1.787870168685913,8.519167900085451
858,43800.0,-3.797203779220581,-1.834557056427002,8.420407295227049
859,43900.0,-3.797203779220581,-1.834557056427002,8.420407295227049
860,44000.0,-3.4362781047821045,-1.862090349197388,8.562862396240233
861,44100.0,-3.4362781047821045,-1.862090349197388,8.562862396240233
862,44200.0,-3.7223851680755615,-1.7232266664505005,8.51677417755127
863,44300.0,-3.7223851680755615,-1.7232266664505005,8.51677417755127
864,44400.0,-3.784035682678223,-1.648407816886902,8.65623664855957
865,44500.0,-3.784035682678223,-1.648407816886902,8.65623664855957
866,44600.0,-3.736750364303589,-1.7130513191223145,8.553285598754883
867,44700.0,-3.7535097599029537,-1.7501614093780518,8.451532363891603
868,44800.0,-3.7535097599029537,-1.7501614093780518,8.451532363891603
869,44900.0,-3.786429882049561,-1.7920600175857544,8.484452247619629
870,45000.0,-3.786429882049561,-1.7920600175857544,8.484452247619629
871,45100.0,-3.7349545955657963,-1.6561890840530396,8.439560890197754
872,45200.0,-3.7349545955657963,-1.6561890840530396,8.439560890197754
873,45300.0,-3.7618894577026367,-1.6855180263519287,8.465298652648926
874,45400.0,-3.7618894577026367,-1.6855180263519287,8.465298652648926
875,45500.0,-3.728969097137451,-1.6633716821670532,8.480860710144043
876,45600.0,-3.832518339157105,-1.6651673316955566,8.478466987609862
877,45700.0,-3.832518339157105,-1.6651673316955566,8.478466987609862
878,45800.0,-3.766677856445313,-1.6172832250595093,8.456320762634277
879,45900.0,-3.766677856445313,-1.6172832250595093,8.456320762634277
880,44000.0,-3.4362781047821045,-1.862090349197388,8.562862396240233
881,44100.0,-3.4362781047821045,-1.862090349197388,8.562862396240233
882,44200.0,-3.7223851680755615,-1.7232266664505005,8.51677417755127
883,44300.0,-3.7223851680755615,-1.7232266664505005,8.51677417755127
884,44400.0,-3.784035682678223,-1.648407816886902,8.65623664855957
885,44500.0,-3.784035682678223,-1.648407816886902,8.65623664855957
886,44600.0,-3.736750364303589,-1.7130513191223145,8.553285598754883
887,44700.0,-3.7535097599029537,-1.7501614093780518,8.451532363891603
888,44800.0,-3.7535097599029537,-1.7501614093780518,8.451532363891603
889,44900.0,-3.786429882049561,-1.7920600175857544,8.484452247619629
890,45000.0,-3.786429882049561,-1.7920600175857544,8.484452247619629
891,45100.0,-3.7349545955657963,-1.6561890840530396,8.439560890197754
892,45200.0,-3.7349545955657963,-1.6561890840530396,8.439560890197754
893,45300.0,-3.7618894577026367,-1.6855180263519287,8.465298652648926
894,45400.0,-3.7618894577026367,-1.6855180263519287,8.465298652648926
895,45500.0,-3.728969097137451,-1.6633716821670532,8.480860710144043
896,45600.0,-3.832518339157105,-1.6651673316955566,8.478466987609862
897,45700.0,-3.832518339157105,-1.6651673316955566,8.478466987609862
898,45800.0,-3.766677856445313,-1.6172832250595093,8.456320762634277
899,45900.0,-3.766677856445313,-1.6172832250595093,8.456320762634277
900,46000.0,-3.806182146072388,-1.5508441925048828,8.471882820129395
901,46100.0,-3.806182146072388,-1.5508441925048828,8.471882820129395
902,46200.0,-3.8091750144958496,-1.6268600225448608,8.46051025390625
903,46300.0,-3.8091750144958496,-1.6268600225448608,8.46051025390625
904,46400.0,-3.796006679534912,-1.577778935432434,8.420407295227049
905,46500.0,-3.7876269817352295,-1.592742681503296,8.458714485168457
906,46600.0,-3.7876269817352295,-1.592742681503296,8.458714485168457
907,46700.0,-3.639785051345825,-1.6328455209732056,8.505401611328125
908,46800.0,-3.639785051345825,-1.6328455209732056,8.505401611328125
909,46900.0,-3.832518339157105,-1.6202759742736816,8.44434928894043
910,47000.0,-3.832518339157105,-1.6202759742736816,8.44434928894043
911,47100.0,-3.848679304122925,-1.6579847335815432,8.481459617614746
912,47200.0,-3.848679304122925,-1.6579847335815432,8.481459617614746
913,47300.0,-3.7624878883361816,-1.6741455793380735,8.446743965148926
914,47400.0,-3.693654775619507,-1.787870168685913,8.491635322570799
915,47500.0,-3.693654775619507,-1.787870168685913,8.491635322570799
916,47600.0,-3.7936124801635738,-1.660977482795715,8.453327178955076
917,47700.0,-3.7936124801635738,-1.660977482795715,8.453327178955076
918,47800.0,-3.7894227504730233,-1.7435773611068726,8.468291282653809
919,47900.0,-3.7894227504730233,-1.7435773611068726,8.468291282653809
920,46000.0,-3.806182146072388,-1.5508441925048828,8.471882820129395
921,46100.0,-3.806182146072388,-1.5508441925048828,8.471882820129395
922,46200.0,-3.8091750144958496,-1.6268600225448608,8.46051025390625
923,46300.0,-3.8091750144958496,-1.6268600225448608,8.46051025390625
924,46400.0,-3.796006679534912,-1.577778935432434,8.420407295227049
925,46500.0,-3.7876269817352295,-1.592742681503296,8.458714485168457
926,46600.0,-3.7876269817352295,-1.592742681503296,8.458714485168457
927,46700.0,-3.639785051345825,-1.6328455209732056,8.505401611328125
928,46800.0,-3.639785051345825,-1.6328455209732056,8.505401611328125
929,46900.0,-3.832518339157105,-1.6202759742736816,8.44434928894043
930,47000.0,-3.832518339157105,-1.6202759742736816,8.44434928894043
931,47100.0,-3.848679304122925,-1.6579847335815432,8.481459617614746
932,47200.0,-3.848679304122925,-1.6579847335815432,8.481459617614746
933,47300.0,-3.7624878883361816,-1.6741455793380735,8.446743965148926
934,47400.0,-3.693654775619507,-1.787870168685913,8.491635322570799
935,47500.0,-3.693654775619507,-1.787870168685913,8.491635322570799
936,47600.0,-3.7936124801635738,-1.660977482795715,8.453327178955076
937,47700.0,-3.7936124801635738,-1.660977482795715,8.453327178955076
938,47800.0,-3.7894227504730233,-1.7435773611068726,8.468291282653809
939,47900.0,-3.7894227504730233,-1.7435773611068726,8.468291282653809
940,48000.0,-3.8073792457580566,-1.6292542219161987,8.455721855163574
941,48100.0,-3.8073792457580566,-1.6292542219161987,8.455721855163574
942,48200.0,-3.6960489749908447,-1.5921441316604614,8.452729225158691
943,48300.0,-3.864241600036621,-1.7627309560775757,8.447341918945312
944,48400.0,-3.864241600036621,-1.7627309560775757,8.447341918945312
945,48500.0,-3.7152025699615483,-1.765723705291748,8.462904930114746
946,48600.0,-3.7152025699615483,-1.765723705291748,8.462904930114746
947,48700.0,-3.782240152359009,-1.6621745824813845,8.448538780212402
948,48800.0,-3.782240152359009,-1.6621745824813845,8.448538780212402
949,48900.0,-3.728370666503906,-1.6615760326385498,8.473079681396483
950,49000.0,-3.728370666503906,-1.6615760326385498,8.473079681396483
951,49100.0,-3.804386615753174,-1.7747019529342651,8.470087051391603
952,49200.0,-3.794211149215698,-1.6436194181442259,8.468890190124513
953,49300.0,-3.794211149215698,-1.6436194181442259,8.468890190124513
954,49400.0,-3.794809579849243,-1.6035165786743164,8.497021675109862
955,49500.0,-3.794809579849243,-1.6035165786743164,8.497021675109862
956,49600.0,-3.7193922996521,-1.731606364250183,8.447341918945312
957,49700.0,-3.7193922996521,-1.731606364250183,8.447341918945312
958,49800.0,-3.75291109085083,-1.7118542194366455,8.466495513916017
959,49900.0,-3.75291109085083,-1.7118542194366455,8.466495513916017
960,48000.0,-3.8073792457580566,-1.6292542219161987,8.455721855163574
961,48100.0,-3.8073792457580566,-1.6292542219161987,8.455721855163574
962,48200.0,-3.6960489749908447,-1.5921441316604614,8.452729225158691
963,48300.0,-3.864241600036621,-1.7627309560775757,8.447341918945312
964,48400.0,-3.864241600036621,-1.7627309560775757,8.447341918945312
965,48500.0,-3.7152025699615483,-1.765723705291748,8.462904930114746
966,48600.0,-3.7152025699615483,-1.765723705291748,8.462904930114746
967,48700.0,-3.782240152359009,-1.6621745824813845,8.448538780212402
968,48800.0,-3.782240152359009,-1.6621745824813845,8.448538780212402
969,48900.0,-3.728370666503906,-1.6615760326385498,8.473079681396483
970,49000.0,-3.728370666503906,-1.6615760326385498,8.473079681396483
971,49100.0,-3.804386615753174,-1.7747019529342651,8.470087051391603
972,49200.0,-3.794211149215698,-1.6436194181442259,8.468890190124513
973,49300.0,-3.794211149215698,-1.6436194181442259,8.468890190124513
974,49400.0,-3.794809579849243,-1.6035165786743164,8.497021675109862
975,49500.0,-3.794809579849243,-1.6035165786743164,8.497021675109862
976,49600.0,-3.7193922996521,-1.731606364250183,8.447341918945312
977,49700.0,-3.7193922996521,-1.731606364250183,8.447341918945312
978,49800.0,-3.75291109085083,-1.7118542194366455,8.466495513916017
979,49900.0,-3.75291109085083,-1.7118542194366455,8.466495513916017
980,50000.0,-3.8815994262695312,-1.6418237686157229,8.421604156494139
981,50100.0,-3.6709096431732178,-1.625662922859192,8.491635322570799
982,50200.0,-3.6709096431732178,-1.625662922859192,8.491635322570799
983,50300.0,-3.8630445003509517,-1.6675615310668943,8.462904930114746
984,50400.0,-3.8630445003509517,-1.6675615310668943,8.462904930114746
985,50500.0,-3.608062028884888,-1.5275006294250488,8.523956298828125
986,50600.0,-3.608062028884888,-1.5275006294250488,8.523956298828125
987,50700.0,-3.1633388996124268,-1.3706804513931274,8.172607421875
988,50800.0,-3.1633388996124268,-1.3706804513931274,8.172607421875
989,50900.0,-3.709217071533203,-1.8381483554840088,8.470087051391603
990,51000.0,-3.492541790008545,-1.7160440683364868,8.55268669128418
991,51100.0,-3.492541790008545,-1.7160440683364868,8.55268669128418
992,51200.0,-3.733159065246582,-1.714846968650818,8.502408981323242
993,51300.0,-3.733159065246582,-1.714846968650818,8.502408981323242
994,51400.0,-3.651756048202514,-1.71245276927948,8.510788917541504
995,51500.0,-3.651756048202514,-1.71245276927948,8.510788917541504
996,51600.0,-3.602674961090088,-1.6980875730514526,8.510788917541504
997,51700.0,-3.602674961090088,-1.6980875730514526,8.510788917541504
998,51800.0,-3.612850427627564,-1.7381904125213623,8.498817443847656
999,51900.0,-3.599083662033081,-1.726817965507507,8.51677417755127
1000,50000.0,-3.8815994262695312,-1.6418237686157229,8.421604156494139
1001,50100.0,-3.6709096431732178,-1.625662922859192,8.491635322570799
1002,50200.0,-3.6709096431732178,-1.625662922859192,8.491635322570799
1003,50300.0,-3.8630445003509517,-1.6675615310668943,8.462904930114746
1004,50400.0,-3.8630445003509517,-1.6675615310668943,8.462904930114746
1005,50500.0,-3.608062028884888,-1.5275006294250488,8.523956298828125
1006,50600.0,-3.608062028884888,-1.5275006294250488,8.523956298828125
1007,50700.0,-3.1633388996124268,-1.3706804513931274,8.172607421875
1008,50800.0,-3.1633388996124268,-1.3706804513931274,8.172607421875
1009,50900.0,-3.709217071533203,-1.8381483554840088,8.470087051391603
1010,51000.0,-3.492541790008545,-1.7160440683364868,8.55268669128418
1011,51100.0,-3.492541790008545,-1.7160440683364868,8.55268669128418
1012,51200.0,-3.733159065246582,-1.714846968650818,8.502408981323242
1013,51300.0,-3.733159065246582,-1.714846968650818,8.502408981323242
1014,51400.0,-3.651756048202514,-1.71245276927948,8.510788917541504
1015,51500.0,-3.651756048202514,-1.71245276927948,8.510788917541504
1016,51600.0,-3.602674961090088,-1.6980875730514526,8.510788917541504
1017,51700.0,-3.602674961090088,-1.6980875730514526,8.510788917541504
1018,51800.0,-3.612850427627564,-1.7381904125213623,8.498817443847656
1019,51900.0,-3.599083662033081,-1.726817965507507,8.51677417755127
1020,52000.0,-3.599083662033081,-1.726817965507507,8.51677417755127
1021,52100.0,-3.7439329624176025,-1.7136498689651491,8.492832183837889
1022,52200.0,-3.7439329624176025,-1.7136498689651491,8.492832183837889
1023,52300.0,-3.653551816940308,-1.7986440658569336,8.511985778808594
1024,52400.0,-3.653551816940308,-1.7986440658569336,8.511985778808594
1025,52500.0,-3.633201122283936,-1.6968904733657837,8.480262756347656
1026,52600.0,-3.633201122283936,-1.6968904733657837,8.480262756347656
1027,52700.0,-3.634398221969605,-1.6741455793380735,8.526948928833008
1028,52800.0,-3.6308069229125977,-1.6340426206588743,8.510190010070799
1029,52900.0,-3.6308069229125977,-1.6340426206588743,8.510190010070799
1030,53000.0,-3.6709096431732178,-1.6891093254089355,8.536525726318361
1031,53100.0,-3.6709096431732178,-1.6891093254089355,8.536525726318361
1032,53200.0,-3.603273630142212,-1.6915035247802734,8.537723541259767
1033,53300.0,-3.603273630142212,-1.6915035247802734,8.537723541259767
1034,53400.0,-3.67928957939148,-1.6950948238372805,8.497620582580566
1035,53500.0,-3.67928957939148,-1.6950948238372805,8.497620582580566
1036,53600.0,-3.642777919769287,-1.6807296276092532,8.505401611328125
1037,53700.0,-3.60566782951355,-1.6430208683013916,8.500613212585451
1038,53800.0,-3.60566782951355,-1.6430208683013916,8.500613212585451
1039,53900.0,-3.529053211212158,-1.6801310777664185,8.528146743774414
1040,52000.0,-3.599083662033081,-1.726817965507507,8.51677417755127
1041,52100.0,-3.7439329624176025,-1.7136498689651491,8.492832183837889
1042,52200.0,-3.7439329624176025,-1.7136498689651491,8.492832183837889
1043,52300.0,-3.653551816940308,-1.7986440658569336,8.511985778808594
1044,52400.0,-3.653551816940308,-1.7986440658569336,8.511985778808594
1045,52500.0,-3.633201122283936,-1.6968904733657837,8.480262756347656
1046,52600.0,-3.633201122283936,-1.6968904733657837,8.480262756347656
1047,52700.0,-3.634398221969605,-1.6741455793380735,8.526948928833008
1048,52800.0,-3.6308069229125977,-1.6340426206588743,8.510190010070799
1049,52900.0,-3.6308069229125977,-1.6340426206588743,8.510190010070799
1050,53000.0,-3.6709096431732178,-1.6891093254089355,8.536525726318361
1051,53100.0,-3.6709096431732178,-1.6891093254089355,8.536525726318361
1052,53200.0,-3.603273630142212,-1.6915035247802734,8.537723541259767
1053,53300.0,-3.603273630142212,-1.6915035247802734,8.537723541259767
1054,53400.0,-3.67928957939148,-1.6950948238372805,8.497620582580566
1055,53500.0,-3.67928957939148,-1.6950948238372805,8.497620582580566
1056,53600.0,-3.642777919769287,-1.6807296276092532,8.505401611328125
1057,53700.0,-3.60566782951355,-1.6430208683013916,8.500613212585451
1058,53800.0,-3.60566782951355,-1.6430208683013916,8.500613212585451
1059,53900.0,-3.529053211212158,-1.6801310777664185,8.528146743774414
1060,54000.0,-3.529053211212158,-1.6801310777664185,8.528146743774414
1061,54100.0,-3.745728492736816,-1.6831238269805908,8.495824813842772
1062,54200.0,-3.745728492736816,-1.6831238269805908,8.495824813842772
1063,54300.0,-3.6379895210266113,-1.6771383285522459,8.520365715026855
1064,54400.0,-3.6379895210266113,-1.6771383285522459,8.520365715026855
1065,54500.0,-3.631405353546143,-1.6903064250946045,8.503006935119629
1066,54600.0,-3.6703112125396733,-1.6813281774520874,8.494627952575684
1067,54700.0,-3.6703112125396733,-1.6813281774520874,8.494627952575684
1068,54800.0,-3.60566782951355,-1.622071623802185,8.516175270080566
1069,54900.0,-3.60566782951355,-1.622071623802185,8.516175270080566
1070,55000.0,-3.698443174362183,-1.6364368200302124,8.504802703857424
1071,55100.0,-3.698443174362183,-1.6364368200302124,8.504802703857424
1072,55200.0,-3.5655648708343506,-1.6382324695587158,8.517372131347656
1073,55300.0,-3.5655648708343506,-1.6382324695587158,8.517372131347656
1074,55400.0,-3.6254198551177983,-1.670554280281067,8.526948928833008
1075,55500.0,-3.60566782951355,-1.6663644313812256,8.520365715026855
1076,55600.0,-3.60566782951355,-1.6663644313812256,8.520365715026855
1077,55700.0,-3.624821424484253,-1.620874524116516,8.531139373779299
1078,55800.0,-3.624821424484253,-1.620874524116516,8.531139373779299
1079,55900.0,-3.599682331085205,-1.6789339780807495,8.520963668823242
1080,54000.0,-3.529053211212158,-1.6801310777664185,8.528146743774414
1081,54100.0,-3.745728492736816,-1.6831238269805908,8.495824813842772
1082,54200.0,-3.745728492736816,-1.6831238269805908,8.495824813842772
1083,54300.0,-3.6379895210266113,-1.6771383285522459,8.520365715026855
1084,54400.0,-3.6379895210266113,-1.6771383285522459,8.520365715026855
1085,54500.0,-3.631405353546143,-1.6903064250946045,8.503006935119629
1086,54600.0,-3.6703112125396733,-1.6813281774520874,8.494627952575684
1087,54700.0,-3.6703112125396733,-1.6813281774520874,8.494627952575684
1088,54800.0,-3.60566782951355,-1.622071623802185,8.516175270080566
1089,54900.0,-3.60566782951355,-1.622071623802185,8.516175270080566
1090,55000.0,-3.698443174362183,-1.6364368200302124,8.504802703857424
1091,55100.0,-3.698443174362183,-1.6364368200302124,8.504802703857424
1092,55200.0,-3.5655648708343506,-1.6382324695587158,8.517372131347656
1093,55300.0,-3.5655648708343506,-1.6382324695587158,8.517372131347656
1094,55400.0,-3.6254198551177983,-1.670554280281067,8.526948928833008
1095,55500.0,-3.60566782951355,-1.6663644313812256,8.520365715026855
1096,55600.0,-3.60566782951355,-1.6663644313812256,8.520365715026855
1097,55700.0,-3.624821424484253,-1.620874524116516,8.531139373779299
1098,55800.0,-3.624821424484253,-1.620874524116516,8.531139373779299
1099,55900.0,-3.599682331085205,-1.6789339780807495,8.520963668823242
1100,56000.0,-3.599682331085205,-1.6789339780807495,8.520963668823242
1101,56100.0,-3.645172119140625,-1.7058687210083008,8.531139373779299
1102,56200.0,-3.645172119140625,-1.7058687210083008,8.531139373779299
1103,56300.0,-3.661332845687866,-1.6986861228942869,8.520963668823242
1104,56400.0,-3.6493618488311768,-1.644816517829895,8.518569946289062
1105,56500.0,-3.6493618488311768,-1.644816517829895,8.518569946289062
1106,56600.0,-3.5948939323425293,-1.6633716821670532,8.521562576293945
1107,56700.0,-3.5948939323425293,-1.6633716821670532,8.521562576293945
1108,56800.0,-3.651756048202514,-1.6633716821670532,8.516175270080566
1109,56900.0,-3.651756048202514,-1.6633716821670532,8.516175270080566
1110,57000.0,-3.5865142345428467,-1.679532527923584,8.539519309997559
1111,57100.0,-3.5865142345428467,-1.679532527923584,8.539519309997559
1112,57200.0,-3.573944568634033,-1.6968904733657837,8.501810073852539
1113,57300.0,-3.569754838943481,-1.6765397787094116,8.540716171264647
1114,57400.0,-3.569754838943481,-1.6765397787094116,8.540716171264647
1115,57500.0,-3.5853171348571777,-1.6490063667297363,8.519766807556152
1116,57600.0,-3.5853171348571777,-1.6490063667297363,8.519766807556152
1117,57700.0,-3.7044286727905273,-1.687313675880432,8.500014305114746
1118,57800.0,-3.7044286727905273,-1.687313675880432,8.500014305114746
1119,57900.0,-3.633799552917481,-1.6807296276092532,8.528744697570799
1120,56000.0,-3.599682331085205,-1.6789339780807495,8.520963668823242
1121,56100.0,-3.645172119140625,-1.7058687210083008,8.531139373779299
1122,56200.0,-3.645172119140625,-1.7058687210083008,8.531139373779299
1123,56300.0,-3.661332845687866,-1.6986861228942869,8.520963668823242
1124,56400.0,-3.6493618488311768,-1.644816517829895,8.518569946289062
1125,56500.0,-3.6493618488311768,-1.644816517829895,8.518569946289062
1126,56600.0,-3.5948939323425293,-1.6633716821670532,8.521562576293945
1127,56700.0,-3.5948939323425293,-1.6633716821670532,8.521562576293945
1128,56800.0,-3.651756048202514,-1.6633716821670532,8.516175270080566
1129,56900.0,-3.651756048202514,-1.6633716821670532,8.516175270080566
1130,57000.0,-3.5865142345428467,-1.679532527923584,8.539519309997559
1131,57100.0,-3.5865142345428467,-1.679532527923584,8.539519309997559
1132,57200.0,-3.573944568634033,-1.6968904733657837,8.501810073852539
1133,57300.0,-3.569754838943481,-1.6765397787094116,8.540716171264647
1134,57400.0,-3.569754838943481,-1.6765397787094116,8.540716171264647
1135,57500.0,-3.5853171348571777,-1.6490063667297363,8.519766807556152
1136,57600.0,-3.5853171348571777,-1.6490063667297363,8.519766807556152
1137,57700.0,-3.7044286727905273,-1.687313675880432,8.500014305114746
1138,57800.0,-3.7044286727905273,-1.687313675880432,8.500014305114746
1139,57900.0,-3.633799552917481,-1.6807296276092532,8.528744697570799
1140,58000.0,-3.633799552917481,-1.6807296276092532,8.528744697570799
1141,58100.0,-3.622427225112915,-1.6699557304382324,8.526350975036621
1142,58200.0,-3.6727054119110103,-1.71245276927948,8.51258373260498
1143,58300.0,-3.6727054119110103,-1.71245276927948,8.51258373260498
1144,58400.0,-3.613448858261109,-1.6412252187728882,8.540716171264647
1145,58500.0,-3.613448858261109,-1.6412252187728882,8.540716171264647
1146,58600.0,-3.660734415054321,-1.66696298122406,8.514978408813478
1147,58700.0,-3.660734415054321,-1.66696298122406,8.514978408813478
1148,58800.0,-3.607463359832764,-1.6364368200302124,8.542511940002441
1149,58900.0,-3.607463359832764,-1.6364368200302124,8.542511940002441
1150,59000.0,-3.7439329624176025,-1.6723499298095703,8.485649108886719
1151,59100.0,-3.6816837787628174,-1.7058687210083008,8.507795333862305
1152,59200.0,-3.6816837787628174,-1.7058687210083008,8.507795333862305
1153,59300.0,-3.652354717254639,-1.6735470294952393,8.507795333862305
1154,59400.0,-3.652354717254639,-1.6735470294952393,8.507795333862305
1155,59500.0,-3.666719913482666,-1.7064672708511353,8.520365715026855
1156,59600.0,-3.666719913482666,-1.7064672708511353,8.520365715026855
1157,59700.0,-3.60566782951355,-1.6537947654724119,8.529343605041504
1158,59800.0,-3.60566782951355,-1.6537947654724119,8.529343605041504
1159,59900.0,-3.7235822677612314,-1.6693571805953982,8.494627952575684
1160,58000.0,-3.633799552917481,-1.6807296276092532,8.528744697570799
1161,58100.0,-3.622427225112915,-1.6699557304382324,8.526350975036621
1162,58200.0,-3.6727054119110103,-1.71245276927948,8.51258373260498
1163,58300.0,-3.6727054119110103,-1.71245276927948,8.51258373260498
1164,58400.0,-3.613448858261109,-1.6412252187728882,8.540716171264647
1165,58500.0,-3.613448858261109,-1.6412252187728882,8.540716171264647
1166,58600.0,-3.660734415054321,-1.66696298122406,8.514978408813478
1167,58700.0,-3.660734415054321,-1.66696298122406,8.514978408813478
1168,58800.0,-3.607463359832764,-1.6364368200302124,8.542511940002441
1169,58900.0,-3.607463359832764,-1.6364368200302124,8.542511940002441
1170,59000.0,-3.7439329624176025,-1.6723499298095703,8.485649108886719
1171,59100.0,-3.6816837787628174,-1.7058687210083008,8.507795333862305
1172,59200.0,-3.6816837787628174,-1.7058687210083008,8.507795333862305
1173,59300.0,-3.652354717254639,-1.6735470294952393,8.507795333862305
1174,59400.0,-3.652354717254639,-1.6735470294952393,8.507795333862305
1175,59500.0,-3.666719913482666,-1.7064672708511353,8.520365715026855
1176,59600.0,-3.666719913482666,-1.7064672708511353,8.520365715026855
1177,59700.0,-3.60566782951355,-1.6537947654724119,8.529343605041504
1178,59800.0,-3.60566782951355,-1.6537947654724119,8.529343605041504
1179,59900.0,-3.7235822677612314,-1.6693571805953982,8.494627952575684
1180,60000.0,-3.7235822677612314,-1.6693571805953982,8.494627952575684
1181,60100.0,-3.5942952632904053,-1.6454150676727295,8.535927772521973
1182,60200.0,-3.5817258358001713,-1.6394295692443848,8.535927772521973
1183,60300.0,-3.5817258358001713,-1.6394295692443848,8.535927772521973
1184,60400.0,-3.840898036956787,-1.8848352432250977,8.430583000183105
1185,60500.0,-3.840898036956787,-1.8848352432250977,8.430583000183105
1186,60600.0,-3.659537315368652,-1.7184382677078247,8.508993148803711
1187,60700.0,-3.659537315368652,-1.7184382677078247,8.508993148803711
1188,60800.0,-3.6960489749908447,-1.6831238269805908,8.47906494140625
1189,60900.0,-3.6960489749908447,-1.6831238269805908,8.47906494140625
1190,61000.0,-3.6780924797058105,-1.6891093254089355,8.480860710144043
1191,61100.0,-3.626616954803467,-1.6328455209732056,8.51557731628418
1192,61200.0,-3.626616954803467,-1.6328455209732056,8.51557731628418
1193,61300.0,-3.688866376876831,-1.6597803831100464,8.541314125061035
1194,61400.0,-3.688866376876831,-1.6597803831100464,8.541314125061035
1195,61500.0,-3.6355953216552734,-1.5933412313461304,8.540117263793945
1196,61600.0,-3.6355953216552734,-1.5933412313461304,8.540117263793945
1197,61700.0,-3.5140895843505864,-1.4287399053573608,8.504204750061035
1198,61800.0,-3.5140895843505864,-1.4287399053573608,8.504204750061035
1199,61900.0,-3.597886562347412,-1.5741876363754272,8.579621315002441
1200,60000.0,-3.7235822677612314,-1.6693571805953982,8.494627952575684
1201,60100.0,-3.5942952632904053,-1.6454150676727295,8.535927772521973
1202,60200.0,-3.5817258358001713,-1.6394295692443848,8.535927772521973
1203,60300.0,-3.5817258358001713,-1.6394295692443848,8.535927772521973
1204,60400.0,-3.840898036956787,-1.8848352432250977,8.430583000183105
1205,60500.0,-3.840898036956787,-1.8848352432250977,8.430583000183105
1206,60600.0,-3.659537315368652,-1.7184382677078247,8.508993148803711
1207,60700.0,-3.659537315368652,-1.7184382677078247,8.508993148803711
1208,60800.0,-3.6960489749908447,-1.6831238269805908,8.47906494140625
1209,60900.0,-3.6960489749908447,-1.6831238269805908,8.47906494140625
1210,61000.0,-3.6780924797058105,-1.6891093254089355,8.480860710144043
1211,61100.0,-3.626616954803467,-1.6328455209732056,8.51557731628418
1212,61200.0,-3.626616954803467,-1.6328455209732056,8.51557731628418
1213,61300.0,-3.688866376876831,-1.6597803831100464,8.541314125061035
1214,61400.0,-3.688866376876831,-1.6597803831100464,8.541314125061035
1215,61500.0,-3.6355953216552734,-1.5933412313461304,8.540117263793945
1216,61600.0,-3.6355953216552734,-1.5933412313461304,8.540117263793945
1217,61700.0,-3.5140895843505864,-1.4287399053573608,8.504204750061035
1218,61800.0,-3.5140895843505864,-1.4287399053573608,8.504204750061035
1219,61900.0,-3.597886562347412,-1.5741876363754272,8.579621315002441
1220,62000.0,-3.6966474056243896,-1.3311761617660522,8.491036415100098
1221,62100.0,-3.6966474056243896,-1.3311761617660522,8.491036415100098
1222,62200.0,-3.470993995666504,-1.4718354940414429,8.518569946289062
1223,62300.0,-3.470993995666504,-1.4718354940414429,8.518569946289062
1224,62400.0,-3.5667619705200195,-1.4862006902694702,8.53532886505127
1225,62500.0,-3.5667619705200195,-1.4862006902694702,8.53532886505127
1226,62600.0,-3.6828808784484863,-1.535880446434021,8.51677417755127
1227,62700.0,-3.6828808784484863,-1.535880446434021,8.51677417755127
1228,62800.0,-3.623624324798584,-1.5340847969055176,8.548497200012207
1229,62900.0,-3.603273630142212,-1.4544775485992432,8.544307708740233
1230,63000.0,-3.603273630142212,-1.4544775485992432,8.544307708740233
1231,63100.0,-3.5972881317138667,-1.5981296300888062,8.550890922546388
1232,63200.0,-3.5972881317138667,-1.5981296300888062,8.550890922546388
1233,63300.0,-3.5727474689483643,-1.5741876363754272,8.574234962463379
1234,63400.0,-3.5727474689483643,-1.5741876363754272,8.574234962463379
1235,63500.0,-3.55479097366333,-1.5107412338256836,8.564059257507324
1236,63600.0,-3.55479097366333,-1.5107412338256836,8.564059257507324
1237,63700.0,-3.511695384979248,-1.547252893447876,8.625710487365723
1238,63800.0,-3.454833030700684,-1.3593080043792725,8.680178642272951
1239,63900.0,-3.454833030700684,-1.3593080043792725,8.680178642272951
1240,62000.0,-3.6966474056243896,-1.3311761617660522,8.491036415100098
1241,62100.0,-3.6966474056243896,-1.3311761617660522,8.491036415100098
1242,62200.0,-3.470993995666504,-1.4718354940414429,8.518569946289062
1243,62300.0,-3.470993995666504,-1.4718354940414429,8.518569946289062
1244,62400.0,-3.5667619705200195,-1.4862006902694702,8.53532886505127
1245,62500.0,-3.5667619705200195,-1.4862006902694702,8.53532886505127
1246,62600.0,-3.6828808784484863,-1.535880446434021,8.51677417755127
1247,62700.0,-3.6828808784484863,-1.535880446434021,8.51677417755127
1248,62800.0,-3.623624324798584,-1.5340847969055176,8.548497200012207
1249,62900.0,-3.603273630142212,-1.4544775485992432,8.544307708740233
1250,63000.0,-3.603273630142212,-1.4544775485992432,8.544307708740233
1251,63100.0,-3.5972881317138667,-1.5981296300888062,8.550890922546388
1252,63200.0,-3.5972881317138667,-1.5981296300888062,8.550890922546388
1253,63300.0,-3.5727474689483643,-1.5741876363754272,8.574234962463379
1254,63400.0,-3.5727474689483643,-1.5741876363754272,8.574234962463379
1255,63500.0,-3.55479097366333,-1.5107412338256836,8.564059257507324
1256,63600.0,-3.55479097366333,-1.5107412338256836,8.564059257507324
1257,63700.0,-3.511695384979248,-1.547252893447876,8.625710487365723
1258,63800.0,-3.454833030700684,-1.3593080043792725,8.680178642272951
1259,63900.0,-3.454833030700684,-1.3593080043792725,8.680178642272951
1260,64000.0,-3.3470940589904785,-1.4814122915267944,8.65623664855957
1261,64100.0,-3.3470940589904785,-1.4814122915267944,8.65623664855957
1262,64200.0,-3.5883097648620605,-1.3886369466781616,8.543109893798826
1263,64300.0,-3.5883097648620605,-1.3886369466781616,8.543109893798826
1264,64400.0,-3.607463359832764,-1.4185645580291748,8.549694061279299
1265,64500.0,-3.607463359832764,-1.4185645580291748,8.549694061279299
1266,64600.0,-3.6008794307708736,-1.4065934419631958,8.562263488769531
1267,64700.0,-3.6637270450592037,-1.4628572463989258,8.554482460021973
1268,64800.0,-3.6637270450592037,-1.4628572463989258,8.554482460021973
1269,64900.0,-3.6828808784484863,-1.5783774852752686,8.555081367492676
1270,65000.0,-3.6828808784484863,-1.5783774852752686,8.555081367492676
1271,65100.0,-3.710414171218872,-1.4897919893264768,8.574234962463379
1272,65200.0,-3.710414171218872,-1.4897919893264768,8.574234962463379
1273,65300.0,-3.5954923629760738,-1.5053542852401731,8.546102523803711
1274,65400.0,-3.5954923629760738,-1.5053542852401731,8.546102523803711
1275,65500.0,-3.660734415054321,-1.522712230682373,8.550890922546388
1276,65600.0,-3.6577415466308594,-1.5783774852752686,8.538920402526855
1277,65700.0,-3.6577415466308594,-1.5783774852752686,8.538920402526855
1278,65800.0,-3.6948518753051762,-1.5304933786392212,8.535927772521973
1279,65900.0,-3.6948518753051762,-1.5304933786392212,8.535927772521973
1280,64000.0,-3.3470940589904785,-1.4814122915267944,8.65623664855957
1281,64100.0,-3.3470940589904785,-1.4814122915267944,8.65623664855957
1282,64200.0,-3.5883097648620605,-1.3886369466781616,8.543109893798826
1283,64300.0,-3.5883097648620605,-1.3886369466781616,8.543109893798826
1284,64400.0,-3.607463359832764,-1.4185645580291748,8.549694061279299
1285,64500.0,-3.607463359832764,-1.4185645580291748,8.549694061279299
1286,64600.0,-3.6008794307708736,-1.4065934419631958,8.562263488769531
1287,64700.0,-3.6637270450592037,-1.4628572463989258,8.554482460021973
1288,64800.0,-3.6637270450592037,-1.4628572463989258,8.554482460021973
1289,64900.0,-3.6828808784484863,-1.5783774852752686,8.555081367492676
1290,65000.0,-3.6828808784484863,-1.5783774852752686,8.555081367492676
1291,65100.0,-3.710414171218872,-1.4897919893264768,8.574234962463379
1292,65200.0,-3.710414171218872,-1.4897919893264768,8.574234962463379
1293,65300.0,-3.5954923629760738,-1.5053542852401731,8.546102523803711
1294,65400.0,-3.5954923629760738,-1.5053542852401731,8.546102523803711
1295,65500.0,-3.660734415054321,-1.522712230682373,8.550890922546388
1296,65600.0,-3.6577415466308594,-1.5783774852752686,8.538920402526855
1297,65700.0,-3.6577415466308594,-1.5783774852752686,8.538920402526855
1298,65800.0,-3.6948518753051762,-1.5304933786392212,8.535927772521973
1299,65900.0,-3.6948518753051762,-1.5304933786392212,8.535927772521973
1300,66000.0,-3.6960489749908447,-1.5598224401474,8.519766807556152
1301,66100.0,-3.6960489749908447,-1.5598224401474,8.519766807556152
1302,66200.0,-3.6320040225982666,-1.513733983039856,8.521562576293945
1303,66300.0,-3.6320040225982666,-1.513733983039856,8.521562576293945
1304,66400.0,-3.7541081905364986,-1.5987281799316406,8.523358345031737
1305,66500.0,-3.631405353546143,-1.5442601442337036,8.539519309997559
1306,66600.0,-3.631405353546143,-1.5442601442337036,8.539519309997559
1307,66700.0,-3.6110546588897705,-1.5610195398330688,8.54909610748291
1308,66800.0,-3.6110546588897705,-1.5610195398330688,8.54909610748291
1309,66900.0,-3.6367924213409424,-1.5077484846115112,8.539519309997559
1310,67000.0,-3.6367924213409424,-1.5077484846115112,8.539519309997559
1311,67100.0,-3.639785051345825,-1.4742296934127808,8.54909610748291
1312,67200.0,-3.639785051345825,-1.4742296934127808,8.54909610748291
1313,67300.0,-3.5464112758636475,-1.4377181529998782,8.471882820129395
1314,67400.0,-3.9217023849487305,-1.5011644363403318,8.289923667907715
1315,67500.0,-3.9217023849487305,-1.5011644363403318,8.289923667907715
1316,67600.0,-3.5464112758636475,-1.4472949504852295,8.44434928894043
1317,67700.0,-3.5464112758636475,-1.4472949504852295,8.44434928894043
1318,67800.0,-3.496133089065552,-1.6454150676727295,8.585607528686522
1319,67900.0,-3.496133089065552,-1.6454150676727295,8.585607528686522
1320,66000.0,-3.6960489749908447,-1.5598224401474,8.519766807556152
1321,66100.0,-3.6960489749908447,-1.5598224401474,8.519766807556152
1322,66200.0,-3.6320040225982666,-1.513733983039856,8.521562576293945
1323,66300.0,-3.6320040225982666,-1.513733983039856,8.521562576293945
1324,66400.0,-3.7541081905364986,-1.5987281799316406,8.523358345031737
1325,66500.0,-3.631405353546143,-1.5442601442337036,8.539519309997559
1326,66600.0,-3.631405353546143,-1.5442601442337036,8.539519309997559
1327,66700.0,-3.6110546588897705,-1.5610195398330688,8.54909610748291
1328,66800.0,-3.6110546588897705,-1.5610195398330688,8.54909610748291
1329,66900.0,-3.6367924213409424,-1.5077484846115112,8.539519309997559
1330,67000.0,-3.6367924213409424,-1.5077484846115112,8.539519309997559
1331,67100.0,-3.639785051345825,-1.4742296934127808,8.54909610748291
1332,67200.0,-3.639785051345825,-1.4742296934127808,8.54909610748291
1333,67300.0,-3.5464112758636475,-1.4377181529998782,8.471882820129395
1334,67400.0,-3.9217023849487305,-1.5011644363403318,8.289923667907715
1335,67500.0,-3.9217023849487305,-1.5011644363403318,8.289923667907715
1336,67600.0,-3.5464112758636475,-1.4472949504852295,8.44434928894043
1337,67700.0,-3.5464112758636475,-1.4472949504852295,8.44434928894043
1338,67800.0,-3.496133089065552,-1.6454150676727295,8.585607528686522
1339,67900.0,-3.496133089065552,-1.6454150676727295,8.585607528686522
1340,68000.0,-3.692457675933838,-1.4622586965560913,8.529343605041504
1341,68100.0,-3.692457675933838,-1.4622586965560913,8.529343605041504
1342,68200.0,-3.589506864547729,-1.394023895263672,8.561066627502441
1343,68300.0,-3.7080199718475337,-1.3856441974639893,8.524555206298826
1344,68400.0,-3.7080199718475337,-1.3856441974639893,8.524555206298826
1345,68500.0,-3.7080199718475337,-1.3856441974639893,8.524555206298826
1346,68600.0,-3.6756980419158936,-1.4317326545715332,8.523956298828125
1347,68700.0,-3.631405353546143,-1.4760253429412842,8.535927772521973
1348,68800.0,-3.631405353546143,-1.4760253429412842,8.535927772521973
1349,68900.0,-3.6762967109680176,-1.4335283041000366,8.55148983001709
1350,69000.0,-3.6762967109680176,-1.4335283041000366,8.55148983001709
1351,69100.0,-3.7086184024810787,-1.4347254037857056,8.581417083740233
1352,69200.0,-3.6948518753051762,-1.4119805097579956,8.522759437561035
1353,69300.0,-3.6948518753051762,-1.4119805097579956,8.522759437561035
1354,69400.0,-3.6852750778198238,-1.4341268539428709,8.523358345031737
1355,69500.0,-3.6852750778198238,-1.4341268539428709,8.523358345031737
1356,69600.0,-3.6631286144256587,-1.4197616577148438,8.565256118774414
1357,69700.0,-3.6631286144256587,-1.4197616577148438,8.565256118774414
1358,69800.0,-3.705625772476196,-1.4802151918411257,8.525752067565918
1359,69900.0,-3.705625772476196,-1.4802151918411257,8.525752067565918
1360,68000.0,-3.692457675933838,-1.4622586965560913,8.529343605041504
1361,68100.0,-3.692457675933838,-1.4622586965560913,8.529343605041504
1362,68200.0,-3.589506864547729,-1.394023895263672,8.561066627502441
1363,68300.0,-3.7080199718475337,-1.3856441974639893,8.524555206298826
1364,68400.0,-3.7080199718475337,-1.3856441974639893,8.524555206298826
1365,68500.0,-3.7080199718475337,-1.3856441974639893,8.524555206298826
1366,68600.0,-3.6756980419158936,-1.4317326545715332,8.523956298828125
1367,68700.0,-3.631405353546143,-1.4760253429412842,8.535927772521973
1368,68800.0,-3.631405353546143,-1.4760253429412842,8.535927772521973
1369,68900.0,-3.6762967109680176,-1.4335283041000366,8.55148983001709
1370,69000.0,-3.6762967109680176,-1.4335283041000366,8.55148983001709
1371,69100.0,-3.7086184024810787,-1.4347254037857056,8.581417083740233
1372,69200.0,-3.6948518753051762,-1.4119805097579956,8.522759437561035
1373,69300.0,-3.6948518753051762,-1.4119805097579956,8.522759437561035
1374,69400.0,-3.6852750778198238,-1.4341268539428709,8.523358345031737
1375,69500.0,-3.6852750778198238,-1.4341268539428709,8.523358345031737
1376,69600.0,-3.6631286144256587,-1.4197616577148438,8.565256118774414
1377,69700.0,-3.6631286144256587,-1.4197616577148438,8.565256118774414
1378,69800.0,-3.705625772476196,-1.4802151918411257,8.525752067565918
1379,69900.0,-3.705625772476196,-1.4802151918411257,8.525752067565918
1380,70000.0,-3.6709096431732178,-1.4203602075576782,8.518569946289062
1381,70100.0,-3.642179250717163,-1.370081901550293,8.55029296875
1382,70200.0,-3.642179250717163,-1.370081901550293,8.55029296875
1383,70300.0,-3.687669277191162,-1.4437036514282229,8.544307708740233
1384,70400.0,-3.687669277191162,-1.4437036514282229,8.544307708740233
1385,70500.0,-3.67928957939148,-1.493383288383484,8.519766807556152
1386,70600.0,-3.67928957939148,-1.493383288383484,8.519766807556152
1387,70700.0,-3.71280837059021,-1.488594889640808,8.53293514251709
1388,70800.0,-3.71280837059021,-1.488594889640808,8.53293514251709
1389,70900.0,-3.6852750778198238,-1.4413094520568848,8.545504570007324
1390,71000.0,-3.646369218826294,-1.4317326545715332,8.552088737487793
1391,71100.0,-3.646369218826294,-1.4317326545715332,8.552088737487793
1392,71200.0,-3.6068649291992183,-1.4155718088150024,8.563461303710938
1393,71300.0,-3.6068649291992183,-1.4155718088150024,8.563461303710938
1394,71400.0,-3.7307648658752437,-1.416170358657837,8.537723541259767
1395,71500.0,-3.7307648658752437,-1.416170358657837,8.537723541259767
1396,71600.0,-3.6182372570037837,-1.4359225034713743,8.541314125061035
1397,71700.0,-3.6182372570037837,-1.4359225034713743,8.541314125061035
1398,71800.0,-3.651756048202514,-1.432929754257202,8.568249702453612
1399,71900.0,-3.6098575592041016,-1.4981716871261597,8.565855026245117
1400,70000.0,-3.6709096431732178,-1.4203602075576782,8.518569946289062
1401,70100.0,-3.642179250717163,-1.370081901550293,8.55029296875
1402,70200.0,-3.642179250717163,-1.370081901550293,8.55029296875
1403,70300.0,-3.687669277191162,-1.4437036514282229,8.544307708740233
1404,70400.0,-3.687669277191162,-1.4437036514282229,8.544307708740233
1405,70500.0,-3.67928957939148,-1.493383288383484,8.519766807556152
1406,70600.0,-3.67928957939148,-1.493383288383484,8.519766807556152
1407,70700.0,-3.71280837059021,-1.488594889640808,8.53293514251709
1408,70800.0,-3.71280837059021,-1.488594889640808,8.53293514251709
1409,70900.0,-3.6852750778198238,-1.4413094520568848,8.545504570007324
1410,71000.0,-3.646369218826294,-1.4317326545715332,8.552088737487793
1411,71100.0,-3.646369218826294,-1.4317326545715332,8.552088737487793
1412,71200.0,-3.6068649291992183,-1.4155718088150024,8.563461303710938
1413,71300.0,-3.6068649291992183,-1.4155718088150024,8.563461303710938
1414,71400.0,-3.7307648658752437,-1.416170358657837,8.537723541259767
1415,71500.0,-3.7307648658752437,-1.416170358657837,8.537723541259767
1416,71600.0,-3.6182372570037837,-1.4359225034713743,8.541314125061035
1417,71700.0,-3.6182372570037837,-1.4359225034713743,8.541314125061035
1418,71800.0,-3.651756048202514,-1.432929754257202,8.568249702453612
1419,71900.0,-3.6098575592041016,-1.4981716871261597,8.565855026245117
1420,72000.0,-3.6098575592041016,-1.4981716871261597,8.565855026245117
1421,72100.0,-3.680486679077149,-1.513733983039856,8.523956298828125
1422,72200.0,-3.680486679077149,-1.513733983039856,8.523956298828125
1423,72300.0,-3.7187938690185542,-1.4850035905838013,8.549694061279299
1424,72400.0,-3.7187938690185542,-1.4850035905838013,8.549694061279299
1425,72500.0,-3.5464112758636475,-1.5400702953338623,8.559270858764647
1426,72600.0,-3.5464112758636475,-1.5400702953338623,8.559270858764647
1427,72700.0,-3.638587951660156,-1.569997787475586,8.563461303710938
1428,72800.0,-3.651756048202514,-1.5173252820968628,8.536525726318361
1429,72900.0,-3.651756048202514,-1.5173252820968628,8.536525726318361
1430,73000.0,-3.7247793674468994,-1.5424644947052002,8.523358345031737
1431,73100.0,-3.7247793674468994,-1.5424644947052002,8.523358345031737
1432,73200.0,-3.669712543487549,-1.4969745874404907,8.550890922546388
1433,73300.0,-3.669712543487549,-1.4969745874404907,8.550890922546388
1434,73400.0,-3.665522813796997,-1.5161281824111938,8.537723541259767
1435,73500.0,-3.665522813796997,-1.5161281824111938,8.537723541259767
1436,73600.0,-3.709815502166748,-1.4383167028427124,8.529942512512207
1437,73700.0,-3.6505589485168457,-1.5364789962768557,8.528146743774414
1438,73800.0,-3.6505589485168457,-1.5364789962768557,8.528146743774414
1439,73900.0,-3.692457675933838,-1.558625340461731,8.524555206298826
1440,72000.0,-3.6098575592041016,-1.4981716871261597,8.565855026245117
1441,72100.0,-3.680486679077149,-1.513733983039856,8.523956298828125
1442,72200.0,-3.680486679077149,-1.513733983039856,8.523956298828125
1443,72300.0,-3.7187938690185542,-1.4850035905838013,8.549694061279299
1444,72400.0,-3.7187938690185542,-1.4850035905838013,8.549694061279299
1445,72500.0,-3.5464112758636475,-1.5400702953338623,8.559270858764647
1446,72600.0,-3.5464112758636475,-1.5400702953338623,8.559270858764647
1447,72700.0,-3.638587951660156,-1.569997787475586,8.563461303710938
1448,72800.0,-3.651756048202514,-1.5173252820968628,8.536525726318361
1449,72900.0,-3.651756048202514,-1.5173252820968628,8.536525726318361
1450,73000.0,-3.7247793674468994,-1.5424644947052002,8.523358345031737
1451,73100.0,-3.7247793674468994,-1.5424644947052002,8.523358345031737
1452,73200.0,-3.669712543487549,-1.4969745874404907,8.550890922546388
1453,73300.0,-3.669712543487549,-1.4969745874404907,8.550890922546388
1454,73400.0,-3.665522813796997,-1.5161281824111938,8.537723541259767
1455,73500.0,-3.665522813796997,-1.5161281824111938,8.537723541259767
1456,73600.0,-3.709815502166748,-1.4383167028427124,8.529942512512207
1457,73700.0,-3.6505589485168457,-1.5364789962768557,8.528146743774414
1458,73800.0,-3.6505589485168457,-1.5364789962768557,8.528146743774414
1459,73900.0,-3.692457675933838,-1.558625340461731,8.524555206298826
1460,74000.0,-3.692457675933838,-1.558625340461731,8.524555206298826
1461,74100.0,-3.638587951660156,-1.5682021379470823,8.527547836303711
1462,74200.0,-3.638587951660156,-1.5682021379470823,8.527547836303711
1463,74300.0,-3.688267707824707,-1.469441294670105,8.538920402526855
1464,74400.0,-3.688267707824707,-1.469441294670105,8.538920402526855
1465,74500.0,-3.6008794307708736,-1.4299370050430298,8.564658164978027
1466,74600.0,-3.7816414833068848,-1.5634137392044067,8.496423721313478
1467,74700.0,-3.7816414833068848,-1.5634137392044067,8.496423721313478
1468,74800.0,-3.576338768005371,-1.488594889640808,8.539519309997559
1469,74900.0,-3.576338768005371,-1.488594889640808,8.539519309997559
1470,75000.0,-3.713406801223755,-1.4802151918411257,8.513781547546388
1471,75100.0,-3.713406801223755,-1.4802151918411257,8.513781547546388
1472,75200.0,-3.666121244430542,-1.5478514432907104,8.538321495056152
1473,75300.0,-3.666121244430542,-1.5478514432907104,8.538321495056152
1474,75400.0,-3.669114112854004,-1.567603588104248,8.492233276367188
1475,75500.0,-3.7427358627319336,-1.5819687843322754,8.467693328857424
1476,75600.0,-3.7427358627319336,-1.5819687843322754,8.467693328857424
1477,75700.0,-3.797203779220581,-1.58256733417511,8.462904930114746
1478,75800.0,-3.797203779220581,-1.58256733417511,8.462904930114746
1479,75900.0,-3.822343111038208,-1.58256733417511,8.453926086425781
1480,74000.0,-3.692457675933838,-1.558625340461731,8.524555206298826
1481,74100.0,-3.638587951660156,-1.5682021379470823,8.527547836303711
1482,74200.0,-3.638587951660156,-1.5682021379470823,8.527547836303711
1483,74300.0,-3.688267707824707,-1.469441294670105,8.538920402526855
1484,74400.0,-3.688267707824707,-1.469441294670105,8.538920402526855
1485,74500.0,-3.6008794307708736,-1.4299370050430298,8.564658164978027
1486,74600.0,-3.7816414833068848,-1.5634137392044067,8.496423721313478
1487,74700.0,-3.7816414833068848,-1.5634137392044067,8.496423721313478
1488,74800.0,-3.576338768005371,-1.488594889640808,8.539519309997559
1489,74900.0,-3.576338768005371,-1.488594889640808,8.539519309997559
1490,75000.0,-3.713406801223755,-1.4802151918411257,8.513781547546388
1491,75100.0,-3.713406801223755,-1.4802151918411257,8.513781547546388
1492,75200.0,-3.666121244430542,-1.5478514432907104,8.538321495056152
1493,75300.0,-3.666121244430542,-1.5478514432907104,8.538321495056152
1494,75400.0,-3.669114112854004,-1.567603588104248,8.492233276367188
1495,75500.0,-3.7427358627319336,-1.5819687843322754,8.467693328857424
1496,75600.0,-3.7427358627319336,-1.5819687843322754,8.467693328857424
1497,75700.0,-3.797203779220581,-1.58256733417511,8.462904930114746
1498,75800.0,-3.797203779220581,-1.58256733417511,8.462904930114746
1499,75900.0,-3.822343111038208,-1.58256733417511,8.453926086425781
1500,76000.0,-3.822343111038208,-1.58256733417511,8.453926086425781
1501,76100.0,-3.8085763454437256,-1.6065093278884888,8.473678588867188
1502,76200.0,-3.8085763454437256,-1.6065093278884888,8.473678588867188
1503,76300.0,-3.8073792457580566,-1.5981296300888062,8.444948196411133
1504,76400.0,-3.7541081905364986,-1.5412673950195312,8.44315242767334
1505,76500.0,-3.7541081905364986,-1.5412673950195312,8.44315242767334
1506,76600.0,-3.771466255187988,-1.569997787475586,8.462904930114746
1507,76700.0,-3.771466255187988,-1.569997787475586,8.462904930114746
1508,76800.0,-3.7439329624176025,-1.5831658840179443,8.473079681396483
1509,76900.0,-3.7439329624176025,-1.5831658840179443,8.473079681396483
1510,77000.0,-3.7505168914794917,-1.5652093887329102,8.481459617614746
1511,77100.0,-3.7505168914794917,-1.5652093887329102,8.481459617614746
1512,77200.0,-3.78104305267334,-1.569997787475586,8.450334548950195
1513,77300.0,-3.75291109085083,-1.544858694076538,8.492233276367188
1514,77400.0,-3.75291109085083,-1.544858694076538,8.492233276367188
1515,77500.0,-3.7211880683898926,-1.5598224401474,8.474875450134277
1516,77600.0,-3.7211880683898926,-1.5598224401474,8.474875450134277
1517,77700.0,-3.7439329624176025,-1.5406688451766968,8.458714485168457
1518,77800.0,-3.7439329624176025,-1.5406688451766968,8.458714485168457
1519,77900.0,-3.755903959274292,-1.599326729774475,8.447341918945312
1520,76000.0,-3.822343111038208,-1.58256733417511,8.453926086425781
1521,76100.0,-3.8085763454437256,-1.6065093278884888,8.473678588867188
1522,76200.0,-3.8085763454437256,-1.6065093278884888,8.473678588867188
1523,76300.0,-3.8073792457580566,-1.5981296300888062,8.444948196411133
1524,76400.0,-3.7541081905364986,-1.5412673950195312,8.44315242767334
1525,76500.0,-3.7541081905364986,-1.5412673950195312,8.44315242767334
1526,76600.0,-3.771466255187988,-1.569997787475586,8.462904930114746
1527,76700.0,-3.771466255187988,-1.569997787475586,8.462904930114746
1528,76800.0,-3.7439329624176025,-1.5831658840179443,8.473079681396483
1529,76900.0,-3.7439329624176025,-1.5831658840179443,8.473079681396483
1530,77000.0,-3.7505168914794917,-1.5652093887329102,8.481459617614746
1531,77100.0,-3.7505168914794917,-1.5652093887329102,8.481459617614746
1532,77200.0,-3.78104305267334,-1.569997787475586,8.450334548950195
1533,77300.0,-3.75291109085083,-1.544858694076538,8.492233276367188
1534,77400.0,-3.75291109085083,-1.544858694076538,8.492233276367188
1535,77500.0,-3.7211880683898926,-1.5598224401474,8.474875450134277
1536,77600.0,-3.7211880683898926,-1.5598224401474,8.474875450134277
1537,77700.0,-3.7439329624176025,-1.5406688451766968,8.458714485168457
1538,77800.0,-3.7439329624176025,-1.5406688451766968,8.458714485168457
1539,77900.0,-3.755903959274292,-1.599326729774475,8.447341918945312
1540,78000.0,-3.755903959274292,-1.599326729774475,8.447341918945312
1541,78100.0,-3.78104305267334,-1.5819687843322754,8.492233276367188
1542,78200.0,-3.733159065246582,-1.5382746458053589,8.485051155090332
1543,78300.0,-3.733159065246582,-1.5382746458053589,8.485051155090332
1544,78400.0,-3.782240152359009,-1.5245078802108765,8.500613212585451
1545,78500.0,-3.782240152359009,-1.5245078802108765,8.500613212585451
1546,78600.0,-3.7690720558166495,-1.6352397203445437,8.493430137634277
1547,78700.0,-3.7690720558166495,-1.6352397203445437,8.493430137634277
1548,78800.0,-3.774458885192871,-1.499967336654663,8.517971038818361
1549,78900.0,-3.774458885192871,-1.499967336654663,8.517971038818361
1550,79000.0,-3.7684733867645264,-1.5269020795822144,8.506598472595215
1551,79100.0,-3.6098575592041016,-1.498770236968994,8.537124633789062
1552,79200.0,-3.6098575592041016,-1.498770236968994,8.537124633789062
1553,79300.0,-3.87740969657898,-1.5544354915618896,8.473079681396483
1554,79400.0,-3.87740969657898,-1.5544354915618896,8.473079681396483
1555,79500.0,-3.705027103424072,-1.5257049798965454,8.480262756347656
1556,79600.0,-3.705027103424072,-1.5257049798965454,8.480262756347656
1557,79700.0,-3.8157589435577393,-1.5310919284820557,8.474276542663574
1558,79800.0,-3.8157589435577393,-1.5310919284820557,8.474276542663574
1559,79900.0,-3.732560396194458,-1.5245078802108765,8.503605842590332
1560,78000.0,-3.755903959274292,-1.599326729774475,8.447341918945312
1561,78100.0,-3.78104305267334,-1.5819687843322754,8.492233276367188
1562,78200.0,-3.733159065246582,-1.5382746458053589,8.485051155090332
1563,78300.0,-3.733159065246582,-1.5382746458053589,8.485051155090332
1564,78400.0,-3.782240152359009,-1.5245078802108765,8.500613212585451
1565,78500.0,-3.782240152359009,-1.5245078802108765,8.500613212585451
1566,78600.0,-3.7690720558166495,-1.6352397203445437,8.493430137634277
1567,78700.0,-3.7690720558166495,-1.6352397203445437,8.493430137634277
1568,78800.0,-3.774458885192871,-1.499967336654663,8.517971038818361
1569,78900.0,-3.774458885192871,-1.499967336654663,8.517971038818361
1570,79000.0,-3.7684733867645264,-1.5269020795822144,8.506598472595215
1571,79100.0,-3.6098575592041016,-1.498770236968994,8.537124633789062
1572,79200.0,-3.6098575592041016,-1.498770236968994,8.537124633789062
1573,79300.0,-3.87740969657898,-1.5544354915618896,8.473079681396483
1574,79400.0,-3.87740969657898,-1.5544354915618896,8.473079681396483
1575,79500.0,-3.705027103424072,-1.5257049798965454,8.480262756347656
1576,79600.0,-3.705027103424072,-1.5257049798965454,8.480262756347656
1577,79700.0,-3.8157589435577393,-1.5310919284820557,8.474276542663574
1578,79800.0,-3.8157589435577393,-1.5310919284820557,8.474276542663574
1579,79900.0,-3.732560396194458,-1.5245078802108765,8.503605842590332
1580,80000.0,-3.764283657073975,-1.5125368833541868,8.493430137634277
1581,80100.0,-3.764283657073975,-1.5125368833541868,8.493430137634277
1582,80200.0,-3.7409400939941406,-1.4706383943557741,8.491036415100098
1583,80300.0,-3.7409400939941406,-1.4706383943557741,8.491036415100098
1584,80400.0,-3.8827965259552,-1.5412673950195312,8.449137687683105
1585,80500.0,-3.8827965259552,-1.5412673950195312,8.449137687683105
1586,80600.0,-3.80378794670105,-1.4772224426269531,8.497620582580566
1587,80700.0,-3.80378794670105,-1.4772224426269531,8.497620582580566
1588,80800.0,-3.6493618488311768,-1.5538369417190552,8.522759437561035
1589,80900.0,-3.6493618488311768,-1.5538369417190552,8.522759437561035
1590,81000.0,-3.897161722183228,-1.499967336654663,8.406641006469728
1591,81100.0,-3.779247283935547,-1.620874524116516,8.485649108886719
1592,81200.0,-3.779247283935547,-1.620874524116516,8.485649108886719
1593,81300.0,-3.774458885192871,-1.6364368200302124,8.474276542663574
1594,81400.0,-3.774458885192871,-1.6364368200302124,8.474276542663574
1595,81500.0,-3.7690720558166495,-1.5041571855545044,8.485051155090332
1596,81600.0,-3.7690720558166495,-1.5041571855545044,8.485051155090332
1597,81700.0,-3.709217071533203,-1.5167267322540283,8.517971038818361
1598,81800.0,-3.709217071533203,-1.5167267322540283,8.517971038818361
1599,81900.0,-3.457227230072021,-1.3287819623947144,8.358158111572267
1600,80000.0,-3.764283657073975,-1.5125368833541868,8.493430137634277
1601,80100.0,-3.764283657073975,-1.5125368833541868,8.493430137634277
1602,80200.0,-3.7409400939941406,-1.4706383943557741,8.491036415100098
1603,80300.0,-3.7409400939941406,-1.4706383943557741,8.491036415100098
1604,80400.0,-3.8827965259552,-1.5412673950195312,8.449137687683105
1605,80500.0,-3.8827965259552,-1.5412673950195312,8.449137687683105
1606,80600.0,-3.80378794670105,-1.4772224426269531,8.497620582580566
1607,80700.0,-3.80378794670105,-1.4772224426269531,8.497620582580566
1608,80800.0,-3.6493618488311768,-1.5538369417190552,8.522759437561035
1609,80900.0,-3.6493618488311768,-1.5538369417190552,8.522759437561035
1610,81000.0,-3.897161722183228,-1.499967336654663,8.406641006469728
1611,81100.0,-3.779247283935547,-1.620874524116516,8.485649108886719
1612,81200.0,-3.779247283935547,-1.620874524116516,8.485649108886719
1613,81300.0,-3.774458885192871,-1.6364368200302124,8.474276542663574
1614,81400.0,-3.774458885192871,-1.6364368200302124,8.474276542663574
1615,81500.0,-3.7690720558166495,-1.5041571855545044,8.485051155090332
1616,81600.0,-3.7690720558166495,-1.5041571855545044,8.485051155090332
1617,81700.0,-3.709217071533203,-1.5167267322540283,8.517971038818361
1618,81800.0,-3.709217071533203,-1.5167267322540283,8.517971038818361
1619,81900.0,-3.457227230072021,-1.3287819623947144,8.358158111572267
1620,82000.0,-4.0108861923217765,-1.7980455160140991,8.47786808013916
1621,82100.0,-4.0108861923217765,-1.7980455160140991,8.47786808013916
1622,82200.0,-3.633799552917481,-1.4185645580291748,8.530540466308594
1623,82300.0,-3.633799552917481,-1.4185645580291748,8.530540466308594
1624,82400.0,-3.827131509780884,-1.4389152526855469,8.480860710144043
1625,82500.0,-3.827131509780884,-1.4389152526855469,8.480860710144043
1626,82600.0,-3.886387825012207,-1.3527239561080933,8.465897560119629
1627,82700.0,-3.886387825012207,-1.3527239561080933,8.465897560119629
1628,82800.0,-3.8911762237548833,-1.3365631103515625,8.462306022644043
1629,82900.0,-3.86005163192749,-1.2862848043441772,8.472481727600098
1630,83000.0,-3.86005163192749,-1.2862848043441772,8.472481727600098
1631,83100.0,-3.94444727897644,-1.5604209899902344,8.486846923828125
1632,83200.0,-3.94444727897644,-1.5604209899902344,8.486846923828125
1633,83300.0,-3.725976467132568,-1.450287699699402,8.514379501342772
1634,83400.0,-3.725976467132568,-1.450287699699402,8.514379501342772
1635,83500.0,-3.889380693435669,-1.3150153160095217,8.484452247619629
1636,83600.0,-3.889380693435669,-1.3150153160095217,8.484452247619629
1637,83700.0,-3.746925592422485,-1.4508862495422363,8.537124633789062
1638,83800.0,-3.930680751800537,-1.273715257644653,8.471882820129395
1639,83900.0,-3.930680751800537,-1.273715257644653,8.471882820129395
1640,82000.0,-4.0108861923217765,-1.7980455160140991,8.47786808013916
1641,82100.0,-4.0108861923217765,-1.7980455160140991,8.47786808013916
1642,82200.0,-3.633799552917481,-1.4185645580291748,8.530540466308594
1643,82300.0,-3.633799552917481,-1.4185645580291748,8.530540466308594
1644,82400.0,-3.827131509780884,-1.4389152526855469,8.480860710144043
1645,82500.0,-3.827131509780884,-1.4389152526855469,8.480860710144043
1646,82600.0,-3.886387825012207,-1.3527239561080933,8.465897560119629
1647,82700.0,-3.886387825012207,-1.3527239561080933,8.465897560119629
1648,82800.0,-3.8911762237548833,-1.3365631103515625,8.462306022644043
1649,82900.0,-3.86005163192749,-1.2862848043441772,8.472481727600098
1650,83000.0,-3.86005163192749,-1.2862848043441772,8.472481727600098
1651,83100.0,-3.94444727897644,-1.5604209899902344,8.486846923828125
1652,83200.0,-3.94444727897644,-1.5604209899902344,8.486846923828125
1653,83300.0,-3.725976467132568,-1.450287699699402,8.514379501342772
1654,83400.0,-3.725976467132568,-1.450287699699402,8.514379501342772
1655,83500.0,-3.889380693435669,-1.3150153160095217,8.484452247619629
1656,83600.0,-3.889380693435669,-1.3150153160095217,8.484452247619629
1657,83700.0,-3.746925592422485,-1.4508862495422363,8.537124633789062
1658,83800.0,-3.930680751800537,-1.273715257644653,8.471882820129395
1659,83900.0,-3.930680751800537,-1.273715257644653,8.471882820129395
1660,84000.0,-3.9324762821197514,-1.5705963373184204,8.501810073852539
1661,84100.0,-3.9324762821197514,-1.5705963373184204,8.501810073852539
1662,84200.0,-3.7954082489013667,-1.2958617210388184,8.422203063964844
1663,84300.0,-3.7954082489013667,-1.2958617210388184,8.422203063964844
1664,84400.0,-3.830124139785767,-1.429338455200195,8.47547435760498
1665,84500.0,-3.830124139785767,-1.429338455200195,8.47547435760498
1666,84600.0,-3.7535097599029537,-1.5795745849609375,8.485649108886719
1667,84700.0,-3.842095136642456,-1.4024035930633545,8.494627952575684
1668,84800.0,-3.842095136642456,-1.4024035930633545,8.494627952575684
1669,84900.0,-3.794809579849243,-1.33357036113739,8.511386871337889
1670,85000.0,-3.794809579849243,-1.33357036113739,8.511386871337889
1671,85100.0,-3.760692358016968,-1.1426327228546145,8.498218536376951
1672,85200.0,-3.760692358016968,-1.1426327228546145,8.498218536376951
1673,85300.0,-3.88818359375,-1.432929754257202,8.546701431274414
1674,85400.0,-3.88818359375,-1.432929754257202,8.546701431274414
1675,85500.0,-3.7487213611602783,-1.5185223817825315,8.346187591552733
1676,85600.0,-3.5691561698913574,-1.2108675241470337,8.540716171264647
1677,85700.0,-3.5691561698913574,-1.2108675241470337,8.540716171264647
1678,85800.0,-3.93906044960022,-1.7322049140930176,8.496423721313478
1679,85900.0,-3.93906044960022,-1.7322049140930176,8.496423721313478
1680,84000.0,-3.9324762821197514,-1.5705963373184204,8.501810073852539
1681,84100.0,-3.9324762821197514,-1.5705963373184204,8.501810073852539
1682,84200.0,-3.7954082489013667,-1.2958617210388184,8.422203063964844
1683,84300.0,-3.7954082489013667,-1.2958617210388184,8.422203063964844
1684,84400.0,-3.830124139785767,-1.429338455200195,8.47547435760498
1685,84500.0,-3.830124139785767,-1.429338455200195,8.47547435760498
1686,84600.0,-3.7535097599029537,-1.5795745849609375,8.485649108886719
1687,84700.0,-3.842095136642456,-1.4024035930633545,8.494627952575684
1688,84800.0,-3.842095136642456,-1.4024035930633545,8.494627952575684
1689,84900.0,-3.794809579849243,-1.33357036113739,8.511386871337889
1690,85000.0,-3.794809579849243,-1.33357036113739,8.511386871337889
1691,85100.0,-3.760692358016968,-1.1426327228546145,8.498218536376951
1692,85200.0,-3.760692358016968,-1.1426327228546145,8.498218536376951
1693,85300.0,-3.88818359375,-1.432929754257202,8.546701431274414
1694,85400.0,-3.88818359375,-1.432929754257202,8.546701431274414
1695,85500.0,-3.7487213611602783,-1.5185223817825315,8.346187591552733
1696,85600.0,-3.5691561698913574,-1.2108675241470337,8.540716171264647
1697,85700.0,-3.5691561698913574,-1.2108675241470337,8.540716171264647
1698,85800.0,-3.93906044960022,-1.7322049140930176,8.496423721313478
1699,85900.0,-3.93906044960022,-1.7322049140930176,8.496423721313478
1700,86000.0,-3.7169981002807617,-1.3491326570510864,8.491036415100098
1701,86100.0,-3.7169981002807617,-1.3491326570510864,8.491036415100098
1702,86200.0,-3.7415387630462646,-1.4167689085006714,8.540117263793945
1703,86300.0,-3.7415387630462646,-1.4167689085006714,8.540117263793945
1704,86400.0,-3.83191990852356,-1.5298948287963867,8.505401611328125
1705,86500.0,-3.6308069229125977,-1.4395138025283811,8.519766807556152
1706,86600.0,-3.6308069229125977,-1.4395138025283811,8.519766807556152
1707,86700.0,-3.8091750144958496,-1.4850035905838013,8.519766807556152
1708,86800.0,-3.8091750144958496,-1.4850035905838013,8.519766807556152
1709,86900.0,-3.728370666503906,-1.3976151943206787,8.538920402526855
1710,87000.0,-3.728370666503906,-1.3976151943206787,8.538920402526855
1711,87100.0,-3.7229835987091056,-1.45806884765625,8.524555206298826
1712,87200.0,-3.7229835987091056,-1.45806884765625,8.524555206298826
1713,87300.0,-3.7636849880218506,-1.436521053314209,8.508394241333008
1714,87400.0,-3.727173566818237,-1.4299370050430298,8.507197380065918
1715,87500.0,-3.727173566818237,-1.4299370050430298,8.507197380065918
1716,87600.0,-3.727173566818237,-1.4299370050430298,8.507197380065918
1717,87700.0,-3.760093688964844,-1.429338455200195,8.527547836303711
1718,87800.0,-3.806780815124512,-1.4311341047286987,8.506598472595215
1719,87900.0,-3.806780815124512,-1.4311341047286987,8.506598472595215
1720,86000.0,-3.7169981002807617,-1.3491326570510864,8.491036415100098
1721,86100.0,-3.7169981002807617,-1.3491326570510864,8.491036415100098
1722,86200.0,-3.7415387630462646,-1.4167689085006714,8.540117263793945
1723,86300.0,-3.7415387630462646,-1.4167689085006714,8.540117263793945
1724,86400.0,-3.83191990852356,-1.5298948287963867,8.505401611328125
1725,86500.0,-3.6308069229125977,-1.4395138025283811,8.519766807556152
1726,86600.0,-3.6308069229125977,-1.4395138025283811,8.519766807556152
1727,86700.0,-3.8091750144958496,-1.4850035905838013,8.519766807556152
1728,86800.0,-3.8091750144958496,-1.4850035905838013,8.519766807556152
1729,86900.0,-3.728370666503906,-1.3976151943206787,8.538920402526855
1730,87000.0,-3.728370666503906,-1.3976151943206787,8.538920402526855
1731,87100.0,-3.7229835987091056,-1.45806884765625,8.524555206298826
1732,87200.0,-3.7229835987091056,-1.45806884765625,8.524555206298826
