,timestamp,ax,ay,az
0,7000.0,8.848658561706543,3.5676987171173096,-1.4907284975051882
1,7100.0,8.848658561706543,3.5676987171173096,-1.4907284975051882
2,7200.0,8.848658561706543,3.5676987171173096,-1.4907284975051882
3,7300.0,8.848658561706543,3.5676987171173096,-1.4907284975051882
4,7400.0,12.973884582519533,2.888136863708496,-2.352144718170166
5,7500.0,12.973884582519533,2.888136863708496,-2.352144718170166
6,7600.0,12.973884582519533,2.888136863708496,-2.352144718170166
7,7700.0,9.839285850524902,-0.5335994362831116,-0.82791668176651
8,7800.0,9.839285850524902,-0.5335994362831116,-0.82791668176651
9,7900.0,8.02074146270752,2.53399920463562,-1.2490534782409668
10,8000.0,8.02074146270752,2.53399920463562,-1.2490534782409668
11,8100.0,8.815157890319824,3.146562099456787,-1.8783657550811768
12,8200.0,8.815157890319824,3.146562099456787,-1.8783657550811768
13,8300.0,8.48016357421875,3.3164520263671875,-1.4620146751403809
14,8400.0,8.48016357421875,3.3164520263671875,-1.4620146751403809
15,8500.0,8.48016357421875,3.3164520263671875,-1.4620146751403809
16,8600.0,9.073582649230957,0.9308080077171326,-0.4666004180908203
17,8700.0,9.073582649230957,0.9308080077171326,-0.4666004180908203
18,8800.0,10.164710998535156,2.857030153274536,-0.1052841916680336
19,8900.0,10.164710998535156,2.857030153274536,-0.1052841916680336
20,8000.0,8.02074146270752,2.53399920463562,-1.2490534782409668
21,8100.0,8.815157890319824,3.146562099456787,-1.8783657550811768
22,8200.0,8.815157890319824,3.146562099456787,-1.8783657550811768
23,8300.0,8.48016357421875,3.3164520263671875,-1.4620146751403809
24,8400.0,8.48016357421875,3.3164520263671875,-1.4620146751403809
25,8500.0,8.48016357421875,3.3164520263671875,-1.4620146751403809
26,8600.0,9.073582649230957,0.9308080077171326,-0.4666004180908203
27,8700.0,9.073582649230957,0.9308080077171326,-0.4666004180908203
28,8800.0,10.164710998535156,2.857030153274536,-0.1052841916680336
29,8900.0,10.164710998535156,2.857030153274536,-0.1052841916680336
30,9000.0,10.164710998535156,2.857030153274536,-0.1052841916680336
31,9100.0,8.288737297058105,3.414557933807373,-1.7730815410614014
32,9200.0,8.288737297058105,3.414557933807373,-1.7730815410614014
33,9300.0,9.781858444213867,2.723031997680664,-2.1224336624145512
34,9400.0,9.781858444213867,2.723031997680664,-2.1224336624145512
35,9500.0,10.447062492370604,2.2612173557281494,-2.132004976272583
36,9600.0,10.447062492370604,2.2612173557281494,-2.132004976272583
37,9700.0,10.447062492370604,2.2612173557281494,-2.132004976272583
38,9800.0,8.322237014770508,1.9477576017379759,-1.423729419708252
39,9900.0,8.322237014770508,1.9477576017379759,-1.423729419708252
40,9000.0,10.164710998535156,2.857030153274536,-0.1052841916680336
41,9100.0,8.288737297058105,3.414557933807373,-1.7730815410614014
42,9200.0,8.288737297058105,3.414557933807373,-1.7730815410614014
43,9300.0,9.781858444213867,2.723031997680664,-2.1224336624145512
44,9400.0,9.781858444213867,2.723031997680664,-2.1224336624145512
45,9500.0,10.447062492370604,2.2612173557281494,-2.132004976272583
46,9600.0,10.447062492370604,2.2612173557281494,-2.132004976272583
47,9700.0,10.447062492370604,2.2612173557281494,-2.132004976272583
48,9800.0,8.322237014770508,1.9477576017379759,-1.423729419708252
49,9900.0,8.322237014770508,1.9477576017379759,-1.423729419708252
50,10000.0,8.307880401611326,2.2827527523040767,-2.0889341831207275
51,10100.0,8.307880401611326,2.2827527523040767,-2.0889341831207275
52,10200.0,8.307880401611326,2.2827527523040767,-2.0889341831207275
53,10300.0,12.150753021240234,3.3332018852233887,-3.0269205570220947
54,10400.0,12.150753021240234,3.3332018852233887,-3.0269205570220947
55,10500.0,8.877371788024902,3.615554809570313,-1.8520447015762331
56,10600.0,8.877371788024902,3.615554809570313,-1.8520447015762331
57,10700.0,8.097311973571777,2.0147566795349117,-1.526620864868164
58,10800.0,8.097311973571777,2.0147566795349117,-1.526620864868164
59,10900.0,8.666803359985353,4.185047149658203,-0.3852444589138031
60,10000.0,8.307880401611326,2.2827527523040767,-2.0889341831207275
61,10100.0,8.307880401611326,2.2827527523040767,-2.0889341831207275
62,10200.0,8.307880401611326,2.2827527523040767,-2.0889341831207275
63,10300.0,12.150753021240234,3.3332018852233887,-3.0269205570220947
64,10400.0,12.150753021240234,3.3332018852233887,-3.0269205570220947
65,10500.0,8.877371788024902,3.615554809570313,-1.8520447015762331
66,10600.0,8.877371788024902,3.615554809570313,-1.8520447015762331
67,10700.0,8.097311973571777,2.0147566795349117,-1.526620864868164
68,10800.0,8.097311973571777,2.0147566795349117,-1.526620864868164
69,10900.0,8.666803359985353,4.185047149658203,-0.3852444589138031
70,11000.0,8.666803359985353,4.185047149658203,-0.3852444589138031
71,11100.0,9.60478973388672,4.962714195251465,-1.9286150932312007
72,11200.0,9.60478973388672,4.962714195251465,-1.9286150932312007
73,11300.0,9.60478973388672,4.962714195251465,-1.9286150932312007
74,11400.0,7.623533248901367,2.249253273010254,-1.6869399547576904
75,11500.0,7.623533248901367,2.249253273010254,-1.6869399547576904
76,11600.0,6.594619274139403,2.919243574142456,-1.043270707130432
77,11700.0,6.594619274139403,2.919243574142456,-1.043270707130432
78,11800.0,9.207581520080566,2.560320377349853,-2.8139593601226807
79,11900.0,9.207581520080566,2.560320377349853,-2.8139593601226807
80,11000.0,8.666803359985353,4.185047149658203,-0.3852444589138031
81,11100.0,9.60478973388672,4.962714195251465,-1.9286150932312007
82,11200.0,9.60478973388672,4.962714195251465,-1.9286150932312007
83,11300.0,9.60478973388672,4.962714195251465,-1.9286150932312007
84,11400.0,7.623533248901367,2.249253273010254,-1.6869399547576904
85,11500.0,7.623533248901367,2.249253273010254,-1.6869399547576904
86,11600.0,6.594619274139403,2.919243574142456,-1.043270707130432
87,11700.0,6.594619274139403,2.919243574142456,-1.043270707130432
88,11800.0,9.207581520080566,2.560320377349853,-2.8139593601226807
89,11900.0,9.207581520080566,2.560320377349853,-2.8139593601226807
90,12000.0,9.207581520080566,2.560320377349853,-2.8139593601226807
91,12100.0,12.69153118133545,2.1607186794281006,-3.2614171504974365
92,12200.0,12.69153118133545,2.1607186794281006,-3.2614171504974365
93,12300.0,8.685946464538574,2.203789472579956,-1.0887343883514404
94,12400.0,8.685946464538574,2.203789472579956,-1.0887343883514404
95,12500.0,8.001599311828612,2.366501569747925,-0.9044869542121888
96,12600.0,8.001599311828612,2.366501569747925,-0.9044869542121888
97,12700.0,8.001599311828612,2.366501569747925,-0.9044869542121888
98,12800.0,11.916255950927734,2.258824586868286,-3.1441688537597656
99,12900.0,11.916255950927734,2.258824586868286,-3.1441688537597656
100,12000.0,9.207581520080566,2.560320377349853,-2.8139593601226807
101,12100.0,12.69153118133545,2.1607186794281006,-3.2614171504974365
102,12200.0,12.69153118133545,2.1607186794281006,-3.2614171504974365
103,12300.0,8.685946464538574,2.203789472579956,-1.0887343883514404
104,12400.0,8.685946464538574,2.203789472579956,-1.0887343883514404
105,12500.0,8.001599311828612,2.366501569747925,-0.9044869542121888
106,12600.0,8.001599311828612,2.366501569747925,-0.9044869542121888
107,12700.0,8.001599311828612,2.366501569747925,-0.9044869542121888
108,12800.0,11.916255950927734,2.258824586868286,-3.1441688537597656
109,12900.0,11.916255950927734,2.258824586868286,-3.1441688537597656
110,13000.0,5.838487148284912,1.442872166633606,-2.84506630897522
111,13100.0,5.838487148284912,1.442872166633606,-2.84506630897522
112,13200.0,5.838487148284912,1.442872166633606,-2.84506630897522
113,13300.0,7.39860725402832,3.0771698951721187,-1.2681961059570312
114,13400.0,7.39860725402832,3.0771698951721187,-1.2681961059570312
115,13500.0,8.71466064453125,3.6681969165802,-3.486342430114746
116,13600.0,8.71466064453125,3.6681969165802,-3.486342430114746
117,13700.0,14.194223403930664,3.9720854759216313,-2.5914268493652344
118,13800.0,14.194223403930664,3.9720854759216313,-2.5914268493652344
119,13900.0,8.145168304443361,2.885744333267212,-0.906879723072052
120,13000.0,5.838487148284912,1.442872166633606,-2.84506630897522
121,13100.0,5.838487148284912,1.442872166633606,-2.84506630897522
122,13200.0,5.838487148284912,1.442872166633606,-2.84506630897522
123,13300.0,7.39860725402832,3.0771698951721187,-1.2681961059570312
124,13400.0,7.39860725402832,3.0771698951721187,-1.2681961059570312
125,13500.0,8.71466064453125,3.6681969165802,-3.486342430114746
126,13600.0,8.71466064453125,3.6681969165802,-3.486342430114746
127,13700.0,14.194223403930664,3.9720854759216313,-2.5914268493652344
128,13800.0,14.194223403930664,3.9720854759216313,-2.5914268493652344
129,13900.0,8.145168304443361,2.885744333267212,-0.906879723072052
130,14000.0,8.145168304443361,2.885744333267212,-0.906879723072052
131,14100.0,7.6522464752197275,2.6057839393615723,-0.8207381367683411
132,14200.0,7.6522464752197275,2.6057839393615723,-0.8207381367683411
133,14300.0,8.97787094116211,3.7184462547302246,-1.6079767942428589
134,14400.0,8.97787094116211,3.7184462547302246,-1.6079767942428589
135,14500.0,8.97787094116211,3.7184462547302246,-1.6079767942428589
136,14600.0,9.236295700073242,3.603590488433838,-2.218146562576294
137,14700.0,9.236295700073242,3.603590488433838,-2.218146562576294
138,14800.0,12.725030899047852,-0.6173481941223145,-1.6701902151107788
139,14900.0,12.725030899047852,-0.6173481941223145,-1.6701902151107788
140,14000.0,8.145168304443361,2.885744333267212,-0.906879723072052
141,14100.0,7.6522464752197275,2.6057839393615723,-0.8207381367683411
142,14200.0,7.6522464752197275,2.6057839393615723,-0.8207381367683411
143,14300.0,8.97787094116211,3.7184462547302246,-1.6079767942428589
144,14400.0,8.97787094116211,3.7184462547302246,-1.6079767942428589
145,14500.0,8.97787094116211,3.7184462547302246,-1.6079767942428589
146,14600.0,9.236295700073242,3.603590488433838,-2.218146562576294
147,14700.0,9.236295700073242,3.603590488433838,-2.218146562576294
148,14800.0,12.725030899047852,-0.6173481941223145,-1.6701902151107788
149,14900.0,12.725030899047852,-0.6173481941223145,-1.6701902151107788
150,15000.0,12.725030899047852,-0.6173481941223145,-1.6701902151107788
151,15100.0,6.886543273925781,1.557727575302124,-1.916650891304016
152,15200.0,6.886543273925781,1.557727575302124,-1.916650891304016
153,15300.0,8.97787094116211,2.3736801147460938,-3.292524099349976
154,15400.0,8.97787094116211,2.3736801147460938,-3.292524099349976
155,15500.0,10.753345489501953,3.1441688537597656,-2.5986053943634038
156,15600.0,10.753345489501953,3.1441688537597656,-2.5986053943634038
157,15700.0,7.99681282043457,2.390429735183716,-0.9116654396057128
158,15800.0,7.99681282043457,2.390429735183716,-0.9116654396057128
159,15900.0,7.99681282043457,2.390429735183716,-0.9116654396057128
160,15000.0,12.725030899047852,-0.6173481941223145,-1.6701902151107788
161,15100.0,6.886543273925781,1.557727575302124,-1.916650891304016
162,15200.0,6.886543273925781,1.557727575302124,-1.916650891304016
163,15300.0,8.97787094116211,2.3736801147460938,-3.292524099349976
164,15400.0,8.97787094116211,2.3736801147460938,-3.292524099349976
165,15500.0,10.753345489501953,3.1441688537597656,-2.5986053943634038
166,15600.0,10.753345489501953,3.1441688537597656,-2.5986053943634038
167,15700.0,7.99681282043457,2.390429735183716,-0.9116654396057128
168,15800.0,7.99681282043457,2.390429735183716,-0.9116654396057128
169,15900.0,7.99681282043457,2.390429735183716,-0.9116654396057128
170,16000.0,7.518248558044434,1.902293920516968,-0.8685945868492126
171,16100.0,7.518248558044434,1.902293920516968,-0.8685945868492126
172,16200.0,8.551947593688965,2.7661027908325195,-1.4644075632095337
173,16300.0,8.551947593688965,2.7661027908325195,-1.4644075632095337
174,16400.0,8.551947593688965,2.7661027908325195,-1.4644075632095337
175,16500.0,13.50987720489502,3.1752755641937256,-2.8354949951171875
176,16600.0,13.50987720489502,3.1752755641937256,-2.8354949951171875
177,16700.0,8.901299476623535,-0.3828516006469727,-0.7226324081420898
178,16800.0,8.901299476623535,-0.3828516006469727,-0.7226324081420898
179,16900.0,7.326822757720947,2.531606435775757,-1.026520848274231
180,16000.0,7.518248558044434,1.902293920516968,-0.8685945868492126
181,16100.0,7.518248558044434,1.902293920516968,-0.8685945868492126
182,16200.0,8.551947593688965,2.7661027908325195,-1.4644075632095337
183,16300.0,8.551947593688965,2.7661027908325195,-1.4644075632095337
184,16400.0,8.551947593688965,2.7661027908325195,-1.4644075632095337
185,16500.0,13.50987720489502,3.1752755641937256,-2.8354949951171875
186,16600.0,13.50987720489502,3.1752755641937256,-2.8354949951171875
187,16700.0,8.901299476623535,-0.3828516006469727,-0.7226324081420898
188,16800.0,8.901299476623535,-0.3828516006469727,-0.7226324081420898
189,16900.0,7.326822757720947,2.531606435775757,-1.026520848274231
190,17000.0,7.326822757720947,2.531606435775757,-1.026520848274231
191,17100.0,8.925228118896484,3.160918712615967,-2.3569302558898926
192,17200.0,8.925228118896484,3.160918712615967,-2.3569302558898926
193,17300.0,8.925228118896484,3.160918712615967,-2.3569302558898926
194,17400.0,9.126225471496582,2.8833510875701904,-1.983649969100952
195,17500.0,9.126225471496582,2.8833510875701904,-1.983649969100952
196,17600.0,11.184053421020508,2.5555346012115483,-2.4741785526275635
197,17700.0,11.184053421020508,2.5555346012115483,-2.4741785526275635
198,17800.0,11.184053421020508,2.5555346012115483,-2.4741785526275635
199,17900.0,10.04985523223877,3.3738799095153813,-0.2703889608383179
200,17000.0,7.326822757720947,2.531606435775757,-1.026520848274231
201,17100.0,8.925228118896484,3.160918712615967,-2.3569302558898926
202,17200.0,8.925228118896484,3.160918712615967,-2.3569302558898926
203,17300.0,8.925228118896484,3.160918712615967,-2.3569302558898926
204,17400.0,9.126225471496582,2.8833510875701904,-1.983649969100952
205,17500.0,9.126225471496582,2.8833510875701904,-1.983649969100952
206,17600.0,11.184053421020508,2.5555346012115483,-2.4741785526275635
207,17700.0,11.184053421020508,2.5555346012115483,-2.4741785526275635
208,17800.0,11.184053421020508,2.5555346012115483,-2.4741785526275635
209,17900.0,10.04985523223877,3.3738799095153813,-0.2703889608383179
210,18000.0,10.04985523223877,3.3738799095153813,-0.2703889608383179
211,18100.0,8.427520751953125,3.433700561523437,-0.9044869542121888
212,18200.0,8.427520751953125,3.433700561523437,-0.9044869542121888
213,18300.0,9.518648147583008,3.081955671310425,-2.9216365814208984
214,18400.0,9.518648147583008,3.081955671310425,-2.9216365814208984
215,18500.0,10.600205421447754,2.8402805328369136,-1.868794322013855
216,18600.0,10.600205421447754,2.8402805328369136,-1.868794322013855
217,18700.0,10.600205421447754,2.8402805328369136,-1.868794322013855
218,18800.0,9.906286239624023,1.9046868085861208,-2.4287149906158447
219,18900.0,9.906286239624023,1.9046868085861208,-2.4287149906158447
220,18000.0,10.04985523223877,3.3738799095153813,-0.2703889608383179
221,18100.0,8.427520751953125,3.433700561523437,-0.9044869542121888
222,18200.0,8.427520751953125,3.433700561523437,-0.9044869542121888
223,18300.0,9.518648147583008,3.081955671310425,-2.9216365814208984
224,18400.0,9.518648147583008,3.081955671310425,-2.9216365814208984
225,18500.0,10.600205421447754,2.8402805328369136,-1.868794322013855
226,18600.0,10.600205421447754,2.8402805328369136,-1.868794322013855
227,18700.0,10.600205421447754,2.8402805328369136,-1.868794322013855
228,18800.0,9.906286239624023,1.9046868085861208,-2.4287149906158447
229,18900.0,9.906286239624023,1.9046868085861208,-2.4287149906158447
230,19000.0,9.681360244750977,2.6560330390930176,-2.3545374870300293
231,19100.0,9.681360244750977,2.6560330390930176,-2.3545374870300293
232,19200.0,9.681360244750977,2.6560330390930176,-2.3545374870300293
233,19300.0,7.403393745422362,2.4717857837677,0.057427741587162025
234,19400.0,7.403393745422362,2.4717857837677,0.057427741587162025
235,19500.0,8.805586814880371,2.0889341831207275,-0.6532405614852905
236,19600.0,8.805586814880371,2.0889341831207275,-0.6532405614852905
237,19700.0,7.0540409088134775,2.868994235992432,-0.7920243144035339
238,19800.0,7.0540409088134775,2.868994235992432,-0.7920243144035339
239,19900.0,11.322836875915527,4.005585193634033,-2.4646072387695312
240,19000.0,9.681360244750977,2.6560330390930176,-2.3545374870300293
241,19100.0,9.681360244750977,2.6560330390930176,-2.3545374870300293
242,19200.0,9.681360244750977,2.6560330390930176,-2.3545374870300293
243,19300.0,7.403393745422362,2.4717857837677,0.057427741587162025
244,19400.0,7.403393745422362,2.4717857837677,0.057427741587162025
245,19500.0,8.805586814880371,2.0889341831207275,-0.6532405614852905
246,19600.0,8.805586814880371,2.0889341831207275,-0.6532405614852905
247,19700.0,7.0540409088134775,2.868994235992432,-0.7920243144035339
248,19800.0,7.0540409088134775,2.868994235992432,-0.7920243144035339
249,19900.0,11.322836875915527,4.005585193634033,-2.4646072387695312
250,20000.0,11.322836875915527,4.005585193634033,-2.4646072387695312
251,20100.0,7.22153902053833,2.5124638080596924,-2.5746772289276123
252,20200.0,7.22153902053833,2.5124638080596924,-2.5746772289276123
253,20300.0,7.22153902053833,2.5124638080596924,-2.5746772289276123
254,20400.0,7.015756130218506,1.902293920516968,-1.8305093050003047
255,20500.0,7.015756130218506,1.902293920516968,-1.8305093050003047
256,20600.0,9.236295700073242,3.292524099349976,-2.2947168350219727
257,20700.0,9.236295700073242,3.292524099349976,-2.2947168350219727
258,20800.0,15.629916191101074,4.563112735748291,-2.878565788269043
259,20900.0,15.629916191101074,4.563112735748291,-2.878565788269043
260,20000.0,11.322836875915527,4.005585193634033,-2.4646072387695312
261,20100.0,7.22153902053833,2.5124638080596924,-2.5746772289276123
262,20200.0,7.22153902053833,2.5124638080596924,-2.5746772289276123
263,20300.0,7.22153902053833,2.5124638080596924,-2.5746772289276123
264,20400.0,7.015756130218506,1.902293920516968,-1.8305093050003047
265,20500.0,7.015756130218506,1.902293920516968,-1.8305093050003047
266,20600.0,9.236295700073242,3.292524099349976,-2.2947168350219727
267,20700.0,9.236295700073242,3.292524099349976,-2.2947168350219727
268,20800.0,15.629916191101074,4.563112735748291,-2.878565788269043
269,20900.0,15.629916191101074,4.563112735748291,-2.878565788269043
270,21000.0,7.728816509246826,2.060220241546631,-0.5479563474655151
271,21100.0,7.728816509246826,2.060220241546631,-0.5479563474655151
272,21200.0,7.728816509246826,2.060220241546631,-0.5479563474655151
273,21300.0,7.905886173248291,2.543570280075073,-0.8925228118896484
274,21400.0,7.905886173248291,2.543570280075073,-0.8925228118896484
275,21500.0,9.633503913879396,3.768695831298828,-2.3401806354522705
276,21600.0,9.633503913879396,3.768695831298828,-2.3401806354522705
277,21700.0,15.175281524658205,4.326223373413087,-2.2707886695861816
278,21800.0,15.175281524658205,4.326223373413087,-2.2707886695861816
279,21900.0,15.175281524658205,4.326223373413087,-2.2707886695861816
280,21000.0,7.728816509246826,2.060220241546631,-0.5479563474655151
281,21100.0,7.728816509246826,2.060220241546631,-0.5479563474655151
282,21200.0,7.728816509246826,2.060220241546631,-0.5479563474655151
283,21300.0,7.905886173248291,2.543570280075073,-0.8925228118896484
284,21400.0,7.905886173248291,2.543570280075073,-0.8925228118896484
285,21500.0,9.633503913879396,3.768695831298828,-2.3401806354522705
286,21600.0,9.633503913879396,3.768695831298828,-2.3401806354522705
287,21700.0,15.175281524658205,4.326223373413087,-2.2707886695861816
288,21800.0,15.175281524658205,4.326223373413087,-2.2707886695861816
289,21900.0,15.175281524658205,4.326223373413087,-2.2707886695861816
290,22000.0,8.413164138793945,2.2875385284423833,-1.902293920516968
291,22100.0,8.413164138793945,2.2875385284423833,-1.902293920516968
292,22200.0,8.317451477050781,3.742374420166016,-2.2133607864379883
293,22300.0,8.317451477050781,3.742374420166016,-2.2133607864379883
294,22400.0,7.097111701965332,3.5964124202728267,-2.1200408935546875
295,22500.0,7.097111701965332,3.5964124202728267,-2.1200408935546875
296,22600.0,10.738987922668457,2.7086753845214844,-2.610569477081299
297,22700.0,10.738987922668457,2.7086753845214844,-2.610569477081299
298,22800.0,7.661818027496338,2.706282377243042,-1.5002998113632202
299,22900.0,7.661818027496338,2.706282377243042,-1.5002998113632202
300,22000.0,8.413164138793945,2.2875385284423833,-1.902293920516968
301,22100.0,8.413164138793945,2.2875385284423833,-1.902293920516968
302,22200.0,8.317451477050781,3.742374420166016,-2.2133607864379883
303,22300.0,8.317451477050781,3.742374420166016,-2.2133607864379883
304,22400.0,7.097111701965332,3.5964124202728267,-2.1200408935546875
305,22500.0,7.097111701965332,3.5964124202728267,-2.1200408935546875
306,22600.0,10.738987922668457,2.7086753845214844,-2.610569477081299
307,22700.0,10.738987922668457,2.7086753845214844,-2.610569477081299
308,22800.0,7.661818027496338,2.706282377243042,-1.5002998113632202
309,22900.0,7.661818027496338,2.706282377243042,-1.5002998113632202
310,23000.0,7.661818027496338,2.706282377243042,-1.5002998113632202
311,23100.0,8.48016357421875,1.6055840253829956,-0.8087739944458008
312,23200.0,8.48016357421875,1.6055840253829956,-0.8087739944458008
313,23300.0,8.700303077697754,3.589233875274658,-1.2610174417495728
314,23400.0,8.700303077697754,3.589233875274658,-1.2610174417495728
315,23500.0,8.700303077697754,3.589233875274658,-1.2610174417495728
316,23600.0,9.499505043029783,4.462614059448242,-1.7036896944046018
317,23700.0,9.499505043029783,4.462614059448242,-1.7036896944046018
318,23800.0,7.671389579772949,0.8877372145652771,-2.4981069564819336
319,23900.0,7.671389579772949,0.8877372145652771,-2.4981069564819336
320,23000.0,7.661818027496338,2.706282377243042,-1.5002998113632202
321,23100.0,8.48016357421875,1.6055840253829956,-0.8087739944458008
322,23200.0,8.48016357421875,1.6055840253829956,-0.8087739944458008
323,23300.0,8.700303077697754,3.589233875274658,-1.2610174417495728
324,23400.0,8.700303077697754,3.589233875274658,-1.2610174417495728
325,23500.0,8.700303077697754,3.589233875274658,-1.2610174417495728
326,23600.0,9.499505043029783,4.462614059448242,-1.7036896944046018
327,23700.0,9.499505043029783,4.462614059448242,-1.7036896944046018
328,23800.0,7.671389579772949,0.8877372145652771,-2.4981069564819336
329,23900.0,7.671389579772949,0.8877372145652771,-2.4981069564819336
330,24000.0,6.73818826675415,2.244467735290528,-1.8305093050003047
331,24100.0,6.73818826675415,2.244467735290528,-1.8305093050003047
332,24200.0,9.30329418182373,1.636690616607666,-3.0245277881622314
333,24300.0,9.30329418182373,1.636690616607666,-3.0245277881622314
334,24400.0,8.819944381713867,2.25403904914856,-3.31166672706604
335,24500.0,8.819944381713867,2.25403904914856,-3.31166672706604
336,24600.0,12.844672203063965,2.644068956375122,-2.823530912399292
337,24700.0,12.844672203063965,2.644068956375122,-2.823530912399292
338,24800.0,12.844672203063965,2.644068956375122,-2.823530912399292
339,24900.0,8.226524353027344,2.5052852630615234,-1.4835500717163086
340,24000.0,6.73818826675415,2.244467735290528,-1.8305093050003047
341,24100.0,6.73818826675415,2.244467735290528,-1.8305093050003047
342,24200.0,9.30329418182373,1.636690616607666,-3.0245277881622314
343,24300.0,9.30329418182373,1.636690616607666,-3.0245277881622314
344,24400.0,8.819944381713867,2.25403904914856,-3.31166672706604
345,24500.0,8.819944381713867,2.25403904914856,-3.31166672706604
346,24600.0,12.844672203063965,2.644068956375122,-2.823530912399292
347,24700.0,12.844672203063965,2.644068956375122,-2.823530912399292
348,24800.0,12.844672203063965,2.644068956375122,-2.823530912399292
349,24900.0,8.226524353027344,2.5052852630615234,-1.4835500717163086
350,25000.0,8.226524353027344,2.5052852630615234,-1.4835500717163086
351,25100.0,8.609375953674316,1.959721684455872,-1.043270707130432
352,25200.0,8.609375953674316,1.959721684455872,-1.043270707130432
353,25300.0,8.24566650390625,2.8139593601226807,-1.9716858863830569
354,25400.0,8.24566650390625,2.8139593601226807,-1.9716858863830569
355,25500.0,10.451848983764648,3.38823676109314,-2.687139749526977
356,25600.0,10.451848983764648,3.38823676109314,-2.687139749526977
357,25700.0,10.451848983764648,3.38823676109314,-2.687139749526977
358,25800.0,15.562918663024902,3.115455150604248,-3.3643085956573486
359,25900.0,15.562918663024902,3.115455150604248,-3.3643085956573486
360,25000.0,8.226524353027344,2.5052852630615234,-1.4835500717163086
361,25100.0,8.609375953674316,1.959721684455872,-1.043270707130432
362,25200.0,8.609375953674316,1.959721684455872,-1.043270707130432
363,25300.0,8.24566650390625,2.8139593601226807,-1.9716858863830569
364,25400.0,8.24566650390625,2.8139593601226807,-1.9716858863830569
365,25500.0,10.451848983764648,3.38823676109314,-2.687139749526977
366,25600.0,10.451848983764648,3.38823676109314,-2.687139749526977
367,25700.0,10.451848983764648,3.38823676109314,-2.687139749526977
368,25800.0,15.562918663024902,3.115455150604248,-3.3643085956573486
369,25900.0,15.562918663024902,3.115455150604248,-3.3643085956573486
370,26000.0,9.365508079528807,1.8400806188583372,-1.4021940231323242
371,26100.0,9.365508079528807,1.8400806188583372,-1.4021940231323242
372,26200.0,7.451249599456787,2.9479575157165527,-1.1629117727279663
373,26300.0,7.451249599456787,2.9479575157165527,-1.1629117727279663
374,26400.0,6.541977405548097,5.419743537902832,-3.177668571472168
375,26500.0,6.541977405548097,5.419743537902832,-3.177668571472168
376,26600.0,6.541977405548097,5.419743537902832,-3.177668571472168
377,26700.0,7.8867435455322275,4.878964900970459,-3.0173492431640625
378,26800.0,7.8867435455322275,4.878964900970459,-3.0173492431640625
379,26900.0,14.663217544555664,4.1036906242370605,-2.7804601192474365
380,26000.0,9.365508079528807,1.8400806188583372,-1.4021940231323242
381,26100.0,9.365508079528807,1.8400806188583372,-1.4021940231323242
382,26200.0,7.451249599456787,2.9479575157165527,-1.1629117727279663
383,26300.0,7.451249599456787,2.9479575157165527,-1.1629117727279663
384,26400.0,6.541977405548097,5.419743537902832,-3.177668571472168
385,26500.0,6.541977405548097,5.419743537902832,-3.177668571472168
386,26600.0,6.541977405548097,5.419743537902832,-3.177668571472168
387,26700.0,7.8867435455322275,4.878964900970459,-3.0173492431640625
388,26800.0,7.8867435455322275,4.878964900970459,-3.0173492431640625
389,26900.0,14.663217544555664,4.1036906242370605,-2.7804601192474365
390,27000.0,14.663217544555664,4.1036906242370605,-2.7804601192474365
391,27100.0,8.47059154510498,0.39960137009620667,-0.3924228847026825
392,27200.0,8.47059154510498,0.39960137009620667,-0.3924228847026825
393,27300.0,8.322237014770508,2.833101987838745,-2.062613010406494
394,27400.0,8.322237014770508,2.833101987838745,-2.062613010406494
395,27500.0,8.906085968017578,3.201596736907959,-1.6654045581817627
396,27600.0,8.906085968017578,3.201596736907959,-1.6654045581817627
397,27700.0,9.772287368774414,2.995814085006714,-1.1988041400909424
398,27800.0,9.772287368774414,2.995814085006714,-1.1988041400909424
399,27900.0,9.772287368774414,2.995814085006714,-1.1988041400909424
400,27000.0,14.663217544555664,4.1036906242370605,-2.7804601192474365
401,27100.0,8.47059154510498,0.39960137009620667,-0.3924228847026825
402,27200.0,8.47059154510498,0.39960137009620667,-0.3924228847026825
403,27300.0,8.322237014770508,2.833101987838745,-2.062613010406494
404,27400.0,8.322237014770508,2.833101987838745,-2.062613010406494
405,27500.0,8.906085968017578,3.201596736907959,-1.6654045581817627
406,27600.0,8.906085968017578,3.201596736907959,-1.6654045581817627
407,27700.0,9.772287368774414,2.995814085006714,-1.1988041400909424
408,27800.0,9.772287368774414,2.995814085006714,-1.1988041400909424
409,27900.0,9.772287368774414,2.995814085006714,-1.1988041400909424
410,28000.0,7.3124656677246085,2.3090739250183105,-1.643869161605835
411,28100.0,7.3124656677246085,2.3090739250183105,-1.643869161605835
412,28200.0,9.150154113769533,2.407179594039917,-2.5938196182250977
413,28300.0,9.150154113769533,2.407179594039917,-2.5938196182250977
414,28400.0,9.169296264648438,2.557927370071411,-2.517249345779419
415,28500.0,9.169296264648438,2.557927370071411,-2.517249345779419
416,28600.0,8.944371223449707,2.8043880462646484,-2.2516460418701167
417,28700.0,8.944371223449707,2.8043880462646484,-2.2516460418701167
418,28800.0,8.944371223449707,2.8043880462646484,-2.2516460418701167
419,28900.0,11.672188758850098,1.1270195245742798,-2.682354211807251
420,28000.0,7.3124656677246085,2.3090739250183105,-1.643869161605835
421,28100.0,7.3124656677246085,2.3090739250183105,-1.643869161605835
422,28200.0,9.150154113769533,2.407179594039917,-2.5938196182250977
423,28300.0,9.150154113769533,2.407179594039917,-2.5938196182250977
424,28400.0,9.169296264648438,2.557927370071411,-2.517249345779419
425,28500.0,9.169296264648438,2.557927370071411,-2.517249345779419
426,28600.0,8.944371223449707,2.8043880462646484,-2.2516460418701167
427,28700.0,8.944371223449707,2.8043880462646484,-2.2516460418701167
428,28800.0,8.944371223449707,2.8043880462646484,-2.2516460418701167
429,28900.0,11.672188758850098,1.1270195245742798,-2.682354211807251
430,29000.0,11.672188758850098,1.1270195245742798,-2.682354211807251
431,29100.0,9.044869422912598,1.1341978311538696,-1.7730815410614014
432,29200.0,9.044869422912598,1.1341978311538696,-1.7730815410614014
433,29300.0,8.508876800537111,2.6081764698028564,-1.741974949836731
434,29400.0,8.508876800537111,2.6081764698028564,-1.741974949836731
435,29500.0,8.647661209106445,3.924229145050049,-1.964507341384888
436,29600.0,8.647661209106445,3.924229145050049,-1.964507341384888
437,29700.0,8.647661209106445,3.924229145050049,-1.964507341384888
438,29800.0,8.886943817138672,4.445864677429199,-1.931007981300354
439,29900.0,8.886943817138672,4.445864677429199,-1.931007981300354
440,29000.0,11.672188758850098,1.1270195245742798,-2.682354211807251
441,29100.0,9.044869422912598,1.1341978311538696,-1.7730815410614014
442,29200.0,9.044869422912598,1.1341978311538696,-1.7730815410614014
443,29300.0,8.508876800537111,2.6081764698028564,-1.741974949836731
444,29400.0,8.508876800537111,2.6081764698028564,-1.741974949836731
445,29500.0,8.647661209106445,3.924229145050049,-1.964507341384888
446,29600.0,8.647661209106445,3.924229145050049,-1.964507341384888
447,29700.0,8.647661209106445,3.924229145050049,-1.964507341384888
448,29800.0,8.886943817138672,4.445864677429199,-1.931007981300354
449,29900.0,8.886943817138672,4.445864677429199,-1.931007981300354
450,30000.0,6.62333345413208,2.337787628173828,-2.8761727809906006
451,30100.0,6.62333345413208,2.337787628173828,-2.8761727809906006
452,30200.0,6.62333345413208,2.337787628173828,-2.8761727809906006
453,30300.0,7.594818592071532,1.129412293434143,-2.100898265838623
454,30400.0,7.594818592071532,1.129412293434143,-2.100898265838623
455,30500.0,9.159724235534668,3.1657044887542725,-2.6321046352386475
456,30600.0,9.159724235534668,3.1657044887542725,-2.6321046352386475
457,30700.0,9.054441452026367,4.563112735748291,-2.943171739578247
458,30800.0,9.054441452026367,4.563112735748291,-2.943171739578247
459,30900.0,9.054441452026367,4.563112735748291,-2.943171739578247
460,30000.0,6.62333345413208,2.337787628173828,-2.8761727809906006
461,30100.0,6.62333345413208,2.337787628173828,-2.8761727809906006
462,30200.0,6.62333345413208,2.337787628173828,-2.8761727809906006
463,30300.0,7.594818592071532,1.129412293434143,-2.100898265838623
464,30400.0,7.594818592071532,1.129412293434143,-2.100898265838623
465,30500.0,9.159724235534668,3.1657044887542725,-2.6321046352386475
466,30600.0,9.159724235534668,3.1657044887542725,-2.6321046352386475
467,30700.0,9.054441452026367,4.563112735748291,-2.943171739578247
468,30800.0,9.054441452026367,4.563112735748291,-2.943171739578247
469,30900.0,9.054441452026367,4.563112735748291,-2.943171739578247
470,31000.0,9.528220176696776,4.599005222320557,-1.0552347898483276
471,31100.0,9.528220176696776,4.599005222320557,-1.0552347898483276
472,31200.0,7.661818027496338,2.9479575157165527,-1.2083754539489746
473,31300.0,7.661818027496338,2.9479575157165527,-1.2083754539489746
474,31400.0,7.661818027496338,2.9479575157165527,-1.2083754539489746
475,31500.0,8.279166221618652,2.931207656860352,-0.9978070855140686
476,31600.0,8.279166221618652,2.931207656860352,-0.9978070855140686
477,31700.0,9.681360244750977,3.94097900390625,-1.722832441329956
478,31800.0,9.681360244750977,3.94097900390625,-1.722832441329956
479,31900.0,8.800802230834961,3.665804386138916,-1.0959126949310305
480,31000.0,9.528220176696776,4.599005222320557,-1.0552347898483276
481,31100.0,9.528220176696776,4.599005222320557,-1.0552347898483276
482,31200.0,7.661818027496338,2.9479575157165527,-1.2083754539489746
483,31300.0,7.661818027496338,2.9479575157165527,-1.2083754539489746
484,31400.0,7.661818027496338,2.9479575157165527,-1.2083754539489746
485,31500.0,8.279166221618652,2.931207656860352,-0.9978070855140686
486,31600.0,8.279166221618652,2.931207656860352,-0.9978070855140686
487,31700.0,9.681360244750977,3.94097900390625,-1.722832441329956
488,31800.0,9.681360244750977,3.94097900390625,-1.722832441329956
489,31900.0,8.800802230834961,3.665804386138916,-1.0959126949310305
490,32000.0,8.800802230834961,3.665804386138916,-1.0959126949310305
491,32100.0,8.800802230834961,3.665804386138916,-1.0959126949310305
492,32200.0,12.868599891662598,2.778067111968994,-2.6943180561065674
493,32300.0,12.868599891662598,2.778067111968994,-2.6943180561065674
494,32400.0,7.3363938331604,0.014356935396790503,-1.519442439079285
495,32500.0,7.3363938331604,0.014356935396790503,-1.519442439079285
496,32600.0,7.3363938331604,0.014356935396790503,-1.519442439079285
497,32700.0,9.667003631591797,3.5294132232666016,-2.2827527523040767
498,32800.0,9.667003631591797,3.5294132232666016,-2.2827527523040767
499,32900.0,8.011170387268066,3.3092737197875977,-3.7878382205963135
500,32000.0,8.800802230834961,3.665804386138916,-1.0959126949310305
501,32100.0,8.800802230834961,3.665804386138916,-1.0959126949310305
502,32200.0,12.868599891662598,2.778067111968994,-2.6943180561065674
503,32300.0,12.868599891662598,2.778067111968994,-2.6943180561065674
504,32400.0,7.3363938331604,0.014356935396790503,-1.519442439079285
505,32500.0,7.3363938331604,0.014356935396790503,-1.519442439079285
506,32600.0,7.3363938331604,0.014356935396790503,-1.519442439079285
507,32700.0,9.667003631591797,3.5294132232666016,-2.2827527523040767
508,32800.0,9.667003631591797,3.5294132232666016,-2.2827527523040767
509,32900.0,8.011170387268066,3.3092737197875977,-3.7878382205963135
510,33000.0,8.011170387268066,3.3092737197875977,-3.7878382205963135
511,33100.0,10.80120086669922,3.2231321334838867,-2.0961124897003174
512,33200.0,10.80120086669922,3.2231321334838867,-2.0961124897003174
513,33300.0,10.80120086669922,3.2231321334838867,-2.0961124897003174
514,33400.0,8.886943817138672,1.442872166633606,-0.8781659603118896
515,33500.0,8.886943817138672,1.442872166633606,-0.8781659603118896
516,33600.0,8.446663856506348,3.0460631847381587,-1.5385849475860596
517,33700.0,8.446663856506348,3.0460631847381587,-1.5385849475860596
518,33800.0,8.446663856506348,3.0460631847381587,-1.5385849475860596
519,33900.0,8.858229637145996,4.680361270904541,-2.0195422172546387
520,33000.0,8.011170387268066,3.3092737197875977,-3.7878382205963135
521,33100.0,10.80120086669922,3.2231321334838867,-2.0961124897003174
522,33200.0,10.80120086669922,3.2231321334838867,-2.0961124897003174
523,33300.0,10.80120086669922,3.2231321334838867,-2.0961124897003174
524,33400.0,8.886943817138672,1.442872166633606,-0.8781659603118896
525,33500.0,8.886943817138672,1.442872166633606,-0.8781659603118896
526,33600.0,8.446663856506348,3.0460631847381587,-1.5385849475860596
527,33700.0,8.446663856506348,3.0460631847381587,-1.5385849475860596
528,33800.0,8.446663856506348,3.0460631847381587,-1.5385849475860596
529,33900.0,8.858229637145996,4.680361270904541,-2.0195422172546387
530,34000.0,8.858229637145996,4.680361270904541,-2.0195422172546387
531,34100.0,9.891928672790527,4.319044589996338,-1.56969153881073
532,34200.0,9.891928672790527,4.319044589996338,-1.56969153881073
533,34300.0,10.80120086669922,2.376072883605957,-1.581655740737915
534,34400.0,10.80120086669922,2.376072883605957,-1.581655740737915
535,34500.0,7.992027282714844,1.1485549211502075,-2.3784656524658203
536,34600.0,7.992027282714844,1.1485549211502075,-2.3784656524658203
537,34700.0,7.992027282714844,1.1485549211502075,-2.3784656524658203
538,34800.0,9.322437286376953,2.749353408813477,-2.2947168350219727
539,34900.0,9.322437286376953,2.749353408813477,-2.2947168350219727
540,34000.0,8.858229637145996,4.680361270904541,-2.0195422172546387
541,34100.0,9.891928672790527,4.319044589996338,-1.56969153881073
542,34200.0,9.891928672790527,4.319044589996338,-1.56969153881073
543,34300.0,10.80120086669922,2.376072883605957,-1.581655740737915
544,34400.0,10.80120086669922,2.376072883605957,-1.581655740737915
545,34500.0,7.992027282714844,1.1485549211502075,-2.3784656524658203
546,34600.0,7.992027282714844,1.1485549211502075,-2.3784656524658203
547,34700.0,7.992027282714844,1.1485549211502075,-2.3784656524658203
548,34800.0,9.322437286376953,2.749353408813477,-2.2947168350219727
549,34900.0,9.322437286376953,2.749353408813477,-2.2947168350219727
550,35000.0,8.896513938903809,2.5124638080596924,-3.0269205570220947
551,35100.0,8.896513938903809,2.5124638080596924,-3.0269205570220947
552,35200.0,8.896513938903809,2.5124638080596924,-3.0269205570220947
553,35300.0,13.5242338180542,3.5198421478271484,-2.84506630897522
554,35400.0,13.5242338180542,3.5198421478271484,-2.84506630897522
555,35500.0,8.685946464538574,2.0865414142608643,-1.031306505203247
556,35600.0,8.685946464538574,2.0865414142608643,-1.031306505203247
557,35700.0,7.22153902053833,3.366701364517212,-0.3924228847026825
558,35800.0,7.22153902053833,3.366701364517212,-0.3924228847026825
559,35900.0,8.681159973144531,3.711267709732056,-1.373480200767517
560,35000.0,8.896513938903809,2.5124638080596924,-3.0269205570220947
561,35100.0,8.896513938903809,2.5124638080596924,-3.0269205570220947
562,35200.0,8.896513938903809,2.5124638080596924,-3.0269205570220947
563,35300.0,13.5242338180542,3.5198421478271484,-2.84506630897522
564,35400.0,13.5242338180542,3.5198421478271484,-2.84506630897522
565,35500.0,8.685946464538574,2.0865414142608643,-1.031306505203247
566,35600.0,8.685946464538574,2.0865414142608643,-1.031306505203247
567,35700.0,7.22153902053833,3.366701364517212,-0.3924228847026825
568,35800.0,7.22153902053833,3.366701364517212,-0.3924228847026825
569,35900.0,8.681159973144531,3.711267709732056,-1.373480200767517
570,36000.0,8.681159973144531,3.711267709732056,-1.373480200767517
571,36100.0,8.891729354858398,4.369294166564941,-2.2061824798583984
572,36200.0,8.891729354858398,4.369294166564941,-2.2061824798583984
573,36300.0,8.891729354858398,4.369294166564941,-2.2061824798583984
574,36400.0,11.724830627441404,3.2709887027740483,-2.029113531112671
575,36500.0,11.724830627441404,3.2709887027740483,-2.029113531112671
576,36600.0,7.6522464752197275,0.17228324711322784,-1.1700903177261353
577,36700.0,7.6522464752197275,0.17228324711322784,-1.1700903177261353
578,36800.0,7.795816421508789,2.366501569747925,-1.6893328428268433
579,36900.0,7.795816421508789,2.366501569747925,-1.6893328428268433
580,36000.0,8.681159973144531,3.711267709732056,-1.373480200767517
581,36100.0,8.891729354858398,4.369294166564941,-2.2061824798583984
582,36200.0,8.891729354858398,4.369294166564941,-2.2061824798583984
583,36300.0,8.891729354858398,4.369294166564941,-2.2061824798583984
584,36400.0,11.724830627441404,3.2709887027740483,-2.029113531112671
585,36500.0,11.724830627441404,3.2709887027740483,-2.029113531112671
586,36600.0,7.6522464752197275,0.17228324711322784,-1.1700903177261353
587,36700.0,7.6522464752197275,0.17228324711322784,-1.1700903177261353
588,36800.0,7.795816421508789,2.366501569747925,-1.6893328428268433
589,36900.0,7.795816421508789,2.366501569747925,-1.6893328428268433
590,37000.0,7.795816421508789,2.366501569747925,-1.6893328428268433
591,37100.0,8.575876235961914,3.201596736907959,-2.3090739250183105
592,37200.0,8.575876235961914,3.201596736907959,-2.3090739250183105
593,37300.0,9.494720458984377,3.4672000408172607,-2.227717876434326
594,37400.0,9.494720458984377,3.4672000408172607,-2.227717876434326
595,37500.0,9.494720458984377,3.4672000408172607,-2.227717876434326
596,37600.0,12.275179862976074,2.935993194580078,-1.5409778356552124
597,37700.0,12.275179862976074,2.935993194580078,-1.5409778356552124
598,37800.0,8.188239097595215,2.053041696548462,-0.19142580032348636
599,37900.0,8.188239097595215,2.053041696548462,-0.19142580032348636
600,37000.0,7.795816421508789,2.366501569747925,-1.6893328428268433
601,37100.0,8.575876235961914,3.201596736907959,-2.3090739250183105
602,37200.0,8.575876235961914,3.201596736907959,-2.3090739250183105
603,37300.0,9.494720458984377,3.4672000408172607,-2.227717876434326
604,37400.0,9.494720458984377,3.4672000408172607,-2.227717876434326
605,37500.0,9.494720458984377,3.4672000408172607,-2.227717876434326
606,37600.0,12.275179862976074,2.935993194580078,-1.5409778356552124
607,37700.0,12.275179862976074,2.935993194580078,-1.5409778356552124
608,37800.0,8.188239097595215,2.053041696548462,-0.19142580032348636
609,37900.0,8.188239097595215,2.053041696548462,-0.19142580032348636
610,38000.0,8.188239097595215,2.053041696548462,-0.19142580032348636
611,38100.0,7.733603000640869,3.2279179096221924,-0.413958340883255
612,38200.0,7.733603000640869,3.2279179096221924,-0.413958340883255
613,38300.0,9.51386260986328,2.8761727809906006,-2.610569477081299
614,38400.0,9.51386260986328,2.8761727809906006,-2.610569477081299
615,38500.0,9.111868858337402,1.983649969100952,-2.8809585571289062
616,38600.0,9.111868858337402,1.983649969100952,-2.8809585571289062
617,38700.0,9.111868858337402,1.983649969100952,-2.8809585571289062
618,38800.0,9.422935485839844,2.6392831802368164,-2.1607186794281006
619,38900.0,9.422935485839844,2.6392831802368164,-2.1607186794281006
620,38000.0,8.188239097595215,2.053041696548462,-0.19142580032348636
621,38100.0,7.733603000640869,3.2279179096221924,-0.413958340883255
622,38200.0,7.733603000640869,3.2279179096221924,-0.413958340883255
623,38300.0,9.51386260986328,2.8761727809906006,-2.610569477081299
624,38400.0,9.51386260986328,2.8761727809906006,-2.610569477081299
625,38500.0,9.111868858337402,1.983649969100952,-2.8809585571289062
626,38600.0,9.111868858337402,1.983649969100952,-2.8809585571289062
627,38700.0,9.111868858337402,1.983649969100952,-2.8809585571289062
628,38800.0,9.422935485839844,2.6392831802368164,-2.1607186794281006
629,38900.0,9.422935485839844,2.6392831802368164,-2.1607186794281006
630,39000.0,8.437092781066895,3.9218363761901855,-1.062413215637207
631,39100.0,8.437092781066895,3.9218363761901855,-1.062413215637207
632,39200.0,8.623733520507812,3.6011981964111333,-1.7467604875564575
633,39300.0,8.623733520507812,3.6011981964111333,-1.7467604875564575
634,39400.0,8.398807525634767,0.9308080077171326,-1.0049854516983032
635,39500.0,8.398807525634767,0.9308080077171326,-1.0049854516983032
636,39600.0,8.398807525634767,0.9308080077171326,-1.0049854516983032
637,39700.0,9.480363845825195,2.1631116867065434,-1.3328022956848145
638,39800.0,9.480363845825195,2.1631116867065434,-1.3328022956848145
639,39900.0,9.413363456726074,2.8426735401153564,-1.7467604875564575
640,39000.0,8.437092781066895,3.9218363761901855,-1.062413215637207
641,39100.0,8.437092781066895,3.9218363761901855,-1.062413215637207
642,39200.0,8.623733520507812,3.6011981964111333,-1.7467604875564575
643,39300.0,8.623733520507812,3.6011981964111333,-1.7467604875564575
644,39400.0,8.398807525634767,0.9308080077171326,-1.0049854516983032
645,39500.0,8.398807525634767,0.9308080077171326,-1.0049854516983032
646,39600.0,8.398807525634767,0.9308080077171326,-1.0049854516983032
647,39700.0,9.480363845825195,2.1631116867065434,-1.3328022956848145
648,39800.0,9.480363845825195,2.1631116867065434,-1.3328022956848145
649,39900.0,9.413363456726074,2.8426735401153564,-1.7467604875564575
650,40000.0,9.413363456726074,2.8426735401153564,-1.7467604875564575
651,40100.0,9.882357597351074,3.476771354675293,-1.0360921621322632
652,40200.0,9.882357597351074,3.476771354675293,-1.0360921621322632
653,40300.0,9.882357597351074,3.476771354675293,-1.0360921621322632
654,40400.0,11.06919765472412,1.179661512374878,-2.2061824798583984
655,40500.0,11.06919765472412,1.179661512374878,-2.2061824798583984
656,40600.0,8.599804878234862,0.696311354637146,-1.7994027137756348
657,40700.0,8.599804878234862,0.696311354637146,-1.7994027137756348
658,40800.0,8.843873023986816,1.1653046607971191,-2.995814085006714
659,40900.0,8.843873023986816,1.1653046607971191,-2.995814085006714
660,40000.0,9.413363456726074,2.8426735401153564,-1.7467604875564575
661,40100.0,9.882357597351074,3.476771354675293,-1.0360921621322632
662,40200.0,9.882357597351074,3.476771354675293,-1.0360921621322632
663,40300.0,9.882357597351074,3.476771354675293,-1.0360921621322632
664,40400.0,11.06919765472412,1.179661512374878,-2.2061824798583984
665,40500.0,11.06919765472412,1.179661512374878,-2.2061824798583984
666,40600.0,8.599804878234862,0.696311354637146,-1.7994027137756348
667,40700.0,8.599804878234862,0.696311354637146,-1.7994027137756348
668,40800.0,8.843873023986816,1.1653046607971191,-2.995814085006714
669,40900.0,8.843873023986816,1.1653046607971191,-2.995814085006714
670,41000.0,9.150154113769533,2.390429735183716,-2.3712873458862305
671,41100.0,9.150154113769533,2.390429735183716,-2.3712873458862305
672,41200.0,9.150154113769533,2.390429735183716,-2.3712873458862305
673,41300.0,9.4660062789917,2.9671001434326167,-2.069791555404663
674,41400.0,9.4660062789917,2.9671001434326167,-2.069791555404663
675,41500.0,12.734601974487305,2.1990041732788086,-2.1511476039886475
676,41600.0,12.734601974487305,2.1990041732788086,-2.1511476039886475
677,41700.0,8.499305725097656,1.2490534782409668,-1.0121639966964722
678,41800.0,8.499305725097656,1.2490534782409668,-1.0121639966964722
679,41900.0,8.934800148010254,3.4193434715271,-1.5242280960083008
680,41000.0,9.150154113769533,2.390429735183716,-2.3712873458862305
681,41100.0,9.150154113769533,2.390429735183716,-2.3712873458862305
682,41200.0,9.150154113769533,2.390429735183716,-2.3712873458862305
683,41300.0,9.4660062789917,2.9671001434326167,-2.069791555404663
684,41400.0,9.4660062789917,2.9671001434326167,-2.069791555404663
685,41500.0,12.734601974487305,2.1990041732788086,-2.1511476039886475
686,41600.0,12.734601974487305,2.1990041732788086,-2.1511476039886475
687,41700.0,8.499305725097656,1.2490534782409668,-1.0121639966964722
688,41800.0,8.499305725097656,1.2490534782409668,-1.0121639966964722
689,41900.0,8.934800148010254,3.4193434715271,-1.5242280960083008
690,42000.0,8.934800148010254,3.4193434715271,-1.5242280960083008
691,42100.0,8.934800148010254,3.4193434715271,-1.5242280960083008
692,42200.0,8.834300994873047,3.6681969165802,-2.337787628173828
693,42300.0,8.834300994873047,3.6681969165802,-2.337787628173828
694,42400.0,9.901500701904297,3.5437703132629395,-1.4931212663650513
695,42500.0,9.901500701904297,3.5437703132629395,-1.4931212663650513
696,42600.0,7.451249599456787,1.8783657550811768,-1.308874011039734
697,42700.0,7.451249599456787,1.8783657550811768,-1.308874011039734
698,42800.0,7.451249599456787,1.8783657550811768,-1.308874011039734
699,42900.0,6.7860450744628915,2.383251428604126,-1.8664016723632808
700,42000.0,8.934800148010254,3.4193434715271,-1.5242280960083008
701,42100.0,8.934800148010254,3.4193434715271,-1.5242280960083008
702,42200.0,8.834300994873047,3.6681969165802,-2.337787628173828
703,42300.0,8.834300994873047,3.6681969165802,-2.337787628173828
704,42400.0,9.901500701904297,3.5437703132629395,-1.4931212663650513
705,42500.0,9.901500701904297,3.5437703132629395,-1.4931212663650513
706,42600.0,7.451249599456787,1.8783657550811768,-1.308874011039734
707,42700.0,7.451249599456787,1.8783657550811768,-1.308874011039734
708,42800.0,7.451249599456787,1.8783657550811768,-1.308874011039734
709,42900.0,6.7860450744628915,2.383251428604126,-1.8664016723632808
710,43000.0,6.7860450744628915,2.383251428604126,-1.8664016723632808
711,43100.0,9.049654960632324,2.96949315071106,-2.414358139038086
712,43200.0,9.049654960632324,2.96949315071106,-2.414358139038086
713,43300.0,11.0835542678833,2.809173583984375,-2.778067111968994
714,43400.0,11.0835542678833,2.809173583984375,-2.778067111968994
715,43500.0,11.0835542678833,2.809173583984375,-2.778067111968994
716,43600.0,8.71466064453125,1.1270195245742798,-1.8305093050003047
717,43700.0,8.71466064453125,1.1270195245742798,-1.8305093050003047
718,43800.0,8.408378601074219,2.9168508052825928,-0.6293123364448547
719,43900.0,8.408378601074219,2.9168508052825928,-0.6293123364448547
720,43000.0,6.7860450744628915,2.383251428604126,-1.8664016723632808
721,43100.0,9.049654960632324,2.96949315071106,-2.414358139038086
722,43200.0,9.049654960632324,2.96949315071106,-2.414358139038086
723,43300.0,11.0835542678833,2.809173583984375,-2.778067111968994
724,43400.0,11.0835542678833,2.809173583984375,-2.778067111968994
725,43500.0,11.0835542678833,2.809173583984375,-2.778067111968994
726,43600.0,8.71466064453125,1.1270195245742798,-1.8305093050003047
727,43700.0,8.71466064453125,1.1270195245742798,-1.8305093050003047
728,43800.0,8.408378601074219,2.9168508052825928,-0.6293123364448547
729,43900.0,8.408378601074219,2.9168508052825928,-0.6293123364448547
730,44000.0,7.594818592071532,4.240081787109375,-0.9092726111412048
731,44100.0,7.594818592071532,4.240081787109375,-0.9092726111412048
732,44200.0,8.60459041595459,4.371686935424806,-1.8424735069274905
733,44300.0,8.60459041595459,4.371686935424806,-1.8424735069274905
734,44400.0,8.60459041595459,4.371686935424806,-1.8424735069274905
735,44500.0,14.141582489013672,3.627518892288208,-2.8953151702880864
736,44600.0,14.141582489013672,3.627518892288208,-2.8953151702880864
737,44700.0,8.48016357421875,1.4931212663650513,-1.1748759746551514
738,44800.0,8.48016357421875,1.4931212663650513,-1.1748759746551514
739,44900.0,7.81974458694458,1.9334007501602173,-2.0769701004028316
740,44000.0,7.594818592071532,4.240081787109375,-0.9092726111412048
741,44100.0,7.594818592071532,4.240081787109375,-0.9092726111412048
742,44200.0,8.60459041595459,4.371686935424806,-1.8424735069274905
743,44300.0,8.60459041595459,4.371686935424806,-1.8424735069274905
744,44400.0,8.60459041595459,4.371686935424806,-1.8424735069274905
745,44500.0,14.141582489013672,3.627518892288208,-2.8953151702880864
746,44600.0,14.141582489013672,3.627518892288208,-2.8953151702880864
747,44700.0,8.48016357421875,1.4931212663650513,-1.1748759746551514
748,44800.0,8.48016357421875,1.4931212663650513,-1.1748759746551514
749,44900.0,7.81974458694458,1.9334007501602173,-2.0769701004028316
750,45000.0,7.81974458694458,1.9334007501602173,-2.0769701004028316
751,45100.0,9.360722541809082,3.7734813690185542,-3.486342430114746
752,45200.0,9.360722541809082,3.7734813690185542,-3.486342430114746
753,45300.0,9.001798629760742,3.5341989994049072,-1.9142580032348635
754,45400.0,9.001798629760742,3.5341989994049072,-1.9142580032348635
755,45500.0,10.700701713562012,2.723031997680664,-1.935793399810791
756,45600.0,10.700701713562012,2.723031997680664,-1.935793399810791
757,45700.0,10.700701713562012,2.723031997680664,-1.935793399810791
758,45800.0,7.101897716522218,2.2827527523040767,-1.964507341384888
759,45900.0,7.101897716522218,2.2827527523040767,-1.964507341384888
760,45000.0,7.81974458694458,1.9334007501602173,-2.0769701004028316
761,45100.0,9.360722541809082,3.7734813690185542,-3.486342430114746
762,45200.0,9.360722541809082,3.7734813690185542,-3.486342430114746
763,45300.0,9.001798629760742,3.5341989994049072,-1.9142580032348635
764,45400.0,9.001798629760742,3.5341989994049072,-1.9142580032348635
765,45500.0,10.700701713562012,2.723031997680664,-1.935793399810791
766,45600.0,10.700701713562012,2.723031997680664,-1.935793399810791
767,45700.0,10.700701713562012,2.723031997680664,-1.935793399810791
768,45800.0,7.101897716522218,2.2827527523040767,-1.964507341384888
769,45900.0,7.101897716522218,2.2827527523040767,-1.964507341384888
770,46000.0,9.355937004089355,2.6943180561065674,-2.885744333267212
771,46100.0,9.355937004089355,2.6943180561065674,-2.885744333267212
772,46200.0,9.355937004089355,2.6943180561065674,-2.885744333267212
773,46300.0,9.4660062789917,3.641876220703125,-1.526620864868164
774,46400.0,9.4660062789917,3.641876220703125,-1.526620864868164
775,46500.0,10.86341381072998,3.4408791065216064,-2.5196423530578613
776,46600.0,10.86341381072998,3.4408791065216064,-2.5196423530578613
777,46700.0,8.111669540405272,1.026520848274231,-1.5672988891601562
778,46800.0,8.111669540405272,1.026520848274231,-1.5672988891601562
779,46900.0,9.121439933776855,2.6009981632232666,-2.2779672145843506
780,46000.0,9.355937004089355,2.6943180561065674,-2.885744333267212
781,46100.0,9.355937004089355,2.6943180561065674,-2.885744333267212
782,46200.0,9.355937004089355,2.6943180561065674,-2.885744333267212
783,46300.0,9.4660062789917,3.641876220703125,-1.526620864868164
784,46400.0,9.4660062789917,3.641876220703125,-1.526620864868164
785,46500.0,10.86341381072998,3.4408791065216064,-2.5196423530578613
786,46600.0,10.86341381072998,3.4408791065216064,-2.5196423530578613
787,46700.0,8.111669540405272,1.026520848274231,-1.5672988891601562
788,46800.0,8.111669540405272,1.026520848274231,-1.5672988891601562
789,46900.0,9.121439933776855,2.6009981632232666,-2.2779672145843506
790,47000.0,9.121439933776855,2.6009981632232666,-2.2779672145843506
791,47100.0,9.53779125213623,3.084348201751709,-3.981656789779663
792,47200.0,9.53779125213623,3.084348201751709,-3.981656789779663
793,47300.0,9.53779125213623,3.084348201751709,-3.981656789779663
794,47400.0,12.112468719482422,3.754338502883911,-1.8424735069274905
795,47500.0,12.112468719482422,3.754338502883911,-1.8424735069274905
796,47600.0,9.15493869781494,2.0865414142608643,-1.191625714302063
797,47700.0,9.15493869781494,2.0865414142608643,-1.191625714302063
798,47800.0,9.15493869781494,2.0865414142608643,-1.191625714302063
799,47900.0,7.795816421508789,2.414358139038086,-1.4069796800613403
800,47000.0,9.121439933776855,2.6009981632232666,-2.2779672145843506
801,47100.0,9.53779125213623,3.084348201751709,-3.981656789779663
802,47200.0,9.53779125213623,3.084348201751709,-3.981656789779663
803,47300.0,9.53779125213623,3.084348201751709,-3.981656789779663
804,47400.0,12.112468719482422,3.754338502883911,-1.8424735069274905
805,47500.0,12.112468719482422,3.754338502883911,-1.8424735069274905
806,47600.0,9.15493869781494,2.0865414142608643,-1.191625714302063
807,47700.0,9.15493869781494,2.0865414142608643,-1.191625714302063
808,47800.0,9.15493869781494,2.0865414142608643,-1.191625714302063
809,47900.0,7.795816421508789,2.414358139038086,-1.4069796800613403
810,48000.0,7.795816421508789,2.414358139038086,-1.4069796800613403
811,48100.0,8.733802795410156,2.620140790939331,-2.84506630897522
812,48200.0,8.733802795410156,2.620140790939331,-2.84506630897522
813,48300.0,11.887543678283693,2.809173583984375,-2.1439690589904785
814,48400.0,11.887543678283693,2.809173583984375,-2.1439690589904785
815,48500.0,7.623533248901367,1.1748759746551514,-1.4644075632095337
816,48600.0,7.623533248901367,1.1748759746551514,-1.4644075632095337
817,48700.0,7.623533248901367,1.1748759746551514,-1.4644075632095337
818,48800.0,7.6522464752197275,2.687139749526977,-0.44745784997940063
819,48900.0,7.6522464752197275,2.687139749526977,-0.44745784997940063
820,48000.0,7.795816421508789,2.414358139038086,-1.4069796800613403
821,48100.0,8.733802795410156,2.620140790939331,-2.84506630897522
822,48200.0,8.733802795410156,2.620140790939331,-2.84506630897522
823,48300.0,11.887543678283693,2.809173583984375,-2.1439690589904785
824,48400.0,11.887543678283693,2.809173583984375,-2.1439690589904785
825,48500.0,7.623533248901367,1.1748759746551514,-1.4644075632095337
826,48600.0,7.623533248901367,1.1748759746551514,-1.4644075632095337
827,48700.0,7.623533248901367,1.1748759746551514,-1.4644075632095337
828,48800.0,7.6522464752197275,2.687139749526977,-0.44745784997940063
829,48900.0,7.6522464752197275,2.687139749526977,-0.44745784997940063
830,49000.0,7.3363938331604,3.5198421478271484,-2.438286304473877
831,49100.0,7.3363938331604,3.5198421478271484,-2.438286304473877
832,49200.0,7.3363938331604,3.5198421478271484,-2.438286304473877
833,49300.0,9.413363456726074,3.476771354675293,-2.57228422164917
834,49400.0,9.413363456726074,3.476771354675293,-2.57228422164917
835,49500.0,8.082954406738281,3.6729826927185063,-2.648854732513428
836,49600.0,8.082954406738281,3.6729826927185063,-2.648854732513428
837,49700.0,7.489534854888916,0.7776673436164856,-1.6821542978286743
838,49800.0,7.489534854888916,0.7776673436164856,-1.6821542978286743
839,49900.0,10.02592658996582,1.0193424224853516,0.014356935396790503
840,49000.0,7.3363938331604,3.5198421478271484,-2.438286304473877
841,49100.0,7.3363938331604,3.5198421478271484,-2.438286304473877
842,49200.0,7.3363938331604,3.5198421478271484,-2.438286304473877
843,49300.0,9.413363456726074,3.476771354675293,-2.57228422164917
844,49400.0,9.413363456726074,3.476771354675293,-2.57228422164917
845,49500.0,8.082954406738281,3.6729826927185063,-2.648854732513428
846,49600.0,8.082954406738281,3.6729826927185063,-2.648854732513428
847,49700.0,7.489534854888916,0.7776673436164856,-1.6821542978286743
848,49800.0,7.489534854888916,0.7776673436164856,-1.6821542978286743
849,49900.0,10.02592658996582,1.0193424224853516,0.014356935396790503
850,50000.0,10.02592658996582,1.0193424224853516,0.014356935396790503
851,50100.0,9.265008926391602,2.531606435775757,-0.17228324711322784
852,50200.0,9.265008926391602,2.531606435775757,-0.17228324711322784
853,50300.0,8.877371788024902,3.359522819519043,-2.132004976272583
854,50400.0,8.877371788024902,3.359522819519043,-2.132004976272583
855,50500.0,8.877371788024902,3.359522819519043,-2.132004976272583
856,50600.0,9.475577354431152,4.613362312316895,-2.1367905139923096
857,50700.0,9.475577354431152,4.613362312316895,-2.1367905139923096
858,50800.0,9.09272575378418,1.22033953666687,-1.2825528383255005
859,50900.0,9.09272575378418,1.22033953666687,-1.2825528383255005
860,50000.0,10.02592658996582,1.0193424224853516,0.014356935396790503
861,50100.0,9.265008926391602,2.531606435775757,-0.17228324711322784
862,50200.0,9.265008926391602,2.531606435775757,-0.17228324711322784
863,50300.0,8.877371788024902,3.359522819519043,-2.132004976272583
864,50400.0,8.877371788024902,3.359522819519043,-2.132004976272583
865,50500.0,8.877371788024902,3.359522819519043,-2.132004976272583
866,50600.0,9.475577354431152,4.613362312316895,-2.1367905139923096
867,50700.0,9.475577354431152,4.613362312316895,-2.1367905139923096
868,50800.0,9.09272575378418,1.22033953666687,-1.2825528383255005
869,50900.0,9.09272575378418,1.22033953666687,-1.2825528383255005
870,51000.0,7.432106971740723,0.7776673436164856,-1.2346963882446291
871,51100.0,7.432106971740723,0.7776673436164856,-1.2346963882446291
872,51200.0,7.432106971740723,0.7776673436164856,-1.2346963882446291
873,51300.0,9.394222259521484,1.2873386144638062,-2.210968255996704
874,51400.0,9.394222259521484,1.2873386144638062,-2.210968255996704
875,51500.0,9.379864692687988,3.012563943862915,-2.627319574356079
876,51600.0,9.379864692687988,3.012563943862915,-2.627319574356079
877,51700.0,11.188838958740234,2.2253248691558842,-2.344966173171997
878,51800.0,11.188838958740234,2.2253248691558842,-2.344966173171997
879,51900.0,11.188838958740234,2.2253248691558842,-2.344966173171997
880,51000.0,7.432106971740723,0.7776673436164856,-1.2346963882446291
881,51100.0,7.432106971740723,0.7776673436164856,-1.2346963882446291
882,51200.0,7.432106971740723,0.7776673436164856,-1.2346963882446291
883,51300.0,9.394222259521484,1.2873386144638062,-2.210968255996704
884,51400.0,9.394222259521484,1.2873386144638062,-2.210968255996704
885,51500.0,9.379864692687988,3.012563943862915,-2.627319574356079
886,51600.0,9.379864692687988,3.012563943862915,-2.627319574356079
887,51700.0,11.188838958740234,2.2253248691558842,-2.344966173171997
888,51800.0,11.188838958740234,2.2253248691558842,-2.344966173171997
889,51900.0,11.188838958740234,2.2253248691558842,-2.344966173171997
890,52000.0,7.829315185546875,1.8233308792114256,-1.3232309818267822
891,52100.0,7.829315185546875,1.8233308792114256,-1.3232309818267822
892,52200.0,7.905886173248291,3.5365920066833496,-0.6197410225868225
893,52300.0,7.905886173248291,3.5365920066833496,-0.6197410225868225
894,52400.0,7.527820110321045,4.5678982734680185,-1.0049854516983032
895,52500.0,7.527820110321045,4.5678982734680185,-1.0049854516983032
896,52600.0,7.527820110321045,4.5678982734680185,-1.0049854516983032
897,52700.0,12.55274772644043,4.917250633239746,-2.421536445617676
898,52800.0,12.55274772644043,4.917250633239746,-2.421536445617676
899,52900.0,9.643074989318848,1.7778673171997068,-0.5168496966362001
900,52000.0,7.829315185546875,1.8233308792114256,-1.3232309818267822
901,52100.0,7.829315185546875,1.8233308792114256,-1.3232309818267822
902,52200.0,7.905886173248291,3.5365920066833496,-0.6197410225868225
903,52300.0,7.905886173248291,3.5365920066833496,-0.6197410225868225
904,52400.0,7.527820110321045,4.5678982734680185,-1.0049854516983032
905,52500.0,7.527820110321045,4.5678982734680185,-1.0049854516983032
906,52600.0,7.527820110321045,4.5678982734680185,-1.0049854516983032
907,52700.0,12.55274772644043,4.917250633239746,-2.421536445617676
908,52800.0,12.55274772644043,4.917250633239746,-2.421536445617676
909,52900.0,9.643074989318848,1.7778673171997068,-0.5168496966362001
910,53000.0,9.643074989318848,1.7778673171997068,-0.5168496966362001
911,53100.0,8.260024070739746,1.9716858863830569,-1.7036896944046018
912,53200.0,8.260024070739746,1.9716858863830569,-1.7036896944046018
913,53300.0,9.542576789855957,2.8737800121307373,-3.8548374176025386
914,53400.0,9.542576789855957,2.8737800121307373,-3.8548374176025386
915,53500.0,9.542576789855957,2.8737800121307373,-3.8548374176025386
916,53600.0,8.805586814880371,3.9553356170654297,-1.6773687601089478
917,53700.0,8.805586814880371,3.9553356170654297,-1.6773687601089478
918,53800.0,11.767902374267578,2.3162522315979004,-2.577069997787476
919,53900.0,11.767902374267578,2.3162522315979004,-2.577069997787476
920,53000.0,9.643074989318848,1.7778673171997068,-0.5168496966362001
921,53100.0,8.260024070739746,1.9716858863830569,-1.7036896944046018
922,53200.0,8.260024070739746,1.9716858863830569,-1.7036896944046018
923,53300.0,9.542576789855957,2.8737800121307373,-3.8548374176025386
924,53400.0,9.542576789855957,2.8737800121307373,-3.8548374176025386
925,53500.0,9.542576789855957,2.8737800121307373,-3.8548374176025386
926,53600.0,8.805586814880371,3.9553356170654297,-1.6773687601089478
927,53700.0,8.805586814880371,3.9553356170654297,-1.6773687601089478
928,53800.0,11.767902374267578,2.3162522315979004,-2.577069997787476
929,53900.0,11.767902374267578,2.3162522315979004,-2.577069997787476
930,54000.0,8.437092781066895,1.3782659769058228,-1.3160523176193235
931,54100.0,8.437092781066895,1.3782659769058228,-1.3160523176193235
932,54200.0,8.61894702911377,2.6847469806671143,-1.6319050788879397
933,54300.0,8.61894702911377,2.6847469806671143,-1.6319050788879397
934,54400.0,8.61894702911377,2.6847469806671143,-1.6319050788879397
935,54500.0,8.97787094116211,3.6969110965728764,-1.6199408769607544
936,54600.0,8.97787094116211,3.6969110965728764,-1.6199408769607544
937,54700.0,9.432506561279297,4.012763977050781,-1.4524433612823486
938,54800.0,9.432506561279297,4.012763977050781,-1.4524433612823486
939,54900.0,12.643674850463867,3.2135608196258545,-2.084148406982422
940,54000.0,8.437092781066895,1.3782659769058228,-1.3160523176193235
941,54100.0,8.437092781066895,1.3782659769058228,-1.3160523176193235
942,54200.0,8.61894702911377,2.6847469806671143,-1.6319050788879397
943,54300.0,8.61894702911377,2.6847469806671143,-1.6319050788879397
944,54400.0,8.61894702911377,2.6847469806671143,-1.6319050788879397
945,54500.0,8.97787094116211,3.6969110965728764,-1.6199408769607544
946,54600.0,8.97787094116211,3.6969110965728764,-1.6199408769607544
947,54700.0,9.432506561279297,4.012763977050781,-1.4524433612823486
948,54800.0,9.432506561279297,4.012763977050781,-1.4524433612823486
949,54900.0,12.643674850463867,3.2135608196258545,-2.084148406982422
950,55000.0,12.643674850463867,3.2135608196258545,-2.084148406982422
951,55100.0,12.643674850463867,3.2135608196258545,-2.084148406982422
952,55200.0,7.58524751663208,1.3639088869094849,-1.8759729862213133
953,55300.0,7.58524751663208,1.3639088869094849,-1.8759729862213133
954,55400.0,8.116454124450684,3.5246279239654537,-1.9764715433120728
955,55500.0,8.116454124450684,3.5246279239654537,-1.9764715433120728
956,55600.0,9.308080673217773,3.4528429508209233,-2.931207656860352
957,55700.0,9.308080673217773,3.4528429508209233,-2.931207656860352
958,55800.0,8.70508861541748,3.053241729736328,-2.4885356426239014
959,55900.0,8.70508861541748,3.053241729736328,-2.4885356426239014
960,55000.0,12.643674850463867,3.2135608196258545,-2.084148406982422
961,55100.0,12.643674850463867,3.2135608196258545,-2.084148406982422
962,55200.0,7.58524751663208,1.3639088869094849,-1.8759729862213133
963,55300.0,7.58524751663208,1.3639088869094849,-1.8759729862213133
964,55400.0,8.116454124450684,3.5246279239654537,-1.9764715433120728
965,55500.0,8.116454124450684,3.5246279239654537,-1.9764715433120728
966,55600.0,9.308080673217773,3.4528429508209233,-2.931207656860352
967,55700.0,9.308080673217773,3.4528429508209233,-2.931207656860352
968,55800.0,8.70508861541748,3.053241729736328,-2.4885356426239014
969,55900.0,8.70508861541748,3.053241729736328,-2.4885356426239014
970,56000.0,12.193824768066404,3.060420036315918,-2.6009981632232666
971,56100.0,12.193824768066404,3.060420036315918,-2.6009981632232666
972,56200.0,8.082954406738281,1.8616160154342647,-1.392622709274292
973,56300.0,8.082954406738281,1.8616160154342647,-1.392622709274292
974,56400.0,8.082954406738281,1.8616160154342647,-1.392622709274292
975,56500.0,7.99681282043457,3.864408254623413,-1.4404792785644531
976,56600.0,7.99681282043457,3.864408254623413,-1.4404792785644531
977,56700.0,8.164310455322267,4.689932346343994,-2.187039852142334
978,56800.0,8.164310455322267,4.689932346343994,-2.187039852142334
979,56900.0,8.925228118896484,5.0225348472595215,-1.6462620496749878
980,56000.0,12.193824768066404,3.060420036315918,-2.6009981632232666
981,56100.0,12.193824768066404,3.060420036315918,-2.6009981632232666
982,56200.0,8.082954406738281,1.8616160154342647,-1.392622709274292
983,56300.0,8.082954406738281,1.8616160154342647,-1.392622709274292
984,56400.0,8.082954406738281,1.8616160154342647,-1.392622709274292
985,56500.0,7.99681282043457,3.864408254623413,-1.4404792785644531
986,56600.0,7.99681282043457,3.864408254623413,-1.4404792785644531
987,56700.0,8.164310455322267,4.689932346343994,-2.187039852142334
988,56800.0,8.164310455322267,4.689932346343994,-2.187039852142334
989,56900.0,8.925228118896484,5.0225348472595215,-1.6462620496749878
990,57000.0,8.925228118896484,5.0225348472595215,-1.6462620496749878
991,57100.0,8.925228118896484,5.0225348472595215,-1.6462620496749878
992,57200.0,7.728816509246826,2.541177749633789,-2.2612173557281494
993,57300.0,7.728816509246826,2.541177749633789,-2.2612173557281494
994,57400.0,8.135597229003906,1.9884356260299685,-1.8424735069274905
995,57500.0,8.135597229003906,1.9884356260299685,-1.8424735069274905
996,57600.0,8.685946464538574,3.2207393646240234,-2.2779672145843506
997,57700.0,8.685946464538574,3.2207393646240234,-2.2779672145843506
998,57800.0,8.685946464538574,3.2207393646240234,-2.2779672145843506
999,57900.0,8.901299476623535,4.728217601776123,-2.89052963256836
1000,57000.0,8.925228118896484,5.0225348472595215,-1.6462620496749878
1001,57100.0,8.925228118896484,5.0225348472595215,-1.6462620496749878
1002,57200.0,7.728816509246826,2.541177749633789,-2.2612173557281494
1003,57300.0,7.728816509246826,2.541177749633789,-2.2612173557281494
1004,57400.0,8.135597229003906,1.9884356260299685,-1.8424735069274905
1005,57500.0,8.135597229003906,1.9884356260299685,-1.8424735069274905
1006,57600.0,8.685946464538574,3.2207393646240234,-2.2779672145843506
1007,57700.0,8.685946464538574,3.2207393646240234,-2.2779672145843506
1008,57800.0,8.685946464538574,3.2207393646240234,-2.2779672145843506
1009,57900.0,8.901299476623535,4.728217601776123,-2.89052963256836
1010,58000.0,8.901299476623535,4.728217601776123,-2.89052963256836
1011,58100.0,9.308080673217773,4.548755645751953,-1.8448662757873533
1012,58200.0,9.308080673217773,4.548755645751953,-1.8448662757873533
1013,58300.0,10.466205596923828,2.909672498703003,-1.56969153881073
1014,58400.0,10.466205596923828,2.909672498703003,-1.56969153881073
1015,58500.0,10.466205596923828,2.909672498703003,-1.56969153881073
1016,58600.0,8.097311973571777,2.029113531112671,-1.4021940231323242
1017,58700.0,8.097311973571777,2.029113531112671,-1.4021940231323242
1018,58800.0,8.073383331298826,3.053241729736328,-1.3902300596237185
1019,58900.0,8.073383331298826,3.053241729736328,-1.3902300596237185
1020,58000.0,8.901299476623535,4.728217601776123,-2.89052963256836
1021,58100.0,9.308080673217773,4.548755645751953,-1.8448662757873533
1022,58200.0,9.308080673217773,4.548755645751953,-1.8448662757873533
1023,58300.0,10.466205596923828,2.909672498703003,-1.56969153881073
1024,58400.0,10.466205596923828,2.909672498703003,-1.56969153881073
1025,58500.0,10.466205596923828,2.909672498703003,-1.56969153881073
1026,58600.0,8.097311973571777,2.029113531112671,-1.4021940231323242
1027,58700.0,8.097311973571777,2.029113531112671,-1.4021940231323242
1028,58800.0,8.073383331298826,3.053241729736328,-1.3902300596237185
1029,58900.0,8.073383331298826,3.053241729736328,-1.3902300596237185
1030,59000.0,8.695517539978027,4.431507587432861,-1.8831514120101929
1031,59100.0,8.695517539978027,4.431507587432861,-1.8831514120101929
1032,59200.0,9.891928672790527,4.646861553192139,-1.5218352079391482
1033,59300.0,9.891928672790527,4.646861553192139,-1.5218352079391482
1034,59400.0,9.681360244750977,3.0484561920166016,-0.7728817462921143
1035,59500.0,9.681360244750977,3.0484561920166016,-0.7728817462921143
1036,59600.0,9.681360244750977,3.0484561920166016,-0.7728817462921143
1037,59700.0,6.51326322555542,2.3784656524658203,-0.7250252366065979
1038,59800.0,6.51326322555542,2.3784656524658203,-0.7250252366065979
1039,59900.0,8.303093910217285,3.2662029266357417,-2.4502503871917725
1040,59000.0,8.695517539978027,4.431507587432861,-1.8831514120101929
1041,59100.0,8.695517539978027,4.431507587432861,-1.8831514120101929
1042,59200.0,9.891928672790527,4.646861553192139,-1.5218352079391482
1043,59300.0,9.891928672790527,4.646861553192139,-1.5218352079391482
1044,59400.0,9.681360244750977,3.0484561920166016,-0.7728817462921143
1045,59500.0,9.681360244750977,3.0484561920166016,-0.7728817462921143
1046,59600.0,9.681360244750977,3.0484561920166016,-0.7728817462921143
1047,59700.0,6.51326322555542,2.3784656524658203,-0.7250252366065979
1048,59800.0,6.51326322555542,2.3784656524658203,-0.7250252366065979
1049,59900.0,8.303093910217285,3.2662029266357417,-2.4502503871917725
1050,60000.0,8.303093910217285,3.2662029266357417,-2.4502503871917725
1051,60100.0,8.303093910217285,3.2662029266357417,-2.4502503871917725
1052,60200.0,9.083154678344727,3.9122648239135738,-2.531606435775757
1053,60300.0,9.083154678344727,3.9122648239135738,-2.531606435775757
1054,60400.0,9.21715259552002,1.2705888748168943,-2.565105676651001
1055,60500.0,9.21715259552002,1.2705888748168943,-2.565105676651001
1056,60600.0,10.198209762573242,1.4524433612823486,-1.373480200767517
1057,60700.0,10.198209762573242,1.4524433612823486,-1.373480200767517
1058,60800.0,9.040083885192873,2.885744333267212,-1.0480562448501587
1059,60900.0,9.040083885192873,2.885744333267212,-1.0480562448501587
1060,60000.0,8.303093910217285,3.2662029266357417,-2.4502503871917725
1061,60100.0,8.303093910217285,3.2662029266357417,-2.4502503871917725
1062,60200.0,9.083154678344727,3.9122648239135738,-2.531606435775757
1063,60300.0,9.083154678344727,3.9122648239135738,-2.531606435775757
1064,60400.0,9.21715259552002,1.2705888748168943,-2.565105676651001
1065,60500.0,9.21715259552002,1.2705888748168943,-2.565105676651001
1066,60600.0,10.198209762573242,1.4524433612823486,-1.373480200767517
1067,60700.0,10.198209762573242,1.4524433612823486,-1.373480200767517
1068,60800.0,9.040083885192873,2.885744333267212,-1.0480562448501587
1069,60900.0,9.040083885192873,2.885744333267212,-1.0480562448501587
1070,61000.0,7.47517728805542,5.0225348472595215,-2.060220241546631
1071,61100.0,7.47517728805542,5.0225348472595215,-2.060220241546631
1072,61200.0,7.47517728805542,5.0225348472595215,-2.060220241546631
1073,61300.0,7.077969074249268,5.556134223937988,-3.002992391586304
1074,61400.0,7.077969074249268,5.556134223937988,-3.002992391586304
1075,61500.0,9.265008926391602,4.577469348907472,-2.4909284114837646
1076,61600.0,9.265008926391602,4.577469348907472,-2.4909284114837646
1077,61700.0,9.193224906921387,3.3978083133697514,-1.2299107313156128
1078,61800.0,9.193224906921387,3.3978083133697514,-1.2299107313156128
1079,61900.0,8.82951545715332,3.304487943649292,-2.4430718421936035
1080,61000.0,7.47517728805542,5.0225348472595215,-2.060220241546631
1081,61100.0,7.47517728805542,5.0225348472595215,-2.060220241546631
1082,61200.0,7.47517728805542,5.0225348472595215,-2.060220241546631
1083,61300.0,7.077969074249268,5.556134223937988,-3.002992391586304
1084,61400.0,7.077969074249268,5.556134223937988,-3.002992391586304
1085,61500.0,9.265008926391602,4.577469348907472,-2.4909284114837646
1086,61600.0,9.265008926391602,4.577469348907472,-2.4909284114837646
1087,61700.0,9.193224906921387,3.3978083133697514,-1.2299107313156128
1088,61800.0,9.193224906921387,3.3978083133697514,-1.2299107313156128
1089,61900.0,8.82951545715332,3.304487943649292,-2.4430718421936035
1090,62000.0,8.82951545715332,3.304487943649292,-2.4430718421936035
1091,62100.0,8.82951545715332,3.304487943649292,-2.4430718421936035
1092,62200.0,9.265008926391602,2.581855773925781,-2.651247262954712
1093,62300.0,9.265008926391602,2.581855773925781,-2.651247262954712
1094,62400.0,10.992627143859863,2.304288148880005,-1.3136597871780396
1095,62500.0,10.992627143859863,2.304288148880005,-1.3136597871780396
1096,62600.0,10.643275260925293,3.759124279022217,0.2392822504043579
1097,62700.0,10.643275260925293,3.759124279022217,0.2392822504043579
1098,62800.0,9.006584167480469,3.335594892501831,0.18185453116893768
1099,62900.0,9.006584167480469,3.335594892501831,0.18185453116893768
1100,62000.0,8.82951545715332,3.304487943649292,-2.4430718421936035
1101,62100.0,8.82951545715332,3.304487943649292,-2.4430718421936035
1102,62200.0,9.265008926391602,2.581855773925781,-2.651247262954712
1103,62300.0,9.265008926391602,2.581855773925781,-2.651247262954712
1104,62400.0,10.992627143859863,2.304288148880005,-1.3136597871780396
1105,62500.0,10.992627143859863,2.304288148880005,-1.3136597871780396
1106,62600.0,10.643275260925293,3.759124279022217,0.2392822504043579
1107,62700.0,10.643275260925293,3.759124279022217,0.2392822504043579
1108,62800.0,9.006584167480469,3.335594892501831,0.18185453116893768
1109,62900.0,9.006584167480469,3.335594892501831,0.18185453116893768
1110,63000.0,9.456435203552246,3.617947816848755,-1.5337992906570437
1111,63100.0,9.456435203552246,3.617947816848755,-1.5337992906570437
1112,63200.0,9.456435203552246,3.617947816848755,-1.5337992906570437
1113,63300.0,10.07378387451172,4.249652862548828,-3.1824538707733154
1114,63400.0,10.07378387451172,4.249652862548828,-3.1824538707733154
1115,63500.0,7.097111701965332,2.1702899932861333,-0.1339980661869049
1116,63600.0,7.097111701965332,2.1702899932861333,-0.1339980661869049
1117,63700.0,7.728816509246826,2.5076780319213867,-0.4713860750198364
1118,63800.0,7.728816509246826,2.5076780319213867,-0.4713860750198364
1119,63900.0,8.925228118896484,3.926621913909912,-2.5914268493652344
1120,63000.0,9.456435203552246,3.617947816848755,-1.5337992906570437
1121,63100.0,9.456435203552246,3.617947816848755,-1.5337992906570437
1122,63200.0,9.456435203552246,3.617947816848755,-1.5337992906570437
1123,63300.0,10.07378387451172,4.249652862548828,-3.1824538707733154
1124,63400.0,10.07378387451172,4.249652862548828,-3.1824538707733154
1125,63500.0,7.097111701965332,2.1702899932861333,-0.1339980661869049
1126,63600.0,7.097111701965332,2.1702899932861333,-0.1339980661869049
1127,63700.0,7.728816509246826,2.5076780319213867,-0.4713860750198364
1128,63800.0,7.728816509246826,2.5076780319213867,-0.4713860750198364
1129,63900.0,8.925228118896484,3.926621913909912,-2.5914268493652344
1130,64000.0,8.925228118896484,3.926621913909912,-2.5914268493652344
1131,64100.0,8.925228118896484,3.926621913909912,-2.5914268493652344
1132,64200.0,7.714460372924805,5.8265228271484375,-1.0983055830001829
1133,64300.0,7.714460372924805,5.8265228271484375,-1.0983055830001829
1134,64400.0,9.82971477508545,4.890929222106934,-0.9595218896865844
1135,64500.0,9.82971477508545,4.890929222106934,-0.9595218896865844
1136,64600.0,8.47059154510498,2.9288151264190674,-2.2157537937164307
1137,64700.0,8.47059154510498,2.9288151264190674,-2.2157537937164307
1138,64800.0,8.212166786193848,3.235095977783203,-1.2969098091125488
1139,64900.0,8.212166786193848,3.235095977783203,-1.2969098091125488
1140,64000.0,8.925228118896484,3.926621913909912,-2.5914268493652344
1141,64100.0,8.925228118896484,3.926621913909912,-2.5914268493652344
1142,64200.0,7.714460372924805,5.8265228271484375,-1.0983055830001829
1143,64300.0,7.714460372924805,5.8265228271484375,-1.0983055830001829
1144,64400.0,9.82971477508545,4.890929222106934,-0.9595218896865844
1145,64500.0,9.82971477508545,4.890929222106934,-0.9595218896865844
1146,64600.0,8.47059154510498,2.9288151264190674,-2.2157537937164307
1147,64700.0,8.47059154510498,2.9288151264190674,-2.2157537937164307
1148,64800.0,8.212166786193848,3.235095977783203,-1.2969098091125488
1149,64900.0,8.212166786193848,3.235095977783203,-1.2969098091125488
1150,65000.0,9.18843936920166,2.770888566970825,-1.361515998840332
1151,65100.0,9.18843936920166,2.770888566970825,-1.361515998840332
1152,65200.0,9.18843936920166,2.770888566970825,-1.361515998840332
1153,65300.0,9.20279598236084,3.747160196304321,-1.8257235288619995
1154,65400.0,9.20279598236084,3.747160196304321,-1.8257235288619995
1155,65500.0,9.63828945159912,4.19701099395752,-1.7682960033416748
1156,65600.0,9.63828945159912,4.19701099395752,-1.7682960033416748
1157,65700.0,9.63828945159912,4.19701099395752,-1.7682960033416748
1158,65800.0,9.17886734008789,3.0197420120239262,-2.3880369663238525
1159,65900.0,9.17886734008789,3.0197420120239262,-2.3880369663238525
1160,65000.0,9.18843936920166,2.770888566970825,-1.361515998840332
1161,65100.0,9.18843936920166,2.770888566970825,-1.361515998840332
1162,65200.0,9.18843936920166,2.770888566970825,-1.361515998840332
1163,65300.0,9.20279598236084,3.747160196304321,-1.8257235288619995
1164,65400.0,9.20279598236084,3.747160196304321,-1.8257235288619995
1165,65500.0,9.63828945159912,4.19701099395752,-1.7682960033416748
1166,65600.0,9.63828945159912,4.19701099395752,-1.7682960033416748
1167,65700.0,9.63828945159912,4.19701099395752,-1.7682960033416748
1168,65800.0,9.17886734008789,3.0197420120239262,-2.3880369663238525
1169,65900.0,9.17886734008789,3.0197420120239262,-2.3880369663238525
1170,66000.0,8.044669151306152,2.0817556381225586,-2.084148406982422
1171,66100.0,8.044669151306152,2.0817556381225586,-2.084148406982422
1172,66200.0,8.126025199890138,4.804787635803223,-0.9619146585464478
1173,66300.0,8.126025199890138,4.804787635803223,-0.9619146585464478
1174,66400.0,9.542576789855957,4.299902439117432,-2.67278265953064
1175,66500.0,9.542576789855957,4.299902439117432,-2.67278265953064
1176,66600.0,9.097511291503906,3.7256247997283936,-3.0149567127227783
1177,66700.0,9.097511291503906,3.7256247997283936,-3.0149567127227783
1178,66800.0,7.240681171417236,1.9501504898071291,-1.2658032178878784
1179,66900.0,7.240681171417236,1.9501504898071291,-1.2658032178878784
1180,66000.0,8.044669151306152,2.0817556381225586,-2.084148406982422
1181,66100.0,8.044669151306152,2.0817556381225586,-2.084148406982422
1182,66200.0,8.126025199890138,4.804787635803223,-0.9619146585464478
1183,66300.0,8.126025199890138,4.804787635803223,-0.9619146585464478
1184,66400.0,9.542576789855957,4.299902439117432,-2.67278265953064
1185,66500.0,9.542576789855957,4.299902439117432,-2.67278265953064
1186,66600.0,9.097511291503906,3.7256247997283936,-3.0149567127227783
1187,66700.0,9.097511291503906,3.7256247997283936,-3.0149567127227783
1188,66800.0,7.240681171417236,1.9501504898071291,-1.2658032178878784
1189,66900.0,7.240681171417236,1.9501504898071291,-1.2658032178878784
1190,67000.0,7.240681171417236,1.9501504898071291,-1.2658032178878784
1191,67100.0,7.599604606628418,1.5936198234558103,-0.1698903888463974
1192,67200.0,7.599604606628418,1.5936198234558103,-0.1698903888463974
1193,67300.0,9.399007797241213,4.153940200805663,-1.9142580032348635
1194,67400.0,9.399007797241213,4.153940200805663,-1.9142580032348635
1195,67500.0,9.399007797241213,4.153940200805663,-1.9142580032348635
1196,67600.0,9.245866775512695,3.943371772766113,-2.1032910346984863
1197,67700.0,9.245866775512695,3.943371772766113,-2.1032910346984863
1198,67800.0,11.026127815246582,2.909672498703003,-1.3663017749786377
1199,67900.0,11.026127815246582,2.909672498703003,-1.3663017749786377
1200,67000.0,7.240681171417236,1.9501504898071291,-1.2658032178878784
1201,67100.0,7.599604606628418,1.5936198234558103,-0.1698903888463974
1202,67200.0,7.599604606628418,1.5936198234558103,-0.1698903888463974
1203,67300.0,9.399007797241213,4.153940200805663,-1.9142580032348635
1204,67400.0,9.399007797241213,4.153940200805663,-1.9142580032348635
1205,67500.0,9.399007797241213,4.153940200805663,-1.9142580032348635
1206,67600.0,9.245866775512695,3.943371772766113,-2.1032910346984863
1207,67700.0,9.245866775512695,3.943371772766113,-2.1032910346984863
1208,67800.0,11.026127815246582,2.909672498703003,-1.3663017749786377
1209,67900.0,11.026127815246582,2.909672498703003,-1.3663017749786377
1210,68000.0,8.374878883361816,0.763310432434082,-1.8544375896453855
1211,68100.0,8.374878883361816,0.763310432434082,-1.8544375896453855
1212,68200.0,8.374878883361816,0.763310432434082,-1.8544375896453855
1213,68300.0,7.905886173248291,2.344966173171997,-2.311466693878174
1214,68400.0,7.905886173248291,2.344966173171997,-2.311466693878174
1215,68500.0,8.906085968017578,2.7828526496887207,-2.0171494483947754
1216,68600.0,8.906085968017578,2.7828526496887207,-2.0171494483947754
1217,68700.0,8.906085968017578,2.7828526496887207,-2.0171494483947754
1218,68800.0,11.17926788330078,2.57228422164917,-3.012563943862915
1219,68900.0,11.17926788330078,2.57228422164917,-3.012563943862915
1220,68000.0,8.374878883361816,0.763310432434082,-1.8544375896453855
1221,68100.0,8.374878883361816,0.763310432434082,-1.8544375896453855
1222,68200.0,8.374878883361816,0.763310432434082,-1.8544375896453855
1223,68300.0,7.905886173248291,2.344966173171997,-2.311466693878174
1224,68400.0,7.905886173248291,2.344966173171997,-2.311466693878174
1225,68500.0,8.906085968017578,2.7828526496887207,-2.0171494483947754
1226,68600.0,8.906085968017578,2.7828526496887207,-2.0171494483947754
1227,68700.0,8.906085968017578,2.7828526496887207,-2.0171494483947754
1228,68800.0,11.17926788330078,2.57228422164917,-3.012563943862915
1229,68900.0,11.17926788330078,2.57228422164917,-3.012563943862915
1230,69000.0,8.475377082824707,1.368694543838501,-2.868994235992432
1231,69100.0,8.475377082824707,1.368694543838501,-2.868994235992432
1232,69200.0,8.149953842163086,2.258824586868286,-1.0217353105545044
1233,69300.0,8.149953842163086,2.258824586868286,-1.0217353105545044
1234,69400.0,7.671389579772949,3.2757742404937744,-1.0217353105545044
1235,69500.0,7.671389579772949,3.2757742404937744,-1.0217353105545044
1236,69600.0,9.298508644104004,4.182653903961182,-1.9094725847244265
1237,69700.0,9.298508644104004,4.182653903961182,-1.9094725847244265
1238,69800.0,11.921042442321776,2.514856576919556,-3.1058835983276367
1239,69900.0,11.921042442321776,2.514856576919556,-3.1058835983276367
1240,69000.0,8.475377082824707,1.368694543838501,-2.868994235992432
1241,69100.0,8.475377082824707,1.368694543838501,-2.868994235992432
1242,69200.0,8.149953842163086,2.258824586868286,-1.0217353105545044
1243,69300.0,8.149953842163086,2.258824586868286,-1.0217353105545044
1244,69400.0,7.671389579772949,3.2757742404937744,-1.0217353105545044
1245,69500.0,7.671389579772949,3.2757742404937744,-1.0217353105545044
1246,69600.0,9.298508644104004,4.182653903961182,-1.9094725847244265
1247,69700.0,9.298508644104004,4.182653903961182,-1.9094725847244265
1248,69800.0,11.921042442321776,2.514856576919556,-3.1058835983276367
1249,69900.0,11.921042442321776,2.514856576919556,-3.1058835983276367
1250,70000.0,11.921042442321776,2.514856576919556,-3.1058835983276367
1251,70100.0,7.63310432434082,1.9238293170928955,-1.6319050788879397
1252,70200.0,7.63310432434082,1.9238293170928955,-1.6319050788879397
1253,70300.0,8.915657043457031,2.1128623485565186,-2.6632115840911865
1254,70400.0,8.915657043457031,2.1128623485565186,-2.6632115840911865
1255,70500.0,8.963513374328613,3.1968109607696533,-2.900100946426392
1256,70600.0,8.963513374328613,3.1968109607696533,-2.900100946426392
1257,70700.0,8.963513374328613,3.1968109607696533,-2.900100946426392
1258,70800.0,11.490333557128904,3.081955671310425,-2.5196423530578613
1259,70900.0,11.490333557128904,3.081955671310425,-2.5196423530578613
1260,70000.0,11.921042442321776,2.514856576919556,-3.1058835983276367
1261,70100.0,7.63310432434082,1.9238293170928955,-1.6319050788879397
1262,70200.0,7.63310432434082,1.9238293170928955,-1.6319050788879397
1263,70300.0,8.915657043457031,2.1128623485565186,-2.6632115840911865
1264,70400.0,8.915657043457031,2.1128623485565186,-2.6632115840911865
1265,70500.0,8.963513374328613,3.1968109607696533,-2.900100946426392
1266,70600.0,8.963513374328613,3.1968109607696533,-2.900100946426392
1267,70700.0,8.963513374328613,3.1968109607696533,-2.900100946426392
1268,70800.0,11.490333557128904,3.081955671310425,-2.5196423530578613
1269,70900.0,11.490333557128904,3.081955671310425,-2.5196423530578613
1270,71000.0,8.997013092041016,3.5030922889709477,-2.2516460418701167
1271,71100.0,8.997013092041016,3.5030922889709477,-2.2516460418701167
1272,71200.0,7.125825881958008,1.794616937637329,-0.8805587291717529
1273,71300.0,7.125825881958008,1.794616937637329,-0.8805587291717529
1274,71400.0,8.657232284545897,3.7663028240203857,-1.430907964706421
1275,71500.0,8.657232284545897,3.7663028240203857,-1.430907964706421
1276,71600.0,8.657232284545897,3.7663028240203857,-1.430907964706421
1277,71700.0,9.57607650756836,4.019941806793213,-3.184847116470337
1278,71800.0,9.57607650756836,4.019941806793213,-3.184847116470337
1279,71900.0,13.442877769470215,4.67078971862793,-2.1990041732788086
1280,71000.0,8.997013092041016,3.5030922889709477,-2.2516460418701167
1281,71100.0,8.997013092041016,3.5030922889709477,-2.2516460418701167
1282,71200.0,7.125825881958008,1.794616937637329,-0.8805587291717529
1283,71300.0,7.125825881958008,1.794616937637329,-0.8805587291717529
1284,71400.0,8.657232284545897,3.7663028240203857,-1.430907964706421
1285,71500.0,8.657232284545897,3.7663028240203857,-1.430907964706421
1286,71600.0,8.657232284545897,3.7663028240203857,-1.430907964706421
1287,71700.0,9.57607650756836,4.019941806793213,-3.184847116470337
1288,71800.0,9.57607650756836,4.019941806793213,-3.184847116470337
1289,71900.0,13.442877769470215,4.67078971862793,-2.1990041732788086
1290,72000.0,13.442877769470215,4.67078971862793,-2.1990041732788086
1291,72100.0,9.020941734313963,0.4211367666721344,0.6987042427062988
1292,72200.0,9.020941734313963,0.4211367666721344,0.6987042427062988
1293,72300.0,8.135597229003906,1.3591231107711792,-1.026520848274231
1294,72400.0,8.135597229003906,1.3591231107711792,-1.026520848274231
1295,72500.0,8.135597229003906,1.3591231107711792,-1.026520848274231
1296,72600.0,8.848658561706543,4.273581027984618,-2.177468776702881
1297,72700.0,8.848658561706543,4.273581027984618,-2.177468776702881
1298,72800.0,9.035298347473145,2.8283162117004395,-2.280359983444214
1299,72900.0,9.035298347473145,2.8283162117004395,-2.280359983444214
1300,72000.0,13.442877769470215,4.67078971862793,-2.1990041732788086
1301,72100.0,9.020941734313963,0.4211367666721344,0.6987042427062988
1302,72200.0,9.020941734313963,0.4211367666721344,0.6987042427062988
1303,72300.0,8.135597229003906,1.3591231107711792,-1.026520848274231
1304,72400.0,8.135597229003906,1.3591231107711792,-1.026520848274231
1305,72500.0,8.135597229003906,1.3591231107711792,-1.026520848274231
1306,72600.0,8.848658561706543,4.273581027984618,-2.177468776702881
1307,72700.0,8.848658561706543,4.273581027984618,-2.177468776702881
1308,72800.0,9.035298347473145,2.8283162117004395,-2.280359983444214
1309,72900.0,9.035298347473145,2.8283162117004395,-2.280359983444214
1310,73000.0,9.035298347473145,2.8283162117004395,-2.280359983444214
1311,73100.0,8.815157890319824,2.720639228820801,-2.2253248691558842
1312,73200.0,8.815157890319824,2.720639228820801,-2.2253248691558842
1313,73300.0,9.944571495056152,1.3998013734817505,-2.0650060176849365
1314,73400.0,9.944571495056152,1.3998013734817505,-2.0650060176849365
1315,73500.0,10.107282638549805,2.6081764698028564,-1.5361920595169067
1316,73600.0,10.107282638549805,2.6081764698028564,-1.5361920595169067
1317,73700.0,9.556933403015137,2.517249345779419,-1.1030912399291992
1318,73800.0,9.556933403015137,2.517249345779419,-1.1030912399291992
1319,73900.0,9.336793899536133,2.431107759475708,-1.3328022956848145
