,timestamp,ax,ay,az
0,7000.0,-0.5345055460929871,-9.592369079589844,0.8487445116043091
1,7100.0,-0.5345055460929871,-9.592369079589844,0.8487445116043091
2,7200.0,-0.5345055460929871,-9.592369079589844,0.8487445116043091
3,7300.0,-0.14185644686222074,-9.493608474731444,0.7368155717849731
4,7400.0,-0.9894038438796996,-9.606734275817873,1.2599486112594604
5,7500.0,-0.9894038438796996,-9.606734275817873,1.2599486112594604
6,7600.0,-0.7439981698989868,-9.576208114624023,0.8882488012313843
7,7700.0,-0.7439981698989868,-9.576208114624023,0.8882488012313843
8,7800.0,-0.4321534037590027,-9.624691009521484,0.15682020783424375
9,7900.0,-0.4321534037590027,-9.624691009521484,0.15682020783424375
10,8000.0,-0.4285621047019959,-9.934141159057617,0.4495113790035248
11,8100.0,-0.4285621047019959,-9.934141159057617,0.4495113790035248
12,8200.0,-0.6165069341659546,-9.412205696105957,-0.18315643072128296
13,8300.0,-0.3669114112854004,-9.61870574951172,0.18734627962112427
14,8400.0,-0.3669114112854004,-9.61870574951172,0.18734627962112427
15,8500.0,-0.008379706181585789,-9.733028411865234,0.0933738648891449
16,8600.0,-0.008379706181585789,-9.733028411865234,0.0933738648891449
17,8700.0,-0.04489128291606903,-9.68933391571045,0.12868833541870114
18,8800.0,-0.04489128291606903,-9.68933391571045,0.12868833541870114
19,8900.0,0.3998316824436188,-9.622895240783693,-0.2472013235092163
20,8000.0,-0.4285621047019959,-9.934141159057617,0.4495113790035248
21,8100.0,-0.4285621047019959,-9.934141159057617,0.4495113790035248
22,8200.0,-0.6165069341659546,-9.412205696105957,-0.18315643072128296
23,8300.0,-0.3669114112854004,-9.61870574951172,0.18734627962112427
24,8400.0,-0.3669114112854004,-9.61870574951172,0.18734627962112427
25,8500.0,-0.008379706181585789,-9.733028411865234,0.0933738648891449
26,8600.0,-0.008379706181585789,-9.733028411865234,0.0933738648891449
27,8700.0,-0.04489128291606903,-9.68933391571045,0.12868833541870114
28,8800.0,-0.04489128291606903,-9.68933391571045,0.12868833541870114
29,8900.0,0.3998316824436188,-9.622895240783693,-0.2472013235092163
30,9000.0,0.3998316824436188,-9.622895240783693,-0.2472013235092163
31,9100.0,-0.3118447661399841,-9.633070945739746,-0.005386953707784414
32,9200.0,0.2059013396501541,-9.66299819946289,0.13287819921970367
33,9300.0,0.2059013396501541,-9.66299819946289,0.13287819921970367
34,9400.0,-0.6655880808830261,-9.643245697021484,0.7930793166160583
35,9500.0,-0.6655880808830261,-9.643245697021484,0.7930793166160583
36,9600.0,-0.5590460896492004,-9.602544784545898,0.39803603291511536
37,9700.0,-0.5590460896492004,-9.602544784545898,0.39803603291511536
38,9800.0,0.2286462634801865,-9.725247383117676,0.3932476341724396
39,9900.0,0.2286462634801865,-9.725247383117676,0.3932476341724396
40,9000.0,0.3998316824436188,-9.622895240783693,-0.2472013235092163
41,9100.0,-0.3118447661399841,-9.633070945739746,-0.005386953707784414
42,9200.0,0.2059013396501541,-9.66299819946289,0.13287819921970367
43,9300.0,0.2059013396501541,-9.66299819946289,0.13287819921970367
44,9400.0,-0.6655880808830261,-9.643245697021484,0.7930793166160583
45,9500.0,-0.6655880808830261,-9.643245697021484,0.7930793166160583
46,9600.0,-0.5590460896492004,-9.602544784545898,0.39803603291511536
47,9700.0,-0.5590460896492004,-9.602544784545898,0.39803603291511536
48,9800.0,0.2286462634801865,-9.725247383117676,0.3932476341724396
49,9900.0,0.2286462634801865,-9.725247383117676,0.3932476341724396
50,10000.0,-1.105522632598877,-9.627084732055664,0.7823054194450378
51,10100.0,-0.6530185341835022,-9.5624418258667,0.5309142470359802
52,10200.0,-0.6530185341835022,-9.5624418258667,0.5309142470359802
53,10300.0,-0.22206220030784607,-9.670180320739746,0.558447539806366
54,10400.0,-0.22206220030784607,-9.670180320739746,0.558447539806366
55,10500.0,-1.1336544752120972,-9.536105155944824,1.0456676483154297
56,10600.0,-1.1336544752120972,-9.536105155944824,1.0456676483154297
57,10700.0,-0.5722141861915588,-9.475651741027832,0.7912836670875549
58,10800.0,-0.5722141861915588,-9.475651741027832,0.7912836670875549
59,10900.0,-0.5476736426353455,-9.595361709594727,0.4620809257030487
60,10000.0,-1.105522632598877,-9.627084732055664,0.7823054194450378
61,10100.0,-0.6530185341835022,-9.5624418258667,0.5309142470359802
62,10200.0,-0.6530185341835022,-9.5624418258667,0.5309142470359802
63,10300.0,-0.22206220030784607,-9.670180320739746,0.558447539806366
64,10400.0,-0.22206220030784607,-9.670180320739746,0.558447539806366
65,10500.0,-1.1336544752120972,-9.536105155944824,1.0456676483154297
66,10600.0,-1.1336544752120972,-9.536105155944824,1.0456676483154297
67,10700.0,-0.5722141861915588,-9.475651741027832,0.7912836670875549
68,10800.0,-0.5722141861915588,-9.475651741027832,0.7912836670875549
69,10900.0,-0.5476736426353455,-9.595361709594727,0.4620809257030487
70,11000.0,-0.29568392038345337,-9.733627319335938,0.7433996200561523
71,11100.0,-0.29568392038345337,-9.733627319335938,0.7433996200561523
72,11200.0,-0.4435258507728577,-9.689932823181152,0.4016273319721222
73,11300.0,-0.4435258507728577,-9.689932823181152,0.4016273319721222
74,11400.0,-0.15023615956306458,-9.622296333312988,0.284311443567276
75,11500.0,-0.15023615956306458,-9.622296333312988,0.284311443567276
76,11600.0,-0.7667431235313416,-9.537302017211914,0.8978256583213806
77,11700.0,-0.7667431235313416,-9.537302017211914,0.8978256583213806
78,11800.0,-0.3669114112854004,-9.551069259643556,0.7583633661270142
79,11900.0,-0.4944026470184326,-9.62947940826416,0.6326677799224854
80,11000.0,-0.29568392038345337,-9.733627319335938,0.7433996200561523
81,11100.0,-0.29568392038345337,-9.733627319335938,0.7433996200561523
82,11200.0,-0.4435258507728577,-9.689932823181152,0.4016273319721222
83,11300.0,-0.4435258507728577,-9.689932823181152,0.4016273319721222
84,11400.0,-0.15023615956306458,-9.622296333312988,0.284311443567276
85,11500.0,-0.15023615956306458,-9.622296333312988,0.284311443567276
86,11600.0,-0.7667431235313416,-9.537302017211914,0.8978256583213806
87,11700.0,-0.7667431235313416,-9.537302017211914,0.8978256583213806
88,11800.0,-0.3669114112854004,-9.551069259643556,0.7583633661270142
89,11900.0,-0.4944026470184326,-9.62947940826416,0.6326677799224854
90,12000.0,-0.4944026470184326,-9.62947940826416,0.6326677799224854
91,12100.0,-0.839766263961792,-9.604340553283693,0.8361749649047852
92,12200.0,-0.839766263961792,-9.604340553283693,0.8361749649047852
93,12300.0,-0.44412440061569214,-9.560047149658203,0.4824316501617432
94,12400.0,-0.44412440061569214,-9.560047149658203,0.4824316501617432
95,12500.0,-0.6206967830657959,-9.6803560256958,0.6440402865409851
96,12600.0,-0.6206967830657959,-9.6803560256958,0.6440402865409851
97,12700.0,-0.16879121959209442,-9.694122314453123,0.323815792798996
98,12800.0,-0.6422445774078369,-9.604340553283693,0.5315127968788147
99,12900.0,-0.6422445774078369,-9.604340553283693,0.5315127968788147
100,12000.0,-0.4944026470184326,-9.62947940826416,0.6326677799224854
101,12100.0,-0.839766263961792,-9.604340553283693,0.8361749649047852
102,12200.0,-0.839766263961792,-9.604340553283693,0.8361749649047852
103,12300.0,-0.44412440061569214,-9.560047149658203,0.4824316501617432
104,12400.0,-0.44412440061569214,-9.560047149658203,0.4824316501617432
105,12500.0,-0.6206967830657959,-9.6803560256958,0.6440402865409851
106,12600.0,-0.6206967830657959,-9.6803560256958,0.6440402865409851
107,12700.0,-0.16879121959209442,-9.694122314453123,0.323815792798996
108,12800.0,-0.6422445774078369,-9.604340553283693,0.5315127968788147
109,12900.0,-0.6422445774078369,-9.604340553283693,0.5315127968788147
110,13000.0,-0.8289923667907715,-9.674370765686037,0.8667010068893433
111,13100.0,-0.8289923667907715,-9.674370765686037,0.8667010068893433
112,13200.0,-0.3992331326007843,-9.603142738342283,0.5728127360343933
113,13300.0,-0.3992331326007843,-9.603142738342283,0.5728127360343933
114,13400.0,-0.4273650050163269,-9.586383819580078,0.37828385829925537
115,13500.0,-0.4273650050163269,-9.586383819580078,0.37828385829925537
116,13600.0,-0.4465186297893524,-9.62409210205078,0.7422025203704834
117,13700.0,-0.4644751250743866,-9.66958236694336,0.4614823758602142
118,13800.0,-0.4644751250743866,-9.66958236694336,0.4614823758602142
119,13900.0,-0.5021837949752808,-9.596558570861816,0.4339490532875061
120,13000.0,-0.8289923667907715,-9.674370765686037,0.8667010068893433
121,13100.0,-0.8289923667907715,-9.674370765686037,0.8667010068893433
122,13200.0,-0.3992331326007843,-9.603142738342283,0.5728127360343933
123,13300.0,-0.3992331326007843,-9.603142738342283,0.5728127360343933
124,13400.0,-0.4273650050163269,-9.586383819580078,0.37828385829925537
125,13500.0,-0.4273650050163269,-9.586383819580078,0.37828385829925537
126,13600.0,-0.4465186297893524,-9.62409210205078,0.7422025203704834
127,13700.0,-0.4644751250743866,-9.66958236694336,0.4614823758602142
128,13800.0,-0.4644751250743866,-9.66958236694336,0.4614823758602142
129,13900.0,-0.5021837949752808,-9.596558570861816,0.4339490532875061
130,14000.0,-0.5021837949752808,-9.596558570861816,0.4339490532875061
131,14100.0,-0.4058171808719635,-9.72285270690918,0.761954665184021
132,14200.0,-0.4058171808719635,-9.72285270690918,0.761954665184021
133,14300.0,-0.0867898091673851,-9.627683639526367,0.6596025824546814
134,14400.0,-0.0867898091673851,-9.627683639526367,0.6596025824546814
135,14500.0,-0.4728548228740692,-9.533711433410645,0.6991068720817566
136,14600.0,0.17238251864910126,-9.671378135681152,0.4165911078453064
137,14700.0,0.17238251864910126,-9.671378135681152,0.4165911078453064
138,14800.0,-0.13287819921970367,-9.479841232299805,0.33758243918418884
139,14900.0,-0.13287819921970367,-9.479841232299805,0.33758243918418884
140,14000.0,-0.5021837949752808,-9.596558570861816,0.4339490532875061
141,14100.0,-0.4058171808719635,-9.72285270690918,0.761954665184021
142,14200.0,-0.4058171808719635,-9.72285270690918,0.761954665184021
143,14300.0,-0.0867898091673851,-9.627683639526367,0.6596025824546814
144,14400.0,-0.0867898091673851,-9.627683639526367,0.6596025824546814
145,14500.0,-0.4728548228740692,-9.533711433410645,0.6991068720817566
146,14600.0,0.17238251864910126,-9.671378135681152,0.4165911078453064
147,14700.0,0.17238251864910126,-9.671378135681152,0.4165911078453064
148,14800.0,-0.13287819921970367,-9.479841232299805,0.33758243918418884
149,14900.0,-0.13287819921970367,-9.479841232299805,0.33758243918418884
150,15000.0,-1.106719732284546,-9.630077362060547,0.9481038451194764
151,15100.0,-1.106719732284546,-9.630077362060547,0.9481038451194764
152,15200.0,-0.06584054976701736,-9.682151794433594,0.4830302000045776
153,15300.0,-0.06584054976701736,-9.682151794433594,0.4830302000045776
154,15400.0,-0.035314474254846566,-9.678560256958008,0.152031809091568
155,15500.0,-0.12270283699035645,-9.751583099365234,0.3986345827579498
156,15600.0,-0.12270283699035645,-9.751583099365234,0.3986345827579498
157,15700.0,-0.043095629662275314,-9.592967987060547,0.5039794445037842
158,15800.0,-0.043095629662275314,-9.592967987060547,0.5039794445037842
159,15900.0,-0.08140286058187485,-9.59715747833252,0.7876923680305481
160,15000.0,-1.106719732284546,-9.630077362060547,0.9481038451194764
161,15100.0,-1.106719732284546,-9.630077362060547,0.9481038451194764
162,15200.0,-0.06584054976701736,-9.682151794433594,0.4830302000045776
163,15300.0,-0.06584054976701736,-9.682151794433594,0.4830302000045776
164,15400.0,-0.035314474254846566,-9.678560256958008,0.152031809091568
165,15500.0,-0.12270283699035645,-9.751583099365234,0.3986345827579498
166,15600.0,-0.12270283699035645,-9.751583099365234,0.3986345827579498
167,15700.0,-0.043095629662275314,-9.592967987060547,0.5039794445037842
168,15800.0,-0.043095629662275314,-9.592967987060547,0.5039794445037842
169,15900.0,-0.08140286058187485,-9.59715747833252,0.7876923680305481
170,16000.0,-0.08140286058187485,-9.59715747833252,0.7876923680305481
171,16100.0,-0.010773907415568829,-9.535507202148438,1.0648212432861328
172,16200.0,-0.010773907415568829,-9.535507202148438,1.0648212432861328
173,16300.0,-0.5273229479789734,-9.493009567260742,1.4562731981277466
174,16400.0,-0.5273229479789734,-9.493009567260742,1.4562731981277466
175,16500.0,-0.4985924959182739,-9.359533309936523,1.1737574338912964
176,16600.0,0.5650315880775452,-9.578003883361816,0.4997895956039429
177,16700.0,0.5650315880775452,-9.578003883361816,0.4997895956039429
178,16800.0,0.8170213103294373,-9.829395294189453,0.8164227604866028
179,16900.0,0.8170213103294373,-9.829395294189453,0.8164227604866028
180,16000.0,-0.08140286058187485,-9.59715747833252,0.7876923680305481
181,16100.0,-0.010773907415568829,-9.535507202148438,1.0648212432861328
182,16200.0,-0.010773907415568829,-9.535507202148438,1.0648212432861328
183,16300.0,-0.5273229479789734,-9.493009567260742,1.4562731981277466
184,16400.0,-0.5273229479789734,-9.493009567260742,1.4562731981277466
185,16500.0,-0.4985924959182739,-9.359533309936523,1.1737574338912964
186,16600.0,0.5650315880775452,-9.578003883361816,0.4997895956039429
187,16700.0,0.5650315880775452,-9.578003883361816,0.4997895956039429
188,16800.0,0.8170213103294373,-9.829395294189453,0.8164227604866028
189,16900.0,0.8170213103294373,-9.829395294189453,0.8164227604866028
190,17000.0,0.20889410376548767,-9.619902610778807,1.091755986213684
191,17100.0,0.20889410376548767,-9.619902610778807,1.091755986213684
192,17200.0,-0.689530074596405,-9.525331497192383,1.5580267906188965
193,17300.0,-0.689530074596405,-9.525331497192383,1.5580267906188965
194,17400.0,0.8259995579719543,-9.59476375579834,0.9493009448051452
195,17500.0,0.08798690885305405,-9.683947563171387,1.2270283699035645
196,17600.0,0.08798690885305405,-9.683947563171387,1.2270283699035645
197,17700.0,-0.3190273642539978,-9.599552154541016,1.3724761009216309
198,17800.0,-0.3190273642539978,-9.599552154541016,1.3724761009216309
199,17900.0,-0.038307227194309235,-9.64683723449707,0.9624691009521484
200,17000.0,0.20889410376548767,-9.619902610778807,1.091755986213684
201,17100.0,0.20889410376548767,-9.619902610778807,1.091755986213684
202,17200.0,-0.689530074596405,-9.525331497192383,1.5580267906188965
203,17300.0,-0.689530074596405,-9.525331497192383,1.5580267906188965
204,17400.0,0.8259995579719543,-9.59476375579834,0.9493009448051452
205,17500.0,0.08798690885305405,-9.683947563171387,1.2270283699035645
206,17600.0,0.08798690885305405,-9.683947563171387,1.2270283699035645
207,17700.0,-0.3190273642539978,-9.599552154541016,1.3724761009216309
208,17800.0,-0.3190273642539978,-9.599552154541016,1.3724761009216309
209,17900.0,-0.038307227194309235,-9.64683723449707,0.9624691009521484
210,18000.0,-0.038307227194309235,-9.64683723449707,0.9624691009521484
211,18100.0,-0.444722980260849,-9.536704063415527,1.128267526626587
212,18200.0,-0.444722980260849,-9.536704063415527,1.128267526626587
213,18300.0,-0.2364274114370346,-9.668983459472656,0.8661024570465088
214,18400.0,-0.4171896576881409,-9.601945877075195,0.9157821536064148
215,18500.0,-0.4171896576881409,-9.601945877075195,0.9157821536064148
216,18600.0,-0.8529343605041504,-9.396044731140137,1.0582371950149536
217,18700.0,-0.8529343605041504,-9.396044731140137,1.0582371950149536
218,18800.0,-0.5374982953071594,-9.607333183288574,1.0582371950149536
219,18900.0,-0.5374982953071594,-9.607333183288574,1.0582371950149536
220,18000.0,-0.038307227194309235,-9.64683723449707,0.9624691009521484
221,18100.0,-0.444722980260849,-9.536704063415527,1.128267526626587
222,18200.0,-0.444722980260849,-9.536704063415527,1.128267526626587
223,18300.0,-0.2364274114370346,-9.668983459472656,0.8661024570465088
224,18400.0,-0.4171896576881409,-9.601945877075195,0.9157821536064148
225,18500.0,-0.4171896576881409,-9.601945877075195,0.9157821536064148
226,18600.0,-0.8529343605041504,-9.396044731140137,1.0582371950149536
227,18700.0,-0.8529343605041504,-9.396044731140137,1.0582371950149536
228,18800.0,-0.5374982953071594,-9.607333183288574,1.0582371950149536
229,18900.0,-0.5374982953071594,-9.607333183288574,1.0582371950149536
230,19000.0,-0.517746090888977,-9.554061889648438,0.6961141228675842
231,19100.0,-0.517746090888977,-9.554061889648438,0.6961141228675842
232,19200.0,-0.4417302012443543,-9.549273490905762,0.8559271097183228
233,19300.0,0.07781155407428741,-9.693524360656738,0.557250440120697
234,19400.0,0.07781155407428741,-9.693524360656738,0.557250440120697
235,19500.0,0.07900865375995636,-9.691728591918944,0.26156654953956604
236,19600.0,0.07900865375995636,-9.691728591918944,0.26156654953956604
237,19700.0,-0.33339259028434753,-9.6989107131958,0.5003881454467773
238,19800.0,-0.33339259028434753,-9.6989107131958,0.5003881454467773
239,19900.0,-0.3561375141143799,-9.638457298278807,0.7595604658126831
240,19000.0,-0.517746090888977,-9.554061889648438,0.6961141228675842
241,19100.0,-0.517746090888977,-9.554061889648438,0.6961141228675842
242,19200.0,-0.4417302012443543,-9.549273490905762,0.8559271097183228
243,19300.0,0.07781155407428741,-9.693524360656738,0.557250440120697
244,19400.0,0.07781155407428741,-9.693524360656738,0.557250440120697
245,19500.0,0.07900865375995636,-9.691728591918944,0.26156654953956604
246,19600.0,0.07900865375995636,-9.691728591918944,0.26156654953956604
247,19700.0,-0.33339259028434753,-9.6989107131958,0.5003881454467773
248,19800.0,-0.33339259028434753,-9.6989107131958,0.5003881454467773
249,19900.0,-0.3561375141143799,-9.638457298278807,0.7595604658126831
250,20000.0,-0.21009120345115664,-9.654019355773926,0.4195838570594788
251,20100.0,-0.21009120345115664,-9.654019355773926,0.4195838570594788
252,20200.0,-0.2950853705406189,-9.633668899536133,0.5973533391952515
253,20300.0,-0.2950853705406189,-9.633668899536133,0.5973533391952515
254,20400.0,-0.1825578808784485,-9.668384552001953,0.5770025849342346
255,20500.0,-0.1825578808784485,-9.668384552001953,0.5770025849342346
256,20600.0,-0.3106476664543152,-9.494805335998537,0.3112462162971497
257,20700.0,-0.3106476664543152,-9.494805335998537,0.3112462162971497
258,20800.0,-0.24001872539520264,-9.63726043701172,0.4519055783748626
259,20900.0,-0.24001872539520264,-9.63726043701172,0.4519055783748626
260,20000.0,-0.21009120345115664,-9.654019355773926,0.4195838570594788
261,20100.0,-0.21009120345115664,-9.654019355773926,0.4195838570594788
262,20200.0,-0.2950853705406189,-9.633668899536133,0.5973533391952515
263,20300.0,-0.2950853705406189,-9.633668899536133,0.5973533391952515
264,20400.0,-0.1825578808784485,-9.668384552001953,0.5770025849342346
265,20500.0,-0.1825578808784485,-9.668384552001953,0.5770025849342346
266,20600.0,-0.3106476664543152,-9.494805335998537,0.3112462162971497
267,20700.0,-0.3106476664543152,-9.494805335998537,0.3112462162971497
268,20800.0,-0.24001872539520264,-9.63726043701172,0.4519055783748626
269,20900.0,-0.24001872539520264,-9.63726043701172,0.4519055783748626
270,21000.0,-0.5943605899810791,-9.65222454071045,0.6380547285079956
271,21100.0,-0.33997663855552673,-9.625288963317873,0.641047477722168
272,21200.0,-0.33997663855552673,-9.625288963317873,0.641047477722168
273,21300.0,-0.2172738015651703,-9.62409210205078,0.4429273009300232
274,21400.0,-0.2172738015651703,-9.62409210205078,0.4429273009300232
275,21500.0,-0.4997895956039429,-9.610923767089844,0.5404910445213318
276,21600.0,-0.4997895956039429,-9.610923767089844,0.5404910445213318
277,21700.0,-0.3567360639572144,-9.718663215637207,0.3603273630142212
278,21800.0,-0.3567360639572144,-9.718663215637207,0.3603273630142212
279,21900.0,-0.033518824726343155,-9.694122314453123,0.5057750940322876
280,21000.0,-0.5943605899810791,-9.65222454071045,0.6380547285079956
281,21100.0,-0.33997663855552673,-9.625288963317873,0.641047477722168
282,21200.0,-0.33997663855552673,-9.625288963317873,0.641047477722168
283,21300.0,-0.2172738015651703,-9.62409210205078,0.4429273009300232
284,21400.0,-0.2172738015651703,-9.62409210205078,0.4429273009300232
285,21500.0,-0.4997895956039429,-9.610923767089844,0.5404910445213318
286,21600.0,-0.4997895956039429,-9.610923767089844,0.5404910445213318
287,21700.0,-0.3567360639572144,-9.718663215637207,0.3603273630142212
288,21800.0,-0.3567360639572144,-9.718663215637207,0.3603273630142212
289,21900.0,-0.033518824726343155,-9.694122314453123,0.5057750940322876
290,22000.0,-0.2495955228805542,-9.740211486816406,1.075595140457153
291,22100.0,-0.2495955228805542,-9.740211486816406,1.075595140457153
292,22200.0,0.14365209639072418,-9.64683723449707,0.4824316501617432
293,22300.0,0.14365209639072418,-9.64683723449707,0.4824316501617432
294,22400.0,0.3124433159828186,-9.65222454071045,0.3298012912273407
295,22500.0,0.3124433159828186,-9.65222454071045,0.3298012912273407
296,22600.0,-0.26396074891090393,-9.552865028381348,0.67815762758255
297,22700.0,-0.26396074891090393,-9.552865028381348,0.67815762758255
298,22800.0,-0.10833762586116792,-9.40023422241211,0.828393816947937
299,22900.0,-0.8768763542175293,-9.858125686645508,0.8846575021743774
300,22000.0,-0.2495955228805542,-9.740211486816406,1.075595140457153
301,22100.0,-0.2495955228805542,-9.740211486816406,1.075595140457153
302,22200.0,0.14365209639072418,-9.64683723449707,0.4824316501617432
303,22300.0,0.14365209639072418,-9.64683723449707,0.4824316501617432
304,22400.0,0.3124433159828186,-9.65222454071045,0.3298012912273407
305,22500.0,0.3124433159828186,-9.65222454071045,0.3298012912273407
306,22600.0,-0.26396074891090393,-9.552865028381348,0.67815762758255
307,22700.0,-0.26396074891090393,-9.552865028381348,0.67815762758255
308,22800.0,-0.10833762586116792,-9.40023422241211,0.828393816947937
309,22900.0,-0.8768763542175293,-9.858125686645508,0.8846575021743774
310,23000.0,-0.8768763542175293,-9.858125686645508,0.8846575021743774
311,23100.0,0.2807201445102692,-9.820416450500488,0.19033902883529666
312,23200.0,0.2807201445102692,-9.820416450500488,0.19033902883529666
313,23300.0,-0.15921440720558167,-9.761159896850586,0.3208230137825012
314,23400.0,-0.15921440720558167,-9.761159896850586,0.3208230137825012
315,23500.0,0.4728548228740692,-9.678560256958008,0.2861070930957794
316,23600.0,0.4728548228740692,-9.678560256958008,0.2861070930957794
317,23700.0,-0.669179379940033,-9.825204849243164,0.801459014415741
318,23800.0,-0.6673837304115295,-9.67077922821045,0.9163807034492492
319,23900.0,-0.6673837304115295,-9.67077922821045,0.9163807034492492
320,23000.0,-0.8768763542175293,-9.858125686645508,0.8846575021743774
321,23100.0,0.2807201445102692,-9.820416450500488,0.19033902883529666
322,23200.0,0.2807201445102692,-9.820416450500488,0.19033902883529666
323,23300.0,-0.15921440720558167,-9.761159896850586,0.3208230137825012
324,23400.0,-0.15921440720558167,-9.761159896850586,0.3208230137825012
325,23500.0,0.4728548228740692,-9.678560256958008,0.2861070930957794
326,23600.0,0.4728548228740692,-9.678560256958008,0.2861070930957794
327,23700.0,-0.669179379940033,-9.825204849243164,0.801459014415741
328,23800.0,-0.6673837304115295,-9.67077922821045,0.9163807034492492
329,23900.0,-0.6673837304115295,-9.67077922821045,0.9163807034492492
330,24000.0,-0.16579847037792206,-9.59715747833252,0.27054479718208313
331,24100.0,-0.16579847037792206,-9.59715747833252,0.27054479718208313
332,24200.0,0.43754035234451294,-9.70549488067627,0.09097966551780699
333,24300.0,0.43754035234451294,-9.70549488067627,0.09097966551780699
334,24400.0,0.5261258482933044,-9.66958236694336,0.0975637212395668
335,24500.0,0.5261258482933044,-9.66958236694336,0.0975637212395668
336,24600.0,0.8607155084609985,-9.60553741455078,-0.16160862147808075
337,24700.0,-0.10115502029657364,-9.535507202148438,0.27473464608192444
338,24800.0,-0.10115502029657364,-9.535507202148438,0.27473464608192444
339,24900.0,0.3112462162971497,-9.706692695617676,0.3315969407558441
340,24000.0,-0.16579847037792206,-9.59715747833252,0.27054479718208313
341,24100.0,-0.16579847037792206,-9.59715747833252,0.27054479718208313
342,24200.0,0.43754035234451294,-9.70549488067627,0.09097966551780699
343,24300.0,0.43754035234451294,-9.70549488067627,0.09097966551780699
344,24400.0,0.5261258482933044,-9.66958236694336,0.0975637212395668
345,24500.0,0.5261258482933044,-9.66958236694336,0.0975637212395668
346,24600.0,0.8607155084609985,-9.60553741455078,-0.16160862147808075
347,24700.0,-0.10115502029657364,-9.535507202148438,0.27473464608192444
348,24800.0,-0.10115502029657364,-9.535507202148438,0.27473464608192444
349,24900.0,0.3112462162971497,-9.706692695617676,0.3315969407558441
350,25000.0,0.3112462162971497,-9.706692695617676,0.3315969407558441
351,25100.0,-0.08978256583213806,-9.60553741455078,0.6817489266395569
352,25200.0,-0.08978256583213806,-9.60553741455078,0.6817489266395569
353,25300.0,-0.1628057211637497,-9.662399291992188,0.6560112833976746
354,25400.0,-0.1628057211637497,-9.662399291992188,0.6560112833976746
355,25500.0,-0.13168109953403473,-9.637859344482422,0.4171896576881409
356,25600.0,-0.7230489253997803,-9.68274974822998,0.7667431235313416
357,25700.0,-0.7230489253997803,-9.68274974822998,0.7667431235313416
358,25800.0,-0.10534487664699554,-9.683947563171387,0.2561795711517334
359,25900.0,-0.10534487664699554,-9.683947563171387,0.2561795711517334
360,25000.0,0.3112462162971497,-9.706692695617676,0.3315969407558441
361,25100.0,-0.08978256583213806,-9.60553741455078,0.6817489266395569
362,25200.0,-0.08978256583213806,-9.60553741455078,0.6817489266395569
363,25300.0,-0.1628057211637497,-9.662399291992188,0.6560112833976746
364,25400.0,-0.1628057211637497,-9.662399291992188,0.6560112833976746
365,25500.0,-0.13168109953403473,-9.637859344482422,0.4171896576881409
366,25600.0,-0.7230489253997803,-9.68274974822998,0.7667431235313416
367,25700.0,-0.7230489253997803,-9.68274974822998,0.7667431235313416
368,25800.0,-0.10534487664699554,-9.683947563171387,0.2561795711517334
369,25900.0,-0.10534487664699554,-9.683947563171387,0.2561795711517334
370,26000.0,-0.6955155730247498,-9.665990829467773,0.5626373887062073
371,26100.0,-0.6955155730247498,-9.665990829467773,0.5626373887062073
372,26200.0,-0.3609259128570557,-9.601346969604492,1.0157400369644165
373,26300.0,-0.3609259128570557,-9.601346969604492,1.0157400369644165
374,26400.0,-0.5722141861915588,-9.61571216583252,0.7996633648872375
375,26500.0,-0.07122749835252762,-9.528324127197266,0.4135983288288117
376,26600.0,-0.07122749835252762,-9.528324127197266,0.4135983288288117
377,26700.0,-0.09097966551780699,-9.702502250671387,0.5704185366630554
378,26800.0,-0.09097966551780699,-9.702502250671387,0.5704185366630554
379,26900.0,0.13347674906253815,-9.771934509277344,0.2861070930957794
380,26000.0,-0.6955155730247498,-9.665990829467773,0.5626373887062073
381,26100.0,-0.6955155730247498,-9.665990829467773,0.5626373887062073
382,26200.0,-0.3609259128570557,-9.601346969604492,1.0157400369644165
383,26300.0,-0.3609259128570557,-9.601346969604492,1.0157400369644165
384,26400.0,-0.5722141861915588,-9.61571216583252,0.7996633648872375
385,26500.0,-0.07122749835252762,-9.528324127197266,0.4135983288288117
386,26600.0,-0.07122749835252762,-9.528324127197266,0.4135983288288117
387,26700.0,-0.09097966551780699,-9.702502250671387,0.5704185366630554
388,26800.0,-0.09097966551780699,-9.702502250671387,0.5704185366630554
389,26900.0,0.13347674906253815,-9.771934509277344,0.2861070930957794
390,27000.0,0.13347674906253815,-9.771934509277344,0.2861070930957794
391,27100.0,-0.2603694200515747,-9.606734275817873,0.4908113479614258
392,27200.0,-0.2603694200515747,-9.606734275817873,0.4908113479614258
393,27300.0,-0.29628247022628784,-9.608530044555664,0.823006808757782
394,27400.0,-0.26396074891090393,-9.643245697021484,0.6476315855979919
395,27500.0,-0.26396074891090393,-9.643245697021484,0.6476315855979919
396,27600.0,-0.37529110908508295,-9.561842918395996,0.5740098357200623
397,27700.0,-0.37529110908508295,-9.561842918395996,0.5740098357200623
398,27800.0,-0.15502455830574036,-9.722254753112793,0.5027823448181152
399,27900.0,-0.15502455830574036,-9.722254753112793,0.5027823448181152
400,27000.0,0.13347674906253815,-9.771934509277344,0.2861070930957794
401,27100.0,-0.2603694200515747,-9.606734275817873,0.4908113479614258
402,27200.0,-0.2603694200515747,-9.606734275817873,0.4908113479614258
403,27300.0,-0.29628247022628784,-9.608530044555664,0.823006808757782
404,27400.0,-0.26396074891090393,-9.643245697021484,0.6476315855979919
405,27500.0,-0.26396074891090393,-9.643245697021484,0.6476315855979919
406,27600.0,-0.37529110908508295,-9.561842918395996,0.5740098357200623
407,27700.0,-0.37529110908508295,-9.561842918395996,0.5740098357200623
408,27800.0,-0.15502455830574036,-9.722254753112793,0.5027823448181152
409,27900.0,-0.15502455830574036,-9.722254753112793,0.5027823448181152
410,28000.0,-0.5770025849342346,-9.697713851928713,0.4267664551734924
411,28100.0,-0.5770025849342346,-9.697713851928713,0.4267664551734924
412,28200.0,-0.3699041604995728,-9.663596153259276,0.3411737382411957
413,28300.0,-0.38486793637275696,-9.549273490905762,0.4471171796321869
414,28400.0,-0.38486793637275696,-9.549273490905762,0.4471171796321869
415,28500.0,-0.5069721937179565,-9.575610160827637,0.7134721279144287
416,28600.0,-0.5069721937179565,-9.575610160827637,0.7134721279144287
417,28700.0,-0.36511576175689703,-9.621698379516602,0.5638344883918762
418,28800.0,-0.36511576175689703,-9.621698379516602,0.5638344883918762
419,28900.0,-0.3932476341724396,-9.645041465759276,0.33099839091300964
420,28000.0,-0.5770025849342346,-9.697713851928713,0.4267664551734924
421,28100.0,-0.5770025849342346,-9.697713851928713,0.4267664551734924
422,28200.0,-0.3699041604995728,-9.663596153259276,0.3411737382411957
423,28300.0,-0.38486793637275696,-9.549273490905762,0.4471171796321869
424,28400.0,-0.38486793637275696,-9.549273490905762,0.4471171796321869
425,28500.0,-0.5069721937179565,-9.575610160827637,0.7134721279144287
426,28600.0,-0.5069721937179565,-9.575610160827637,0.7134721279144287
427,28700.0,-0.36511576175689703,-9.621698379516602,0.5638344883918762
428,28800.0,-0.36511576175689703,-9.621698379516602,0.5638344883918762
429,28900.0,-0.3932476341724396,-9.645041465759276,0.33099839091300964
430,29000.0,-0.3932476341724396,-9.645041465759276,0.33099839091300964
431,29100.0,-0.29628247022628784,-9.68155288696289,0.4417302012443543
432,29200.0,-0.4285621047019959,-9.585186958312988,0.5650315880775452
433,29300.0,-0.4285621047019959,-9.585186958312988,0.5650315880775452
434,29400.0,-0.3130418658256531,-9.648633003234863,0.6584054827690125
435,29500.0,-0.3130418658256531,-9.648633003234863,0.6584054827690125
436,29600.0,0.0933738648891449,-9.57860279083252,0.5141547918319702
437,29700.0,0.0933738648891449,-9.57860279083252,0.5141547918319702
438,29800.0,0.06823474913835527,-9.518148422241213,0.5746083855628967
439,29900.0,0.06823474913835527,-9.518148422241213,0.5746083855628967
440,29000.0,-0.3932476341724396,-9.645041465759276,0.33099839091300964
441,29100.0,-0.29628247022628784,-9.68155288696289,0.4417302012443543
442,29200.0,-0.4285621047019959,-9.585186958312988,0.5650315880775452
443,29300.0,-0.4285621047019959,-9.585186958312988,0.5650315880775452
444,29400.0,-0.3130418658256531,-9.648633003234863,0.6584054827690125
445,29500.0,-0.3130418658256531,-9.648633003234863,0.6584054827690125
446,29600.0,0.0933738648891449,-9.57860279083252,0.5141547918319702
447,29700.0,0.0933738648891449,-9.57860279083252,0.5141547918319702
448,29800.0,0.06823474913835527,-9.518148422241213,0.5746083855628967
449,29900.0,0.06823474913835527,-9.518148422241213,0.5746083855628967
450,30000.0,0.008978256024420261,-9.525331497192383,0.4668693244457245
451,30100.0,-0.5764040350914001,-9.57201862335205,0.9570821523666382
452,30200.0,-0.5764040350914001,-9.57201862335205,0.9570821523666382
453,30300.0,-0.2495955228805542,-9.515155792236328,0.5907692909240723
454,30400.0,-0.2495955228805542,-9.515155792236328,0.5907692909240723
455,30500.0,0.27413609623909,-9.558850288391113,0.28969839215278625
456,30600.0,0.27413609623909,-9.558850288391113,0.28969839215278625
457,30700.0,0.0041898530907928935,-9.543288230895996,0.27653029561042786
458,30800.0,0.0041898530907928935,-9.543288230895996,0.27653029561042786
459,30900.0,-0.30226796865463257,-9.660603523254396,0.7942764163017273
460,30000.0,0.008978256024420261,-9.525331497192383,0.4668693244457245
461,30100.0,-0.5764040350914001,-9.57201862335205,0.9570821523666382
462,30200.0,-0.5764040350914001,-9.57201862335205,0.9570821523666382
463,30300.0,-0.2495955228805542,-9.515155792236328,0.5907692909240723
464,30400.0,-0.2495955228805542,-9.515155792236328,0.5907692909240723
465,30500.0,0.27413609623909,-9.558850288391113,0.28969839215278625
466,30600.0,0.27413609623909,-9.558850288391113,0.28969839215278625
467,30700.0,0.0041898530907928935,-9.543288230895996,0.27653029561042786
468,30800.0,0.0041898530907928935,-9.543288230895996,0.27653029561042786
469,30900.0,-0.30226796865463257,-9.660603523254396,0.7942764163017273
470,31000.0,-0.3321954905986786,-9.643245697021484,0.7200561761856079
471,31100.0,-0.3321954905986786,-9.643245697021484,0.7200561761856079
472,31200.0,-0.023343466222286224,-9.667786598205566,0.2873041927814484
473,31300.0,-0.023343466222286224,-9.667786598205566,0.2873041927814484
474,31400.0,0.41120412945747375,-9.711481094360352,0.08918401598930359
475,31500.0,0.41120412945747375,-9.711481094360352,0.08918401598930359
476,31600.0,0.5943605899810791,-9.765350341796877,0.28311434388160706
477,31700.0,0.5943605899810791,-9.765350341796877,0.28311434388160706
478,31800.0,0.6745663285255432,-9.539097785949707,0.1125274822115898
479,31900.0,0.20111294090747836,-9.644442558288574,0.2406172752380371
480,31000.0,-0.3321954905986786,-9.643245697021484,0.7200561761856079
481,31100.0,-0.3321954905986786,-9.643245697021484,0.7200561761856079
482,31200.0,-0.023343466222286224,-9.667786598205566,0.2873041927814484
483,31300.0,-0.023343466222286224,-9.667786598205566,0.2873041927814484
484,31400.0,0.41120412945747375,-9.711481094360352,0.08918401598930359
485,31500.0,0.41120412945747375,-9.711481094360352,0.08918401598930359
486,31600.0,0.5943605899810791,-9.765350341796877,0.28311434388160706
487,31700.0,0.5943605899810791,-9.765350341796877,0.28311434388160706
488,31800.0,0.6745663285255432,-9.539097785949707,0.1125274822115898
489,31900.0,0.20111294090747836,-9.644442558288574,0.2406172752380371
490,32000.0,0.20111294090747836,-9.644442558288574,0.2406172752380371
491,32100.0,0.7787141203880309,-9.589975357055664,0.17537526786327362
492,32200.0,0.7787141203880309,-9.589975357055664,0.17537526786327362
493,32300.0,-0.15981295704841614,-9.636661529541016,0.9169792532920836
494,32400.0,-0.15981295704841614,-9.636661529541016,0.9169792532920836
495,32500.0,0.016759412363171574,-9.444527626037598,0.586579442024231
496,32600.0,0.016759412363171574,-9.444527626037598,0.586579442024231
497,32700.0,0.020949264988303185,-9.59835433959961,0.6278793811798096
498,32800.0,-0.2406172752380371,-9.543288230895996,0.5380968451499939
499,32900.0,-0.2406172752380371,-9.543288230895996,0.5380968451499939
500,32000.0,0.20111294090747836,-9.644442558288574,0.2406172752380371
501,32100.0,0.7787141203880309,-9.589975357055664,0.17537526786327362
502,32200.0,0.7787141203880309,-9.589975357055664,0.17537526786327362
503,32300.0,-0.15981295704841614,-9.636661529541016,0.9169792532920836
504,32400.0,-0.15981295704841614,-9.636661529541016,0.9169792532920836
505,32500.0,0.016759412363171574,-9.444527626037598,0.586579442024231
506,32600.0,0.016759412363171574,-9.444527626037598,0.586579442024231
507,32700.0,0.020949264988303185,-9.59835433959961,0.6278793811798096
508,32800.0,-0.2406172752380371,-9.543288230895996,0.5380968451499939
509,32900.0,-0.2406172752380371,-9.543288230895996,0.5380968451499939
510,33000.0,-0.4231751561164856,-9.561842918395996,0.71766197681427
511,33100.0,-0.4231751561164856,-9.561842918395996,0.71766197681427
512,33200.0,-0.3016694188117981,-9.585784912109377,0.8367735147476196
513,33300.0,-0.3016694188117981,-9.585784912109377,0.8367735147476196
514,33400.0,-0.4501099288463593,-9.624691009521484,0.8104372620582581
515,33500.0,-0.4501099288463593,-9.624691009521484,0.8104372620582581
516,33600.0,-0.3034650683403015,-9.556455612182617,0.7864952683448792
517,33700.0,-0.2603694200515747,-9.638457298278807,0.8481459617614746
518,33800.0,-0.2603694200515747,-9.638457298278807,0.8481459617614746
519,33900.0,-0.0586579404771328,-9.673771858215332,0.6584054827690125
520,33000.0,-0.4231751561164856,-9.561842918395996,0.71766197681427
521,33100.0,-0.4231751561164856,-9.561842918395996,0.71766197681427
522,33200.0,-0.3016694188117981,-9.585784912109377,0.8367735147476196
523,33300.0,-0.3016694188117981,-9.585784912109377,0.8367735147476196
524,33400.0,-0.4501099288463593,-9.624691009521484,0.8104372620582581
525,33500.0,-0.4501099288463593,-9.624691009521484,0.8104372620582581
526,33600.0,-0.3034650683403015,-9.556455612182617,0.7864952683448792
527,33700.0,-0.2603694200515747,-9.638457298278807,0.8481459617614746
528,33800.0,-0.2603694200515747,-9.638457298278807,0.8481459617614746
529,33900.0,-0.0586579404771328,-9.673771858215332,0.6584054827690125
530,34000.0,-0.0586579404771328,-9.673771858215332,0.6584054827690125
531,34100.0,-0.07841010391712189,-9.557653427124023,0.5961562395095825
532,34200.0,-0.07841010391712189,-9.557653427124023,0.5961562395095825
533,34300.0,-0.22505496442317965,-9.4822359085083,1.2132617235183716
534,34400.0,-0.22505496442317965,-9.4822359085083,1.2132617235183716
535,34500.0,-0.25498247146606445,-9.496002197265623,0.6272808313369751
536,34600.0,-0.06524199992418289,-9.633668899536133,0.7775170207023621
537,34700.0,-0.06524199992418289,-9.633668899536133,0.7775170207023621
538,34800.0,0.26336219906806946,-9.697115898132324,0.3770867586135864
539,34900.0,0.26336219906806946,-9.697115898132324,0.3770867586135864
540,34000.0,-0.0586579404771328,-9.673771858215332,0.6584054827690125
541,34100.0,-0.07841010391712189,-9.557653427124023,0.5961562395095825
542,34200.0,-0.07841010391712189,-9.557653427124023,0.5961562395095825
543,34300.0,-0.22505496442317965,-9.4822359085083,1.2132617235183716
544,34400.0,-0.22505496442317965,-9.4822359085083,1.2132617235183716
545,34500.0,-0.25498247146606445,-9.496002197265623,0.6272808313369751
546,34600.0,-0.06524199992418289,-9.633668899536133,0.7775170207023621
547,34700.0,-0.06524199992418289,-9.633668899536133,0.7775170207023621
548,34800.0,0.26336219906806946,-9.697115898132324,0.3770867586135864
549,34900.0,0.26336219906806946,-9.697115898132324,0.3770867586135864
550,35000.0,0.02513911761343479,-9.784503936767578,0.5608417391777039
551,35100.0,0.02513911761343479,-9.784503936767578,0.5608417391777039
552,35200.0,-0.23163901269435885,-9.515155792236328,0.7667431235313416
553,35300.0,-0.23163901269435885,-9.515155792236328,0.7667431235313416
554,35400.0,0.034117374569177635,-9.66958236694336,0.6093243360519409
555,35500.0,-0.34596213698387146,-9.651026725769043,0.7092822790145874
556,35600.0,-0.34596213698387146,-9.651026725769043,0.7092822790145874
557,35700.0,-0.22266076505184174,-9.61331844329834,0.8960300087928772
558,35800.0,-0.22266076505184174,-9.61331844329834,0.8960300087928772
559,35900.0,-0.3956418335437775,-9.619303703308104,0.761954665184021
560,35000.0,0.02513911761343479,-9.784503936767578,0.5608417391777039
561,35100.0,0.02513911761343479,-9.784503936767578,0.5608417391777039
562,35200.0,-0.23163901269435885,-9.515155792236328,0.7667431235313416
563,35300.0,-0.23163901269435885,-9.515155792236328,0.7667431235313416
564,35400.0,0.034117374569177635,-9.66958236694336,0.6093243360519409
565,35500.0,-0.34596213698387146,-9.651026725769043,0.7092822790145874
566,35600.0,-0.34596213698387146,-9.651026725769043,0.7092822790145874
567,35700.0,-0.22266076505184174,-9.61331844329834,0.8960300087928772
568,35800.0,-0.22266076505184174,-9.61331844329834,0.8960300087928772
569,35900.0,-0.3956418335437775,-9.619303703308104,0.761954665184021
570,36000.0,-0.3956418335437775,-9.619303703308104,0.761954665184021
571,36100.0,-0.1388636976480484,-9.61331844329834,0.5291185975074768
572,36200.0,-0.1388636976480484,-9.61331844329834,0.5291185975074768
573,36300.0,-0.4393360018730164,-9.568427085876463,0.6889315247535706
574,36400.0,-0.21188685297966006,-9.704896926879883,0.4411316514015198
575,36500.0,-0.21188685297966006,-9.704896926879883,0.4411316514015198
576,36600.0,0.18914192914962769,-9.72165584564209,0.4812345504760742
577,36700.0,0.18914192914962769,-9.72165584564209,0.4812345504760742
578,36800.0,0.24600422382354736,-9.689932823181152,0.5596446394920349
579,36900.0,0.24600422382354736,-9.689932823181152,0.5596446394920349
580,36000.0,-0.3956418335437775,-9.619303703308104,0.761954665184021
581,36100.0,-0.1388636976480484,-9.61331844329834,0.5291185975074768
582,36200.0,-0.1388636976480484,-9.61331844329834,0.5291185975074768
583,36300.0,-0.4393360018730164,-9.568427085876463,0.6889315247535706
584,36400.0,-0.21188685297966006,-9.704896926879883,0.4411316514015198
585,36500.0,-0.21188685297966006,-9.704896926879883,0.4411316514015198
586,36600.0,0.18914192914962769,-9.72165584564209,0.4812345504760742
587,36700.0,0.18914192914962769,-9.72165584564209,0.4812345504760742
588,36800.0,0.24600422382354736,-9.689932823181152,0.5596446394920349
589,36900.0,0.24600422382354736,-9.689932823181152,0.5596446394920349
590,37000.0,-0.029927521944046017,-9.613917350769043,0.8074445128440857
591,37100.0,-0.029927521944046017,-9.613917350769043,0.8074445128440857
592,37200.0,0.7278373241424559,-9.61870574951172,0.5464765429496765
593,37300.0,0.2178723514080048,-9.55705451965332,0.5674257874488831
594,37400.0,0.2178723514080048,-9.55705451965332,0.5674257874488831
595,37500.0,-0.0957680642604828,-9.528923034667967,0.9959878921508788
596,37600.0,-0.0957680642604828,-9.528923034667967,0.9959878921508788
597,37700.0,-0.6877344250679016,-9.66539192199707,1.1701661348342896
598,37800.0,-0.6877344250679016,-9.66539192199707,1.1701661348342896
599,37900.0,0.5482721924781799,-9.582193374633787,0.1646013706922531
600,37000.0,-0.029927521944046017,-9.613917350769043,0.8074445128440857
601,37100.0,-0.029927521944046017,-9.613917350769043,0.8074445128440857
602,37200.0,0.7278373241424559,-9.61870574951172,0.5464765429496765
603,37300.0,0.2178723514080048,-9.55705451965332,0.5674257874488831
604,37400.0,0.2178723514080048,-9.55705451965332,0.5674257874488831
605,37500.0,-0.0957680642604828,-9.528923034667967,0.9959878921508788
606,37600.0,-0.0957680642604828,-9.528923034667967,0.9959878921508788
607,37700.0,-0.6877344250679016,-9.66539192199707,1.1701661348342896
608,37800.0,-0.6877344250679016,-9.66539192199707,1.1701661348342896
609,37900.0,0.5482721924781799,-9.582193374633787,0.1646013706922531
610,38000.0,0.5482721924781799,-9.582193374633787,0.1646013706922531
611,38100.0,0.3693056106567383,-9.600150108337402,0.11851298063993455
612,38200.0,0.4596867263317108,-9.607333183288574,0.262763649225235
613,38300.0,0.4596867263317108,-9.607333183288574,0.262763649225235
614,38400.0,-0.08858546614646913,-9.585784912109377,0.6853402256965637
615,38500.0,-0.08858546614646913,-9.585784912109377,0.6853402256965637
616,38600.0,0.02274491637945175,-9.506776809692383,0.7206547260284424
617,38700.0,0.02274491637945175,-9.506776809692383,0.7206547260284424
618,38800.0,0.09277531504631042,-9.703699111938477,0.3878606855869293
619,38900.0,0.09277531504631042,-9.703699111938477,0.3878606855869293
620,38000.0,0.5482721924781799,-9.582193374633787,0.1646013706922531
621,38100.0,0.3693056106567383,-9.600150108337402,0.11851298063993455
622,38200.0,0.4596867263317108,-9.607333183288574,0.262763649225235
623,38300.0,0.4596867263317108,-9.607333183288574,0.262763649225235
624,38400.0,-0.08858546614646913,-9.585784912109377,0.6853402256965637
625,38500.0,-0.08858546614646913,-9.585784912109377,0.6853402256965637
626,38600.0,0.02274491637945175,-9.506776809692383,0.7206547260284424
627,38700.0,0.02274491637945175,-9.506776809692383,0.7206547260284424
628,38800.0,0.09277531504631042,-9.703699111938477,0.3878606855869293
629,38900.0,0.09277531504631042,-9.703699111938477,0.3878606855869293
630,39000.0,0.5835866928100586,-9.66419506072998,0.01975216343998909
631,39100.0,0.5835866928100586,-9.66419506072998,0.01975216343998909
632,39200.0,0.5650315880775452,-9.70429801940918,0.20949265360832212
633,39300.0,1.4131776094436646,-9.433155059814453,-0.2082955539226532
634,39400.0,1.4131776094436646,-9.433155059814453,-0.2082955539226532
635,39500.0,0.6033388376235962,-9.717466354370117,0.2412158250808716
636,39600.0,0.6033388376235962,-9.717466354370117,0.2412158250808716
637,39700.0,0.9175778031349182,-9.610325813293457,0.1927332431077957
638,39800.0,0.9175778031349182,-9.610325813293457,0.1927332431077957
639,39900.0,0.20290859043598172,-9.573814392089844,0.8888474106788635
640,39000.0,0.5835866928100586,-9.66419506072998,0.01975216343998909
641,39100.0,0.5835866928100586,-9.66419506072998,0.01975216343998909
642,39200.0,0.5650315880775452,-9.70429801940918,0.20949265360832212
643,39300.0,1.4131776094436646,-9.433155059814453,-0.2082955539226532
644,39400.0,1.4131776094436646,-9.433155059814453,-0.2082955539226532
645,39500.0,0.6033388376235962,-9.717466354370117,0.2412158250808716
646,39600.0,0.6033388376235962,-9.717466354370117,0.2412158250808716
647,39700.0,0.9175778031349182,-9.610325813293457,0.1927332431077957
648,39800.0,0.9175778031349182,-9.610325813293457,0.1927332431077957
649,39900.0,0.20290859043598172,-9.573814392089844,0.8888474106788635
650,40000.0,0.20290859043598172,-9.573814392089844,0.8888474106788635
651,40100.0,0.10534487664699554,-9.549872398376463,0.9115923047065736
652,40200.0,0.4010287821292877,-9.587580680847168,0.37888240814208973
653,40300.0,0.4010287821292877,-9.587580680847168,0.37888240814208973
654,40400.0,-0.487220048904419,-9.585784912109377,0.6500257849693298
655,40500.0,-0.487220048904419,-9.585784912109377,0.6500257849693298
656,40600.0,0.6236895322799683,-9.535507202148438,0.7392097711563109
657,40700.0,0.6236895322799683,-9.535507202148438,0.7392097711563109
658,40800.0,-0.5404910445213318,-9.558850288391113,0.8044517636299133
659,40900.0,-0.5404910445213318,-9.558850288391113,0.8044517636299133
660,40000.0,0.20290859043598172,-9.573814392089844,0.8888474106788635
661,40100.0,0.10534487664699554,-9.549872398376463,0.9115923047065736
662,40200.0,0.4010287821292877,-9.587580680847168,0.37888240814208973
663,40300.0,0.4010287821292877,-9.587580680847168,0.37888240814208973
664,40400.0,-0.487220048904419,-9.585784912109377,0.6500257849693298
665,40500.0,-0.487220048904419,-9.585784912109377,0.6500257849693298
666,40600.0,0.6236895322799683,-9.535507202148438,0.7392097711563109
667,40700.0,0.6236895322799683,-9.535507202148438,0.7392097711563109
668,40800.0,-0.5404910445213318,-9.558850288391113,0.8044517636299133
669,40900.0,-0.5404910445213318,-9.558850288391113,0.8044517636299133
670,41000.0,0.4040215313434601,-9.638457298278807,0.6925228238105774
671,41100.0,-0.14844051003456116,-9.608530044555664,0.8888474106788635
672,41200.0,-0.14844051003456116,-9.608530044555664,0.8888474106788635
673,41300.0,-0.6135141849517822,-9.494805335998537,1.2874820232391355
674,41400.0,-0.6135141849517822,-9.494805335998537,1.2874820232391355
675,41500.0,0.292691171169281,-9.467870712280273,0.5877765417098999
676,41600.0,0.292691171169281,-9.467870712280273,0.5877765417098999
677,41700.0,0.15741875767707825,-9.750386238098145,0.7463923692703247
678,41800.0,0.15741875767707825,-9.750386238098145,0.7463923692703247
679,41900.0,0.4578910768032074,-9.600150108337402,0.42437225580215454
680,41000.0,0.4040215313434601,-9.638457298278807,0.6925228238105774
681,41100.0,-0.14844051003456116,-9.608530044555664,0.8888474106788635
682,41200.0,-0.14844051003456116,-9.608530044555664,0.8888474106788635
683,41300.0,-0.6135141849517822,-9.494805335998537,1.2874820232391355
684,41400.0,-0.6135141849517822,-9.494805335998537,1.2874820232391355
685,41500.0,0.292691171169281,-9.467870712280273,0.5877765417098999
686,41600.0,0.292691171169281,-9.467870712280273,0.5877765417098999
687,41700.0,0.15741875767707825,-9.750386238098145,0.7463923692703247
688,41800.0,0.15741875767707825,-9.750386238098145,0.7463923692703247
689,41900.0,0.4578910768032074,-9.600150108337402,0.42437225580215454
690,42000.0,-0.016759412363171574,-9.648633003234863,0.8206126093864441
691,42100.0,-0.016759412363171574,-9.648633003234863,0.8206126093864441
692,42200.0,0.3549404144287109,-9.603142738342283,0.8313865661621094
693,42300.0,0.3549404144287109,-9.603142738342283,0.8313865661621094
694,42400.0,0.007781155407428741,-9.51695156097412,0.6003460884094238
695,42500.0,0.007781155407428741,-9.51695156097412,0.6003460884094238
696,42600.0,-0.3303998410701752,-9.641449928283693,0.9493009448051452
697,42700.0,-0.3303998410701752,-9.641449928283693,0.9493009448051452
698,42800.0,0.26994624733924866,-9.643245697021484,0.5590460896492004
699,42900.0,-0.3214215636253357,-9.65581512451172,0.7775170207023621
700,42000.0,-0.016759412363171574,-9.648633003234863,0.8206126093864441
701,42100.0,-0.016759412363171574,-9.648633003234863,0.8206126093864441
702,42200.0,0.3549404144287109,-9.603142738342283,0.8313865661621094
703,42300.0,0.3549404144287109,-9.603142738342283,0.8313865661621094
704,42400.0,0.007781155407428741,-9.51695156097412,0.6003460884094238
705,42500.0,0.007781155407428741,-9.51695156097412,0.6003460884094238
706,42600.0,-0.3303998410701752,-9.641449928283693,0.9493009448051452
707,42700.0,-0.3303998410701752,-9.641449928283693,0.9493009448051452
708,42800.0,0.26994624733924866,-9.643245697021484,0.5590460896492004
709,42900.0,-0.3214215636253357,-9.65581512451172,0.7775170207023621
710,43000.0,-0.3214215636253357,-9.65581512451172,0.7775170207023621
711,43100.0,-0.17477671802043915,-9.61212158203125,0.6314706802368164
712,43200.0,-0.17477671802043915,-9.61212158203125,0.6314706802368164
713,43300.0,0.0065840547904372215,-9.672574996948242,0.6111199855804443
714,43400.0,0.0065840547904372215,-9.672574996948242,0.6111199855804443
715,43500.0,-0.31603461503982544,-9.61331844329834,0.7649474143981934
716,43600.0,-0.31603461503982544,-9.61331844329834,0.7649474143981934
717,43700.0,-0.08738835901021957,-9.653421401977539,0.4854243993759155
718,43800.0,-0.038307227194309235,-9.634865760803224,0.6039373874664307
719,43900.0,-0.038307227194309235,-9.634865760803224,0.6039373874664307
720,43000.0,-0.3214215636253357,-9.65581512451172,0.7775170207023621
721,43100.0,-0.17477671802043915,-9.61212158203125,0.6314706802368164
722,43200.0,-0.17477671802043915,-9.61212158203125,0.6314706802368164
723,43300.0,0.0065840547904372215,-9.672574996948242,0.6111199855804443
724,43400.0,0.0065840547904372215,-9.672574996948242,0.6111199855804443
725,43500.0,-0.31603461503982544,-9.61331844329834,0.7649474143981934
726,43600.0,-0.31603461503982544,-9.61331844329834,0.7649474143981934
727,43700.0,-0.08738835901021957,-9.653421401977539,0.4854243993759155
728,43800.0,-0.038307227194309235,-9.634865760803224,0.6039373874664307
729,43900.0,-0.038307227194309235,-9.634865760803224,0.6039373874664307
730,44000.0,0.4423287510871887,-9.654019355773926,0.6224924325942993
731,44100.0,0.4423287510871887,-9.654019355773926,0.6224924325942993
732,44200.0,0.3794809579849243,-9.630077362060547,0.679354727268219
733,44300.0,0.3794809579849243,-9.630077362060547,0.679354727268219
734,44400.0,-0.0347159244120121,-9.495404243469238,0.9457096457481384
735,44500.0,-0.0347159244120121,-9.495404243469238,0.9457096457481384
736,44600.0,0.9415197968482972,-9.589975357055664,0.6835445761680603
737,44700.0,0.27413609623909,-9.660603523254396,0.4459200799465179
738,44800.0,0.27413609623909,-9.660603523254396,0.4459200799465179
739,44900.0,0.8918401598930359,-9.576807022094727,0.4507084786891937
740,44000.0,0.4423287510871887,-9.654019355773926,0.6224924325942993
741,44100.0,0.4423287510871887,-9.654019355773926,0.6224924325942993
742,44200.0,0.3794809579849243,-9.630077362060547,0.679354727268219
743,44300.0,0.3794809579849243,-9.630077362060547,0.679354727268219
744,44400.0,-0.0347159244120121,-9.495404243469238,0.9457096457481384
745,44500.0,-0.0347159244120121,-9.495404243469238,0.9457096457481384
746,44600.0,0.9415197968482972,-9.589975357055664,0.6835445761680603
747,44700.0,0.27413609623909,-9.660603523254396,0.4459200799465179
748,44800.0,0.27413609623909,-9.660603523254396,0.4459200799465179
749,44900.0,0.8918401598930359,-9.576807022094727,0.4507084786891937
750,45000.0,0.8918401598930359,-9.576807022094727,0.4507084786891937
751,45100.0,-0.03770867735147476,-9.767146110534668,0.8074445128440857
752,45200.0,-0.03770867735147476,-9.767146110534668,0.8074445128440857
753,45300.0,0.0802057534456253,-9.666589736938477,1.138442873954773
754,45400.0,0.0802057534456253,-9.666589736938477,1.138442873954773
755,45500.0,0.6823474764823914,-9.854534149169922,0.1933317929506302
756,45600.0,0.8164227604866028,-9.619902610778807,0.04489128291606903
757,45700.0,0.8164227604866028,-9.619902610778807,0.04489128291606903
758,45800.0,0.04668693244457245,-9.57321548461914,0.6697779297828674
759,45900.0,0.04668693244457245,-9.57321548461914,0.6697779297828674
760,45000.0,0.8918401598930359,-9.576807022094727,0.4507084786891937
761,45100.0,-0.03770867735147476,-9.767146110534668,0.8074445128440857
762,45200.0,-0.03770867735147476,-9.767146110534668,0.8074445128440857
763,45300.0,0.0802057534456253,-9.666589736938477,1.138442873954773
764,45400.0,0.0802057534456253,-9.666589736938477,1.138442873954773
765,45500.0,0.6823474764823914,-9.854534149169922,0.1933317929506302
766,45600.0,0.8164227604866028,-9.619902610778807,0.04489128291606903
767,45700.0,0.8164227604866028,-9.619902610778807,0.04489128291606903
768,45800.0,0.04668693244457245,-9.57321548461914,0.6697779297828674
769,45900.0,0.04668693244457245,-9.57321548461914,0.6697779297828674
770,46000.0,0.19033902883529666,-9.69651699066162,0.7793126702308655
771,46100.0,0.19033902883529666,-9.69651699066162,0.7793126702308655
772,46200.0,0.4369418025016785,-9.600150108337402,0.3471592366695404
773,46300.0,0.4369418025016785,-9.600150108337402,0.3471592366695404
774,46400.0,0.8224082589149475,-9.594164848327637,0.0454898327589035
775,46500.0,0.9379284977912904,-9.603142738342283,0.23343466222286224
776,46600.0,0.9379284977912904,-9.603142738342283,0.23343466222286224
777,46700.0,1.2545616626739502,-9.582193374633787,-0.018555063754320145
778,46800.0,1.2545616626739502,-9.582193374633787,-0.018555063754320145
779,46900.0,1.0450690984725952,-9.794678688049316,0.2364274114370346
780,46000.0,0.19033902883529666,-9.69651699066162,0.7793126702308655
781,46100.0,0.19033902883529666,-9.69651699066162,0.7793126702308655
782,46200.0,0.4369418025016785,-9.600150108337402,0.3471592366695404
783,46300.0,0.4369418025016785,-9.600150108337402,0.3471592366695404
784,46400.0,0.8224082589149475,-9.594164848327637,0.0454898327589035
785,46500.0,0.9379284977912904,-9.603142738342283,0.23343466222286224
786,46600.0,0.9379284977912904,-9.603142738342283,0.23343466222286224
787,46700.0,1.2545616626739502,-9.582193374633787,-0.018555063754320145
788,46800.0,1.2545616626739502,-9.582193374633787,-0.018555063754320145
789,46900.0,1.0450690984725952,-9.794678688049316,0.2364274114370346
790,47000.0,1.0450690984725952,-9.794678688049316,0.2364274114370346
791,47100.0,0.4782418012619018,-9.545681953430176,0.7015010714530945
792,47200.0,0.4782418012619018,-9.545681953430176,0.7015010714530945
793,47300.0,0.4165911078453064,-9.573814392089844,1.0642226934432983
794,47400.0,0.01735796220600605,-9.631275177001953,0.871489405632019
795,47500.0,0.01735796220600605,-9.631275177001953,0.871489405632019
796,47600.0,0.5219359993934631,-9.5809965133667,0.48602294921875
797,47700.0,0.5219359993934631,-9.5809965133667,0.48602294921875
798,47800.0,-0.3633201122283936,-9.69651699066162,0.7272387742996216
799,47900.0,-0.3633201122283936,-9.69651699066162,0.7272387742996216
800,47000.0,1.0450690984725952,-9.794678688049316,0.2364274114370346
801,47100.0,0.4782418012619018,-9.545681953430176,0.7015010714530945
802,47200.0,0.4782418012619018,-9.545681953430176,0.7015010714530945
803,47300.0,0.4165911078453064,-9.573814392089844,1.0642226934432983
804,47400.0,0.01735796220600605,-9.631275177001953,0.871489405632019
805,47500.0,0.01735796220600605,-9.631275177001953,0.871489405632019
806,47600.0,0.5219359993934631,-9.5809965133667,0.48602294921875
807,47700.0,0.5219359993934631,-9.5809965133667,0.48602294921875
808,47800.0,-0.3633201122283936,-9.69651699066162,0.7272387742996216
809,47900.0,-0.3633201122283936,-9.69651699066162,0.7272387742996216
810,48000.0,0.861314058303833,-9.687539100646973,0.4465186297893524
811,48100.0,0.861314058303833,-9.687539100646973,0.4465186297893524
812,48200.0,-0.7942764163017273,-9.486425399780273,0.8343793153762817
813,48300.0,0.2370259612798691,-9.589975357055664,1.206079125404358
814,48400.0,0.2370259612798691,-9.589975357055664,1.206079125404358
815,48500.0,0.015562310814857485,-9.65581512451172,0.524330198764801
816,48600.0,0.015562310814857485,-9.65581512451172,0.524330198764801
817,48700.0,0.4608838260173798,-9.706692695617676,0.6248866319656372
818,48800.0,0.4608838260173798,-9.706692695617676,0.6248866319656372
819,48900.0,0.5560533404350281,-9.6989107131958,0.3609259128570557
820,48000.0,0.861314058303833,-9.687539100646973,0.4465186297893524
821,48100.0,0.861314058303833,-9.687539100646973,0.4465186297893524
822,48200.0,-0.7942764163017273,-9.486425399780273,0.8343793153762817
823,48300.0,0.2370259612798691,-9.589975357055664,1.206079125404358
824,48400.0,0.2370259612798691,-9.589975357055664,1.206079125404358
825,48500.0,0.015562310814857485,-9.65581512451172,0.524330198764801
826,48600.0,0.015562310814857485,-9.65581512451172,0.524330198764801
827,48700.0,0.4608838260173798,-9.706692695617676,0.6248866319656372
828,48800.0,0.4608838260173798,-9.706692695617676,0.6248866319656372
829,48900.0,0.5560533404350281,-9.6989107131958,0.3609259128570557
830,49000.0,0.5560533404350281,-9.6989107131958,0.3609259128570557
831,49100.0,-0.010175357572734356,-9.687539100646973,0.7374141216278076
832,49200.0,0.017956512048840526,-9.459490776062012,0.8218097090721129
833,49300.0,0.017956512048840526,-9.459490776062012,0.8218097090721129
834,49400.0,0.5231330990791321,-9.497797966003418,0.6625953316688538
835,49500.0,0.5231330990791321,-9.497797966003418,0.6625953316688538
836,49600.0,0.13946224749088287,-9.601346969604492,0.6805518269538879
837,49700.0,0.13946224749088287,-9.601346969604492,0.6805518269538879
838,49800.0,0.1849520802497864,-9.573814392089844,0.5345055460929871
839,49900.0,0.1849520802497864,-9.573814392089844,0.5345055460929871
840,49000.0,0.5560533404350281,-9.6989107131958,0.3609259128570557
841,49100.0,-0.010175357572734356,-9.687539100646973,0.7374141216278076
842,49200.0,0.017956512048840526,-9.459490776062012,0.8218097090721129
843,49300.0,0.017956512048840526,-9.459490776062012,0.8218097090721129
844,49400.0,0.5231330990791321,-9.497797966003418,0.6625953316688538
845,49500.0,0.5231330990791321,-9.497797966003418,0.6625953316688538
846,49600.0,0.13946224749088287,-9.601346969604492,0.6805518269538879
847,49700.0,0.13946224749088287,-9.601346969604492,0.6805518269538879
848,49800.0,0.1849520802497864,-9.573814392089844,0.5345055460929871
849,49900.0,0.1849520802497864,-9.573814392089844,0.5345055460929871
850,50000.0,-0.0454898327589035,-9.70310115814209,0.5374982953071594
851,50100.0,0.14245499670505524,-9.57321548461914,0.7230489253997803
852,50200.0,0.14245499670505524,-9.57321548461914,0.7230489253997803
853,50300.0,-0.2214636504650116,-9.525331497192383,0.7230489253997803
854,50400.0,-0.2214636504650116,-9.525331497192383,0.7230489253997803
855,50500.0,0.11791443079710008,-9.625887870788574,0.6500257849693298
856,50600.0,0.11791443079710008,-9.625887870788574,0.6500257849693298
857,50700.0,0.06524199992418289,-9.71926212310791,0.67815762758255
858,50800.0,0.06524199992418289,-9.71926212310791,0.67815762758255
859,50900.0,0.030526071786880493,-9.583391189575195,0.8080430626869202
860,50000.0,-0.0454898327589035,-9.70310115814209,0.5374982953071594
861,50100.0,0.14245499670505524,-9.57321548461914,0.7230489253997803
862,50200.0,0.14245499670505524,-9.57321548461914,0.7230489253997803
863,50300.0,-0.2214636504650116,-9.525331497192383,0.7230489253997803
864,50400.0,-0.2214636504650116,-9.525331497192383,0.7230489253997803
865,50500.0,0.11791443079710008,-9.625887870788574,0.6500257849693298
866,50600.0,0.11791443079710008,-9.625887870788574,0.6500257849693298
867,50700.0,0.06524199992418289,-9.71926212310791,0.67815762758255
868,50800.0,0.06524199992418289,-9.71926212310791,0.67815762758255
869,50900.0,0.030526071786880493,-9.583391189575195,0.8080430626869202
870,51000.0,0.2855085432529449,-9.527725219726564,0.5207388401031494
871,51100.0,0.2855085432529449,-9.527725219726564,0.5207388401031494
872,51200.0,0.04010287672281265,-9.606135368347168,0.7930793166160583
873,51300.0,0.04010287672281265,-9.606135368347168,0.7930793166160583
874,51400.0,0.5129576921463013,-9.55825138092041,0.6643909811973572
875,51500.0,0.5129576921463013,-9.55825138092041,0.6643909811973572
876,51600.0,0.4201824069023132,-9.569025993347168,0.5345055460929871
877,51700.0,0.4201824069023132,-9.569025993347168,0.5345055460929871
878,51800.0,0.861314058303833,-9.51156520843506,0.4818331003189087
879,51900.0,0.629675030708313,-9.410409927368164,0.3818751573562622
880,51000.0,0.2855085432529449,-9.527725219726564,0.5207388401031494
881,51100.0,0.2855085432529449,-9.527725219726564,0.5207388401031494
882,51200.0,0.04010287672281265,-9.606135368347168,0.7930793166160583
883,51300.0,0.04010287672281265,-9.606135368347168,0.7930793166160583
884,51400.0,0.5129576921463013,-9.55825138092041,0.6643909811973572
885,51500.0,0.5129576921463013,-9.55825138092041,0.6643909811973572
886,51600.0,0.4201824069023132,-9.569025993347168,0.5345055460929871
887,51700.0,0.4201824069023132,-9.569025993347168,0.5345055460929871
888,51800.0,0.861314058303833,-9.51156520843506,0.4818331003189087
889,51900.0,0.629675030708313,-9.410409927368164,0.3818751573562622
890,52000.0,0.629675030708313,-9.410409927368164,0.3818751573562622
891,52100.0,0.4806360006332398,-9.426570892333984,0.5410895943641663
892,52200.0,0.4806360006332398,-9.426570892333984,0.5410895943641663
893,52300.0,-0.4692635238170624,-9.851541519165039,1.194706678390503
894,52400.0,-0.4692635238170624,-9.851541519165039,1.194706678390503
895,52500.0,0.5997475385665894,-9.668983459472656,0.6500257849693298
896,52600.0,0.5997475385665894,-9.668983459472656,0.6500257849693298
897,52700.0,0.7673416733741759,-9.569623947143556,0.38367083668708796
898,52800.0,0.7601590156555176,-9.443329811096193,0.5039794445037842
899,52900.0,0.7601590156555176,-9.443329811096193,0.5039794445037842
900,52000.0,0.629675030708313,-9.410409927368164,0.3818751573562622
901,52100.0,0.4806360006332398,-9.426570892333984,0.5410895943641663
902,52200.0,0.4806360006332398,-9.426570892333984,0.5410895943641663
903,52300.0,-0.4692635238170624,-9.851541519165039,1.194706678390503
904,52400.0,-0.4692635238170624,-9.851541519165039,1.194706678390503
905,52500.0,0.5997475385665894,-9.668983459472656,0.6500257849693298
906,52600.0,0.5997475385665894,-9.668983459472656,0.6500257849693298
907,52700.0,0.7673416733741759,-9.569623947143556,0.38367083668708796
908,52800.0,0.7601590156555176,-9.443329811096193,0.5039794445037842
909,52900.0,0.7601590156555176,-9.443329811096193,0.5039794445037842
910,53000.0,0.3567360639572144,-9.656414031982422,1.134851574897766
911,53100.0,0.3567360639572144,-9.656414031982422,1.134851574897766
912,53200.0,0.2789244949817657,-9.687539100646973,0.7691373229026794
913,53300.0,0.2789244949817657,-9.687539100646973,0.7691373229026794
914,53400.0,0.7631517648696899,-9.566033363342283,0.243011474609375
915,53500.0,0.7631517648696899,-9.566033363342283,0.243011474609375
916,53600.0,1.1965023279190063,-9.63067626953125,0.2867056429386139
917,53700.0,1.2910733222961426,-9.703699111938477,0.2567781209945679
918,53800.0,1.2910733222961426,-9.703699111938477,0.2567781209945679
919,53900.0,0.44771572947502136,-9.530718803405762,0.4058171808719635
920,53000.0,0.3567360639572144,-9.656414031982422,1.134851574897766
921,53100.0,0.3567360639572144,-9.656414031982422,1.134851574897766
922,53200.0,0.2789244949817657,-9.687539100646973,0.7691373229026794
923,53300.0,0.2789244949817657,-9.687539100646973,0.7691373229026794
924,53400.0,0.7631517648696899,-9.566033363342283,0.243011474609375
925,53500.0,0.7631517648696899,-9.566033363342283,0.243011474609375
926,53600.0,1.1965023279190063,-9.63067626953125,0.2867056429386139
927,53700.0,1.2910733222961426,-9.703699111938477,0.2567781209945679
928,53800.0,1.2910733222961426,-9.703699111938477,0.2567781209945679
929,53900.0,0.44771572947502136,-9.530718803405762,0.4058171808719635
930,54000.0,0.44771572947502136,-9.530718803405762,0.4058171808719635
931,54100.0,0.9720458984375,-9.674968719482422,0.4231751561164856
932,54200.0,0.9720458984375,-9.674968719482422,0.4231751561164856
933,54300.0,0.07900865375995636,-9.51156520843506,0.7338228225708008
934,54400.0,0.07900865375995636,-9.51156520843506,0.7338228225708008
935,54500.0,0.3118447661399841,-9.59596061706543,1.0414776802062988
936,54600.0,0.5482721924781799,-9.63187313079834,0.6937199234962463
937,54700.0,0.5482721924781799,-9.63187313079834,0.6937199234962463
938,54800.0,-0.01735796220600605,-9.513360023498537,0.3998316824436188
939,54900.0,-0.01735796220600605,-9.513360023498537,0.3998316824436188
940,54000.0,0.44771572947502136,-9.530718803405762,0.4058171808719635
941,54100.0,0.9720458984375,-9.674968719482422,0.4231751561164856
942,54200.0,0.9720458984375,-9.674968719482422,0.4231751561164856
943,54300.0,0.07900865375995636,-9.51156520843506,0.7338228225708008
944,54400.0,0.07900865375995636,-9.51156520843506,0.7338228225708008
945,54500.0,0.3118447661399841,-9.59596061706543,1.0414776802062988
946,54600.0,0.5482721924781799,-9.63187313079834,0.6937199234962463
947,54700.0,0.5482721924781799,-9.63187313079834,0.6937199234962463
948,54800.0,-0.01735796220600605,-9.513360023498537,0.3998316824436188
949,54900.0,-0.01735796220600605,-9.513360023498537,0.3998316824436188
950,55000.0,0.4926069974899292,-9.653421401977539,0.5309142470359802
951,55100.0,0.4926069974899292,-9.653421401977539,0.5309142470359802
952,55200.0,0.18914192914962769,-9.676764488220217,0.6637924313545227
953,55300.0,0.18914192914962769,-9.676764488220217,0.6637924313545227
954,55400.0,0.3693056106567383,-9.790489196777344,0.2190694510936737
955,55500.0,0.4106055796146393,-9.583391189575195,0.910993754863739
956,55600.0,0.4106055796146393,-9.583391189575195,0.910993754863739
957,55700.0,-0.1280897855758667,-9.806051254272461,1.2473790645599363
958,55800.0,-0.1280897855758667,-9.806051254272461,1.2473790645599363
959,55900.0,0.27413609623909,-9.53311252593994,0.6105214357376099
960,55000.0,0.4926069974899292,-9.653421401977539,0.5309142470359802
961,55100.0,0.4926069974899292,-9.653421401977539,0.5309142470359802
962,55200.0,0.18914192914962769,-9.676764488220217,0.6637924313545227
963,55300.0,0.18914192914962769,-9.676764488220217,0.6637924313545227
964,55400.0,0.3693056106567383,-9.790489196777344,0.2190694510936737
965,55500.0,0.4106055796146393,-9.583391189575195,0.910993754863739
966,55600.0,0.4106055796146393,-9.583391189575195,0.910993754863739
967,55700.0,-0.1280897855758667,-9.806051254272461,1.2473790645599363
968,55800.0,-0.1280897855758667,-9.806051254272461,1.2473790645599363
969,55900.0,0.27413609623909,-9.53311252593994,0.6105214357376099
970,56000.0,0.27413609623909,-9.53311252593994,0.6105214357376099
971,56100.0,0.5650315880775452,-9.730634689331056,0.6697779297828674
972,56200.0,0.5650315880775452,-9.730634689331056,0.6697779297828674
973,56300.0,0.3124433159828186,-9.73781681060791,0.6877344250679016
974,56400.0,0.033518824726343155,-9.548076629638672,0.8044517636299133
975,56500.0,0.033518824726343155,-9.548076629638672,0.8044517636299133
976,56600.0,0.3387795388698578,-9.545083999633787,0.8092401623725891
977,56700.0,0.3387795388698578,-9.545083999633787,0.8092401623725891
978,56800.0,0.30705636739730835,-9.640253067016602,0.8517372608184814
979,56900.0,0.30705636739730835,-9.640253067016602,0.8517372608184814
980,56000.0,0.27413609623909,-9.53311252593994,0.6105214357376099
981,56100.0,0.5650315880775452,-9.730634689331056,0.6697779297828674
982,56200.0,0.5650315880775452,-9.730634689331056,0.6697779297828674
983,56300.0,0.3124433159828186,-9.73781681060791,0.6877344250679016
984,56400.0,0.033518824726343155,-9.548076629638672,0.8044517636299133
985,56500.0,0.033518824726343155,-9.548076629638672,0.8044517636299133
986,56600.0,0.3387795388698578,-9.545083999633787,0.8092401623725891
987,56700.0,0.3387795388698578,-9.545083999633787,0.8092401623725891
988,56800.0,0.30705636739730835,-9.640253067016602,0.8517372608184814
989,56900.0,0.30705636739730835,-9.640253067016602,0.8517372608184814
990,57000.0,0.28790274262428284,-9.618106842041016,0.8044517636299133
991,57100.0,0.28790274262428284,-9.618106842041016,0.8044517636299133
992,57200.0,0.13287819921970367,-9.592967987060547,0.6763619780540466
993,57300.0,0.2472013235092163,-9.739612579345703,0.5410895943641663
994,57400.0,0.2472013235092163,-9.739612579345703,0.5410895943641663
995,57500.0,-0.14185644686222074,-9.634865760803224,0.9397241473197936
996,57600.0,-0.14185644686222074,-9.634865760803224,0.9397241473197936
997,57700.0,0.13826514780521393,-9.552266120910645,0.9091981053352356
998,57800.0,0.13826514780521393,-9.552266120910645,0.9091981053352356
999,57900.0,0.13587094843387604,-9.633070945739746,0.6266822814941406
1000,57000.0,0.28790274262428284,-9.618106842041016,0.8044517636299133
1001,57100.0,0.28790274262428284,-9.618106842041016,0.8044517636299133
1002,57200.0,0.13287819921970367,-9.592967987060547,0.6763619780540466
1003,57300.0,0.2472013235092163,-9.739612579345703,0.5410895943641663
1004,57400.0,0.2472013235092163,-9.739612579345703,0.5410895943641663
1005,57500.0,-0.14185644686222074,-9.634865760803224,0.9397241473197936
1006,57600.0,-0.14185644686222074,-9.634865760803224,0.9397241473197936
1007,57700.0,0.13826514780521393,-9.552266120910645,0.9091981053352356
1008,57800.0,0.13826514780521393,-9.552266120910645,0.9091981053352356
1009,57900.0,0.13587094843387604,-9.633070945739746,0.6266822814941406
1010,58000.0,0.13587094843387604,-9.633070945739746,0.6266822814941406
1011,58100.0,0.22026655077934265,-9.561842918395996,0.8403648138046265
1012,58200.0,0.22026655077934265,-9.561842918395996,0.8403648138046265
1013,58300.0,0.09277531504631042,-9.559449195861816,0.829590916633606
1014,58400.0,0.2322375625371933,-9.633070945739746,0.8242039084434509
1015,58500.0,0.2322375625371933,-9.633070945739746,0.8242039084434509
1016,58600.0,0.3303998410701752,-9.671976089477539,0.7445967197418213
1017,58700.0,0.3303998410701752,-9.671976089477539,0.7445967197418213
1018,58800.0,0.7128735780715942,-9.37748908996582,0.8086416125297546
1019,58900.0,0.7128735780715942,-9.37748908996582,0.8086416125297546
1020,58000.0,0.13587094843387604,-9.633070945739746,0.6266822814941406
1021,58100.0,0.22026655077934265,-9.561842918395996,0.8403648138046265
1022,58200.0,0.22026655077934265,-9.561842918395996,0.8403648138046265
1023,58300.0,0.09277531504631042,-9.559449195861816,0.829590916633606
1024,58400.0,0.2322375625371933,-9.633070945739746,0.8242039084434509
1025,58500.0,0.2322375625371933,-9.633070945739746,0.8242039084434509
1026,58600.0,0.3303998410701752,-9.671976089477539,0.7445967197418213
1027,58700.0,0.3303998410701752,-9.671976089477539,0.7445967197418213
1028,58800.0,0.7128735780715942,-9.37748908996582,0.8086416125297546
1029,58900.0,0.7128735780715942,-9.37748908996582,0.8086416125297546
1030,59000.0,0.6841431260108948,-9.576208114624023,1.1276689767837524
1031,59100.0,0.6841431260108948,-9.576208114624023,1.1276689767837524
1032,59200.0,0.628477931022644,-9.576208114624023,0.9864110946655272
1033,59300.0,0.2687491476535797,-9.460089683532717,0.7128735780715942
1034,59400.0,0.2687491476535797,-9.460089683532717,0.7128735780715942
1035,59500.0,-0.17956513166427612,-9.689932823181152,0.8936358094215393
1036,59600.0,-0.17956513166427612,-9.689932823181152,0.8936358094215393
1037,59700.0,0.2454056739807129,-9.817423820495604,0.829590916633606
1038,59800.0,0.2454056739807129,-9.817423820495604,0.829590916633606
1039,59900.0,0.7242460250854492,-9.63067626953125,0.4728548228740692
1040,59000.0,0.6841431260108948,-9.576208114624023,1.1276689767837524
1041,59100.0,0.6841431260108948,-9.576208114624023,1.1276689767837524
1042,59200.0,0.628477931022644,-9.576208114624023,0.9864110946655272
1043,59300.0,0.2687491476535797,-9.460089683532717,0.7128735780715942
1044,59400.0,0.2687491476535797,-9.460089683532717,0.7128735780715942
1045,59500.0,-0.17956513166427612,-9.689932823181152,0.8936358094215393
1046,59600.0,-0.17956513166427612,-9.689932823181152,0.8936358094215393
1047,59700.0,0.2454056739807129,-9.817423820495604,0.829590916633606
1048,59800.0,0.2454056739807129,-9.817423820495604,0.829590916633606
1049,59900.0,0.7242460250854492,-9.63067626953125,0.4728548228740692
1050,60000.0,0.5740098357200623,-9.583391189575195,0.4058171808719635
1051,60100.0,0.5740098357200623,-9.583391189575195,0.4058171808719635
1052,60200.0,0.6937199234962463,-9.504382133483887,0.5632359385490417
1053,60300.0,0.6937199234962463,-9.504382133483887,0.5632359385490417
1054,60400.0,0.2651578485965729,-9.654019355773926,0.959476351737976
1055,60500.0,0.2651578485965729,-9.654019355773926,0.959476351737976
1056,60600.0,0.26156654953956604,-9.493009567260742,0.5578489899635315
1057,60700.0,0.26156654953956604,-9.493009567260742,0.5578489899635315
1058,60800.0,0.9337386488914491,-9.494206428527832,-0.2849099934101105
1059,60900.0,0.9337386488914491,-9.494206428527832,-0.2849099934101105
1060,60000.0,0.5740098357200623,-9.583391189575195,0.4058171808719635
1061,60100.0,0.5740098357200623,-9.583391189575195,0.4058171808719635
1062,60200.0,0.6937199234962463,-9.504382133483887,0.5632359385490417
1063,60300.0,0.6937199234962463,-9.504382133483887,0.5632359385490417
1064,60400.0,0.2651578485965729,-9.654019355773926,0.959476351737976
1065,60500.0,0.2651578485965729,-9.654019355773926,0.959476351737976
1066,60600.0,0.26156654953956604,-9.493009567260742,0.5578489899635315
1067,60700.0,0.26156654953956604,-9.493009567260742,0.5578489899635315
1068,60800.0,0.9337386488914491,-9.494206428527832,-0.2849099934101105
1069,60900.0,0.9337386488914491,-9.494206428527832,-0.2849099934101105
1070,61000.0,1.3407529592514038,-9.68155288696289,-0.18974047899246216
1071,61100.0,0.8080430626869202,-9.941324234008787,0.08259996026754379
1072,61200.0,0.8080430626869202,-9.941324234008787,0.08259996026754379
1073,61300.0,1.5119383335113523,-9.838373184204102,0.1125274822115898
1074,61400.0,1.5119383335113523,-9.838373184204102,0.1125274822115898
1075,61500.0,0.74040687084198,-9.636063575744627,0.13527239859104154
1076,61600.0,0.74040687084198,-9.636063575744627,0.13527239859104154
1077,61700.0,0.8176198601722717,-9.620500564575195,0.1711854189634323
1078,61800.0,0.8176198601722717,-9.620500564575195,0.1711854189634323
1079,61900.0,0.6829460263252258,-9.439739227294922,0.14784196019172668
1080,61000.0,1.3407529592514038,-9.68155288696289,-0.18974047899246216
1081,61100.0,0.8080430626869202,-9.941324234008787,0.08259996026754379
1082,61200.0,0.8080430626869202,-9.941324234008787,0.08259996026754379
1083,61300.0,1.5119383335113523,-9.838373184204102,0.1125274822115898
1084,61400.0,1.5119383335113523,-9.838373184204102,0.1125274822115898
1085,61500.0,0.74040687084198,-9.636063575744627,0.13527239859104154
1086,61600.0,0.74040687084198,-9.636063575744627,0.13527239859104154
1087,61700.0,0.8176198601722717,-9.620500564575195,0.1711854189634323
1088,61800.0,0.8176198601722717,-9.620500564575195,0.1711854189634323
1089,61900.0,0.6829460263252258,-9.439739227294922,0.14784196019172668
1090,62000.0,0.6961141228675842,-9.734824180603027,0.6841431260108948
1091,62100.0,0.6961141228675842,-9.734824180603027,0.6841431260108948
1092,62200.0,0.4632780253887177,-9.552865028381348,0.4297592043876648
1093,62300.0,0.4632780253887177,-9.552865028381348,0.4297592043876648
1094,62400.0,0.8870517015457153,-9.628880500793457,0.17717093229293826
1095,62500.0,0.8870517015457153,-9.628880500793457,0.17717093229293826
1096,62600.0,0.016160860657691956,-9.55825138092041,0.34596213698387146
1097,62700.0,0.016160860657691956,-9.55825138092041,0.34596213698387146
1098,62800.0,0.6446388363838196,-9.626486778259276,0.7026981711387634
1099,62900.0,0.033518824726343155,-9.611522674560547,0.6829460263252258
1100,62000.0,0.6961141228675842,-9.734824180603027,0.6841431260108948
1101,62100.0,0.6961141228675842,-9.734824180603027,0.6841431260108948
1102,62200.0,0.4632780253887177,-9.552865028381348,0.4297592043876648
1103,62300.0,0.4632780253887177,-9.552865028381348,0.4297592043876648
1104,62400.0,0.8870517015457153,-9.628880500793457,0.17717093229293826
1105,62500.0,0.8870517015457153,-9.628880500793457,0.17717093229293826
1106,62600.0,0.016160860657691956,-9.55825138092041,0.34596213698387146
1107,62700.0,0.016160860657691956,-9.55825138092041,0.34596213698387146
1108,62800.0,0.6446388363838196,-9.626486778259276,0.7026981711387634
1109,62900.0,0.033518824726343155,-9.611522674560547,0.6829460263252258
1110,63000.0,0.033518824726343155,-9.611522674560547,0.6829460263252258
1111,63100.0,0.16998831927776334,-9.654618263244627,0.7505822181701659
1112,63200.0,0.16998831927776334,-9.654618263244627,0.7505822181701659
1113,63300.0,-0.09457096457481384,-9.898228645324707,1.781286120414734
1114,63400.0,-0.09457096457481384,-9.898228645324707,1.781286120414734
1115,63500.0,0.5201402902603149,-9.41519832611084,0.24600422382354736
1116,63600.0,0.5201402902603149,-9.41519832611084,0.24600422382354736
1117,63700.0,0.7673416733741759,-9.658807754516602,0.2890998423099518
1118,63800.0,0.7763199210166931,-9.54867458343506,0.6835445761680603
1119,63900.0,0.7763199210166931,-9.54867458343506,0.6835445761680603
1120,63000.0,0.033518824726343155,-9.611522674560547,0.6829460263252258
1121,63100.0,0.16998831927776334,-9.654618263244627,0.7505822181701659
1122,63200.0,0.16998831927776334,-9.654618263244627,0.7505822181701659
1123,63300.0,-0.09457096457481384,-9.898228645324707,1.781286120414734
1124,63400.0,-0.09457096457481384,-9.898228645324707,1.781286120414734
1125,63500.0,0.5201402902603149,-9.41519832611084,0.24600422382354736
1126,63600.0,0.5201402902603149,-9.41519832611084,0.24600422382354736
1127,63700.0,0.7673416733741759,-9.658807754516602,0.2890998423099518
1128,63800.0,0.7763199210166931,-9.54867458343506,0.6835445761680603
1129,63900.0,0.7763199210166931,-9.54867458343506,0.6835445761680603
1130,64000.0,0.166995570063591,-9.707889556884766,0.9319429993629456
1131,64100.0,0.166995570063591,-9.707889556884766,0.9319429993629456
1132,64200.0,0.7350199222564697,-9.534908294677734,0.4519055783748626
1133,64300.0,0.7350199222564697,-9.534908294677734,0.4519055783748626
1134,64400.0,0.4070142805576325,-9.715670585632324,0.657806932926178
1135,64500.0,0.4070142805576325,-9.715670585632324,0.657806932926178
1136,64600.0,0.8445546627044678,-9.141061782836914,1.134851574897766
1137,64700.0,0.4010287821292877,-9.578003883361816,0.579995334148407
1138,64800.0,0.4010287821292877,-9.578003883361816,0.579995334148407
1139,64900.0,0.2968810200691223,-9.591172218322754,0.7841010689735413
1140,64000.0,0.166995570063591,-9.707889556884766,0.9319429993629456
1141,64100.0,0.166995570063591,-9.707889556884766,0.9319429993629456
1142,64200.0,0.7350199222564697,-9.534908294677734,0.4519055783748626
1143,64300.0,0.7350199222564697,-9.534908294677734,0.4519055783748626
1144,64400.0,0.4070142805576325,-9.715670585632324,0.657806932926178
1145,64500.0,0.4070142805576325,-9.715670585632324,0.657806932926178
1146,64600.0,0.8445546627044678,-9.141061782836914,1.134851574897766
1147,64700.0,0.4010287821292877,-9.578003883361816,0.579995334148407
1148,64800.0,0.4010287821292877,-9.578003883361816,0.579995334148407
1149,64900.0,0.2968810200691223,-9.591172218322754,0.7841010689735413
1150,65000.0,0.2968810200691223,-9.591172218322754,0.7841010689735413
1151,65100.0,-0.0005985504249110818,-9.692925453186037,0.8708908557891846
1152,65200.0,-0.0005985504249110818,-9.692925453186037,0.8708908557891846
1153,65300.0,0.4854243993759155,-9.592369079589844,0.5632359385490417
1154,65400.0,0.4854243993759155,-9.592369079589844,0.5632359385490417
1155,65500.0,0.5015852451324463,-9.59835433959961,0.6655880808830261
1156,65600.0,-0.12090718746185306,-9.542689323425293,0.6979097723960876
1157,65700.0,-0.12090718746185306,-9.542689323425293,0.6979097723960876
1158,65800.0,0.2472013235092163,-9.609726905822754,0.4459200799465179
1159,65900.0,0.2472013235092163,-9.609726905822754,0.4459200799465179
1160,65000.0,0.2968810200691223,-9.591172218322754,0.7841010689735413
1161,65100.0,-0.0005985504249110818,-9.692925453186037,0.8708908557891846
1162,65200.0,-0.0005985504249110818,-9.692925453186037,0.8708908557891846
1163,65300.0,0.4854243993759155,-9.592369079589844,0.5632359385490417
1164,65400.0,0.4854243993759155,-9.592369079589844,0.5632359385490417
1165,65500.0,0.5015852451324463,-9.59835433959961,0.6655880808830261
1166,65600.0,-0.12090718746185306,-9.542689323425293,0.6979097723960876
1167,65700.0,-0.12090718746185306,-9.542689323425293,0.6979097723960876
1168,65800.0,0.2472013235092163,-9.609726905822754,0.4459200799465179
1169,65900.0,0.2472013235092163,-9.609726905822754,0.4459200799465179
1170,66000.0,0.10893617570400238,-9.55705451965332,0.7308300733566284
1171,66100.0,0.10893617570400238,-9.55705451965332,0.7308300733566284
1172,66200.0,0.07122749835252762,-9.54867458343506,0.811634361743927
1173,66300.0,0.07122749835252762,-9.54867458343506,0.811634361743927
1174,66400.0,0.14245499670505524,-9.652822494506836,0.8008604645729065
1175,66500.0,0.1999158412218094,-9.586981773376463,0.5979518890380859
1176,66600.0,0.1999158412218094,-9.586981773376463,0.5979518890380859
1177,66700.0,0.4118026793003082,-9.652822494506836,0.751779317855835
1178,66800.0,0.4118026793003082,-9.652822494506836,0.751779317855835
1179,66900.0,0.3920505344867706,-9.638457298278807,0.6494272351264954
1180,66000.0,0.10893617570400238,-9.55705451965332,0.7308300733566284
1181,66100.0,0.10893617570400238,-9.55705451965332,0.7308300733566284
1182,66200.0,0.07122749835252762,-9.54867458343506,0.811634361743927
1183,66300.0,0.07122749835252762,-9.54867458343506,0.811634361743927
1184,66400.0,0.14245499670505524,-9.652822494506836,0.8008604645729065
1185,66500.0,0.1999158412218094,-9.586981773376463,0.5979518890380859
1186,66600.0,0.1999158412218094,-9.586981773376463,0.5979518890380859
1187,66700.0,0.4118026793003082,-9.652822494506836,0.751779317855835
1188,66800.0,0.4118026793003082,-9.652822494506836,0.751779317855835
1189,66900.0,0.3920505344867706,-9.638457298278807,0.6494272351264954
1190,67000.0,0.3920505344867706,-9.638457298278807,0.6494272351264954
1191,67100.0,0.7056909799575806,-9.651026725769043,0.6470330357551575
1192,67200.0,0.7056909799575806,-9.651026725769043,0.6470330357551575
1193,67300.0,0.7086837291717529,-9.64683723449707,0.6829460263252258
1194,67400.0,0.8852560520172119,-9.597756385803224,0.67815762758255
1195,67500.0,0.8852560520172119,-9.597756385803224,0.67815762758255
1196,67600.0,0.8020575642585754,-9.398438453674316,0.5793967843055725
1197,67700.0,0.8020575642585754,-9.398438453674316,0.5793967843055725
1198,67800.0,-0.16879121959209442,-9.671976089477539,1.14742112159729
1199,67900.0,-0.16879121959209442,-9.671976089477539,1.14742112159729
1200,67000.0,0.3920505344867706,-9.638457298278807,0.6494272351264954
1201,67100.0,0.7056909799575806,-9.651026725769043,0.6470330357551575
1202,67200.0,0.7056909799575806,-9.651026725769043,0.6470330357551575
1203,67300.0,0.7086837291717529,-9.64683723449707,0.6829460263252258
1204,67400.0,0.8852560520172119,-9.597756385803224,0.67815762758255
1205,67500.0,0.8852560520172119,-9.597756385803224,0.67815762758255
1206,67600.0,0.8020575642585754,-9.398438453674316,0.5793967843055725
1207,67700.0,0.8020575642585754,-9.398438453674316,0.5793967843055725
1208,67800.0,-0.16879121959209442,-9.671976089477539,1.14742112159729
1209,67900.0,-0.16879121959209442,-9.671976089477539,1.14742112159729
1210,68000.0,0.0694318488240242,-9.73123264312744,1.2216414213180542
1211,68100.0,0.0694318488240242,-9.73123264312744,1.2216414213180542
1212,68200.0,0.7918822169303894,-9.66419506072998,0.2717418968677521
1213,68300.0,0.6757634282112122,-9.670180320739746,0.14664486050605774
1214,68400.0,0.6757634282112122,-9.670180320739746,0.14664486050605774
1215,68500.0,0.44412440061569214,-9.588777542114258,0.6218938827514648
1216,68600.0,0.44412440061569214,-9.588777542114258,0.6218938827514648
1217,68700.0,0.6189011335372925,-9.464279174804688,0.6368576288223267
1218,68800.0,0.6189011335372925,-9.464279174804688,0.6368576288223267
1219,68900.0,0.20051439106464386,-9.619902610778807,0.3034650683403015
1220,68000.0,0.0694318488240242,-9.73123264312744,1.2216414213180542
1221,68100.0,0.0694318488240242,-9.73123264312744,1.2216414213180542
1222,68200.0,0.7918822169303894,-9.66419506072998,0.2717418968677521
1223,68300.0,0.6757634282112122,-9.670180320739746,0.14664486050605774
1224,68400.0,0.6757634282112122,-9.670180320739746,0.14664486050605774
1225,68500.0,0.44412440061569214,-9.588777542114258,0.6218938827514648
1226,68600.0,0.44412440061569214,-9.588777542114258,0.6218938827514648
1227,68700.0,0.6189011335372925,-9.464279174804688,0.6368576288223267
1228,68800.0,0.6189011335372925,-9.464279174804688,0.6368576288223267
1229,68900.0,0.20051439106464386,-9.619902610778807,0.3034650683403015
1230,69000.0,0.20051439106464386,-9.619902610778807,0.3034650683403015
1231,69100.0,1.6089035272598269,-9.639056205749512,-0.12210428714752194
1232,69200.0,1.0199298858642578,-9.491812705993652,0.0065840547904372215
1233,69300.0,1.0199298858642578,-9.491812705993652,0.0065840547904372215
1234,69400.0,1.391629695892334,-9.815628051757812,0.3016694188117981
1235,69500.0,1.391629695892334,-9.815628051757812,0.3016694188117981
1236,69600.0,0.924760401248932,-9.466673851013184,0.06584054976701736
1237,69700.0,0.924760401248932,-9.466673851013184,0.06584054976701736
1238,69800.0,1.2372037172317505,-9.528324127197266,0.061650693416595466
1239,69900.0,1.2372037172317505,-9.528324127197266,0.061650693416595466
1240,69000.0,0.20051439106464386,-9.619902610778807,0.3034650683403015
1241,69100.0,1.6089035272598269,-9.639056205749512,-0.12210428714752194
1242,69200.0,1.0199298858642578,-9.491812705993652,0.0065840547904372215
1243,69300.0,1.0199298858642578,-9.491812705993652,0.0065840547904372215
1244,69400.0,1.391629695892334,-9.815628051757812,0.3016694188117981
1245,69500.0,1.391629695892334,-9.815628051757812,0.3016694188117981
1246,69600.0,0.924760401248932,-9.466673851013184,0.06584054976701736
1247,69700.0,0.924760401248932,-9.466673851013184,0.06584054976701736
1248,69800.0,1.2372037172317505,-9.528324127197266,0.061650693416595466
1249,69900.0,1.2372037172317505,-9.528324127197266,0.061650693416595466
1250,70000.0,0.9133879542350768,-9.59476375579834,0.5093663930892944
1251,70100.0,0.8319851160049438,-9.535507202148438,0.790086567401886
1252,70200.0,0.8319851160049438,-9.535507202148438,0.790086567401886
1253,70300.0,0.5374982953071594,-9.565434455871582,0.70090252161026
1254,70400.0,0.5374982953071594,-9.565434455871582,0.70090252161026
1255,70500.0,0.7445967197418213,-9.594164848327637,0.2687491476535797
1256,70600.0,0.7445967197418213,-9.594164848327637,0.2687491476535797
1257,70700.0,0.12090718746185306,-9.616311073303224,0.5554547905921936
1258,70800.0,0.12090718746185306,-9.616311073303224,0.5554547905921936
1259,70900.0,0.547075092792511,-9.575610160827637,0.585382342338562
1260,70000.0,0.9133879542350768,-9.59476375579834,0.5093663930892944
1261,70100.0,0.8319851160049438,-9.535507202148438,0.790086567401886
1262,70200.0,0.8319851160049438,-9.535507202148438,0.790086567401886
1263,70300.0,0.5374982953071594,-9.565434455871582,0.70090252161026
1264,70400.0,0.5374982953071594,-9.565434455871582,0.70090252161026
1265,70500.0,0.7445967197418213,-9.594164848327637,0.2687491476535797
1266,70600.0,0.7445967197418213,-9.594164848327637,0.2687491476535797
1267,70700.0,0.12090718746185306,-9.616311073303224,0.5554547905921936
1268,70800.0,0.12090718746185306,-9.616311073303224,0.5554547905921936
1269,70900.0,0.547075092792511,-9.575610160827637,0.585382342338562
1270,71000.0,-0.21188685297966006,-9.639654159545898,0.6338648796081543
1271,71100.0,-0.21188685297966006,-9.639654159545898,0.6338648796081543
1272,71200.0,1.004966139793396,-9.437344551086426,0.2687491476535797
1273,71300.0,1.004966139793396,-9.437344551086426,0.2687491476535797
1274,71400.0,-0.24839842319488525,-9.53011989593506,0.689530074596405
1275,71500.0,-0.24839842319488525,-9.53011989593506,0.689530074596405
1276,71600.0,0.24181437492370605,-9.593565940856934,1.1803414821624756
1277,71700.0,0.24181437492370605,-9.593565940856934,1.1803414821624756
1278,71800.0,0.5961562395095825,-9.375694274902344,0.4339490532875061
1279,71900.0,0.3274070918560028,-9.654019355773926,0.8122329115867615
1280,71000.0,-0.21188685297966006,-9.639654159545898,0.6338648796081543
1281,71100.0,-0.21188685297966006,-9.639654159545898,0.6338648796081543
1282,71200.0,1.004966139793396,-9.437344551086426,0.2687491476535797
1283,71300.0,1.004966139793396,-9.437344551086426,0.2687491476535797
1284,71400.0,-0.24839842319488525,-9.53011989593506,0.689530074596405
1285,71500.0,-0.24839842319488525,-9.53011989593506,0.689530074596405
1286,71600.0,0.24181437492370605,-9.593565940856934,1.1803414821624756
1287,71700.0,0.24181437492370605,-9.593565940856934,1.1803414821624756
1288,71800.0,0.5961562395095825,-9.375694274902344,0.4339490532875061
1289,71900.0,0.3274070918560028,-9.654019355773926,0.8122329115867615
1290,72000.0,0.3274070918560028,-9.654019355773926,0.8122329115867615
1291,72100.0,1.0091559886932373,-9.587580680847168,0.0586579404771328
1292,72200.0,1.0091559886932373,-9.587580680847168,0.0586579404771328
1293,72300.0,0.3417722880840301,-9.762357711791992,0.7170634269714355
1294,72400.0,0.3417722880840301,-9.762357711791992,0.7170634269714355
1295,72500.0,0.5524620413780212,-9.808445930480957,0.8708908557891846
1296,72600.0,0.5524620413780212,-9.808445930480957,0.8708908557891846
1297,72700.0,0.28311434388160706,-9.64923095703125,0.323815792798996
1298,72800.0,0.32261869311332697,-9.693524360656738,0.8301894664764404
1299,72900.0,0.32261869311332697,-9.693524360656738,0.8301894664764404
1300,72000.0,0.3274070918560028,-9.654019355773926,0.8122329115867615
1301,72100.0,1.0091559886932373,-9.587580680847168,0.0586579404771328
1302,72200.0,1.0091559886932373,-9.587580680847168,0.0586579404771328
1303,72300.0,0.3417722880840301,-9.762357711791992,0.7170634269714355
1304,72400.0,0.3417722880840301,-9.762357711791992,0.7170634269714355
1305,72500.0,0.5524620413780212,-9.808445930480957,0.8708908557891846
1306,72600.0,0.5524620413780212,-9.808445930480957,0.8708908557891846
1307,72700.0,0.28311434388160706,-9.64923095703125,0.323815792798996
1308,72800.0,0.32261869311332697,-9.693524360656738,0.8301894664764404
1309,72900.0,0.32261869311332697,-9.693524360656738,0.8301894664764404
1310,73000.0,0.5368997454643251,-9.575011253356934,0.6350619792938232
1311,73100.0,0.5368997454643251,-9.575011253356934,0.6350619792938232
1312,73200.0,0.2256535142660141,-9.603741645812988,0.7332242727279663
1313,73300.0,0.2256535142660141,-9.603741645812988,0.7332242727279663
1314,73400.0,0.3381809890270233,-9.713275909423828,0.5386953949928284
1315,73500.0,0.3381809890270233,-9.713275909423828,0.5386953949928284
1316,73600.0,0.396240383386612,-9.597756385803224,0.6123170852661133
1317,73700.0,0.2920926213264465,-9.737217903137207,0.5398924946784973
1318,73800.0,0.2920926213264465,-9.737217903137207,0.5398924946784973
1319,73900.0,-0.058059390634298325,-9.549872398376463,0.6949170231819153
1320,73000.0,0.5368997454643251,-9.575011253356934,0.6350619792938232
1321,73100.0,0.5368997454643251,-9.575011253356934,0.6350619792938232
1322,73200.0,0.2256535142660141,-9.603741645812988,0.7332242727279663
1323,73300.0,0.2256535142660141,-9.603741645812988,0.7332242727279663
1324,73400.0,0.3381809890270233,-9.713275909423828,0.5386953949928284
1325,73500.0,0.3381809890270233,-9.713275909423828,0.5386953949928284
1326,73600.0,0.396240383386612,-9.597756385803224,0.6123170852661133
1327,73700.0,0.2920926213264465,-9.737217903137207,0.5398924946784973
1328,73800.0,0.2920926213264465,-9.737217903137207,0.5398924946784973
1329,73900.0,-0.058059390634298325,-9.549872398376463,0.6949170231819153
1330,74000.0,-0.058059390634298325,-9.549872398376463,0.6949170231819153
1331,74100.0,-0.033518824726343155,-9.60553741455078,1.075595140457153
1332,74200.0,-0.033518824726343155,-9.60553741455078,1.075595140457153
1333,74300.0,0.395043283700943,-9.553462982177734,0.436343252658844
1334,74400.0,0.395043283700943,-9.553462982177734,0.436343252658844
1335,74500.0,-0.07721300423145294,-9.5223388671875,0.7266402244567871
1336,74600.0,0.2657563984394073,-9.5624418258667,0.5638344883918762
1337,74700.0,0.2657563984394073,-9.5624418258667,0.5638344883918762
1338,74800.0,0.26156654953956604,-9.892841339111328,0.4908113479614258
1339,74900.0,0.26156654953956604,-9.892841339111328,0.4908113479614258
1340,74000.0,-0.058059390634298325,-9.549872398376463,0.6949170231819153
1341,74100.0,-0.033518824726343155,-9.60553741455078,1.075595140457153
1342,74200.0,-0.033518824726343155,-9.60553741455078,1.075595140457153
1343,74300.0,0.395043283700943,-9.553462982177734,0.436343252658844
1344,74400.0,0.395043283700943,-9.553462982177734,0.436343252658844
1345,74500.0,-0.07721300423145294,-9.5223388671875,0.7266402244567871
1346,74600.0,0.2657563984394073,-9.5624418258667,0.5638344883918762
1347,74700.0,0.2657563984394073,-9.5624418258667,0.5638344883918762
1348,74800.0,0.26156654953956604,-9.892841339111328,0.4908113479614258
1349,74900.0,0.26156654953956604,-9.892841339111328,0.4908113479614258
1350,75000.0,0.2603694200515747,-9.619303703308104,0.507570743560791
1351,75100.0,0.2603694200515747,-9.619303703308104,0.507570743560791
1352,75200.0,0.36511576175689703,-9.679757118225098,0.5931634902954102
1353,75300.0,0.36511576175689703,-9.679757118225098,0.5931634902954102
1354,75400.0,0.6560112833976746,-9.560646057128906,0.6602011322975159
1355,75500.0,1.1976994276046753,-9.412205696105957,0.5135562419891357
1356,75600.0,1.1976994276046753,-9.412205696105957,0.5135562419891357
1357,75700.0,0.4794389009475708,-9.59057331085205,0.7601590156555176
1358,75800.0,0.4794389009475708,-9.59057331085205,0.7601590156555176
1359,75900.0,0.6236895322799683,-9.623494148254396,0.8379706144332886
1360,75000.0,0.2603694200515747,-9.619303703308104,0.507570743560791
1361,75100.0,0.2603694200515747,-9.619303703308104,0.507570743560791
1362,75200.0,0.36511576175689703,-9.679757118225098,0.5931634902954102
1363,75300.0,0.36511576175689703,-9.679757118225098,0.5931634902954102
1364,75400.0,0.6560112833976746,-9.560646057128906,0.6602011322975159
1365,75500.0,1.1976994276046753,-9.412205696105957,0.5135562419891357
1366,75600.0,1.1976994276046753,-9.412205696105957,0.5135562419891357
1367,75700.0,0.4794389009475708,-9.59057331085205,0.7601590156555176
1368,75800.0,0.4794389009475708,-9.59057331085205,0.7601590156555176
1369,75900.0,0.6236895322799683,-9.623494148254396,0.8379706144332886
1370,76000.0,0.6236895322799683,-9.623494148254396,0.8379706144332886
1371,76100.0,-0.2304419130086899,-9.576208114624023,0.9756371974945068
1372,76200.0,-0.2304419130086899,-9.576208114624023,0.9756371974945068
1373,76300.0,0.6560112833976746,-9.513360023498537,0.5548562407493591
1374,76400.0,1.2006921768188477,-9.54628086090088,0.020949264988303185
1375,76500.0,1.2006921768188477,-9.54628086090088,0.020949264988303185
1376,76600.0,0.7637503147125244,-9.60553741455078,0.2322375625371933
1377,76700.0,0.7637503147125244,-9.60553741455078,0.2322375625371933
1378,76800.0,0.7050924301147461,-9.552266120910645,0.3866635859012604
1379,76900.0,0.7050924301147461,-9.552266120910645,0.3866635859012604
1380,76000.0,0.6236895322799683,-9.623494148254396,0.8379706144332886
1381,76100.0,-0.2304419130086899,-9.576208114624023,0.9756371974945068
1382,76200.0,-0.2304419130086899,-9.576208114624023,0.9756371974945068
1383,76300.0,0.6560112833976746,-9.513360023498537,0.5548562407493591
1384,76400.0,1.2006921768188477,-9.54628086090088,0.020949264988303185
1385,76500.0,1.2006921768188477,-9.54628086090088,0.020949264988303185
1386,76600.0,0.7637503147125244,-9.60553741455078,0.2322375625371933
1387,76700.0,0.7637503147125244,-9.60553741455078,0.2322375625371933
1388,76800.0,0.7050924301147461,-9.552266120910645,0.3866635859012604
1389,76900.0,0.7050924301147461,-9.552266120910645,0.3866635859012604
1390,77000.0,0.8200140595436096,-9.834183692932127,0.5781996846199036
1391,77100.0,0.8200140595436096,-9.834183692932127,0.5781996846199036
1392,77200.0,0.3986345827579498,-9.34816074371338,-0.2519897222518921
1393,77300.0,1.5340847969055176,-9.706093788146973,-0.08738835901021957
1394,77400.0,1.5340847969055176,-9.706093788146973,-0.08738835901021957
1395,77500.0,0.9145850539207458,-9.618106842041016,0.023343466222286224
1396,77600.0,0.9145850539207458,-9.618106842041016,0.023343466222286224
1397,77700.0,1.7423802614212036,-9.601346969604492,-0.39145198464393616
1398,77800.0,1.7423802614212036,-9.601346969604492,-0.39145198464393616
1399,77900.0,1.091755986213684,-9.57321548461914,-0.22026655077934265
1400,77000.0,0.8200140595436096,-9.834183692932127,0.5781996846199036
1401,77100.0,0.8200140595436096,-9.834183692932127,0.5781996846199036
1402,77200.0,0.3986345827579498,-9.34816074371338,-0.2519897222518921
1403,77300.0,1.5340847969055176,-9.706093788146973,-0.08738835901021957
1404,77400.0,1.5340847969055176,-9.706093788146973,-0.08738835901021957
1405,77500.0,0.9145850539207458,-9.618106842041016,0.023343466222286224
1406,77600.0,0.9145850539207458,-9.618106842041016,0.023343466222286224
1407,77700.0,1.7423802614212036,-9.601346969604492,-0.39145198464393616
1408,77800.0,1.7423802614212036,-9.601346969604492,-0.39145198464393616
1409,77900.0,1.091755986213684,-9.57321548461914,-0.22026655077934265
1410,78000.0,1.091755986213684,-9.57321548461914,-0.22026655077934265
1411,78100.0,1.326986312866211,-9.518747329711914,-0.061650693416595466
1412,78200.0,0.7529764175415039,-9.752182006835938,0.8810662031173706
1413,78300.0,0.7529764175415039,-9.752182006835938,0.8810662031173706
1414,78400.0,0.4812345504760742,-9.500192642211914,0.4746504724025726
1415,78500.0,0.4812345504760742,-9.500192642211914,0.4746504724025726
1416,78600.0,0.6218938827514648,-9.691728591918944,0.6362590789794922
1417,78700.0,0.6218938827514648,-9.691728591918944,0.6362590789794922
1418,78800.0,0.4531026780605316,-9.539097785949707,0.2489969730377197
1419,78900.0,0.4531026780605316,-9.539097785949707,0.2489969730377197
1420,78000.0,1.091755986213684,-9.57321548461914,-0.22026655077934265
1421,78100.0,1.326986312866211,-9.518747329711914,-0.061650693416595466
1422,78200.0,0.7529764175415039,-9.752182006835938,0.8810662031173706
1423,78300.0,0.7529764175415039,-9.752182006835938,0.8810662031173706
1424,78400.0,0.4812345504760742,-9.500192642211914,0.4746504724025726
1425,78500.0,0.4812345504760742,-9.500192642211914,0.4746504724025726
1426,78600.0,0.6218938827514648,-9.691728591918944,0.6362590789794922
1427,78700.0,0.6218938827514648,-9.691728591918944,0.6362590789794922
1428,78800.0,0.4531026780605316,-9.539097785949707,0.2489969730377197
1429,78900.0,0.4531026780605316,-9.539097785949707,0.2489969730377197
1430,79000.0,0.13048399984836578,-9.64803409576416,0.5722141861915588
1431,79100.0,0.4519055783748626,-9.602544784545898,0.6919242739677429
1432,79200.0,0.4519055783748626,-9.602544784545898,0.6919242739677429
1433,79300.0,0.21966800093650815,-9.61870574951172,0.7368155717849731
1434,79400.0,0.21966800093650815,-9.61870574951172,0.7368155717849731
1435,79500.0,0.3758896589279175,-9.660603523254396,0.7362170219421387
1436,79600.0,0.3758896589279175,-9.660603523254396,0.7362170219421387
1437,79700.0,0.6841431260108948,-9.636063575744627,0.405218631029129
1438,79800.0,0.6841431260108948,-9.636063575744627,0.405218631029129
1439,79900.0,0.35733461380004883,-9.589975357055664,0.518943190574646
1440,79000.0,0.13048399984836578,-9.64803409576416,0.5722141861915588
1441,79100.0,0.4519055783748626,-9.602544784545898,0.6919242739677429
1442,79200.0,0.4519055783748626,-9.602544784545898,0.6919242739677429
1443,79300.0,0.21966800093650815,-9.61870574951172,0.7368155717849731
1444,79400.0,0.21966800093650815,-9.61870574951172,0.7368155717849731
1445,79500.0,0.3758896589279175,-9.660603523254396,0.7362170219421387
1446,79600.0,0.3758896589279175,-9.660603523254396,0.7362170219421387
1447,79700.0,0.6841431260108948,-9.636063575744627,0.405218631029129
1448,79800.0,0.6841431260108948,-9.636063575744627,0.405218631029129
1449,79900.0,0.35733461380004883,-9.589975357055664,0.518943190574646
1450,80000.0,0.9900023937225342,-9.583391189575195,0.3633201122283936
1451,80100.0,0.9900023937225342,-9.583391189575195,0.3633201122283936
1452,80200.0,0.35075053572654724,-9.798869132995604,0.5404910445213318
1453,80300.0,0.35075053572654724,-9.798869132995604,0.5404910445213318
1454,80400.0,0.3896563351154328,-9.604938507080078,0.4997895956039429
1455,80500.0,0.3896563351154328,-9.604938507080078,0.4997895956039429
1456,80600.0,0.5823895931243896,-9.613917350769043,0.7733271718025208
1457,80700.0,0.5823895931243896,-9.613917350769043,0.7733271718025208
1458,80800.0,0.6775590777397156,-9.238625526428224,0.0071826050989329815
1459,80900.0,0.6775590777397156,-9.238625526428224,0.0071826050989329815
1460,80000.0,0.9900023937225342,-9.583391189575195,0.3633201122283936
1461,80100.0,0.9900023937225342,-9.583391189575195,0.3633201122283936
1462,80200.0,0.35075053572654724,-9.798869132995604,0.5404910445213318
1463,80300.0,0.35075053572654724,-9.798869132995604,0.5404910445213318
1464,80400.0,0.3896563351154328,-9.604938507080078,0.4997895956039429
1465,80500.0,0.3896563351154328,-9.604938507080078,0.4997895956039429
1466,80600.0,0.5823895931243896,-9.613917350769043,0.7733271718025208
1467,80700.0,0.5823895931243896,-9.613917350769043,0.7733271718025208
1468,80800.0,0.6775590777397156,-9.238625526428224,0.0071826050989329815
1469,80900.0,0.6775590777397156,-9.238625526428224,0.0071826050989329815
1470,81000.0,0.9026140570640564,-9.659406661987305,0.6045359373092651
1471,81100.0,0.6865373253822327,-9.667187690734863,0.17717093229293826
1472,81200.0,0.6865373253822327,-9.667187690734863,0.17717093229293826
1473,81300.0,0.7003039717674255,-9.633668899536133,0.3010708689689636
1474,81400.0,0.7003039717674255,-9.633668899536133,0.3010708689689636
1475,81500.0,0.4058171808719635,-9.677961349487305,0.5931634902954102
1476,81600.0,0.4058171808719635,-9.677961349487305,0.5931634902954102
1477,81700.0,0.3531447649002075,-9.595361709594727,0.7972691655158997
1478,81800.0,0.3531447649002075,-9.595361709594727,0.7972691655158997
1479,81900.0,0.5231330990791321,-9.593565940856934,0.5805938839912415
1480,81000.0,0.9026140570640564,-9.659406661987305,0.6045359373092651
1481,81100.0,0.6865373253822327,-9.667187690734863,0.17717093229293826
1482,81200.0,0.6865373253822327,-9.667187690734863,0.17717093229293826
1483,81300.0,0.7003039717674255,-9.633668899536133,0.3010708689689636
1484,81400.0,0.7003039717674255,-9.633668899536133,0.3010708689689636
1485,81500.0,0.4058171808719635,-9.677961349487305,0.5931634902954102
1486,81600.0,0.4058171808719635,-9.677961349487305,0.5931634902954102
1487,81700.0,0.3531447649002075,-9.595361709594727,0.7972691655158997
1488,81800.0,0.3531447649002075,-9.595361709594727,0.7972691655158997
1489,81900.0,0.5231330990791321,-9.593565940856934,0.5805938839912415
1490,82000.0,0.5764040350914001,-9.57979965209961,0.6224924325942993
1491,82100.0,0.5764040350914001,-9.57979965209961,0.6224924325942993
1492,82200.0,0.4124012291431427,-9.617507934570312,0.6254851818084717
1493,82300.0,0.4124012291431427,-9.617507934570312,0.6254851818084717
1494,82400.0,0.3513490855693817,-9.52114200592041,0.4135983288288117
1495,82500.0,0.3513490855693817,-9.52114200592041,0.4135983288288117
1496,82600.0,0.16101007163524628,-9.648633003234863,0.9983820915222168
1497,82700.0,0.16101007163524628,-9.648633003234863,0.9983820915222168
1498,82800.0,0.5476736426353455,-9.639654159545898,0.5907692909240723
1499,82900.0,0.4722562730312347,-9.617507934570312,0.7218518257141113
1500,82000.0,0.5764040350914001,-9.57979965209961,0.6224924325942993
1501,82100.0,0.5764040350914001,-9.57979965209961,0.6224924325942993
1502,82200.0,0.4124012291431427,-9.617507934570312,0.6254851818084717
1503,82300.0,0.4124012291431427,-9.617507934570312,0.6254851818084717
1504,82400.0,0.3513490855693817,-9.52114200592041,0.4135983288288117
1505,82500.0,0.3513490855693817,-9.52114200592041,0.4135983288288117
1506,82600.0,0.16101007163524628,-9.648633003234863,0.9983820915222168
1507,82700.0,0.16101007163524628,-9.648633003234863,0.9983820915222168
1508,82800.0,0.5476736426353455,-9.639654159545898,0.5907692909240723
1509,82900.0,0.4722562730312347,-9.617507934570312,0.7218518257141113
1510,83000.0,0.4722562730312347,-9.617507934570312,0.7218518257141113
1511,83100.0,0.4501099288463593,-9.596558570861816,0.7242460250854492
1512,83200.0,0.4501099288463593,-9.596558570861816,0.7242460250854492
1513,83300.0,0.426167905330658,-9.60553741455078,0.6218938827514648
1514,83400.0,0.426167905330658,-9.60553741455078,0.6218938827514648
1515,83500.0,0.6733692288398743,-9.53311252593994,0.4692635238170624
1516,83600.0,0.8667010068893433,-9.654618263244627,0.5003881454467773
1517,83700.0,0.8667010068893433,-9.654618263244627,0.5003881454467773
1518,83800.0,0.9074024558067322,-9.575610160827637,0.6027402877807617
1519,83900.0,0.9074024558067322,-9.575610160827637,0.6027402877807617
1520,83000.0,0.4722562730312347,-9.617507934570312,0.7218518257141113
1521,83100.0,0.4501099288463593,-9.596558570861816,0.7242460250854492
1522,83200.0,0.4501099288463593,-9.596558570861816,0.7242460250854492
1523,83300.0,0.426167905330658,-9.60553741455078,0.6218938827514648
1524,83400.0,0.426167905330658,-9.60553741455078,0.6218938827514648
1525,83500.0,0.6733692288398743,-9.53311252593994,0.4692635238170624
1526,83600.0,0.8667010068893433,-9.654618263244627,0.5003881454467773
1527,83700.0,0.8667010068893433,-9.654618263244627,0.5003881454467773
1528,83800.0,0.9074024558067322,-9.575610160827637,0.6027402877807617
1529,83900.0,0.9074024558067322,-9.575610160827637,0.6027402877807617
1530,84000.0,1.0313023328781128,-9.49839687347412,0.4722562730312347
1531,84100.0,1.0313023328781128,-9.49839687347412,0.4722562730312347
1532,84200.0,0.43754035234451294,-9.63726043701172,0.6985083222389221
1533,84300.0,0.43754035234451294,-9.63726043701172,0.6985083222389221
1534,84400.0,-0.13287819921970367,-9.624691009521484,0.964264750480652
1535,84500.0,-0.13287819921970367,-9.624691009521484,0.964264750480652
1536,84600.0,0.8212111592292786,-9.55585765838623,0.4704606235027313
1537,84700.0,0.9403226971626282,-9.667786598205566,0.4471171796321869
1538,84800.0,0.9403226971626282,-9.667786598205566,0.4471171796321869
1539,84900.0,0.25917232036590576,-9.73661994934082,0.6829460263252258
1540,84000.0,1.0313023328781128,-9.49839687347412,0.4722562730312347
1541,84100.0,1.0313023328781128,-9.49839687347412,0.4722562730312347
1542,84200.0,0.43754035234451294,-9.63726043701172,0.6985083222389221
1543,84300.0,0.43754035234451294,-9.63726043701172,0.6985083222389221
1544,84400.0,-0.13287819921970367,-9.624691009521484,0.964264750480652
1545,84500.0,-0.13287819921970367,-9.624691009521484,0.964264750480652
1546,84600.0,0.8212111592292786,-9.55585765838623,0.4704606235027313
1547,84700.0,0.9403226971626282,-9.667786598205566,0.4471171796321869
1548,84800.0,0.9403226971626282,-9.667786598205566,0.4471171796321869
1549,84900.0,0.25917232036590576,-9.73661994934082,0.6829460263252258
1550,85000.0,0.25917232036590576,-9.73661994934082,0.6829460263252258
1551,85100.0,0.5973533391952515,-9.474454879760742,0.26994624733924866
1552,85200.0,0.5973533391952515,-9.474454879760742,0.26994624733924866
1553,85300.0,0.16400282084941864,-9.607931137084961,0.2693476974964142
1554,85400.0,0.16400282084941864,-9.607931137084961,0.2693476974964142
1555,85500.0,0.5728127360343933,-9.547477722167967,-0.2214636504650116
1556,85600.0,0.9678560495376588,-9.683348655700684,-0.2603694200515747
1557,85700.0,0.9678560495376588,-9.683348655700684,-0.2603694200515747
1558,85800.0,1.2904747724533079,-9.679159164428713,-0.3681085109710693
1559,85900.0,1.2904747724533079,-9.679159164428713,-0.3681085109710693
1560,85000.0,0.25917232036590576,-9.73661994934082,0.6829460263252258
1561,85100.0,0.5973533391952515,-9.474454879760742,0.26994624733924866
1562,85200.0,0.5973533391952515,-9.474454879760742,0.26994624733924866
1563,85300.0,0.16400282084941864,-9.607931137084961,0.2693476974964142
1564,85400.0,0.16400282084941864,-9.607931137084961,0.2693476974964142
1565,85500.0,0.5728127360343933,-9.547477722167967,-0.2214636504650116
1566,85600.0,0.9678560495376588,-9.683348655700684,-0.2603694200515747
1567,85700.0,0.9678560495376588,-9.683348655700684,-0.2603694200515747
1568,85800.0,1.2904747724533079,-9.679159164428713,-0.3681085109710693
1569,85900.0,1.2904747724533079,-9.679159164428713,-0.3681085109710693
1570,86000.0,1.3210008144378662,-9.636063575744627,-0.5901707410812378
1571,86100.0,1.3210008144378662,-9.636063575744627,-0.5901707410812378
1572,86200.0,0.7511807680130005,-9.606734275817873,-0.5183446407318115
1573,86300.0,0.7511807680130005,-9.606734275817873,-0.5183446407318115
1574,86400.0,1.1276689767837524,-9.633070945739746,-0.39803603291511536
1575,86500.0,0.2501940727233887,-9.51455783843994,0.3699041604995728
1576,86600.0,0.2501940727233887,-9.51455783843994,0.3699041604995728
1577,86700.0,0.579995334148407,-9.557653427124023,0.4118026793003082
1578,86800.0,0.579995334148407,-9.557653427124023,0.4118026793003082
1579,86900.0,0.6494272351264954,-9.627084732055664,0.11192893236875534
1580,86000.0,1.3210008144378662,-9.636063575744627,-0.5901707410812378
1581,86100.0,1.3210008144378662,-9.636063575744627,-0.5901707410812378
1582,86200.0,0.7511807680130005,-9.606734275817873,-0.5183446407318115
1583,86300.0,0.7511807680130005,-9.606734275817873,-0.5183446407318115
1584,86400.0,1.1276689767837524,-9.633070945739746,-0.39803603291511536
1585,86500.0,0.2501940727233887,-9.51455783843994,0.3699041604995728
1586,86600.0,0.2501940727233887,-9.51455783843994,0.3699041604995728
1587,86700.0,0.579995334148407,-9.557653427124023,0.4118026793003082
1588,86800.0,0.579995334148407,-9.557653427124023,0.4118026793003082
1589,86900.0,0.6494272351264954,-9.627084732055664,0.11192893236875534
1590,87000.0,0.6494272351264954,-9.627084732055664,0.11192893236875534
1591,87100.0,0.4620809257030487,-9.603142738342283,0.3567360639572144
1592,87200.0,0.4620809257030487,-9.603142738342283,0.3567360639572144
1593,87300.0,0.5099649429321289,-9.609726905822754,0.3866635859012604
1594,87400.0,0.35733461380004883,-9.645041465759276,0.3711012601852417
1595,87500.0,0.35733461380004883,-9.645041465759276,0.3711012601852417
1596,87600.0,0.6751648783683777,-9.692925453186037,0.4333505034446716
1597,87700.0,0.6751648783683777,-9.692925453186037,0.4333505034446716
1598,87800.0,0.19572599232196808,-9.677363395690918,0.641047477722168
1599,87900.0,0.19572599232196808,-9.677363395690918,0.641047477722168
1600,87000.0,0.6494272351264954,-9.627084732055664,0.11192893236875534
1601,87100.0,0.4620809257030487,-9.603142738342283,0.3567360639572144
1602,87200.0,0.4620809257030487,-9.603142738342283,0.3567360639572144
1603,87300.0,0.5099649429321289,-9.609726905822754,0.3866635859012604
1604,87400.0,0.35733461380004883,-9.645041465759276,0.3711012601852417
1605,87500.0,0.35733461380004883,-9.645041465759276,0.3711012601852417
1606,87600.0,0.6751648783683777,-9.692925453186037,0.4333505034446716
1607,87700.0,0.6751648783683777,-9.692925453186037,0.4333505034446716
1608,87800.0,0.19572599232196808,-9.677363395690918,0.641047477722168
1609,87900.0,0.19572599232196808,-9.677363395690918,0.641047477722168
1610,88000.0,0.5805938839912415,-9.657012939453123,0.3405751883983612
1611,88100.0,0.5805938839912415,-9.657012939453123,0.3405751883983612
1612,88200.0,0.4902127981185913,-9.636661529541016,0.454898327589035
1613,88300.0,1.0247182846069336,-8.966883659362793,0.025737667456269264
1614,88400.0,1.0247182846069336,-8.966883659362793,0.025737667456269264
1615,88500.0,0.4489128291606903,-9.370306968688963,0.3130418658256531
1616,88600.0,0.4489128291606903,-9.370306968688963,0.3130418658256531
1617,88700.0,0.3501519858837128,-9.747992515563963,0.8361749649047852
1618,88800.0,0.3501519858837128,-9.747992515563963,0.8361749649047852
1619,88900.0,0.7104793787002563,-9.6618013381958,0.3543418645858765
1620,88000.0,0.5805938839912415,-9.657012939453123,0.3405751883983612
1621,88100.0,0.5805938839912415,-9.657012939453123,0.3405751883983612
1622,88200.0,0.4902127981185913,-9.636661529541016,0.454898327589035
1623,88300.0,1.0247182846069336,-8.966883659362793,0.025737667456269264
1624,88400.0,1.0247182846069336,-8.966883659362793,0.025737667456269264
1625,88500.0,0.4489128291606903,-9.370306968688963,0.3130418658256531
1626,88600.0,0.4489128291606903,-9.370306968688963,0.3130418658256531
1627,88700.0,0.3501519858837128,-9.747992515563963,0.8361749649047852
1628,88800.0,0.3501519858837128,-9.747992515563963,0.8361749649047852
1629,88900.0,0.7104793787002563,-9.6618013381958,0.3543418645858765
1630,89000.0,0.7104793787002563,-9.6618013381958,0.3543418645858765
1631,89100.0,0.23283611238002774,-9.633668899536133,0.6697779297828674
1632,89200.0,0.5309142470359802,-9.493608474731444,0.6949170231819153
1633,89300.0,0.5309142470359802,-9.493608474731444,0.6949170231819153
1634,89400.0,0.2358288615942001,-9.569623947143556,0.6991068720817566
1635,89500.0,0.2358288615942001,-9.569623947143556,0.6991068720817566
1636,89600.0,0.2867056429386139,-9.588777542114258,0.8110358119010925
1637,89700.0,0.2867056429386139,-9.588777542114258,0.8110358119010925
1638,89800.0,-0.11671733111143112,-9.591172218322754,0.884058952331543
1639,89900.0,-0.11671733111143112,-9.591172218322754,0.884058952331543
1640,89000.0,0.7104793787002563,-9.6618013381958,0.3543418645858765
1641,89100.0,0.23283611238002774,-9.633668899536133,0.6697779297828674
1642,89200.0,0.5309142470359802,-9.493608474731444,0.6949170231819153
1643,89300.0,0.5309142470359802,-9.493608474731444,0.6949170231819153
1644,89400.0,0.2358288615942001,-9.569623947143556,0.6991068720817566
1645,89500.0,0.2358288615942001,-9.569623947143556,0.6991068720817566
1646,89600.0,0.2867056429386139,-9.588777542114258,0.8110358119010925
1647,89700.0,0.2867056429386139,-9.588777542114258,0.8110358119010925
1648,89800.0,-0.11671733111143112,-9.591172218322754,0.884058952331543
1649,89900.0,-0.11671733111143112,-9.591172218322754,0.884058952331543
1650,90000.0,0.5333084464073181,-9.59715747833252,0.5997475385665894
1651,90100.0,0.3770867586135864,-9.632472038269043,0.7601590156555176
1652,90200.0,0.3770867586135864,-9.632472038269043,0.7601590156555176
1653,90300.0,0.2472013235092163,-9.632472038269043,0.7074866294860841
1654,90400.0,0.2472013235092163,-9.632472038269043,0.7074866294860841
1655,90500.0,0.2477998733520508,-9.561244010925293,0.5578489899635315
1656,90600.0,0.2477998733520508,-9.561244010925293,0.5578489899635315
1657,90700.0,0.3435679376125336,-9.59715747833252,0.5841852426528931
1658,90800.0,0.3435679376125336,-9.59715747833252,0.5841852426528931
1659,90900.0,0.314238965511322,-9.651625633239746,0.5722141861915588
1660,90000.0,0.5333084464073181,-9.59715747833252,0.5997475385665894
1661,90100.0,0.3770867586135864,-9.632472038269043,0.7601590156555176
1662,90200.0,0.3770867586135864,-9.632472038269043,0.7601590156555176
1663,90300.0,0.2472013235092163,-9.632472038269043,0.7074866294860841
1664,90400.0,0.2472013235092163,-9.632472038269043,0.7074866294860841
1665,90500.0,0.2477998733520508,-9.561244010925293,0.5578489899635315
1666,90600.0,0.2477998733520508,-9.561244010925293,0.5578489899635315
1667,90700.0,0.3435679376125336,-9.59715747833252,0.5841852426528931
1668,90800.0,0.3435679376125336,-9.59715747833252,0.5841852426528931
1669,90900.0,0.314238965511322,-9.651625633239746,0.5722141861915588
1670,91000.0,0.959476351737976,-9.661202430725098,0.5506663918495178
1671,91100.0,0.959476351737976,-9.661202430725098,0.5506663918495178
1672,91200.0,0.9313444495201112,-9.646238327026367,0.557250440120697
1673,91300.0,0.9313444495201112,-9.646238327026367,0.557250440120697
1674,91400.0,1.5909470319747925,-9.582792282104492,0.12090718746185306
1675,91500.0,1.5909470319747925,-9.582792282104492,0.12090718746185306
1676,91600.0,0.21188685297966006,-9.62947940826416,0.7272387742996216
1677,91700.0,0.21188685297966006,-9.62947940826416,0.7272387742996216
1678,91800.0,0.14065934717655182,-9.761159896850586,0.9965864419937134
1679,91900.0,1.0247182846069336,-9.59715747833252,0.1364694982767105
1680,91000.0,0.959476351737976,-9.661202430725098,0.5506663918495178
1681,91100.0,0.959476351737976,-9.661202430725098,0.5506663918495178
1682,91200.0,0.9313444495201112,-9.646238327026367,0.557250440120697
1683,91300.0,0.9313444495201112,-9.646238327026367,0.557250440120697
1684,91400.0,1.5909470319747925,-9.582792282104492,0.12090718746185306
1685,91500.0,1.5909470319747925,-9.582792282104492,0.12090718746185306
1686,91600.0,0.21188685297966006,-9.62947940826416,0.7272387742996216
1687,91700.0,0.21188685297966006,-9.62947940826416,0.7272387742996216
1688,91800.0,0.14065934717655182,-9.761159896850586,0.9965864419937134
1689,91900.0,1.0247182846069336,-9.59715747833252,0.1364694982767105
1690,92000.0,1.0247182846069336,-9.59715747833252,0.1364694982767105
1691,92100.0,0.5548562407493591,-9.624691009521484,0.2555810213088989
1692,92200.0,0.5548562407493591,-9.624691009521484,0.2555810213088989
1693,92300.0,0.2986766695976257,-9.891644477844238,0.7074866294860841
1694,92400.0,0.2986766695976257,-9.891644477844238,0.7074866294860841
1695,92500.0,0.7787141203880309,-9.450512886047363,-0.14425064623355865
1696,92600.0,0.7787141203880309,-9.450512886047363,-0.14425064623355865
1697,92700.0,0.6021417379379272,-9.692925453186037,0.2537853717803955
1698,92800.0,1.3563152551651,-9.608530044555664,-0.16759411990642548
1699,92900.0,1.3563152551651,-9.608530044555664,-0.16759411990642548
1700,92000.0,1.0247182846069336,-9.59715747833252,0.1364694982767105
1701,92100.0,0.5548562407493591,-9.624691009521484,0.2555810213088989
1702,92200.0,0.5548562407493591,-9.624691009521484,0.2555810213088989
1703,92300.0,0.2986766695976257,-9.891644477844238,0.7074866294860841
1704,92400.0,0.2986766695976257,-9.891644477844238,0.7074866294860841
1705,92500.0,0.7787141203880309,-9.450512886047363,-0.14425064623355865
1706,92600.0,0.7787141203880309,-9.450512886047363,-0.14425064623355865
1707,92700.0,0.6021417379379272,-9.692925453186037,0.2537853717803955
1708,92800.0,1.3563152551651,-9.608530044555664,-0.16759411990642548
1709,92900.0,1.3563152551651,-9.608530044555664,-0.16759411990642548
1710,93000.0,0.8583213090896606,-9.600150108337402,-0.3124433159828186
1711,93100.0,0.8583213090896606,-9.600150108337402,-0.3124433159828186
1712,93200.0,1.5065513849258425,-9.727043151855467,-0.19632454216480252
1713,93300.0,1.5065513849258425,-9.727043151855467,-0.19632454216480252
1714,93400.0,0.812831461429596,-9.602544784545898,-0.15562310814857486
1715,93500.0,0.812831461429596,-9.602544784545898,-0.15562310814857486
1716,93600.0,1.3329718112945557,-9.736021041870117,-0.09636662155389786
1717,93700.0,0.7260416746139526,-9.616311073303224,0.5548562407493591
