,timestamp,ax,ay,az
0,7000.0,2.7754783630371094,-9.372700691223145,-0.4836287498474121
1,7100.0,2.7754783630371094,-9.372700691223145,-0.4836287498474121
2,7200.0,2.7754783630371094,-9.372700691223145,-0.4836287498474121
3,7300.0,2.74076247215271,-9.206304550170898,-0.436343252658844
4,7400.0,2.385223388671875,-9.454702377319336,-0.16879121959209442
5,7500.0,2.385223388671875,-9.454702377319336,-0.16879121959209442
6,7600.0,2.097320795059204,-9.170391082763672,-0.09457096457481384
7,7700.0,2.097320795059204,-9.170391082763672,-0.09457096457481384
8,7800.0,3.023876667022705,-8.78432559967041,-0.2753331959247589
9,7900.0,3.023876667022705,-8.78432559967041,-0.2753331959247589
10,8000.0,3.44765043258667,-9.191340446472168,0.2454056739807129
11,8100.0,3.44765043258667,-9.191340446472168,0.2454056739807129
12,8200.0,2.1529858112335205,-9.38167953491211,-0.3274070918560028
13,8300.0,2.5228900909423833,-9.201516151428224,-0.10474632680416107
14,8400.0,2.5228900909423833,-9.201516151428224,-0.10474632680416107
15,8500.0,2.1595699787139893,-9.428366661071776,0.016759412363171574
16,8600.0,2.1595699787139893,-9.428366661071776,0.016759412363171574
17,8700.0,2.3313539028167725,-9.375694274902344,0.2819172441959381
18,8800.0,2.3313539028167725,-9.375694274902344,0.2819172441959381
19,8900.0,2.60548996925354,-9.206902503967283,0.04369417950510979
20,9000.0,2.60548996925354,-9.206902503967283,0.04369417950510979
21,9100.0,2.276287317276001,-9.349956512451172,0.11552023142576218
22,9200.0,2.50373649597168,-9.294290542602539,0.13168109953403473
23,9300.0,2.50373649597168,-9.294290542602539,0.13168109953403473
24,9400.0,2.1703438758850098,-9.395445823669434,0.026336219161748886
25,9500.0,2.1703438758850098,-9.395445823669434,0.026336219161748886
26,9600.0,2.564788579940796,-9.31643772125244,0.1346738487482071
27,9700.0,2.564788579940796,-9.31643772125244,0.1346738487482071
28,9800.0,2.3092074394226074,-9.370306968688963,-0.038905777037143714
29,9900.0,2.3092074394226074,-9.370306968688963,-0.038905777037143714
30,8500.0,2.1595699787139893,-9.428366661071776,0.016759412363171574
31,8600.0,2.1595699787139893,-9.428366661071776,0.016759412363171574
32,8700.0,2.3313539028167725,-9.375694274902344,0.2819172441959381
33,8800.0,2.3313539028167725,-9.375694274902344,0.2819172441959381
34,8900.0,2.60548996925354,-9.206902503967283,0.04369417950510979
35,9000.0,2.60548996925354,-9.206902503967283,0.04369417950510979
36,9100.0,2.276287317276001,-9.349956512451172,0.11552023142576218
37,9200.0,2.50373649597168,-9.294290542602539,0.13168109953403473
38,9300.0,2.50373649597168,-9.294290542602539,0.13168109953403473
39,9400.0,2.1703438758850098,-9.395445823669434,0.026336219161748886
40,9500.0,2.1703438758850098,-9.395445823669434,0.026336219161748886
41,9600.0,2.564788579940796,-9.31643772125244,0.1346738487482071
42,9700.0,2.564788579940796,-9.31643772125244,0.1346738487482071
43,9800.0,2.3092074394226074,-9.370306968688963,-0.038905777037143714
44,9900.0,2.3092074394226074,-9.370306968688963,-0.038905777037143714
45,10000.0,2.8664579391479488,-9.198522567749023,-0.08559270948171616
46,10100.0,2.3367409706115723,-9.317634582519533,-0.12210428714752194
47,10200.0,2.3367409706115723,-9.317634582519533,-0.12210428714752194
48,10300.0,2.5737667083740234,-9.280524253845217,-0.13826514780521393
49,10400.0,2.5737667083740234,-9.280524253845217,-0.13826514780521393
50,10500.0,3.4207155704498287,-8.893860816955566,-0.4076128304004669
51,10600.0,3.4207155704498287,-8.893860816955566,-0.4076128304004669
52,10700.0,2.761113166809082,-9.08838939666748,-0.4525041282176971
53,10800.0,2.761113166809082,-9.08838939666748,-0.4525041282176971
54,10900.0,3.0561983585357666,-9.443928718566896,-0.3130418658256531
55,11000.0,3.2291796207427983,-9.045892715454102,-0.3998316824436188
56,11100.0,3.2291796207427983,-9.045892715454102,-0.3998316824436188
57,11200.0,3.863642930984497,-8.82442855834961,-0.4985924959182739
58,11300.0,3.863642930984497,-8.82442855834961,-0.4985924959182739
59,11400.0,3.5883097648620605,-8.823830604553223,-0.8565256595611572
60,10000.0,2.8664579391479488,-9.198522567749023,-0.08559270948171616
61,10100.0,2.3367409706115723,-9.317634582519533,-0.12210428714752194
62,10200.0,2.3367409706115723,-9.317634582519533,-0.12210428714752194
63,10300.0,2.5737667083740234,-9.280524253845217,-0.13826514780521393
64,10400.0,2.5737667083740234,-9.280524253845217,-0.13826514780521393
65,10500.0,3.4207155704498287,-8.893860816955566,-0.4076128304004669
66,10600.0,3.4207155704498287,-8.893860816955566,-0.4076128304004669
67,10700.0,2.761113166809082,-9.08838939666748,-0.4525041282176971
68,10800.0,2.761113166809082,-9.08838939666748,-0.4525041282176971
69,10900.0,3.0561983585357666,-9.443928718566896,-0.3130418658256531
70,11000.0,3.2291796207427983,-9.045892715454102,-0.3998316824436188
71,11100.0,3.2291796207427983,-9.045892715454102,-0.3998316824436188
72,11200.0,3.863642930984497,-8.82442855834961,-0.4985924959182739
73,11300.0,3.863642930984497,-8.82442855834961,-0.4985924959182739
74,11400.0,3.5883097648620605,-8.823830604553223,-0.8565256595611572
75,11500.0,3.5883097648620605,-8.823830604553223,-0.8565256595611572
76,11600.0,3.0154969692230225,-9.442731857299805,0.05506663769483566
77,11700.0,3.0154969692230225,-9.442731857299805,0.05506663769483566
78,11800.0,3.423708438873291,-9.083003044128418,-0.3615244626998901
79,11900.0,3.423708438873291,-9.083003044128418,-0.3615244626998901
80,12000.0,3.7798459529876713,-9.10574722290039,0.2651578485965729
81,12100.0,2.750339269638061,-8.936956405639648,0.7463923692703247
82,12200.0,2.750339269638061,-8.936956405639648,0.7463923692703247
83,12300.0,3.2136173248291016,-7.3891048431396475,1.057040095329285
84,12400.0,3.2136173248291016,-7.3891048431396475,1.057040095329285
85,12500.0,4.899135112762451,-8.993818283081055,0.8301894664764404
86,12600.0,4.899135112762451,-8.993818283081055,0.8301894664764404
87,12700.0,3.6445734500885014,-9.169194221496582,-1.0199298858642578
88,12800.0,2.021903276443481,-9.244611740112305,-0.8870517015457153
89,12900.0,2.021903276443481,-9.244611740112305,-0.8870517015457153
90,11500.0,3.5883097648620605,-8.823830604553223,-0.8565256595611572
91,11600.0,3.0154969692230225,-9.442731857299805,0.05506663769483566
92,11700.0,3.0154969692230225,-9.442731857299805,0.05506663769483566
93,11800.0,3.423708438873291,-9.083003044128418,-0.3615244626998901
94,11900.0,3.423708438873291,-9.083003044128418,-0.3615244626998901
95,12000.0,3.7798459529876713,-9.10574722290039,0.2651578485965729
96,12100.0,2.750339269638061,-8.936956405639648,0.7463923692703247
97,12200.0,2.750339269638061,-8.936956405639648,0.7463923692703247
98,12300.0,3.2136173248291016,-7.3891048431396475,1.057040095329285
99,12400.0,3.2136173248291016,-7.3891048431396475,1.057040095329285
100,12500.0,4.899135112762451,-8.993818283081055,0.8301894664764404
101,12600.0,4.899135112762451,-8.993818283081055,0.8301894664764404
102,12700.0,3.6445734500885014,-9.169194221496582,-1.0199298858642578
103,12800.0,2.021903276443481,-9.244611740112305,-0.8870517015457153
104,12900.0,2.021903276443481,-9.244611740112305,-0.8870517015457153
105,13000.0,2.476203203201294,-9.34157657623291,-0.6590040326118469
106,13100.0,2.476203203201294,-9.34157657623291,-0.6590040326118469
107,13200.0,2.993949174880981,-9.337387084960938,-1.3760673999786377
108,13300.0,2.993949174880981,-9.337387084960938,-1.3760673999786377
109,13400.0,2.782062292098999,-9.078812599182127,-1.5867571830749512
110,13500.0,2.782062292098999,-9.078812599182127,-1.5867571830749512
111,13600.0,2.695272445678711,-9.008183479309082,-1.20368492603302
112,13700.0,2.79822325706482,-9.241618156433104,0.06524199992418289
113,13800.0,2.79822325706482,-9.241618156433104,0.06524199992418289
114,13900.0,3.4608185291290283,-8.830414772033691,-0.2807201445102692
115,14000.0,3.4608185291290283,-8.830414772033691,-0.2807201445102692
116,14100.0,3.1585505008697514,-8.986037254333496,-0.5093663930892944
117,14200.0,3.1585505008697514,-8.986037254333496,-0.5093663930892944
118,14300.0,3.0059201717376713,-9.009979248046877,-0.8319851160049438
119,14400.0,3.0059201717376713,-9.009979248046877,-0.8319851160049438
120,13000.0,2.476203203201294,-9.34157657623291,-0.6590040326118469
121,13100.0,2.476203203201294,-9.34157657623291,-0.6590040326118469
122,13200.0,2.993949174880981,-9.337387084960938,-1.3760673999786377
123,13300.0,2.993949174880981,-9.337387084960938,-1.3760673999786377
124,13400.0,2.782062292098999,-9.078812599182127,-1.5867571830749512
125,13500.0,2.782062292098999,-9.078812599182127,-1.5867571830749512
126,13600.0,2.695272445678711,-9.008183479309082,-1.20368492603302
127,13700.0,2.79822325706482,-9.241618156433104,0.06524199992418289
128,13800.0,2.79822325706482,-9.241618156433104,0.06524199992418289
129,13900.0,3.4608185291290283,-8.830414772033691,-0.2807201445102692
130,14000.0,3.4608185291290283,-8.830414772033691,-0.2807201445102692
131,14100.0,3.1585505008697514,-8.986037254333496,-0.5093663930892944
132,14200.0,3.1585505008697514,-8.986037254333496,-0.5093663930892944
133,14300.0,3.0059201717376713,-9.009979248046877,-0.8319851160049438
134,14400.0,3.0059201717376713,-9.009979248046877,-0.8319851160049438
135,14500.0,2.9382839202880864,-9.15004062652588,-0.7044938206672668
136,14600.0,2.793434858322144,-9.14585018157959,-0.6871358752250671
137,14700.0,2.793434858322144,-9.14585018157959,-0.6871358752250671
138,14800.0,2.9741971492767334,-9.073426246643066,-0.5985504388809204
139,14900.0,2.9741971492767334,-9.073426246643066,-0.5985504388809204
140,15000.0,2.8604724407196045,-9.25299072265625,-0.4034229815006256
141,15100.0,2.8604724407196045,-9.25299072265625,-0.4034229815006256
142,15200.0,2.208651065826416,-9.453505516052246,-0.12868833541870114
143,15300.0,2.208651065826416,-9.453505516052246,-0.12868833541870114
144,15400.0,2.451662540435791,-9.16081428527832,-0.2448071241378784
145,15500.0,3.3530795574188232,-9.07641887664795,0.467467874288559
146,15600.0,3.3530795574188232,-9.07641887664795,0.467467874288559
147,15700.0,2.8365304470062256,-9.257181167602539,0.24181437492370605
148,15800.0,2.8365304470062256,-9.257181167602539,0.24181437492370605
149,15900.0,2.959233283996582,-9.01117706298828,0.2968810200691223
150,14500.0,2.9382839202880864,-9.15004062652588,-0.7044938206672668
151,14600.0,2.793434858322144,-9.14585018157959,-0.6871358752250671
152,14700.0,2.793434858322144,-9.14585018157959,-0.6871358752250671
153,14800.0,2.9741971492767334,-9.073426246643066,-0.5985504388809204
154,14900.0,2.9741971492767334,-9.073426246643066,-0.5985504388809204
155,15000.0,2.8604724407196045,-9.25299072265625,-0.4034229815006256
156,15100.0,2.8604724407196045,-9.25299072265625,-0.4034229815006256
157,15200.0,2.208651065826416,-9.453505516052246,-0.12868833541870114
158,15300.0,2.208651065826416,-9.453505516052246,-0.12868833541870114
159,15400.0,2.451662540435791,-9.16081428527832,-0.2448071241378784
160,15500.0,3.3530795574188232,-9.07641887664795,0.467467874288559
161,15600.0,3.3530795574188232,-9.07641887664795,0.467467874288559
162,15700.0,2.8365304470062256,-9.257181167602539,0.24181437492370605
163,15800.0,2.8365304470062256,-9.257181167602539,0.24181437492370605
164,15900.0,2.959233283996582,-9.01117706298828,0.2968810200691223
165,16000.0,2.959233283996582,-9.01117706298828,0.2968810200691223
166,16100.0,3.1004912853240967,-9.055469512939453,0.2920926213264465
167,16200.0,3.1004912853240967,-9.055469512939453,0.2920926213264465
168,16300.0,2.9640216827392583,-9.182960510253906,0.2974795699119568
169,16400.0,2.9640216827392583,-9.182960510253906,0.2974795699119568
170,16500.0,2.67372465133667,-9.208698272705078,0.4291606545448303
171,16600.0,3.155557870864868,-9.099761962890623,0.1777694821357727
172,16700.0,3.155557870864868,-9.099761962890623,0.1777694821357727
173,16800.0,3.008314371109009,-9.060257911682127,0.1777694821357727
174,16900.0,3.008314371109009,-9.060257911682127,0.1777694821357727
175,17000.0,2.680907249450684,-9.319430351257324,0.25258827209472656
176,17100.0,2.680907249450684,-9.319430351257324,0.25258827209472656
177,17200.0,2.609081268310547,-9.270947456359863,0.046088382601737976
178,17300.0,2.609081268310547,-9.270947456359863,0.046088382601737976
179,17400.0,1.854907751083374,-9.465476036071776,-0.4088099300861359
180,16000.0,2.959233283996582,-9.01117706298828,0.2968810200691223
181,16100.0,3.1004912853240967,-9.055469512939453,0.2920926213264465
182,16200.0,3.1004912853240967,-9.055469512939453,0.2920926213264465
183,16300.0,2.9640216827392583,-9.182960510253906,0.2974795699119568
184,16400.0,2.9640216827392583,-9.182960510253906,0.2974795699119568
185,16500.0,2.67372465133667,-9.208698272705078,0.4291606545448303
186,16600.0,3.155557870864868,-9.099761962890623,0.1777694821357727
187,16700.0,3.155557870864868,-9.099761962890623,0.1777694821357727
188,16800.0,3.008314371109009,-9.060257911682127,0.1777694821357727
189,16900.0,3.008314371109009,-9.060257911682127,0.1777694821357727
190,17000.0,2.680907249450684,-9.319430351257324,0.25258827209472656
191,17100.0,2.680907249450684,-9.319430351257324,0.25258827209472656
192,17200.0,2.609081268310547,-9.270947456359863,0.046088382601737976
193,17300.0,2.609081268310547,-9.270947456359863,0.046088382601737976
194,17400.0,1.854907751083374,-9.465476036071776,-0.4088099300861359
195,17500.0,2.230797529220581,-9.452906608581543,-0.4088099300861359
196,17600.0,2.230797529220581,-9.452906608581543,-0.4088099300861359
197,17700.0,2.484582901000977,-9.35055446624756,-0.3621230125427246
198,17800.0,2.484582901000977,-9.35055446624756,-0.3621230125427246
199,17900.0,1.7651251554489136,-9.545083999633787,-0.436343252658844
200,18000.0,1.7651251554489136,-9.545083999633787,-0.436343252658844
201,18100.0,2.7988216876983643,-9.199121475219727,-0.3411737382411957
202,18200.0,2.7988216876983643,-9.199121475219727,-0.3411737382411957
203,18300.0,2.8269536495208736,-9.08838939666748,0.13287819921970367
204,18400.0,2.449866771697998,-9.335591316223145,0.11133038252592088
205,18500.0,2.449866771697998,-9.335591316223145,0.11133038252592088
206,18600.0,2.7114334106445317,-9.20929718017578,0.1454477459192276
207,18700.0,2.7114334106445317,-9.20929718017578,0.1454477459192276
208,18800.0,3.220201253890991,-9.063849449157717,0.6667851805686951
209,18900.0,3.220201253890991,-9.063849449157717,0.6667851805686951
210,17500.0,2.230797529220581,-9.452906608581543,-0.4088099300861359
211,17600.0,2.230797529220581,-9.452906608581543,-0.4088099300861359
212,17700.0,2.484582901000977,-9.35055446624756,-0.3621230125427246
213,17800.0,2.484582901000977,-9.35055446624756,-0.3621230125427246
214,17900.0,1.7651251554489136,-9.545083999633787,-0.436343252658844
215,18000.0,1.7651251554489136,-9.545083999633787,-0.436343252658844
216,18100.0,2.7988216876983643,-9.199121475219727,-0.3411737382411957
217,18200.0,2.7988216876983643,-9.199121475219727,-0.3411737382411957
218,18300.0,2.8269536495208736,-9.08838939666748,0.13287819921970367
219,18400.0,2.449866771697998,-9.335591316223145,0.11133038252592088
220,18500.0,2.449866771697998,-9.335591316223145,0.11133038252592088
221,18600.0,2.7114334106445317,-9.20929718017578,0.1454477459192276
222,18700.0,2.7114334106445317,-9.20929718017578,0.1454477459192276
223,18800.0,3.220201253890991,-9.063849449157717,0.6667851805686951
224,18900.0,3.220201253890991,-9.063849449157717,0.6667851805686951
225,19000.0,3.63918662071228,-8.883685111999512,0.4213795065879822
226,19100.0,2.848501443862915,-9.255983352661133,0.4333505034446716
227,19200.0,2.848501443862915,-9.255983352661133,0.4333505034446716
228,19300.0,2.9155390262603764,-9.1260986328125,0.535702645778656
229,19400.0,2.9155390262603764,-9.1260986328125,0.535702645778656
230,19500.0,2.3720552921295166,-9.295488357543944,0.487220048904419
231,19600.0,2.3720552921295166,-9.295488357543944,0.487220048904419
232,19700.0,3.25611424446106,-9.10215663909912,0.6967126727104187
233,19800.0,3.25611424446106,-9.10215663909912,0.6967126727104187
234,19900.0,2.5001451969146733,-9.303269386291504,0.7451952695846558
235,20000.0,2.5001451969146733,-9.303269386291504,0.7451952695846558
236,20100.0,2.722805976867676,-9.157222747802734,0.5925649404525757
237,20200.0,2.3074119091033936,-9.370306968688963,0.4806360006332398
238,20300.0,2.3074119091033936,-9.370306968688963,0.4806360006332398
239,20400.0,2.717418909072876,-9.211092948913574,0.22445641458034515
240,19000.0,3.63918662071228,-8.883685111999512,0.4213795065879822
241,19100.0,2.848501443862915,-9.255983352661133,0.4333505034446716
242,19200.0,2.848501443862915,-9.255983352661133,0.4333505034446716
243,19300.0,2.9155390262603764,-9.1260986328125,0.535702645778656
244,19400.0,2.9155390262603764,-9.1260986328125,0.535702645778656
245,19500.0,2.3720552921295166,-9.295488357543944,0.487220048904419
246,19600.0,2.3720552921295166,-9.295488357543944,0.487220048904419
247,19700.0,3.25611424446106,-9.10215663909912,0.6967126727104187
248,19800.0,3.25611424446106,-9.10215663909912,0.6967126727104187
249,19900.0,2.5001451969146733,-9.303269386291504,0.7451952695846558
250,20000.0,2.5001451969146733,-9.303269386291504,0.7451952695846558
251,20100.0,2.722805976867676,-9.157222747802734,0.5925649404525757
252,20200.0,2.3074119091033936,-9.370306968688963,0.4806360006332398
253,20300.0,2.3074119091033936,-9.370306968688963,0.4806360006332398
254,20400.0,2.717418909072876,-9.211092948913574,0.22445641458034515
255,20500.0,2.717418909072876,-9.211092948913574,0.22445641458034515
256,20600.0,2.5767595767974854,-9.199121475219727,0.3477577865123749
257,20700.0,2.5767595767974854,-9.199121475219727,0.3477577865123749
258,20800.0,2.8574798107147217,-9.208698272705078,0.5404910445213318
259,20900.0,2.8574798107147217,-9.208698272705078,0.5404910445213318
260,21000.0,2.6850972175598145,-9.181164741516113,0.36571431159973145
261,21100.0,2.411559581756592,-9.272144317626953,0.2448071241378784
262,21200.0,2.411559581756592,-9.272144317626953,0.2448071241378784
263,21300.0,2.610278367996216,-9.248801231384276,0.3734954595565796
264,21400.0,2.610278367996216,-9.248801231384276,0.3734954595565796
265,21500.0,2.7653028964996342,-9.1847562789917,0.5368997454643251
266,21600.0,2.7653028964996342,-9.1847562789917,0.5368997454643251
267,21700.0,2.8784289360046387,-9.21827507019043,0.19871874153614044
268,21800.0,2.8784289360046387,-9.21827507019043,0.19871874153614044
269,21900.0,2.780266761779785,-9.182960510253906,0.10474632680416107
270,20500.0,2.717418909072876,-9.211092948913574,0.22445641458034515
271,20600.0,2.5767595767974854,-9.199121475219727,0.3477577865123749
272,20700.0,2.5767595767974854,-9.199121475219727,0.3477577865123749
273,20800.0,2.8574798107147217,-9.208698272705078,0.5404910445213318
274,20900.0,2.8574798107147217,-9.208698272705078,0.5404910445213318
275,21000.0,2.6850972175598145,-9.181164741516113,0.36571431159973145
276,21100.0,2.411559581756592,-9.272144317626953,0.2448071241378784
277,21200.0,2.411559581756592,-9.272144317626953,0.2448071241378784
278,21300.0,2.610278367996216,-9.248801231384276,0.3734954595565796
279,21400.0,2.610278367996216,-9.248801231384276,0.3734954595565796
280,21500.0,2.7653028964996342,-9.1847562789917,0.5368997454643251
281,21600.0,2.7653028964996342,-9.1847562789917,0.5368997454643251
282,21700.0,2.8784289360046387,-9.21827507019043,0.19871874153614044
283,21800.0,2.8784289360046387,-9.21827507019043,0.19871874153614044
284,21900.0,2.780266761779785,-9.182960510253906,0.10474632680416107
285,22000.0,2.756923198699951,-9.260173797607422,0.0628477931022644
286,22100.0,2.756923198699951,-9.260173797607422,0.0628477931022644
287,22200.0,2.6868927478790283,-9.24940013885498,0.3298012912273407
288,22300.0,2.6868927478790283,-9.24940013885498,0.3298012912273407
289,22400.0,2.6886885166168213,-9.263166427612305,0.19572599232196808
290,22500.0,2.6886885166168213,-9.263166427612305,0.19572599232196808
291,22600.0,2.558803081512451,-9.165003776550293,-0.04189852997660637
292,22700.0,2.558803081512451,-9.165003776550293,-0.04189852997660637
293,22800.0,3.846883535385132,-8.689156532287598,-0.13766659796237946
294,22900.0,3.81994891166687,-9.334393501281738,0.6500257849693298
295,23000.0,3.81994891166687,-9.334393501281738,0.6500257849693298
296,23100.0,3.092710018157959,-9.135076522827148,-0.2370259612798691
297,23200.0,3.092710018157959,-9.135076522827148,-0.2370259612798691
298,23300.0,3.4793736934661865,-9.035717010498047,0.10773907601833344
299,23400.0,3.4793736934661865,-9.035717010498047,0.10773907601833344
300,22000.0,2.756923198699951,-9.260173797607422,0.0628477931022644
301,22100.0,2.756923198699951,-9.260173797607422,0.0628477931022644
302,22200.0,2.6868927478790283,-9.24940013885498,0.3298012912273407
303,22300.0,2.6868927478790283,-9.24940013885498,0.3298012912273407
304,22400.0,2.6886885166168213,-9.263166427612305,0.19572599232196808
305,22500.0,2.6886885166168213,-9.263166427612305,0.19572599232196808
306,22600.0,2.558803081512451,-9.165003776550293,-0.04189852997660637
307,22700.0,2.558803081512451,-9.165003776550293,-0.04189852997660637
308,22800.0,3.846883535385132,-8.689156532287598,-0.13766659796237946
309,22900.0,3.81994891166687,-9.334393501281738,0.6500257849693298
310,23000.0,3.81994891166687,-9.334393501281738,0.6500257849693298
311,23100.0,3.092710018157959,-9.135076522827148,-0.2370259612798691
312,23200.0,3.092710018157959,-9.135076522827148,-0.2370259612798691
313,23300.0,3.4793736934661865,-9.035717010498047,0.10773907601833344
314,23400.0,3.4793736934661865,-9.035717010498047,0.10773907601833344
315,23500.0,3.5248634815216064,-9.039308547973633,0.12210428714752194
316,23600.0,3.5248634815216064,-9.039308547973633,0.12210428714752194
317,23700.0,2.800617456436157,-9.35055446624756,0.3303998410701752
318,23800.0,2.3570916652679443,-9.35893440246582,0.20350714027881625
319,23900.0,2.3570916652679443,-9.35893440246582,0.20350714027881625
320,24000.0,2.890399932861328,-9.211690902709961,0.2585737705230713
321,24100.0,2.890399932861328,-9.211690902709961,0.2585737705230713
322,24200.0,3.255515813827514,-9.056666374206543,0.020949264988303185
323,24300.0,3.255515813827514,-9.056666374206543,0.020949264988303185
324,24400.0,2.5252842903137207,-9.172784805297852,0.08080431073904037
325,24500.0,2.5252842903137207,-9.172784805297852,0.08080431073904037
326,24600.0,2.7473464012146,-9.228450775146484,0.3549404144287109
327,24700.0,2.587533473968506,-9.226056098937988,0.06643909960985184
328,24800.0,2.587533473968506,-9.226056098937988,0.06643909960985184
329,24900.0,2.5785553455352783,-9.223063468933104,0.033518824726343155
330,23500.0,3.5248634815216064,-9.039308547973633,0.12210428714752194
331,23600.0,3.5248634815216064,-9.039308547973633,0.12210428714752194
332,23700.0,2.800617456436157,-9.35055446624756,0.3303998410701752
333,23800.0,2.3570916652679443,-9.35893440246582,0.20350714027881625
334,23900.0,2.3570916652679443,-9.35893440246582,0.20350714027881625
335,24000.0,2.890399932861328,-9.211690902709961,0.2585737705230713
336,24100.0,2.890399932861328,-9.211690902709961,0.2585737705230713
337,24200.0,3.255515813827514,-9.056666374206543,0.020949264988303185
338,24300.0,3.255515813827514,-9.056666374206543,0.020949264988303185
339,24400.0,2.5252842903137207,-9.172784805297852,0.08080431073904037
340,24500.0,2.5252842903137207,-9.172784805297852,0.08080431073904037
341,24600.0,2.7473464012146,-9.228450775146484,0.3549404144287109
342,24700.0,2.587533473968506,-9.226056098937988,0.06643909960985184
343,24800.0,2.587533473968506,-9.226056098937988,0.06643909960985184
344,24900.0,2.5785553455352783,-9.223063468933104,0.033518824726343155
345,25000.0,2.5785553455352783,-9.223063468933104,0.033518824726343155
346,25100.0,2.827552318572998,-9.188945770263672,-0.06464344263076782
347,25200.0,2.827552318572998,-9.188945770263672,-0.06464344263076782
348,25300.0,2.652176856994629,-9.378686904907227,-0.014963760972023009
349,25400.0,2.652176856994629,-9.378686904907227,-0.014963760972023009
350,25500.0,3.21062445640564,-9.002198219299316,0.19452889263629916
351,25600.0,2.742558002471924,-9.21588134765625,-0.1346738487482071
352,25700.0,2.742558002471924,-9.21588134765625,-0.1346738487482071
353,25800.0,3.0921115875244136,-9.161413192749023,-0.008379706181585789
354,25900.0,3.0921115875244136,-9.161413192749023,-0.008379706181585789
355,26000.0,3.190273761749268,-9.10215663909912,-0.26815059781074524
356,26100.0,3.190273761749268,-9.10215663909912,-0.26815059781074524
357,26200.0,3.3500866889953613,-8.944138526916504,-0.20111294090747836
358,26300.0,3.3500866889953613,-8.944138526916504,-0.20111294090747836
359,26400.0,2.9682116508483887,-9.121310234069824,-0.07481880486011505
360,25000.0,2.5785553455352783,-9.223063468933104,0.033518824726343155
361,25100.0,2.827552318572998,-9.188945770263672,-0.06464344263076782
362,25200.0,2.827552318572998,-9.188945770263672,-0.06464344263076782
363,25300.0,2.652176856994629,-9.378686904907227,-0.014963760972023009
364,25400.0,2.652176856994629,-9.378686904907227,-0.014963760972023009
365,25500.0,3.21062445640564,-9.002198219299316,0.19452889263629916
366,25600.0,2.742558002471924,-9.21588134765625,-0.1346738487482071
367,25700.0,2.742558002471924,-9.21588134765625,-0.1346738487482071
368,25800.0,3.0921115875244136,-9.161413192749023,-0.008379706181585789
369,25900.0,3.0921115875244136,-9.161413192749023,-0.008379706181585789
370,26000.0,3.190273761749268,-9.10215663909912,-0.26815059781074524
371,26100.0,3.190273761749268,-9.10215663909912,-0.26815059781074524
372,26200.0,3.3500866889953613,-8.944138526916504,-0.20111294090747836
373,26300.0,3.3500866889953613,-8.944138526916504,-0.20111294090747836
374,26400.0,2.9682116508483887,-9.121310234069824,-0.07481880486011505
375,26500.0,3.6379895210266113,-8.953117370605469,0.04189852997660637
376,26600.0,3.6379895210266113,-8.953117370605469,0.04189852997660637
377,26700.0,4.461595058441162,-8.469488143920897,-0.1280897855758667
378,26800.0,4.461595058441162,-8.469488143920897,-0.1280897855758667
379,26900.0,2.900575399398804,-9.17936897277832,-0.026336219161748886
380,27000.0,2.900575399398804,-9.17936897277832,-0.026336219161748886
381,27100.0,3.202244758605957,-9.100360870361328,0.2106897532939911
382,27200.0,3.202244758605957,-9.100360870361328,0.2106897532939911
383,27300.0,3.624821424484253,-8.791508674621582,-0.1867477297782898
384,27400.0,3.2447419166564937,-9.106346130371094,0.023942016065120697
385,27500.0,3.2447419166564937,-9.106346130371094,0.023942016065120697
386,27600.0,4.101267337799071,-8.659229278564451,-0.5345055460929871
387,27700.0,4.101267337799071,-8.659229278564451,-0.5345055460929871
388,27800.0,3.9025487899780273,-8.865729331970215,-0.2914940714836121
389,27900.0,3.9025487899780273,-8.865729331970215,-0.2914940714836121
390,26500.0,3.6379895210266113,-8.953117370605469,0.04189852997660637
391,26600.0,3.6379895210266113,-8.953117370605469,0.04189852997660637
392,26700.0,4.461595058441162,-8.469488143920897,-0.1280897855758667
393,26800.0,4.461595058441162,-8.469488143920897,-0.1280897855758667
394,26900.0,2.900575399398804,-9.17936897277832,-0.026336219161748886
395,27000.0,2.900575399398804,-9.17936897277832,-0.026336219161748886
396,27100.0,3.202244758605957,-9.100360870361328,0.2106897532939911
397,27200.0,3.202244758605957,-9.100360870361328,0.2106897532939911
398,27300.0,3.624821424484253,-8.791508674621582,-0.1867477297782898
399,27400.0,3.2447419166564937,-9.106346130371094,0.023942016065120697
400,27500.0,3.2447419166564937,-9.106346130371094,0.023942016065120697
401,27600.0,4.101267337799071,-8.659229278564451,-0.5345055460929871
402,27700.0,4.101267337799071,-8.659229278564451,-0.5345055460929871
403,27800.0,3.9025487899780273,-8.865729331970215,-0.2914940714836121
404,27900.0,3.9025487899780273,-8.865729331970215,-0.2914940714836121
405,28000.0,3.0172927379608154,-9.275136947631836,0.04967968538403511
406,28100.0,3.0172927379608154,-9.275136947631836,0.04967968538403511
407,28200.0,3.652953147888184,-9.000402450561523,-0.3705027103424072
408,28300.0,3.691859006881714,-8.868123054504395,-0.667982280254364
409,28400.0,3.691859006881714,-8.868123054504395,-0.667982280254364
410,28500.0,3.3010056018829346,-9.044096946716307,-0.5752069354057312
411,28600.0,3.3010056018829346,-9.044096946716307,-0.5752069354057312
412,28700.0,3.2710781097412114,-9.019556045532227,-0.5380968451499939
413,28800.0,3.2710781097412114,-9.019556045532227,-0.5380968451499939
414,28900.0,3.4386723041534424,-8.98005199432373,-0.3645172119140625
415,29000.0,3.4386723041534424,-8.98005199432373,-0.3645172119140625
416,29100.0,3.2207999229431152,-9.095572471618652,-0.228047713637352
417,29200.0,3.075352191925049,-8.964489936828613,-0.21966800093650815
418,29300.0,3.075352191925049,-8.964489936828613,-0.21966800093650815
419,29400.0,3.576338768005371,-8.89146614074707,-0.09696517139673233
420,28000.0,3.0172927379608154,-9.275136947631836,0.04967968538403511
421,28100.0,3.0172927379608154,-9.275136947631836,0.04967968538403511
422,28200.0,3.652953147888184,-9.000402450561523,-0.3705027103424072
423,28300.0,3.691859006881714,-8.868123054504395,-0.667982280254364
424,28400.0,3.691859006881714,-8.868123054504395,-0.667982280254364
425,28500.0,3.3010056018829346,-9.044096946716307,-0.5752069354057312
426,28600.0,3.3010056018829346,-9.044096946716307,-0.5752069354057312
427,28700.0,3.2710781097412114,-9.019556045532227,-0.5380968451499939
428,28800.0,3.2710781097412114,-9.019556045532227,-0.5380968451499939
429,28900.0,3.4386723041534424,-8.98005199432373,-0.3645172119140625
430,29000.0,3.4386723041534424,-8.98005199432373,-0.3645172119140625
431,29100.0,3.2207999229431152,-9.095572471618652,-0.228047713637352
432,29200.0,3.075352191925049,-8.964489936828613,-0.21966800093650815
433,29300.0,3.075352191925049,-8.964489936828613,-0.21966800093650815
434,29400.0,3.576338768005371,-8.89146614074707,-0.09696517139673233
435,29500.0,3.576338768005371,-8.89146614074707,-0.09696517139673233
436,29600.0,3.2142157554626465,-8.99740982055664,0.038905777037143714
437,29700.0,3.2142157554626465,-8.99740982055664,0.038905777037143714
438,29800.0,3.4386723041534424,-9.100958824157717,-0.02454056777060032
439,29900.0,3.4386723041534424,-9.100958824157717,-0.02454056777060032
440,30000.0,2.9747955799102783,-9.107542991638184,-0.17238251864910126
441,30100.0,3.327341794967652,-9.114127159118652,-0.1280897855758667
442,30200.0,3.327341794967652,-9.114127159118652,-0.1280897855758667
443,30300.0,3.790021181106568,-8.778939247131348,0.13766659796237946
444,30400.0,3.790021181106568,-8.778939247131348,0.13766659796237946
445,30500.0,3.7421371936798096,-8.816049575805664,0.042497079819440835
446,30600.0,3.7421371936798096,-8.816049575805664,0.042497079819440835
447,30700.0,3.538031578063965,-8.99860668182373,0.37888240814208973
448,30800.0,3.538031578063965,-8.99860668182373,0.37888240814208973
449,30900.0,3.7217864990234375,-8.859743118286133,0.27712884545326233
450,29500.0,3.576338768005371,-8.89146614074707,-0.09696517139673233
451,29600.0,3.2142157554626465,-8.99740982055664,0.038905777037143714
452,29700.0,3.2142157554626465,-8.99740982055664,0.038905777037143714
453,29800.0,3.4386723041534424,-9.100958824157717,-0.02454056777060032
454,29900.0,3.4386723041534424,-9.100958824157717,-0.02454056777060032
455,30000.0,2.9747955799102783,-9.107542991638184,-0.17238251864910126
456,30100.0,3.327341794967652,-9.114127159118652,-0.1280897855758667
457,30200.0,3.327341794967652,-9.114127159118652,-0.1280897855758667
458,30300.0,3.790021181106568,-8.778939247131348,0.13766659796237946
459,30400.0,3.790021181106568,-8.778939247131348,0.13766659796237946
460,30500.0,3.7421371936798096,-8.816049575805664,0.042497079819440835
461,30600.0,3.7421371936798096,-8.816049575805664,0.042497079819440835
462,30700.0,3.538031578063965,-8.99860668182373,0.37888240814208973
463,30800.0,3.538031578063965,-8.99860668182373,0.37888240814208973
464,30900.0,3.7217864990234375,-8.859743118286133,0.27712884545326233
465,31000.0,3.1016883850097656,-9.102754592895508,-0.2759317457675934
466,31100.0,3.1016883850097656,-9.102754592895508,-0.2759317457675934
467,31200.0,3.8827965259552,-8.794501304626465,-0.3082534670829773
468,31300.0,3.8827965259552,-8.794501304626465,-0.3082534670829773
469,31400.0,2.516904592514038,-9.445125579833984,0.24181437492370605
470,31500.0,2.516904592514038,-9.445125579833984,0.24181437492370605
471,31600.0,2.986766576766968,-9.149441719055176,-0.5111620426177979
472,31700.0,2.986766576766968,-9.149441719055176,-0.5111620426177979
473,31800.0,2.759317398071289,-9.37629222869873,-0.7691373229026794
474,31900.0,3.001131772994995,-9.244012832641602,-0.6745663285255432
475,32000.0,3.001131772994995,-9.244012832641602,-0.6745663285255432
476,32100.0,2.607285737991333,-9.211092948913574,-0.4351461529731751
477,32200.0,2.607285737991333,-9.211092948913574,-0.4351461529731751
478,32300.0,2.935889720916748,-9.296086311340332,-0.21009120345115664
479,32400.0,2.935889720916748,-9.296086311340332,-0.21009120345115664
480,31000.0,3.1016883850097656,-9.102754592895508,-0.2759317457675934
481,31100.0,3.1016883850097656,-9.102754592895508,-0.2759317457675934
482,31200.0,3.8827965259552,-8.794501304626465,-0.3082534670829773
483,31300.0,3.8827965259552,-8.794501304626465,-0.3082534670829773
484,31400.0,2.516904592514038,-9.445125579833984,0.24181437492370605
485,31500.0,2.516904592514038,-9.445125579833984,0.24181437492370605
486,31600.0,2.986766576766968,-9.149441719055176,-0.5111620426177979
487,31700.0,2.986766576766968,-9.149441719055176,-0.5111620426177979
488,31800.0,2.759317398071289,-9.37629222869873,-0.7691373229026794
489,31900.0,3.001131772994995,-9.244012832641602,-0.6745663285255432
490,32000.0,3.001131772994995,-9.244012832641602,-0.6745663285255432
491,32100.0,2.607285737991333,-9.211092948913574,-0.4351461529731751
492,32200.0,2.607285737991333,-9.211092948913574,-0.4351461529731751
493,32300.0,2.935889720916748,-9.296086311340332,-0.21009120345115664
494,32400.0,2.935889720916748,-9.296086311340332,-0.21009120345115664
495,32500.0,3.383605480194092,-8.801085472106934,-0.18195933103561399
496,32600.0,3.383605480194092,-8.801085472106934,-0.18195933103561399
497,32700.0,2.5791537761688232,-9.277531623840332,0.008379706181585789
498,32800.0,3.1316158771514893,-9.018359184265137,-0.11611878126859665
499,32900.0,3.1316158771514893,-9.018359184265137,-0.11611878126859665
500,33000.0,2.455852508544922,-9.216479301452637,0.06344634294509888
501,33100.0,2.455852508544922,-9.216479301452637,0.06344634294509888
502,33200.0,3.0837318897247314,-9.096170425415039,-0.15682020783424375
503,33300.0,3.0837318897247314,-9.096170425415039,-0.15682020783424375
504,33400.0,2.6761188507080083,-9.244611740112305,-0.08259996026754379
505,33500.0,2.6761188507080083,-9.244611740112305,-0.08259996026754379
506,33600.0,2.9215245246887207,-9.242217063903807,0.52552729845047
507,33700.0,3.1860837936401367,-8.881291389465332,0.6584054827690125
508,33800.0,3.1860837936401367,-8.881291389465332,0.6584054827690125
509,33900.0,3.641580820083618,-8.986037254333496,0.8631097078323364
510,32500.0,3.383605480194092,-8.801085472106934,-0.18195933103561399
511,32600.0,3.383605480194092,-8.801085472106934,-0.18195933103561399
512,32700.0,2.5791537761688232,-9.277531623840332,0.008379706181585789
513,32800.0,3.1316158771514893,-9.018359184265137,-0.11611878126859665
514,32900.0,3.1316158771514893,-9.018359184265137,-0.11611878126859665
515,33000.0,2.455852508544922,-9.216479301452637,0.06344634294509888
516,33100.0,2.455852508544922,-9.216479301452637,0.06344634294509888
517,33200.0,3.0837318897247314,-9.096170425415039,-0.15682020783424375
518,33300.0,3.0837318897247314,-9.096170425415039,-0.15682020783424375
519,33400.0,2.6761188507080083,-9.244611740112305,-0.08259996026754379
520,33500.0,2.6761188507080083,-9.244611740112305,-0.08259996026754379
521,33600.0,2.9215245246887207,-9.242217063903807,0.52552729845047
522,33700.0,3.1860837936401367,-8.881291389465332,0.6584054827690125
523,33800.0,3.1860837936401367,-8.881291389465332,0.6584054827690125
524,33900.0,3.641580820083618,-8.986037254333496,0.8631097078323364
525,34000.0,3.641580820083618,-8.986037254333496,0.8631097078323364
526,34100.0,3.5404257774353027,-8.631695747375487,1.0043675899505615
527,34200.0,3.5404257774353027,-8.631695747375487,1.0043675899505615
528,34300.0,2.985569477081299,-9.090784072875977,0.9253589510917664
529,34400.0,2.985569477081299,-9.090784072875977,0.9253589510917664
530,34500.0,3.3297359943389893,-8.818443298339844,0.7224503755569458
531,34600.0,3.511695384979248,-9.055469512939453,0.8050503134727478
532,34700.0,3.511695384979248,-9.055469512939453,0.8050503134727478
533,34800.0,3.5631706714630127,-8.802282333374023,0.7475894689559937
534,34900.0,3.5631706714630127,-8.802282333374023,0.7475894689559937
535,35000.0,2.847304344177246,-9.337985038757324,0.9816226959228516
536,35100.0,2.847304344177246,-9.337985038757324,0.9816226959228516
537,35200.0,3.1004912853240967,-9.05606746673584,0.6392518281936646
538,35300.0,3.1004912853240967,-9.05606746673584,0.6392518281936646
539,35400.0,3.1980550289154053,-9.005789756774902,0.7068880796432495
540,34000.0,3.641580820083618,-8.986037254333496,0.8631097078323364
541,34100.0,3.5404257774353027,-8.631695747375487,1.0043675899505615
542,34200.0,3.5404257774353027,-8.631695747375487,1.0043675899505615
543,34300.0,2.985569477081299,-9.090784072875977,0.9253589510917664
544,34400.0,2.985569477081299,-9.090784072875977,0.9253589510917664
545,34500.0,3.3297359943389893,-8.818443298339844,0.7224503755569458
546,34600.0,3.511695384979248,-9.055469512939453,0.8050503134727478
547,34700.0,3.511695384979248,-9.055469512939453,0.8050503134727478
548,34800.0,3.5631706714630127,-8.802282333374023,0.7475894689559937
549,34900.0,3.5631706714630127,-8.802282333374023,0.7475894689559937
550,35000.0,2.847304344177246,-9.337985038757324,0.9816226959228516
551,35100.0,2.847304344177246,-9.337985038757324,0.9816226959228516
552,35200.0,3.1004912853240967,-9.05606746673584,0.6392518281936646
553,35300.0,3.1004912853240967,-9.05606746673584,0.6392518281936646
554,35400.0,3.1980550289154053,-9.005789756774902,0.7068880796432495
555,35500.0,3.1028854846954346,-9.290101051330566,0.6877344250679016
556,35600.0,3.1028854846954346,-9.290101051330566,0.6877344250679016
557,35700.0,3.270479440689087,-8.921394348144531,0.8984242081642151
558,35800.0,3.270479440689087,-8.921394348144531,0.8984242081642151
559,35900.0,2.428318977355957,-9.306262016296387,0.7751228213310242
560,36000.0,2.428318977355957,-9.306262016296387,0.7751228213310242
561,36100.0,2.8191723823547363,-9.221866607666016,0.5027823448181152
562,36200.0,2.8191723823547363,-9.221866607666016,0.5027823448181152
563,36300.0,2.801814556121826,-9.21947193145752,0.6093243360519409
564,36400.0,2.9508535861968994,-9.140463829040527,0.5057750940322876
565,36500.0,2.9508535861968994,-9.140463829040527,0.5057750940322876
566,36600.0,3.508702516555786,-8.863334655761719,0.37169981002807617
567,36700.0,3.508702516555786,-8.863334655761719,0.37169981002807617
568,36800.0,2.479794502258301,-9.27453899383545,0.35254621505737305
569,36900.0,2.479794502258301,-9.27453899383545,0.35254621505737305
570,35500.0,3.1028854846954346,-9.290101051330566,0.6877344250679016
571,35600.0,3.1028854846954346,-9.290101051330566,0.6877344250679016
572,35700.0,3.270479440689087,-8.921394348144531,0.8984242081642151
573,35800.0,3.270479440689087,-8.921394348144531,0.8984242081642151
574,35900.0,2.428318977355957,-9.306262016296387,0.7751228213310242
575,36000.0,2.428318977355957,-9.306262016296387,0.7751228213310242
576,36100.0,2.8191723823547363,-9.221866607666016,0.5027823448181152
577,36200.0,2.8191723823547363,-9.221866607666016,0.5027823448181152
578,36300.0,2.801814556121826,-9.21947193145752,0.6093243360519409
579,36400.0,2.9508535861968994,-9.140463829040527,0.5057750940322876
580,36500.0,2.9508535861968994,-9.140463829040527,0.5057750940322876
581,36600.0,3.508702516555786,-8.863334655761719,0.37169981002807617
582,36700.0,3.508702516555786,-8.863334655761719,0.37169981002807617
583,36800.0,2.479794502258301,-9.27453899383545,0.35254621505737305
584,36900.0,2.479794502258301,-9.27453899383545,0.35254621505737305
585,37000.0,3.1316158771514893,-9.057265281677246,0.059855043888092034
586,37100.0,3.1316158771514893,-9.057265281677246,0.059855043888092034
587,37200.0,3.5913026332855225,-8.992621421813965,0.3519476354122162
588,37300.0,3.4775779247283936,-8.973467826843262,0.314238965511322
589,37400.0,3.4775779247283936,-8.973467826843262,0.314238965511322
590,37500.0,3.4314894676208496,-8.974664688110352,0.5698199868202211
591,37600.0,3.4314894676208496,-8.974664688110352,0.5698199868202211
592,37700.0,3.5500025749206543,-8.877699851989746,0.05925649031996728
593,37800.0,3.5500025749206543,-8.877699851989746,0.05925649031996728
594,37900.0,3.1699230670928955,-9.103952407836914,0.4967968463897705
595,38000.0,3.1699230670928955,-9.103952407836914,0.4967968463897705
596,38100.0,2.958036184310913,-9.10574722290039,0.5147533416748047
597,38200.0,2.958036184310913,-9.10574722290039,0.5147533416748047
598,38300.0,3.1184477806091313,-9.114726066589355,0.152031809091568
599,38400.0,3.066972494125366,-9.103952407836914,0.13407529890537262
600,37000.0,3.1316158771514893,-9.057265281677246,0.059855043888092034
601,37100.0,3.1316158771514893,-9.057265281677246,0.059855043888092034
602,37200.0,3.5913026332855225,-8.992621421813965,0.3519476354122162
603,37300.0,3.4775779247283936,-8.973467826843262,0.314238965511322
604,37400.0,3.4775779247283936,-8.973467826843262,0.314238965511322
605,37500.0,3.4314894676208496,-8.974664688110352,0.5698199868202211
606,37600.0,3.4314894676208496,-8.974664688110352,0.5698199868202211
607,37700.0,3.5500025749206543,-8.877699851989746,0.05925649031996728
608,37800.0,3.5500025749206543,-8.877699851989746,0.05925649031996728
609,37900.0,3.1699230670928955,-9.103952407836914,0.4967968463897705
610,38000.0,3.1699230670928955,-9.103952407836914,0.4967968463897705
611,38100.0,2.958036184310913,-9.10574722290039,0.5147533416748047
612,38200.0,2.958036184310913,-9.10574722290039,0.5147533416748047
613,38300.0,3.1184477806091313,-9.114726066589355,0.152031809091568
614,38400.0,3.066972494125366,-9.103952407836914,0.13407529890537262
615,38500.0,3.066972494125366,-9.103952407836914,0.13407529890537262
616,38600.0,2.9502551555633545,-9.182361602783203,0.1693897694349289
617,38700.0,2.9502551555633545,-9.182361602783203,0.1693897694349289
618,38800.0,3.2327709197998047,-9.12968921661377,0.2873041927814484
619,38900.0,3.2327709197998047,-9.12968921661377,0.2873041927814484
620,39000.0,3.1459810733795166,-9.084199905395508,0.017956512048840526
621,39100.0,3.1459810733795166,-9.084199905395508,0.017956512048840526
622,39200.0,2.7712883949279785,-9.15961742401123,0.16340427100658414
623,39300.0,2.9975404739379883,-9.14585018157959,0.1646013706922531
624,39400.0,2.9975404739379883,-9.14585018157959,0.1646013706922531
625,39500.0,3.266289710998535,-8.9680814743042,0.15143325924873352
626,39600.0,3.266289710998535,-8.9680814743042,0.15143325924873352
627,39700.0,4.085705280303955,-8.916605949401855,0.3112462162971497
628,39800.0,4.085705280303955,-8.916605949401855,0.3112462162971497
629,39900.0,3.60566782951355,-9.065644264221193,0.18974047899246216
630,38500.0,3.066972494125366,-9.103952407836914,0.13407529890537262
631,38600.0,2.9502551555633545,-9.182361602783203,0.1693897694349289
632,38700.0,2.9502551555633545,-9.182361602783203,0.1693897694349289
633,38800.0,3.2327709197998047,-9.12968921661377,0.2873041927814484
634,38900.0,3.2327709197998047,-9.12968921661377,0.2873041927814484
635,39000.0,3.1459810733795166,-9.084199905395508,0.017956512048840526
636,39100.0,3.1459810733795166,-9.084199905395508,0.017956512048840526
637,39200.0,2.7712883949279785,-9.15961742401123,0.16340427100658414
638,39300.0,2.9975404739379883,-9.14585018157959,0.1646013706922531
639,39400.0,2.9975404739379883,-9.14585018157959,0.1646013706922531
640,39500.0,3.266289710998535,-8.9680814743042,0.15143325924873352
641,39600.0,3.266289710998535,-8.9680814743042,0.15143325924873352
642,39700.0,4.085705280303955,-8.916605949401855,0.3112462162971497
643,39800.0,4.085705280303955,-8.916605949401855,0.3112462162971497
644,39900.0,3.60566782951355,-9.065644264221193,0.18974047899246216
645,40000.0,3.60566782951355,-9.065644264221193,0.18974047899246216
646,40100.0,3.98455023765564,-8.743624687194824,0.04728548228740692
647,40200.0,4.042609691619873,-8.907029151916504,0.1280897855758667
648,40300.0,4.042609691619873,-8.907029151916504,0.1280897855758667
649,40400.0,4.042609691619873,-8.582015991210938,0.3633201122283936
650,40500.0,4.042609691619873,-8.582015991210938,0.3633201122283936
651,40600.0,2.6874914169311523,-9.227252960205078,0.2017114907503128
652,40700.0,2.6874914169311523,-9.227252960205078,0.2017114907503128
653,40800.0,3.4308910369873047,-9.030928611755373,0.23343466222286224
654,40900.0,3.126228809356689,-9.07522201538086,0.15921440720558167
655,41000.0,3.126228809356689,-9.07522201538086,0.15921440720558167
656,41100.0,3.3351230621337886,-8.903437614440918,0.22445641458034515
657,41200.0,3.3351230621337886,-8.903437614440918,0.22445641458034515
658,41300.0,3.2118215560913086,-9.122507095336914,0.395043283700943
659,41400.0,3.2118215560913086,-9.122507095336914,0.395043283700943
660,40000.0,3.60566782951355,-9.065644264221193,0.18974047899246216
661,40100.0,3.98455023765564,-8.743624687194824,0.04728548228740692
662,40200.0,4.042609691619873,-8.907029151916504,0.1280897855758667
663,40300.0,4.042609691619873,-8.907029151916504,0.1280897855758667
664,40400.0,4.042609691619873,-8.582015991210938,0.3633201122283936
665,40500.0,4.042609691619873,-8.582015991210938,0.3633201122283936
666,40600.0,2.6874914169311523,-9.227252960205078,0.2017114907503128
667,40700.0,2.6874914169311523,-9.227252960205078,0.2017114907503128
668,40800.0,3.4308910369873047,-9.030928611755373,0.23343466222286224
669,40900.0,3.126228809356689,-9.07522201538086,0.15921440720558167
670,41000.0,3.126228809356689,-9.07522201538086,0.15921440720558167
671,41100.0,3.3351230621337886,-8.903437614440918,0.22445641458034515
672,41200.0,3.3351230621337886,-8.903437614440918,0.22445641458034515
673,41300.0,3.2118215560913086,-9.122507095336914,0.395043283700943
674,41400.0,3.2118215560913086,-9.122507095336914,0.395043283700943
675,41500.0,3.4500446319580083,-9.03751277923584,0.8445546627044678
676,41600.0,3.4500446319580083,-9.03751277923584,0.8445546627044678
677,41700.0,3.0113072395324707,-9.203909873962402,0.4932055473327637
678,41800.0,3.0113072395324707,-9.203909873962402,0.4932055473327637
679,41900.0,3.2219970226287837,-9.016563415527344,0.2172738015651703
680,42000.0,2.981379747390747,-9.230246543884276,0.12509703636169436
681,42100.0,2.981379747390747,-9.230246543884276,0.12509703636169436
682,42200.0,3.2830491065979004,-9.035717010498047,-0.038307227194309235
683,42300.0,3.2830491065979004,-9.035717010498047,-0.038307227194309235
684,42400.0,3.201646327972412,-9.018359184265137,0.2059013396501541
685,42500.0,3.201646327972412,-9.018359184265137,0.2059013396501541
686,42600.0,3.220201253890991,-9.03870964050293,0.4135983288288117
687,42700.0,3.220201253890991,-9.03870964050293,0.4135983288288117
688,42800.0,2.846705913543701,-9.258378028869627,0.4369418025016785
689,42900.0,3.6756980419158936,-8.828020095825195,-0.17477671802043915
690,41500.0,3.4500446319580083,-9.03751277923584,0.8445546627044678
691,41600.0,3.4500446319580083,-9.03751277923584,0.8445546627044678
692,41700.0,3.0113072395324707,-9.203909873962402,0.4932055473327637
693,41800.0,3.0113072395324707,-9.203909873962402,0.4932055473327637
694,41900.0,3.2219970226287837,-9.016563415527344,0.2172738015651703
695,42000.0,2.981379747390747,-9.230246543884276,0.12509703636169436
696,42100.0,2.981379747390747,-9.230246543884276,0.12509703636169436
697,42200.0,3.2830491065979004,-9.035717010498047,-0.038307227194309235
698,42300.0,3.2830491065979004,-9.035717010498047,-0.038307227194309235
699,42400.0,3.201646327972412,-9.018359184265137,0.2059013396501541
700,42500.0,3.201646327972412,-9.018359184265137,0.2059013396501541
701,42600.0,3.220201253890991,-9.03870964050293,0.4135983288288117
702,42700.0,3.220201253890991,-9.03870964050293,0.4135983288288117
703,42800.0,2.846705913543701,-9.258378028869627,0.4369418025016785
704,42900.0,3.6756980419158936,-8.828020095825195,-0.17477671802043915
705,43000.0,3.6756980419158936,-8.828020095825195,-0.17477671802043915
706,43100.0,3.634398221969605,-8.893261909484863,-0.023343466222286224
707,43200.0,3.634398221969605,-8.893261909484863,-0.023343466222286224
708,43300.0,3.7247793674468994,-8.924386978149414,0.21308395266532895
709,43400.0,3.7247793674468994,-8.924386978149414,0.21308395266532895
710,43500.0,3.2357635498046875,-9.039907455444336,0.1693897694349289
711,43600.0,3.2357635498046875,-9.039907455444336,0.1693897694349289
712,43700.0,2.8562827110290527,-9.228450775146484,0.3303998410701752
713,43800.0,3.845686435699463,-8.886079788208008,0.0041898530907928935
714,43900.0,3.845686435699463,-8.886079788208008,0.0041898530907928935
715,44000.0,3.1866824626922607,-9.10874080657959,-0.09935937076807022
716,44100.0,3.1866824626922607,-9.10874080657959,-0.09935937076807022
717,44200.0,2.635417461395264,-9.46487808227539,0.062249243259429925
718,44300.0,2.635417461395264,-9.46487808227539,0.062249243259429925
719,44400.0,3.2579100131988525,-9.044695854187012,-0.406415730714798
720,43000.0,3.6756980419158936,-8.828020095825195,-0.17477671802043915
721,43100.0,3.634398221969605,-8.893261909484863,-0.023343466222286224
722,43200.0,3.634398221969605,-8.893261909484863,-0.023343466222286224
723,43300.0,3.7247793674468994,-8.924386978149414,0.21308395266532895
724,43400.0,3.7247793674468994,-8.924386978149414,0.21308395266532895
725,43500.0,3.2357635498046875,-9.039907455444336,0.1693897694349289
726,43600.0,3.2357635498046875,-9.039907455444336,0.1693897694349289
727,43700.0,2.8562827110290527,-9.228450775146484,0.3303998410701752
728,43800.0,3.845686435699463,-8.886079788208008,0.0041898530907928935
729,43900.0,3.845686435699463,-8.886079788208008,0.0041898530907928935
730,44000.0,3.1866824626922607,-9.10874080657959,-0.09935937076807022
731,44100.0,3.1866824626922607,-9.10874080657959,-0.09935937076807022
732,44200.0,2.635417461395264,-9.46487808227539,0.062249243259429925
733,44300.0,2.635417461395264,-9.46487808227539,0.062249243259429925
734,44400.0,3.2579100131988525,-9.044695854187012,-0.406415730714798
735,44500.0,3.2579100131988525,-9.044695854187012,-0.406415730714798
736,44600.0,2.6671407222747803,-9.355941772460938,-0.3992331326007843
737,44700.0,3.2836475372314453,-9.023147583007812,-0.3100491166114807
738,44800.0,3.2836475372314453,-9.023147583007812,-0.3100491166114807
739,44900.0,2.891597032546997,-9.149441719055176,-0.13407529890537262
740,45000.0,2.891597032546997,-9.149441719055176,-0.13407529890537262
741,45100.0,2.9436709880828857,-9.147645950317383,0.13168109953403473
742,45200.0,2.9436709880828857,-9.147645950317383,0.13168109953403473
743,45300.0,3.421314239501953,-9.062053680419922,0.13048399984836578
744,45400.0,3.421314239501953,-9.062053680419922,0.13048399984836578
745,45500.0,3.3877954483032227,-8.971672058105469,0.3687070608139038
746,45600.0,2.5007436275482178,-9.402029991149902,0.5512649416923523
747,45700.0,2.5007436275482178,-9.402029991149902,0.5512649416923523
748,45800.0,2.946065187454224,-9.121310234069824,0.3728969097137451
749,45900.0,2.946065187454224,-9.121310234069824,0.3728969097137451
750,44500.0,3.2579100131988525,-9.044695854187012,-0.406415730714798
751,44600.0,2.6671407222747803,-9.355941772460938,-0.3992331326007843
752,44700.0,3.2836475372314453,-9.023147583007812,-0.3100491166114807
753,44800.0,3.2836475372314453,-9.023147583007812,-0.3100491166114807
754,44900.0,2.891597032546997,-9.149441719055176,-0.13407529890537262
755,45000.0,2.891597032546997,-9.149441719055176,-0.13407529890537262
756,45100.0,2.9436709880828857,-9.147645950317383,0.13168109953403473
757,45200.0,2.9436709880828857,-9.147645950317383,0.13168109953403473
758,45300.0,3.421314239501953,-9.062053680419922,0.13048399984836578
759,45400.0,3.421314239501953,-9.062053680419922,0.13048399984836578
760,45500.0,3.3877954483032227,-8.971672058105469,0.3687070608139038
761,45600.0,2.5007436275482178,-9.402029991149902,0.5512649416923523
762,45700.0,2.5007436275482178,-9.402029991149902,0.5512649416923523
763,45800.0,2.946065187454224,-9.121310234069824,0.3728969097137451
764,45900.0,2.946065187454224,-9.121310234069824,0.3728969097137451
765,46000.0,2.853888511657715,-9.187748908996582,0.12689268589019775
766,46100.0,2.853888511657715,-9.187748908996582,0.12689268589019775
767,46200.0,3.759495258331299,-8.810063362121582,0.6548141837120056
768,46300.0,3.759495258331299,-8.810063362121582,0.6548141837120056
769,46400.0,3.1585505008697514,-8.858546257019043,0.507570743560791
770,46500.0,3.1992521286010738,-8.866327285766602,0.5542576909065247
771,46600.0,3.1992521286010738,-8.866327285766602,0.5542576909065247
772,46700.0,3.690661907196045,-9.084798812866213,0.93254154920578
773,46800.0,3.690661907196045,-9.084798812866213,0.93254154920578
774,46900.0,2.9029695987701416,-8.938153266906738,0.8589198589324951
775,47000.0,2.9029695987701416,-8.938153266906738,0.8589198589324951
776,47100.0,3.1226375102996826,-9.07103157043457,0.679354727268219
777,47200.0,3.1226375102996826,-9.07103157043457,0.679354727268219
778,47300.0,3.4207155704498287,-8.909422874450684,0.7841010689735413
779,47400.0,3.2980127334594727,-8.952518463134766,0.8936358094215393
780,46000.0,2.853888511657715,-9.187748908996582,0.12689268589019775
781,46100.0,2.853888511657715,-9.187748908996582,0.12689268589019775
782,46200.0,3.759495258331299,-8.810063362121582,0.6548141837120056
783,46300.0,3.759495258331299,-8.810063362121582,0.6548141837120056
784,46400.0,3.1585505008697514,-8.858546257019043,0.507570743560791
785,46500.0,3.1992521286010738,-8.866327285766602,0.5542576909065247
786,46600.0,3.1992521286010738,-8.866327285766602,0.5542576909065247
787,46700.0,3.690661907196045,-9.084798812866213,0.93254154920578
788,46800.0,3.690661907196045,-9.084798812866213,0.93254154920578
789,46900.0,2.9029695987701416,-8.938153266906738,0.8589198589324951
790,47000.0,2.9029695987701416,-8.938153266906738,0.8589198589324951
791,47100.0,3.1226375102996826,-9.07103157043457,0.679354727268219
792,47200.0,3.1226375102996826,-9.07103157043457,0.679354727268219
793,47300.0,3.4207155704498287,-8.909422874450684,0.7841010689735413
794,47400.0,3.2980127334594727,-8.952518463134766,0.8936358094215393
795,47500.0,3.2980127334594727,-8.952518463134766,0.8936358094215393
796,47600.0,3.1729156970977783,-8.994417190551758,0.8457517623901367
797,47700.0,3.1729156970977783,-8.994417190551758,0.8457517623901367
798,47800.0,3.3662476539611816,-8.959102630615234,0.9223662018775941
799,47900.0,3.3662476539611816,-8.959102630615234,0.9223662018775941
800,48000.0,3.5667619705200195,-8.817246437072754,0.7194576263427734
801,48100.0,3.5667619705200195,-8.817246437072754,0.7194576263427734
802,48200.0,3.6116533279418954,-8.96149730682373,0.7015010714530945
803,48300.0,3.4769794940948486,-8.823830604553223,0.6991068720817566
804,48400.0,3.4769794940948486,-8.823830604553223,0.6991068720817566
805,48500.0,3.5661635398864746,-8.866926193237305,0.8535329103469849
806,48600.0,3.5661635398864746,-8.866926193237305,0.8535329103469849
807,48700.0,3.4691982269287114,-9.298480987548828,0.9217676520347596
808,48800.0,3.4691982269287114,-9.298480987548828,0.9217676520347596
809,48900.0,3.321356296539306,-8.9866361618042,0.4997895956039429
810,47500.0,3.2980127334594727,-8.952518463134766,0.8936358094215393
811,47600.0,3.1729156970977783,-8.994417190551758,0.8457517623901367
812,47700.0,3.1729156970977783,-8.994417190551758,0.8457517623901367
813,47800.0,3.3662476539611816,-8.959102630615234,0.9223662018775941
814,47900.0,3.3662476539611816,-8.959102630615234,0.9223662018775941
815,48000.0,3.5667619705200195,-8.817246437072754,0.7194576263427734
816,48100.0,3.5667619705200195,-8.817246437072754,0.7194576263427734
817,48200.0,3.6116533279418954,-8.96149730682373,0.7015010714530945
818,48300.0,3.4769794940948486,-8.823830604553223,0.6991068720817566
819,48400.0,3.4769794940948486,-8.823830604553223,0.6991068720817566
820,48500.0,3.5661635398864746,-8.866926193237305,0.8535329103469849
821,48600.0,3.5661635398864746,-8.866926193237305,0.8535329103469849
822,48700.0,3.4691982269287114,-9.298480987548828,0.9217676520347596
823,48800.0,3.4691982269287114,-9.298480987548828,0.9217676520347596
824,48900.0,3.321356296539306,-8.9866361618042,0.4997895956039429
825,49000.0,3.321356296539306,-8.9866361618042,0.4997895956039429
826,49100.0,3.0346505641937256,-9.089587211608887,0.30885201692581177
827,49200.0,3.2178070545196533,-9.115324020385742,0.37169981002807617
828,49300.0,3.2178070545196533,-9.115324020385742,0.37169981002807617
829,49400.0,3.0364463329315186,-9.135675430297852,0.2358288615942001
830,49500.0,3.0364463329315186,-9.135675430297852,0.2358288615942001
831,49600.0,2.9747955799102783,-9.121908187866213,0.1801636815071106
832,49700.0,2.9747955799102783,-9.121908187866213,0.1801636815071106
833,49800.0,2.9287071228027344,-9.159018516540527,0.3872621357440949
834,49900.0,2.9287071228027344,-9.159018516540527,0.3872621357440949
835,50000.0,3.3039982318878174,-8.959701538085938,0.4531026780605316
836,50100.0,3.0154969692230225,-9.101557731628418,0.29388827085494995
837,50200.0,3.0154969692230225,-9.101557731628418,0.29388827085494995
838,50300.0,2.9478609561920166,-9.173383712768556,0.23163901269435885
839,50400.0,2.9478609561920166,-9.173383712768556,0.23163901269435885
840,49000.0,3.321356296539306,-8.9866361618042,0.4997895956039429
841,49100.0,3.0346505641937256,-9.089587211608887,0.30885201692581177
842,49200.0,3.2178070545196533,-9.115324020385742,0.37169981002807617
843,49300.0,3.2178070545196533,-9.115324020385742,0.37169981002807617
844,49400.0,3.0364463329315186,-9.135675430297852,0.2358288615942001
845,49500.0,3.0364463329315186,-9.135675430297852,0.2358288615942001
846,49600.0,2.9747955799102783,-9.121908187866213,0.1801636815071106
847,49700.0,2.9747955799102783,-9.121908187866213,0.1801636815071106
848,49800.0,2.9287071228027344,-9.159018516540527,0.3872621357440949
849,49900.0,2.9287071228027344,-9.159018516540527,0.3872621357440949
850,50000.0,3.3039982318878174,-8.959701538085938,0.4531026780605316
851,50100.0,3.0154969692230225,-9.101557731628418,0.29388827085494995
852,50200.0,3.0154969692230225,-9.101557731628418,0.29388827085494995
853,50300.0,2.9478609561920166,-9.173383712768556,0.23163901269435885
854,50400.0,2.9478609561920166,-9.173383712768556,0.23163901269435885
855,50500.0,3.136404275894165,-9.20091724395752,0.5345055460929871
856,50600.0,3.136404275894165,-9.20091724395752,0.5345055460929871
857,50700.0,3.0346505641937256,-9.09377670288086,0.3800795078277588
858,50800.0,3.0346505641937256,-9.09377670288086,0.3800795078277588
859,50900.0,3.0196869373321533,-9.11831760406494,0.3633201122283936
860,51000.0,2.961029052734375,-9.17936897277832,0.15322890877723694
861,51100.0,2.961029052734375,-9.17936897277832,0.15322890877723694
862,51200.0,3.311779499053955,-9.051877975463867,0.16160862147808075
863,51300.0,3.311779499053955,-9.051877975463867,0.16160862147808075
864,51400.0,3.1256303787231445,-9.04290008544922,0.314238965511322
865,51500.0,3.1256303787231445,-9.04290008544922,0.314238965511322
866,51600.0,3.473388195037842,-8.981847763061523,0.2657563984394073
867,51700.0,3.473388195037842,-8.981847763061523,0.2657563984394073
868,51800.0,3.0729579925537114,-9.228450775146484,0.34656068682670593
869,51900.0,3.1944637298583984,-9.129091262817383,0.11192893236875534
870,50500.0,3.136404275894165,-9.20091724395752,0.5345055460929871
871,50600.0,3.136404275894165,-9.20091724395752,0.5345055460929871
872,50700.0,3.0346505641937256,-9.09377670288086,0.3800795078277588
873,50800.0,3.0346505641937256,-9.09377670288086,0.3800795078277588
874,50900.0,3.0196869373321533,-9.11831760406494,0.3633201122283936
875,51000.0,2.961029052734375,-9.17936897277832,0.15322890877723694
876,51100.0,2.961029052734375,-9.17936897277832,0.15322890877723694
877,51200.0,3.311779499053955,-9.051877975463867,0.16160862147808075
878,51300.0,3.311779499053955,-9.051877975463867,0.16160862147808075
879,51400.0,3.1256303787231445,-9.04290008544922,0.314238965511322
880,51500.0,3.1256303787231445,-9.04290008544922,0.314238965511322
881,51600.0,3.473388195037842,-8.981847763061523,0.2657563984394073
882,51700.0,3.473388195037842,-8.981847763061523,0.2657563984394073
883,51800.0,3.0729579925537114,-9.228450775146484,0.34656068682670593
884,51900.0,3.1944637298583984,-9.129091262817383,0.11192893236875534
885,52000.0,3.1944637298583984,-9.129091262817383,0.11192893236875534
886,52100.0,2.9448680877685547,-9.091980934143066,0.2675520479679108
887,52200.0,2.9448680877685547,-9.091980934143066,0.2675520479679108
888,52300.0,3.679888010025024,-8.674192428588867,0.08978256583213806
889,52400.0,3.679888010025024,-8.674192428588867,0.08978256583213806
890,52500.0,3.259107112884521,-9.153631210327148,0.37888240814208973
891,52600.0,3.259107112884521,-9.153631210327148,0.37888240814208973
892,52700.0,4.522646903991699,-8.529942512512207,0.3417722880840301
893,52800.0,4.0976762771606445,-8.686761856079103,0.12090718746185306
894,52900.0,4.0976762771606445,-8.686761856079103,0.12090718746185306
895,53000.0,4.036025524139403,-8.706514358520508,0.25977087020874023
896,53100.0,4.036025524139403,-8.706514358520508,0.25977087020874023
897,53200.0,3.2644939422607417,-9.098565101623537,0.2567781209945679
898,53300.0,3.2644939422607417,-9.098565101623537,0.2567781209945679
899,53400.0,3.095104217529297,-9.210494041442873,0.11133038252592088
900,52000.0,3.1944637298583984,-9.129091262817383,0.11192893236875534
901,52100.0,2.9448680877685547,-9.091980934143066,0.2675520479679108
902,52200.0,2.9448680877685547,-9.091980934143066,0.2675520479679108
903,52300.0,3.679888010025024,-8.674192428588867,0.08978256583213806
904,52400.0,3.679888010025024,-8.674192428588867,0.08978256583213806
905,52500.0,3.259107112884521,-9.153631210327148,0.37888240814208973
906,52600.0,3.259107112884521,-9.153631210327148,0.37888240814208973
907,52700.0,4.522646903991699,-8.529942512512207,0.3417722880840301
908,52800.0,4.0976762771606445,-8.686761856079103,0.12090718746185306
909,52900.0,4.0976762771606445,-8.686761856079103,0.12090718746185306
910,53000.0,4.036025524139403,-8.706514358520508,0.25977087020874023
911,53100.0,4.036025524139403,-8.706514358520508,0.25977087020874023
912,53200.0,3.2644939422607417,-9.098565101623537,0.2567781209945679
913,53300.0,3.2644939422607417,-9.098565101623537,0.2567781209945679
914,53400.0,3.095104217529297,-9.210494041442873,0.11133038252592088
915,53500.0,3.095104217529297,-9.210494041442873,0.11133038252592088
916,53600.0,3.513490915298462,-9.078214645385742,0.1885433793067932
917,53700.0,2.70185661315918,-9.227252960205078,-0.02454056777060032
918,53800.0,2.70185661315918,-9.227252960205078,-0.02454056777060032
919,53900.0,3.337517261505127,-8.9249849319458,-0.09816227108240128
920,54000.0,3.337517261505127,-8.9249849319458,-0.09816227108240128
921,54100.0,3.3207578659057617,-9.016563415527344,0.09277531504631042
922,54200.0,3.3207578659057617,-9.016563415527344,0.09277531504631042
923,54300.0,3.4075474739074707,-9.009979248046877,0.22086510062217712
924,54400.0,3.4075474739074707,-9.009979248046877,0.22086510062217712
925,54500.0,3.1034839153289795,-9.124302864074707,0.16220717132091522
926,54600.0,3.2375593185424805,-9.121908187866213,0.1238999366760254
927,54700.0,3.2375593185424805,-9.121908187866213,0.1238999366760254
928,54800.0,3.5176808834075928,-8.968679428100586,0.04908113554120064
929,54900.0,3.5176808834075928,-8.968679428100586,0.04908113554120064
930,53500.0,3.095104217529297,-9.210494041442873,0.11133038252592088
931,53600.0,3.513490915298462,-9.078214645385742,0.1885433793067932
932,53700.0,2.70185661315918,-9.227252960205078,-0.02454056777060032
933,53800.0,2.70185661315918,-9.227252960205078,-0.02454056777060032
934,53900.0,3.337517261505127,-8.9249849319458,-0.09816227108240128
935,54000.0,3.337517261505127,-8.9249849319458,-0.09816227108240128
936,54100.0,3.3207578659057617,-9.016563415527344,0.09277531504631042
937,54200.0,3.3207578659057617,-9.016563415527344,0.09277531504631042
938,54300.0,3.4075474739074707,-9.009979248046877,0.22086510062217712
939,54400.0,3.4075474739074707,-9.009979248046877,0.22086510062217712
940,54500.0,3.1034839153289795,-9.124302864074707,0.16220717132091522
941,54600.0,3.2375593185424805,-9.121908187866213,0.1238999366760254
942,54700.0,3.2375593185424805,-9.121908187866213,0.1238999366760254
943,54800.0,3.5176808834075928,-8.968679428100586,0.04908113554120064
944,54900.0,3.5176808834075928,-8.968679428100586,0.04908113554120064
945,55000.0,2.9269115924835205,-9.151237487792967,0.008978256024420261
946,55100.0,2.9269115924835205,-9.151237487792967,0.008978256024420261
947,55200.0,3.3417069911956787,-8.996811866760254,0.13587094843387604
948,55300.0,3.3417069911956787,-8.996811866760254,0.13587094843387604
949,55400.0,3.3033998012542725,-9.006388664245605,-0.06823474913835527
950,55500.0,3.3033998012542725,-9.006388664245605,-0.06823474913835527
951,55600.0,3.755305290222168,-8.875306129455566,-0.1149216815829277
952,55700.0,3.4913446903228764,-9.080010414123537,-0.02513911761343479
953,55800.0,3.4913446903228764,-9.080010414123537,-0.02513911761343479
954,55900.0,3.3614592552185063,-8.966883659362793,-0.5770025849342346
955,56000.0,3.3614592552185063,-8.966883659362793,-0.5770025849342346
956,56100.0,3.201047658920288,-9.027337074279783,-0.28131869435310364
957,56200.0,3.201047658920288,-9.027337074279783,-0.28131869435310364
958,56300.0,3.823540210723877,-8.759785652160645,-0.1538274586200714
959,56400.0,3.918709516525269,-8.948927879333496,-0.10115502029657364
960,55000.0,2.9269115924835205,-9.151237487792967,0.008978256024420261
961,55100.0,2.9269115924835205,-9.151237487792967,0.008978256024420261
962,55200.0,3.3417069911956787,-8.996811866760254,0.13587094843387604
963,55300.0,3.3417069911956787,-8.996811866760254,0.13587094843387604
964,55400.0,3.3033998012542725,-9.006388664245605,-0.06823474913835527
965,55500.0,3.3033998012542725,-9.006388664245605,-0.06823474913835527
966,55600.0,3.755305290222168,-8.875306129455566,-0.1149216815829277
967,55700.0,3.4913446903228764,-9.080010414123537,-0.02513911761343479
968,55800.0,3.4913446903228764,-9.080010414123537,-0.02513911761343479
969,55900.0,3.3614592552185063,-8.966883659362793,-0.5770025849342346
970,56000.0,3.3614592552185063,-8.966883659362793,-0.5770025849342346
971,56100.0,3.201047658920288,-9.027337074279783,-0.28131869435310364
972,56200.0,3.201047658920288,-9.027337074279783,-0.28131869435310364
973,56300.0,3.823540210723877,-8.759785652160645,-0.1538274586200714
974,56400.0,3.918709516525269,-8.948927879333496,-0.10115502029657364
975,56500.0,3.918709516525269,-8.948927879333496,-0.10115502029657364
976,56600.0,3.888782024383545,-8.916605949401855,-0.4082113802433014
977,56700.0,3.888782024383545,-8.916605949401855,-0.4082113802433014
978,56800.0,4.039616584777832,-8.737040519714355,-0.20949265360832212
979,56900.0,4.039616584777832,-8.737040519714355,-0.20949265360832212
980,57000.0,4.258087635040283,-8.660426139831543,-0.2777273952960968
981,57100.0,4.258087635040283,-8.660426139831543,-0.2777273952960968
982,57200.0,3.777451753616333,-8.904634475708008,-0.035314474254846566
983,57300.0,3.934870481491089,-8.819640159606934,0.03232172131538391
984,57400.0,3.934870481491089,-8.819640159606934,0.03232172131538391
985,57500.0,4.0725369453430185,-8.886677742004395,-0.020949264988303185
986,57600.0,4.0725369453430185,-8.886677742004395,-0.020949264988303185
987,57700.0,4.0719385147094735,-8.64007568359375,-0.2454056739807129
988,57800.0,4.0719385147094735,-8.64007568359375,-0.2454056739807129
989,57900.0,3.914519786834717,-8.750208854675293,-0.2885012924671173
990,56500.0,3.918709516525269,-8.948927879333496,-0.10115502029657364
991,56600.0,3.888782024383545,-8.916605949401855,-0.4082113802433014
992,56700.0,3.888782024383545,-8.916605949401855,-0.4082113802433014
993,56800.0,4.039616584777832,-8.737040519714355,-0.20949265360832212
994,56900.0,4.039616584777832,-8.737040519714355,-0.20949265360832212
995,57000.0,4.258087635040283,-8.660426139831543,-0.2777273952960968
996,57100.0,4.258087635040283,-8.660426139831543,-0.2777273952960968
997,57200.0,3.777451753616333,-8.904634475708008,-0.035314474254846566
998,57300.0,3.934870481491089,-8.819640159606934,0.03232172131538391
999,57400.0,3.934870481491089,-8.819640159606934,0.03232172131538391
1000,57500.0,4.0725369453430185,-8.886677742004395,-0.020949264988303185
1001,57600.0,4.0725369453430185,-8.886677742004395,-0.020949264988303185
1002,57700.0,4.0719385147094735,-8.64007568359375,-0.2454056739807129
1003,57800.0,4.0719385147094735,-8.64007568359375,-0.2454056739807129
1004,57900.0,3.914519786834717,-8.750208854675293,-0.2885012924671173
1005,58000.0,3.914519786834717,-8.750208854675293,-0.2885012924671173
1006,58100.0,4.220378875732422,-8.538321495056152,-0.2513911724090576
1007,58200.0,4.020462989807129,-8.780136108398438,-0.1322796493768692
1008,58300.0,4.020462989807129,-8.780136108398438,-0.1322796493768692
1009,58400.0,4.216787815093993,-8.458115577697754,0.041299980133771896
1010,58500.0,4.216787815093993,-8.458115577697754,0.041299980133771896
1011,58600.0,3.8402996063232417,-8.969278335571289,-0.1927332431077957
1012,58700.0,3.8402996063232417,-8.969278335571289,-0.1927332431077957
1013,58800.0,4.021061897277832,-8.811261177062988,-0.5147533416748047
1014,58900.0,4.021061897277832,-8.811261177062988,-0.5147533416748047
1015,59000.0,3.77565598487854,-8.841188430786133,-0.30705636739730835
1016,59100.0,4.088697910308838,-8.793304443359375,-0.34416648745536804
1017,59200.0,4.088697910308838,-8.793304443359375,-0.34416648745536804
1018,59300.0,4.0120835304260245,-8.789113998413086,-0.4118026793003082
1019,59400.0,4.0120835304260245,-8.789113998413086,-0.4118026793003082
1020,58000.0,3.914519786834717,-8.750208854675293,-0.2885012924671173
1021,58100.0,4.220378875732422,-8.538321495056152,-0.2513911724090576
1022,58200.0,4.020462989807129,-8.780136108398438,-0.1322796493768692
1023,58300.0,4.020462989807129,-8.780136108398438,-0.1322796493768692
1024,58400.0,4.216787815093993,-8.458115577697754,0.041299980133771896
1025,58500.0,4.216787815093993,-8.458115577697754,0.041299980133771896
1026,58600.0,3.8402996063232417,-8.969278335571289,-0.1927332431077957
1027,58700.0,3.8402996063232417,-8.969278335571289,-0.1927332431077957
1028,58800.0,4.021061897277832,-8.811261177062988,-0.5147533416748047
1029,58900.0,4.021061897277832,-8.811261177062988,-0.5147533416748047
1030,59000.0,3.77565598487854,-8.841188430786133,-0.30705636739730835
1031,59100.0,4.088697910308838,-8.793304443359375,-0.34416648745536804
1032,59200.0,4.088697910308838,-8.793304443359375,-0.34416648745536804
1033,59300.0,4.0120835304260245,-8.789113998413086,-0.4118026793003082
1034,59400.0,4.0120835304260245,-8.789113998413086,-0.4118026793003082
1035,59500.0,3.98455023765564,-8.601768493652344,-0.6530185341835022
1036,59600.0,3.98455023765564,-8.601768493652344,-0.6530185341835022
1037,59700.0,3.7487213611602783,-8.940547943115234,-0.396240383386612
1038,59800.0,3.7487213611602783,-8.940547943115234,-0.396240383386612
1039,59900.0,3.9743747711181636,-8.631096839904785,-0.5476736426353455
1040,60000.0,3.9743747711181636,-8.631096839904785,-0.5476736426353455
1041,60100.0,4.180276393890382,-8.791508674621582,-0.4770447015762329
1042,60200.0,3.74752426147461,-8.943540573120117,-0.4034229815006256
1043,60300.0,3.74752426147461,-8.943540573120117,-0.4034229815006256
1044,60400.0,3.736151695251465,-8.771158218383789,-0.3064578175544739
1045,60500.0,3.736151695251465,-8.771158218383789,-0.3064578175544739
1046,60600.0,3.409343242645264,-8.984241485595703,-0.12988543510437012
1047,60700.0,3.409343242645264,-8.984241485595703,-0.12988543510437012
1048,60800.0,3.800795316696167,-8.845976829528809,-0.06524199992418289
1049,60900.0,3.800795316696167,-8.845976829528809,-0.06524199992418289
1050,59500.0,3.98455023765564,-8.601768493652344,-0.6530185341835022
1051,59600.0,3.98455023765564,-8.601768493652344,-0.6530185341835022
1052,59700.0,3.7487213611602783,-8.940547943115234,-0.396240383386612
1053,59800.0,3.7487213611602783,-8.940547943115234,-0.396240383386612
1054,59900.0,3.9743747711181636,-8.631096839904785,-0.5476736426353455
1055,60000.0,3.9743747711181636,-8.631096839904785,-0.5476736426353455
1056,60100.0,4.180276393890382,-8.791508674621582,-0.4770447015762329
1057,60200.0,3.74752426147461,-8.943540573120117,-0.4034229815006256
1058,60300.0,3.74752426147461,-8.943540573120117,-0.4034229815006256
1059,60400.0,3.736151695251465,-8.771158218383789,-0.3064578175544739
1060,60500.0,3.736151695251465,-8.771158218383789,-0.3064578175544739
1061,60600.0,3.409343242645264,-8.984241485595703,-0.12988543510437012
1062,60700.0,3.409343242645264,-8.984241485595703,-0.12988543510437012
1063,60800.0,3.800795316696167,-8.845976829528809,-0.06524199992418289
1064,60900.0,3.800795316696167,-8.845976829528809,-0.06524199992418289
1065,61000.0,3.488950490951538,-8.99740982055664,0.1256955862045288
1066,61100.0,3.8552632331848153,-8.717886924743652,0.026336219161748886
1067,61200.0,3.8552632331848153,-8.717886924743652,0.026336219161748886
1068,61300.0,3.897760391235352,-8.822632789611816,-0.010773907415568829
1069,61400.0,3.897760391235352,-8.822632789611816,-0.010773907415568829
1070,61500.0,3.9665937423706055,-8.825027465820312,0.019153613597154617
1071,61600.0,3.9665937423706055,-8.825027465820312,0.019153613597154617
1072,61700.0,3.694253206253052,-8.918999671936035,0.08858546614646913
1073,61800.0,3.694253206253052,-8.918999671936035,0.08858546614646913
1074,61900.0,3.7343561649322514,-8.905831336975098,0.08200141042470932
1075,62000.0,4.14915132522583,-8.65982723236084,-0.046088382601737976
1076,62100.0,4.14915132522583,-8.65982723236084,-0.046088382601737976
1077,62200.0,3.9199066162109375,-8.725069999694824,-0.07122749835252762
1078,62300.0,3.9199066162109375,-8.725069999694824,-0.07122749835252762
1079,62400.0,3.520673513412476,-8.902240753173828,-0.002394201699644327
1080,61000.0,3.488950490951538,-8.99740982055664,0.1256955862045288
1081,61100.0,3.8552632331848153,-8.717886924743652,0.026336219161748886
1082,61200.0,3.8552632331848153,-8.717886924743652,0.026336219161748886
1083,61300.0,3.897760391235352,-8.822632789611816,-0.010773907415568829
1084,61400.0,3.897760391235352,-8.822632789611816,-0.010773907415568829
1085,61500.0,3.9665937423706055,-8.825027465820312,0.019153613597154617
1086,61600.0,3.9665937423706055,-8.825027465820312,0.019153613597154617
1087,61700.0,3.694253206253052,-8.918999671936035,0.08858546614646913
1088,61800.0,3.694253206253052,-8.918999671936035,0.08858546614646913
1089,61900.0,3.7343561649322514,-8.905831336975098,0.08200141042470932
1090,62000.0,4.14915132522583,-8.65982723236084,-0.046088382601737976
1091,62100.0,4.14915132522583,-8.65982723236084,-0.046088382601737976
1092,62200.0,3.9199066162109375,-8.725069999694824,-0.07122749835252762
1093,62300.0,3.9199066162109375,-8.725069999694824,-0.07122749835252762
1094,62400.0,3.520673513412476,-8.902240753173828,-0.002394201699644327
1095,62500.0,3.520673513412476,-8.902240753173828,-0.002394201699644327
1096,62600.0,4.0533833503723145,-8.676587104797362,-0.13766659796237946
1097,62700.0,4.0533833503723145,-8.676587104797362,-0.13766659796237946
1098,62800.0,3.5284547805786133,-9.060257911682127,-0.03770867735147476
1099,62900.0,3.4799721240997314,-9.000402450561523,-0.1843535304069519
1100,63000.0,3.4799721240997314,-9.000402450561523,-0.1843535304069519
1101,63100.0,3.770867586135864,-8.732851028442383,0.046088382601737976
1102,63200.0,3.770867586135864,-8.732851028442383,0.046088382601737976
1103,63300.0,3.5284547805786133,-8.91421127319336,-0.396240383386612
1104,63400.0,3.5284547805786133,-8.91421127319336,-0.396240383386612
1105,63500.0,3.473388195037842,-8.97885513305664,-0.3064578175544739
1106,63600.0,3.473388195037842,-8.97885513305664,-0.3064578175544739
1107,63700.0,3.014299869537353,-9.214683532714844,-0.18315643072128296
1108,63800.0,3.247734546661377,-9.038111686706543,-0.44412440061569214
1109,63900.0,3.247734546661377,-9.038111686706543,-0.44412440061569214
1110,62500.0,3.520673513412476,-8.902240753173828,-0.002394201699644327
1111,62600.0,4.0533833503723145,-8.676587104797362,-0.13766659796237946
1112,62700.0,4.0533833503723145,-8.676587104797362,-0.13766659796237946
1113,62800.0,3.5284547805786133,-9.060257911682127,-0.03770867735147476
1114,62900.0,3.4799721240997314,-9.000402450561523,-0.1843535304069519
1115,63000.0,3.4799721240997314,-9.000402450561523,-0.1843535304069519
1116,63100.0,3.770867586135864,-8.732851028442383,0.046088382601737976
1117,63200.0,3.770867586135864,-8.732851028442383,0.046088382601737976
1118,63300.0,3.5284547805786133,-8.91421127319336,-0.396240383386612
1119,63400.0,3.5284547805786133,-8.91421127319336,-0.396240383386612
1120,63500.0,3.473388195037842,-8.97885513305664,-0.3064578175544739
1121,63600.0,3.473388195037842,-8.97885513305664,-0.3064578175544739
1122,63700.0,3.014299869537353,-9.214683532714844,-0.18315643072128296
1123,63800.0,3.247734546661377,-9.038111686706543,-0.44412440061569214
1124,63900.0,3.247734546661377,-9.038111686706543,-0.44412440061569214
1125,64000.0,3.3177649974823,-8.93037223815918,-0.6757634282112122
1126,64100.0,3.3177649974823,-8.93037223815918,-0.6757634282112122
1127,64200.0,2.93888258934021,-9.271546363830566,-0.4141969084739685
1128,64300.0,2.93888258934021,-9.271546363830566,-0.4141969084739685
1129,64400.0,3.183689594268799,-9.164405822753906,-0.36571431159973145
1130,64500.0,3.183689594268799,-9.164405822753906,-0.36571431159973145
1131,64600.0,3.269881010055542,-9.084798812866213,-0.314238965511322
1132,64700.0,3.05799412727356,-9.132682800292967,-0.2358288615942001
1133,64800.0,3.05799412727356,-9.132682800292967,-0.2358288615942001
1134,64900.0,3.3351230621337886,-8.950722694396973,-0.10175357013940813
1135,65000.0,3.3351230621337886,-8.950722694396973,-0.10175357013940813
1136,65100.0,3.277063608169556,-8.912415504455566,-0.0802057534456253
1137,65200.0,3.277063608169556,-8.912415504455566,-0.0802057534456253
1138,65300.0,3.113659381866455,-9.133280754089355,0.17417816817760468
1139,65400.0,3.113659381866455,-9.133280754089355,0.17417816817760468
1140,64000.0,3.3177649974823,-8.93037223815918,-0.6757634282112122
1141,64100.0,3.3177649974823,-8.93037223815918,-0.6757634282112122
1142,64200.0,2.93888258934021,-9.271546363830566,-0.4141969084739685
1143,64300.0,2.93888258934021,-9.271546363830566,-0.4141969084739685
1144,64400.0,3.183689594268799,-9.164405822753906,-0.36571431159973145
1145,64500.0,3.183689594268799,-9.164405822753906,-0.36571431159973145
1146,64600.0,3.269881010055542,-9.084798812866213,-0.314238965511322
1147,64700.0,3.05799412727356,-9.132682800292967,-0.2358288615942001
1148,64800.0,3.05799412727356,-9.132682800292967,-0.2358288615942001
1149,64900.0,3.3351230621337886,-8.950722694396973,-0.10175357013940813
1150,65000.0,3.3351230621337886,-8.950722694396973,-0.10175357013940813
1151,65100.0,3.277063608169556,-8.912415504455566,-0.0802057534456253
1152,65200.0,3.277063608169556,-8.912415504455566,-0.0802057534456253
1153,65300.0,3.113659381866455,-9.133280754089355,0.17417816817760468
1154,65400.0,3.113659381866455,-9.133280754089355,0.17417816817760468
1155,65500.0,3.556586742401123,-8.91181755065918,-0.07062894850969315
1156,65600.0,2.7539305686950684,-9.352350234985352,0.042497079819440835
1157,65700.0,2.7539305686950684,-9.352350234985352,0.042497079819440835
1158,65800.0,3.426701068878174,-9.067440032958984,-0.0586579404771328
1159,65900.0,3.426701068878174,-9.067440032958984,-0.0586579404771328
1160,66000.0,2.7994203567504883,-9.260771751403807,0.07003039866685867
1161,66100.0,2.7994203567504883,-9.260771751403807,0.07003039866685867
1162,66200.0,3.3865983486175537,-8.991424560546875,0.4836287498474121
1163,66300.0,3.3865983486175537,-8.991424560546875,0.4836287498474121
1164,66400.0,4.2538976669311515,-8.635885238647461,1.0247182846069336
1165,66500.0,3.785232782363892,-8.726266860961914,0.8798691034317017
1166,66600.0,3.785232782363892,-8.726266860961914,0.8798691034317017
1167,66700.0,3.602076530456543,-8.726864814758299,0.6338648796081543
1168,66800.0,3.602076530456543,-8.726864814758299,0.6338648796081543
1169,66900.0,4.020462989807129,-8.652046203613281,0.8690952062606812
1170,65500.0,3.556586742401123,-8.91181755065918,-0.07062894850969315
1171,65600.0,2.7539305686950684,-9.352350234985352,0.042497079819440835
1172,65700.0,2.7539305686950684,-9.352350234985352,0.042497079819440835
1173,65800.0,3.426701068878174,-9.067440032958984,-0.0586579404771328
1174,65900.0,3.426701068878174,-9.067440032958984,-0.0586579404771328
1175,66000.0,2.7994203567504883,-9.260771751403807,0.07003039866685867
1176,66100.0,2.7994203567504883,-9.260771751403807,0.07003039866685867
1177,66200.0,3.3865983486175537,-8.991424560546875,0.4836287498474121
1178,66300.0,3.3865983486175537,-8.991424560546875,0.4836287498474121
1179,66400.0,4.2538976669311515,-8.635885238647461,1.0247182846069336
1180,66500.0,3.785232782363892,-8.726266860961914,0.8798691034317017
1181,66600.0,3.785232782363892,-8.726266860961914,0.8798691034317017
1182,66700.0,3.602076530456543,-8.726864814758299,0.6338648796081543
1183,66800.0,3.602076530456543,-8.726864814758299,0.6338648796081543
1184,66900.0,4.020462989807129,-8.652046203613281,0.8690952062606812
1185,67000.0,4.020462989807129,-8.652046203613281,0.8690952062606812
1186,67100.0,2.9897594451904297,-9.196128845214844,0.6823474764823914
1187,67200.0,2.9897594451904297,-9.196128845214844,0.6823474764823914
1188,67300.0,3.732560396194458,-8.766369819641112,0.3794809579849243
1189,67400.0,3.0585925579071045,-9.05247688293457,0.33997663855552673
1190,67500.0,3.0585925579071045,-9.05247688293457,0.33997663855552673
1191,67600.0,3.3476924896240234,-9.063250541687012,0.6314706802368164
1192,67700.0,3.3476924896240234,-9.063250541687012,0.6314706802368164
1193,67800.0,3.2776620388031006,-9.073426246643066,0.4297592043876648
1194,67900.0,3.2776620388031006,-9.073426246643066,0.4297592043876648
1195,68000.0,3.0160956382751465,-9.06983470916748,0.3387795388698578
1196,68100.0,3.0160956382751465,-9.06983470916748,0.3387795388698578
1197,68200.0,3.2812533378601074,-9.018359184265137,0.6625953316688538
1198,68300.0,3.2818520069122314,-9.057863235473633,0.4028244316577912
1199,68400.0,3.2818520069122314,-9.057863235473633,0.4028244316577912
1200,67000.0,4.020462989807129,-8.652046203613281,0.8690952062606812
1201,67100.0,2.9897594451904297,-9.196128845214844,0.6823474764823914
1202,67200.0,2.9897594451904297,-9.196128845214844,0.6823474764823914
1203,67300.0,3.732560396194458,-8.766369819641112,0.3794809579849243
1204,67400.0,3.0585925579071045,-9.05247688293457,0.33997663855552673
1205,67500.0,3.0585925579071045,-9.05247688293457,0.33997663855552673
1206,67600.0,3.3476924896240234,-9.063250541687012,0.6314706802368164
1207,67700.0,3.3476924896240234,-9.063250541687012,0.6314706802368164
1208,67800.0,3.2776620388031006,-9.073426246643066,0.4297592043876648
1209,67900.0,3.2776620388031006,-9.073426246643066,0.4297592043876648
1210,68000.0,3.0160956382751465,-9.06983470916748,0.3387795388698578
1211,68100.0,3.0160956382751465,-9.06983470916748,0.3387795388698578
1212,68200.0,3.2812533378601074,-9.018359184265137,0.6625953316688538
1213,68300.0,3.2818520069122314,-9.057863235473633,0.4028244316577912
1214,68400.0,3.2818520069122314,-9.057863235473633,0.4028244316577912
1215,68500.0,3.5847184658050537,-8.963293075561523,0.3405751883983612
1216,68600.0,3.5847184658050537,-8.963293075561523,0.3405751883983612
1217,68700.0,3.3423056602478027,-9.00399398803711,0.056263741105794914
1218,68800.0,3.3423056602478027,-9.00399398803711,0.056263741105794914
1219,68900.0,3.4787750244140625,-8.908824920654297,-0.08918401598930359
1220,69000.0,3.4787750244140625,-8.908824920654297,-0.08918401598930359
1221,69100.0,3.185485363006592,-9.11113452911377,-0.22206220030784607
1222,69200.0,3.230376720428467,-8.966285705566406,0.3411737382411957
1223,69300.0,3.230376720428467,-8.966285705566406,0.3411737382411957
1224,69400.0,3.2854433059692383,-9.006986618041992,-0.01735796220600605
1225,69500.0,3.2854433059692383,-9.006986618041992,-0.01735796220600605
1226,69600.0,3.643376350402832,-8.876502990722656,0.04967968538403511
1227,69700.0,3.643376350402832,-8.876502990722656,0.04967968538403511
1228,69800.0,3.2543187141418457,-8.823830604553223,-0.3597288131713867
1229,69900.0,3.2543187141418457,-8.823830604553223,-0.3597288131713867
1230,68500.0,3.5847184658050537,-8.963293075561523,0.3405751883983612
1231,68600.0,3.5847184658050537,-8.963293075561523,0.3405751883983612
1232,68700.0,3.3423056602478027,-9.00399398803711,0.056263741105794914
1233,68800.0,3.3423056602478027,-9.00399398803711,0.056263741105794914
1234,68900.0,3.4787750244140625,-8.908824920654297,-0.08918401598930359
1235,69000.0,3.4787750244140625,-8.908824920654297,-0.08918401598930359
1236,69100.0,3.185485363006592,-9.11113452911377,-0.22206220030784607
1237,69200.0,3.230376720428467,-8.966285705566406,0.3411737382411957
1238,69300.0,3.230376720428467,-8.966285705566406,0.3411737382411957
1239,69400.0,3.2854433059692383,-9.006986618041992,-0.01735796220600605
1240,69500.0,3.2854433059692383,-9.006986618041992,-0.01735796220600605
1241,69600.0,3.643376350402832,-8.876502990722656,0.04967968538403511
1242,69700.0,3.643376350402832,-8.876502990722656,0.04967968538403511
1243,69800.0,3.2543187141418457,-8.823830604553223,-0.3597288131713867
1244,69900.0,3.2543187141418457,-8.823830604553223,-0.3597288131713867
1245,70000.0,3.8163576126098633,-8.844779968261719,0.1867477297782898
1246,70100.0,3.642777919769287,-8.850166320800781,0.1238999366760254
1247,70200.0,3.642777919769287,-8.850166320800781,0.1238999366760254
1248,70300.0,3.811569213867188,-8.844181060791016,0.4297592043876648
1249,70400.0,3.811569213867188,-8.844181060791016,0.4297592043876648
1250,70500.0,3.423109769821167,-9.017162322998047,0.04908113554120064
1251,70600.0,3.423109769821167,-9.017162322998047,0.04908113554120064
1252,70700.0,3.9875428676605225,-8.813654899597168,0.17956513166427612
1253,70800.0,3.9875428676605225,-8.813654899597168,0.17956513166427612
1254,70900.0,3.5051112174987797,-8.89445972442627,0.17417816817760468
1255,71000.0,3.503315687179565,-8.938752174377441,-0.1867477297782898
1256,71100.0,3.503315687179565,-8.938752174377441,-0.1867477297782898
1257,71200.0,3.6290111541748047,-8.935160636901855,0.03292027488350868
1258,71300.0,3.6290111541748047,-8.935160636901855,0.03292027488350868
1259,71400.0,3.5218706130981445,-8.924386978149414,0.2256535142660141
1260,70000.0,3.8163576126098633,-8.844779968261719,0.1867477297782898
1261,70100.0,3.642777919769287,-8.850166320800781,0.1238999366760254
1262,70200.0,3.642777919769287,-8.850166320800781,0.1238999366760254
1263,70300.0,3.811569213867188,-8.844181060791016,0.4297592043876648
1264,70400.0,3.811569213867188,-8.844181060791016,0.4297592043876648
1265,70500.0,3.423109769821167,-9.017162322998047,0.04908113554120064
1266,70600.0,3.423109769821167,-9.017162322998047,0.04908113554120064
1267,70700.0,3.9875428676605225,-8.813654899597168,0.17956513166427612
1268,70800.0,3.9875428676605225,-8.813654899597168,0.17956513166427612
1269,70900.0,3.5051112174987797,-8.89445972442627,0.17417816817760468
1270,71000.0,3.503315687179565,-8.938752174377441,-0.1867477297782898
1271,71100.0,3.503315687179565,-8.938752174377441,-0.1867477297782898
1272,71200.0,3.6290111541748047,-8.935160636901855,0.03292027488350868
1273,71300.0,3.6290111541748047,-8.935160636901855,0.03292027488350868
1274,71400.0,3.5218706130981445,-8.924386978149414,0.2256535142660141
1275,71500.0,3.5218706130981445,-8.924386978149414,0.2256535142660141
1276,71600.0,3.6355953216552734,-8.922591209411621,-0.16160862147808075
1277,71700.0,3.6355953216552734,-8.922591209411621,-0.16160862147808075
1278,71800.0,3.3237504959106445,-8.973467826843262,0.02454056777060032
1279,71900.0,3.28963303565979,-9.014169692993164,0.1191115379333496
1280,72000.0,3.28963303565979,-9.014169692993164,0.1191115379333496
1281,72100.0,3.731961965560913,-8.900444984436035,0.1735796183347702
1282,72200.0,3.731961965560913,-8.900444984436035,0.1735796183347702
1283,72300.0,3.2327709197998047,-9.07222843170166,0.009576806798577309
1284,72400.0,3.2327709197998047,-9.07222843170166,0.009576806798577309
1285,72500.0,3.265092611312866,-9.044695854187012,-0.23942017555236814
1286,72600.0,3.265092611312866,-9.044695854187012,-0.23942017555236814
1287,72700.0,3.516483783721924,-8.984241485595703,0.0867898091673851
1288,72800.0,3.390788078308105,-9.040505409240724,0.002394201699644327
1289,72900.0,3.390788078308105,-9.040505409240724,0.002394201699644327
1290,71500.0,3.5218706130981445,-8.924386978149414,0.2256535142660141
1291,71600.0,3.6355953216552734,-8.922591209411621,-0.16160862147808075
1292,71700.0,3.6355953216552734,-8.922591209411621,-0.16160862147808075
1293,71800.0,3.3237504959106445,-8.973467826843262,0.02454056777060032
1294,71900.0,3.28963303565979,-9.014169692993164,0.1191115379333496
1295,72000.0,3.28963303565979,-9.014169692993164,0.1191115379333496
1296,72100.0,3.731961965560913,-8.900444984436035,0.1735796183347702
1297,72200.0,3.731961965560913,-8.900444984436035,0.1735796183347702
1298,72300.0,3.2327709197998047,-9.07222843170166,0.009576806798577309
1299,72400.0,3.2327709197998047,-9.07222843170166,0.009576806798577309
1300,72500.0,3.265092611312866,-9.044695854187012,-0.23942017555236814
1301,72600.0,3.265092611312866,-9.044695854187012,-0.23942017555236814
1302,72700.0,3.516483783721924,-8.984241485595703,0.0867898091673851
1303,72800.0,3.390788078308105,-9.040505409240724,0.002394201699644327
1304,72900.0,3.390788078308105,-9.040505409240724,0.002394201699644327
1305,73000.0,3.3279404640197754,-9.050681114196776,0.047884032130241394
1306,73100.0,3.3279404640197754,-9.050681114196776,0.047884032130241394
1307,73200.0,3.37941575050354,-9.02254867553711,0.043095629662275314
1308,73300.0,3.37941575050354,-9.02254867553711,0.043095629662275314
1309,73400.0,3.626018524169922,-8.896254539489746,0.04489128291606903
1310,73500.0,3.626018524169922,-8.896254539489746,0.04489128291606903
1311,73600.0,3.201047658920288,-9.118915557861328,0.07003039866685867
1312,73700.0,3.4117374420166016,-8.992023468017578,-0.029927521944046017
1313,73800.0,3.4117374420166016,-8.992023468017578,-0.029927521944046017
1314,73900.0,3.3979706764221187,-9.02254867553711,0.2436100244522095
1315,74000.0,3.3979706764221187,-9.02254867553711,0.2436100244522095
1316,74100.0,3.3674447536468506,-9.016563415527344,0.2717418968677521
1317,74200.0,3.3674447536468506,-9.016563415527344,0.2717418968677521
1318,74300.0,3.2944214344024663,-9.066842079162598,0.03112462162971497
1319,74400.0,3.2944214344024663,-9.066842079162598,0.03112462162971497
1320,73000.0,3.3279404640197754,-9.050681114196776,0.047884032130241394
1321,73100.0,3.3279404640197754,-9.050681114196776,0.047884032130241394
1322,73200.0,3.37941575050354,-9.02254867553711,0.043095629662275314
1323,73300.0,3.37941575050354,-9.02254867553711,0.043095629662275314
1324,73400.0,3.626018524169922,-8.896254539489746,0.04489128291606903
1325,73500.0,3.626018524169922,-8.896254539489746,0.04489128291606903
1326,73600.0,3.201047658920288,-9.118915557861328,0.07003039866685867
1327,73700.0,3.4117374420166016,-8.992023468017578,-0.029927521944046017
1328,73800.0,3.4117374420166016,-8.992023468017578,-0.029927521944046017
1329,73900.0,3.3979706764221187,-9.02254867553711,0.2436100244522095
1330,74000.0,3.3979706764221187,-9.02254867553711,0.2436100244522095
1331,74100.0,3.3674447536468506,-9.016563415527344,0.2717418968677521
1332,74200.0,3.3674447536468506,-9.016563415527344,0.2717418968677521
1333,74300.0,3.2944214344024663,-9.066842079162598,0.03112462162971497
1334,74400.0,3.2944214344024663,-9.066842079162598,0.03112462162971497
1335,74500.0,3.6104562282562256,-8.917802810668945,0.17956513166427612
1336,74600.0,3.3979706764221187,-9.018359184265137,0.1933317929506302
1337,74700.0,3.3979706764221187,-9.018359184265137,0.1933317929506302
1338,74800.0,3.519476413726806,-8.951321601867676,0.17956513166427612
1339,74900.0,3.519476413726806,-8.951321601867676,0.17956513166427612
1340,75000.0,3.558382272720337,-8.921394348144531,0.1651999205350876
1341,75100.0,3.558382272720337,-8.921394348144531,0.1651999205350876
1342,75200.0,3.2142157554626465,-9.101557731628418,0.1586158573627472
1343,75300.0,3.2142157554626465,-9.101557731628418,0.1586158573627472
1344,75400.0,3.3662476539611816,-9.040505409240724,0.11791443079710008
1345,75500.0,3.57753586769104,-8.942343711853027,0.23283611238002774
1346,75600.0,3.57753586769104,-8.942343711853027,0.23283611238002774
1347,75700.0,3.227982521057129,-9.08719253540039,0.2082955539226532
1348,75800.0,3.227982521057129,-9.08719253540039,0.2082955539226532
1349,75900.0,3.3692402839660645,-9.024344444274902,0.18136078119277954
1350,74500.0,3.6104562282562256,-8.917802810668945,0.17956513166427612
1351,74600.0,3.3979706764221187,-9.018359184265137,0.1933317929506302
1352,74700.0,3.3979706764221187,-9.018359184265137,0.1933317929506302
1353,74800.0,3.519476413726806,-8.951321601867676,0.17956513166427612
1354,74900.0,3.519476413726806,-8.951321601867676,0.17956513166427612
1355,75000.0,3.558382272720337,-8.921394348144531,0.1651999205350876
1356,75100.0,3.558382272720337,-8.921394348144531,0.1651999205350876
1357,75200.0,3.2142157554626465,-9.101557731628418,0.1586158573627472
1358,75300.0,3.2142157554626465,-9.101557731628418,0.1586158573627472
1359,75400.0,3.3662476539611816,-9.040505409240724,0.11791443079710008
1360,75500.0,3.57753586769104,-8.942343711853027,0.23283611238002774
1361,75600.0,3.57753586769104,-8.942343711853027,0.23283611238002774
1362,75700.0,3.227982521057129,-9.08719253540039,0.2082955539226532
1363,75800.0,3.227982521057129,-9.08719253540039,0.2082955539226532
1364,75900.0,3.3692402839660645,-9.024344444274902,0.18136078119277954
1365,76000.0,3.3692402839660645,-9.024344444274902,0.18136078119277954
1366,76100.0,3.325546264648437,-9.025542259216307,0.2711433470249176
1367,76200.0,3.325546264648437,-9.025542259216307,0.2711433470249176
1368,76300.0,3.112462282180786,-9.156624794006348,0.16101007163524628
1369,76400.0,3.4464533329010014,-8.967482566833496,0.11312603205442427
1370,76500.0,3.4464533329010014,-8.967482566833496,0.11312603205442427
1371,76600.0,3.2543187141418457,-9.023746490478516,0.24660277366638186
1372,76700.0,3.2543187141418457,-9.023746490478516,0.24660277366638186
1373,76800.0,3.4967315196990967,-8.950722694396973,0.22266076505184174
1374,76900.0,3.4967315196990967,-8.950722694396973,0.22266076505184174
1375,77000.0,3.270479440689087,-9.065046310424805,0.1759738177061081
1376,77100.0,3.270479440689087,-9.065046310424805,0.1759738177061081
1377,77200.0,3.268683910369873,-9.054272651672363,0.12270283699035645
1378,77300.0,3.324349164962769,-9.058462142944336,0.17956513166427612
1379,77400.0,3.324349164962769,-9.058462142944336,0.17956513166427612
1380,76000.0,3.3692402839660645,-9.024344444274902,0.18136078119277954
1381,76100.0,3.325546264648437,-9.025542259216307,0.2711433470249176
1382,76200.0,3.325546264648437,-9.025542259216307,0.2711433470249176
1383,76300.0,3.112462282180786,-9.156624794006348,0.16101007163524628
1384,76400.0,3.4464533329010014,-8.967482566833496,0.11312603205442427
1385,76500.0,3.4464533329010014,-8.967482566833496,0.11312603205442427
1386,76600.0,3.2543187141418457,-9.023746490478516,0.24660277366638186
1387,76700.0,3.2543187141418457,-9.023746490478516,0.24660277366638186
1388,76800.0,3.4967315196990967,-8.950722694396973,0.22266076505184174
1389,76900.0,3.4967315196990967,-8.950722694396973,0.22266076505184174
1390,77000.0,3.270479440689087,-9.065046310424805,0.1759738177061081
1391,77100.0,3.270479440689087,-9.065046310424805,0.1759738177061081
1392,77200.0,3.268683910369873,-9.054272651672363,0.12270283699035645
1393,77300.0,3.324349164962769,-9.058462142944336,0.17956513166427612
1394,77400.0,3.324349164962769,-9.058462142944336,0.17956513166427612
1395,77500.0,3.162740468978882,-9.127894401550293,0.12449848651885985
1396,77600.0,3.162740468978882,-9.127894401550293,0.12449848651885985
1397,77700.0,3.293224334716797,-8.9866361618042,0.1191115379333496
1398,77800.0,3.293224334716797,-8.9866361618042,0.1191115379333496
1399,77900.0,3.36325478553772,-8.991424560546875,0.20231004059314728
1400,78000.0,3.36325478553772,-8.991424560546875,0.20231004059314728
1401,78100.0,3.0963013172149663,-9.1260986328125,0.11851298063993455
1402,78200.0,3.4967315196990967,-8.945934295654297,0.2513911724090576
1403,78300.0,3.4967315196990967,-8.945934295654297,0.2513911724090576
1404,78400.0,3.24953031539917,-9.082404136657717,0.026336219161748886
1405,78500.0,3.24953031539917,-9.082404136657717,0.026336219161748886
1406,78600.0,3.4542346000671387,-8.993818283081055,0.2406172752380371
1407,78700.0,3.4542346000671387,-8.993818283081055,0.2406172752380371
1408,78800.0,3.1968579292297363,-9.05247688293457,0.2059013396501541
1409,78900.0,3.1968579292297363,-9.05247688293457,0.2059013396501541
1410,77500.0,3.162740468978882,-9.127894401550293,0.12449848651885985
1411,77600.0,3.162740468978882,-9.127894401550293,0.12449848651885985
1412,77700.0,3.293224334716797,-8.9866361618042,0.1191115379333496
1413,77800.0,3.293224334716797,-8.9866361618042,0.1191115379333496
1414,77900.0,3.36325478553772,-8.991424560546875,0.20231004059314728
1415,78000.0,3.36325478553772,-8.991424560546875,0.20231004059314728
1416,78100.0,3.0963013172149663,-9.1260986328125,0.11851298063993455
1417,78200.0,3.4967315196990967,-8.945934295654297,0.2513911724090576
1418,78300.0,3.4967315196990967,-8.945934295654297,0.2513911724090576
1419,78400.0,3.24953031539917,-9.082404136657717,0.026336219161748886
1420,78500.0,3.24953031539917,-9.082404136657717,0.026336219161748886
1421,78600.0,3.4542346000671387,-8.993818283081055,0.2406172752380371
1422,78700.0,3.4542346000671387,-8.993818283081055,0.2406172752380371
1423,78800.0,3.1968579292297363,-9.05247688293457,0.2059013396501541
1424,78900.0,3.1968579292297363,-9.05247688293457,0.2059013396501541
1425,79000.0,3.457825899124145,-8.936357498168945,0.3298012912273407
1426,79100.0,3.153762102127075,-9.165003776550293,-0.055665191262960434
1427,79200.0,3.153762102127075,-9.165003776550293,-0.055665191262960434
1428,79300.0,3.426701068878174,-8.886079788208008,0.15801730751991272
1429,79400.0,3.426701068878174,-8.886079788208008,0.15801730751991272
1430,79500.0,3.4560301303863525,-9.382277488708496,0.35075053572654724
1431,79600.0,3.4560301303863525,-9.382277488708496,0.35075053572654724
1432,79700.0,3.9923312664031982,-8.571242332458496,-0.3106476664543152
1433,79800.0,3.9923312664031982,-8.571242332458496,-0.3106476664543152
1434,79900.0,3.830124139785767,-9.135675430297852,-0.19692309200763705
1435,80000.0,3.560776472091675,-8.986037254333496,-0.3926490843296051
1436,80100.0,3.560776472091675,-8.986037254333496,-0.3926490843296051
1437,80200.0,3.772064685821533,-9.014169692993164,-0.05386953800916672
1438,80300.0,3.772064685821533,-9.014169692993164,-0.05386953800916672
1439,80400.0,3.9881415367126474,-8.868721961975098,0.0454898327589035
1440,79000.0,3.457825899124145,-8.936357498168945,0.3298012912273407
1441,79100.0,3.153762102127075,-9.165003776550293,-0.055665191262960434
1442,79200.0,3.153762102127075,-9.165003776550293,-0.055665191262960434
1443,79300.0,3.426701068878174,-8.886079788208008,0.15801730751991272
1444,79400.0,3.426701068878174,-8.886079788208008,0.15801730751991272
1445,79500.0,3.4560301303863525,-9.382277488708496,0.35075053572654724
1446,79600.0,3.4560301303863525,-9.382277488708496,0.35075053572654724
1447,79700.0,3.9923312664031982,-8.571242332458496,-0.3106476664543152
1448,79800.0,3.9923312664031982,-8.571242332458496,-0.3106476664543152
1449,79900.0,3.830124139785767,-9.135675430297852,-0.19692309200763705
1450,80000.0,3.560776472091675,-8.986037254333496,-0.3926490843296051
1451,80100.0,3.560776472091675,-8.986037254333496,-0.3926490843296051
1452,80200.0,3.772064685821533,-9.014169692993164,-0.05386953800916672
1453,80300.0,3.772064685821533,-9.014169692993164,-0.05386953800916672
1454,80400.0,3.9881415367126474,-8.868721961975098,0.0454898327589035
1455,80500.0,3.9881415367126474,-8.868721961975098,0.0454898327589035
1456,80600.0,3.402759075164795,-9.081805229187012,0.044292733073234565
1457,80700.0,3.402759075164795,-9.081805229187012,0.044292733073234565
1458,80800.0,4.262277603149413,-8.45931339263916,-0.7817068696022034
1459,80900.0,3.558382272720337,-8.842984199523926,-0.44532153010368347
1460,81000.0,3.558382272720337,-8.842984199523926,-0.44532153010368347
1461,81100.0,3.4105403423309326,-9.10574722290039,0.08499415963888167
1462,81200.0,3.4105403423309326,-9.10574722290039,0.08499415963888167
1463,81300.0,3.3195607662200928,-8.982446670532227,-0.3118447661399841
1464,81400.0,3.3195607662200928,-8.982446670532227,-0.3118447661399841
1465,81500.0,3.457227230072021,-8.971672058105469,-0.3118447661399841
1466,81600.0,3.457227230072021,-8.971672058105469,-0.3118447661399841
1467,81700.0,3.766079187393189,-8.879495620727539,-0.3495534360408783
1468,81800.0,3.766079187393189,-8.879495620727539,-0.3495534360408783
1469,81900.0,3.4763808250427246,-8.878896713256836,-0.4135983288288117
1470,80500.0,3.9881415367126474,-8.868721961975098,0.0454898327589035
1471,80600.0,3.402759075164795,-9.081805229187012,0.044292733073234565
1472,80700.0,3.402759075164795,-9.081805229187012,0.044292733073234565
1473,80800.0,4.262277603149413,-8.45931339263916,-0.7817068696022034
1474,80900.0,3.558382272720337,-8.842984199523926,-0.44532153010368347
1475,81000.0,3.558382272720337,-8.842984199523926,-0.44532153010368347
1476,81100.0,3.4105403423309326,-9.10574722290039,0.08499415963888167
1477,81200.0,3.4105403423309326,-9.10574722290039,0.08499415963888167
1478,81300.0,3.3195607662200928,-8.982446670532227,-0.3118447661399841
1479,81400.0,3.3195607662200928,-8.982446670532227,-0.3118447661399841
1480,81500.0,3.457227230072021,-8.971672058105469,-0.3118447661399841
1481,81600.0,3.457227230072021,-8.971672058105469,-0.3118447661399841
1482,81700.0,3.766079187393189,-8.879495620727539,-0.3495534360408783
1483,81800.0,3.766079187393189,-8.879495620727539,-0.3495534360408783
1484,81900.0,3.4763808250427246,-8.878896713256836,-0.4135983288288117
1485,82000.0,3.4356794357299805,-9.051877975463867,0.0736217051744461
1486,82100.0,3.4356794357299805,-9.051877975463867,0.0736217051744461
1487,82200.0,3.779247283935547,-8.969876289367676,-0.15083470940589905
1488,82300.0,3.779247283935547,-8.969876289367676,-0.15083470940589905
1489,82400.0,3.851073503494263,-8.892663955688477,-0.4417302012443543
1490,82500.0,3.851073503494263,-8.892663955688477,-0.4417302012443543
1491,82600.0,3.4332852363586426,-8.94773006439209,-0.3603273630142212
1492,82700.0,3.4332852363586426,-8.94773006439209,-0.3603273630142212
1493,82800.0,3.404554843902588,-9.063849449157717,0.05686229094862937
1494,82900.0,3.964199542999268,-8.777742385864258,-0.19632454216480252
1495,83000.0,3.964199542999268,-8.777742385864258,-0.19632454216480252
1496,83100.0,2.655768156051636,-9.44871711730957,-0.3489548861980438
1497,83200.0,2.655768156051636,-9.44871711730957,-0.3489548861980438
1498,83300.0,3.726574897766113,-8.849568367004395,-0.3681085109710693
1499,83400.0,3.726574897766113,-8.849568367004395,-0.3681085109710693
1500,82000.0,3.4356794357299805,-9.051877975463867,0.0736217051744461
1501,82100.0,3.4356794357299805,-9.051877975463867,0.0736217051744461
1502,82200.0,3.779247283935547,-8.969876289367676,-0.15083470940589905
1503,82300.0,3.779247283935547,-8.969876289367676,-0.15083470940589905
1504,82400.0,3.851073503494263,-8.892663955688477,-0.4417302012443543
1505,82500.0,3.851073503494263,-8.892663955688477,-0.4417302012443543
1506,82600.0,3.4332852363586426,-8.94773006439209,-0.3603273630142212
1507,82700.0,3.4332852363586426,-8.94773006439209,-0.3603273630142212
1508,82800.0,3.404554843902588,-9.063849449157717,0.05686229094862937
1509,82900.0,3.964199542999268,-8.777742385864258,-0.19632454216480252
1510,83000.0,3.964199542999268,-8.777742385864258,-0.19632454216480252
1511,83100.0,2.655768156051636,-9.44871711730957,-0.3489548861980438
1512,83200.0,2.655768156051636,-9.44871711730957,-0.3489548861980438
1513,83300.0,3.726574897766113,-8.849568367004395,-0.3681085109710693
1514,83400.0,3.726574897766113,-8.849568367004395,-0.3681085109710693
1515,83500.0,3.318363666534424,-9.030330657958984,-0.3597288131713867
1516,83600.0,3.318363666534424,-9.030330657958984,-0.3597288131713867
1517,83700.0,3.2148144245147705,-9.121908187866213,-0.314238965511322
1518,83800.0,3.7505168914794917,-8.807669639587402,-0.23343466222286224
1519,83900.0,3.7505168914794917,-8.807669639587402,-0.23343466222286224
1520,84000.0,3.812167644500733,-8.85435676574707,0.04369417950510979
1521,84100.0,3.812167644500733,-8.85435676574707,0.04369417950510979
1522,84200.0,4.223371982574463,-8.599373817443848,-0.008379706181585789
1523,84300.0,4.223371982574463,-8.599373817443848,-0.008379706181585789
1524,84400.0,4.61661958694458,-8.410231590270996,0.12210428714752194
1525,84500.0,4.61661958694458,-8.410231590270996,0.12210428714752194
1526,84600.0,4.196436882019043,-8.647856712341309,0.14604631066322327
1527,84700.0,4.0521864891052255,-8.711901664733888,0.2789244949817657
1528,84800.0,4.0521864891052255,-8.711901664733888,0.2789244949817657
1529,84900.0,4.141968727111816,-8.520365715026855,0.3387795388698578
1530,83500.0,3.318363666534424,-9.030330657958984,-0.3597288131713867
1531,83600.0,3.318363666534424,-9.030330657958984,-0.3597288131713867
1532,83700.0,3.2148144245147705,-9.121908187866213,-0.314238965511322
1533,83800.0,3.7505168914794917,-8.807669639587402,-0.23343466222286224
1534,83900.0,3.7505168914794917,-8.807669639587402,-0.23343466222286224
1535,84000.0,3.812167644500733,-8.85435676574707,0.04369417950510979
1536,84100.0,3.812167644500733,-8.85435676574707,0.04369417950510979
1537,84200.0,4.223371982574463,-8.599373817443848,-0.008379706181585789
1538,84300.0,4.223371982574463,-8.599373817443848,-0.008379706181585789
1539,84400.0,4.61661958694458,-8.410231590270996,0.12210428714752194
1540,84500.0,4.61661958694458,-8.410231590270996,0.12210428714752194
1541,84600.0,4.196436882019043,-8.647856712341309,0.14604631066322327
1542,84700.0,4.0521864891052255,-8.711901664733888,0.2789244949817657
1543,84800.0,4.0521864891052255,-8.711901664733888,0.2789244949817657
1544,84900.0,4.141968727111816,-8.520365715026855,0.3387795388698578
1545,85000.0,4.141968727111816,-8.520365715026855,0.3387795388698578
1546,85100.0,4.050390720367432,-8.616133689880371,0.061052143573760986
1547,85200.0,4.050390720367432,-8.616133689880371,0.061052143573760986
1548,85300.0,4.373009204864502,-8.768165588378906,-0.4602852761745453
1549,85400.0,4.373009204864502,-8.768165588378906,-0.4602852761745453
1550,85500.0,4.0767269134521475,-8.655038833618164,-0.6260837316513062
1551,85600.0,3.958812475204468,-8.828619003295898,-0.03950432687997818
1552,85700.0,3.958812475204468,-8.828619003295898,-0.03950432687997818
1553,85800.0,4.042609691619873,-8.87410831451416,-0.304063618183136
1554,85900.0,4.042609691619873,-8.87410831451416,-0.304063618183136
1555,86000.0,4.037222385406493,-8.87410831451416,-0.4100070297718048
1556,86100.0,4.037222385406493,-8.87410831451416,-0.4100070297718048
1557,86200.0,4.1437644958496085,-8.670601844787598,-0.2364274114370346
1558,86300.0,4.1437644958496085,-8.670601844787598,-0.2364274114370346
1559,86400.0,2.738966703414917,-9.208698272705078,0.3118447661399841
1560,85000.0,4.141968727111816,-8.520365715026855,0.3387795388698578
1561,85100.0,4.050390720367432,-8.616133689880371,0.061052143573760986
1562,85200.0,4.050390720367432,-8.616133689880371,0.061052143573760986
1563,85300.0,4.373009204864502,-8.768165588378906,-0.4602852761745453
1564,85400.0,4.373009204864502,-8.768165588378906,-0.4602852761745453
1565,85500.0,4.0767269134521475,-8.655038833618164,-0.6260837316513062
1566,85600.0,3.958812475204468,-8.828619003295898,-0.03950432687997818
1567,85700.0,3.958812475204468,-8.828619003295898,-0.03950432687997818
1568,85800.0,4.042609691619873,-8.87410831451416,-0.304063618183136
1569,85900.0,4.042609691619873,-8.87410831451416,-0.304063618183136
1570,86000.0,4.037222385406493,-8.87410831451416,-0.4100070297718048
1571,86100.0,4.037222385406493,-8.87410831451416,-0.4100070297718048
1572,86200.0,4.1437644958496085,-8.670601844787598,-0.2364274114370346
1573,86300.0,4.1437644958496085,-8.670601844787598,-0.2364274114370346
1574,86400.0,2.738966703414917,-9.208698272705078,0.3118447661399841
1575,86500.0,3.79181694984436,-8.890868186950684,0.6350619792938232
1576,86600.0,3.79181694984436,-8.890868186950684,0.6350619792938232
1577,86700.0,3.777451753616333,-8.903437614440918,0.15562310814857486
1578,86800.0,3.777451753616333,-8.903437614440918,0.15562310814857486
1579,86900.0,3.2626984119415283,-9.026140213012695,0.1999158412218094
1580,87000.0,3.2626984119415283,-9.026140213012695,0.1999158412218094
1581,87100.0,3.5278561115264893,-8.987235069274902,0.08918401598930359
1582,87200.0,3.5278561115264893,-8.987235069274902,0.08918401598930359
1583,87300.0,3.40216064453125,-9.087791442871094,0.0586579404771328
1584,87400.0,3.638587951660156,-8.830414772033691,-0.023343466222286224
1585,87500.0,3.638587951660156,-8.830414772033691,-0.023343466222286224
1586,87600.0,3.773860454559326,-8.846575736999512,0.09038111567497252
1587,87700.0,3.773860454559326,-8.846575736999512,0.09038111567497252
1588,87800.0,2.8461072444915767,-9.221866607666016,0.1777694821357727
1589,87900.0,2.8461072444915767,-9.221866607666016,0.1777694821357727
1590,86500.0,3.79181694984436,-8.890868186950684,0.6350619792938232
1591,86600.0,3.79181694984436,-8.890868186950684,0.6350619792938232
1592,86700.0,3.777451753616333,-8.903437614440918,0.15562310814857486
1593,86800.0,3.777451753616333,-8.903437614440918,0.15562310814857486
1594,86900.0,3.2626984119415283,-9.026140213012695,0.1999158412218094
1595,87000.0,3.2626984119415283,-9.026140213012695,0.1999158412218094
1596,87100.0,3.5278561115264893,-8.987235069274902,0.08918401598930359
1597,87200.0,3.5278561115264893,-8.987235069274902,0.08918401598930359
1598,87300.0,3.40216064453125,-9.087791442871094,0.0586579404771328
1599,87400.0,3.638587951660156,-8.830414772033691,-0.023343466222286224
1600,87500.0,3.638587951660156,-8.830414772033691,-0.023343466222286224
1601,87600.0,3.773860454559326,-8.846575736999512,0.09038111567497252
1602,87700.0,3.773860454559326,-8.846575736999512,0.09038111567497252
1603,87800.0,2.8461072444915767,-9.221866607666016,0.1777694821357727
1604,87900.0,2.8461072444915767,-9.221866607666016,0.1777694821357727
1605,88000.0,3.667917013168335,-8.926780700683594,-0.08259996026754379
1606,88100.0,3.667917013168335,-8.926780700683594,-0.08259996026754379
1607,88200.0,3.251325845718384,-9.05487060546875,-0.020350715145468712
1608,88300.0,3.45962142944336,-9.030928611755373,-0.010175357572734356
1609,88400.0,3.45962142944336,-9.030928611755373,-0.010175357572734356
1610,88500.0,3.792415380477905,-8.942343711853027,-0.13048399984836578
1611,88600.0,3.792415380477905,-8.942343711853027,-0.13048399984836578
1612,88700.0,3.3207578659057617,-8.99860668182373,-0.12749123573303225
1613,88800.0,3.3207578659057617,-8.99860668182373,-0.12749123573303225
1614,88900.0,3.5428199768066406,-8.991424560546875,0.1215057373046875
1615,89000.0,3.5428199768066406,-8.991424560546875,0.1215057373046875
1616,89100.0,4.1437644958496085,-8.884284019470215,-0.2358288615942001
1617,89200.0,3.485957622528076,-8.930971145629883,0.1280897855758667
1618,89300.0,3.485957622528076,-8.930971145629883,0.1280897855758667
1619,89400.0,3.4308910369873047,-8.869319915771484,0.06883329898118973
1620,88000.0,3.667917013168335,-8.926780700683594,-0.08259996026754379
1621,88100.0,3.667917013168335,-8.926780700683594,-0.08259996026754379
1622,88200.0,3.251325845718384,-9.05487060546875,-0.020350715145468712
1623,88300.0,3.45962142944336,-9.030928611755373,-0.010175357572734356
1624,88400.0,3.45962142944336,-9.030928611755373,-0.010175357572734356
1625,88500.0,3.792415380477905,-8.942343711853027,-0.13048399984836578
1626,88600.0,3.792415380477905,-8.942343711853027,-0.13048399984836578
1627,88700.0,3.3207578659057617,-8.99860668182373,-0.12749123573303225
1628,88800.0,3.3207578659057617,-8.99860668182373,-0.12749123573303225
1629,88900.0,3.5428199768066406,-8.991424560546875,0.1215057373046875
1630,89000.0,3.5428199768066406,-8.991424560546875,0.1215057373046875
1631,89100.0,4.1437644958496085,-8.884284019470215,-0.2358288615942001
1632,89200.0,3.485957622528076,-8.930971145629883,0.1280897855758667
1633,89300.0,3.485957622528076,-8.930971145629883,0.1280897855758667
1634,89400.0,3.4308910369873047,-8.869319915771484,0.06883329898118973
1635,89500.0,3.4308910369873047,-8.869319915771484,0.06883329898118973
1636,89600.0,4.0120835304260245,-8.772355079650879,-0.07900865375995636
1637,89700.0,4.0120835304260245,-8.772355079650879,-0.07900865375995636
1638,89800.0,4.113238334655762,-8.564658164978027,-0.24660277366638186
1639,89900.0,4.113238334655762,-8.564658164978027,-0.24660277366638186
1640,90000.0,4.18805742263794,-9.009979248046877,0.4405331015586853
1641,90100.0,4.687248229980469,-8.38808536529541,-0.14006079733371735
1642,90200.0,4.687248229980469,-8.38808536529541,-0.14006079733371735
1643,90300.0,4.356249809265137,-8.574234962463379,-0.4776432514190674
1644,90400.0,4.356249809265137,-8.574234962463379,-0.4776432514190674
1645,90500.0,3.810372114181519,-8.742427825927733,0.09696517139673233
1646,90600.0,3.810372114181519,-8.742427825927733,0.09696517139673233
1647,90700.0,3.6296098232269287,-9.031527519226074,0.228047713637352
1648,90800.0,3.6296098232269287,-9.031527519226074,0.228047713637352
1649,90900.0,4.3837833404541025,-8.444948196411133,-0.13527239859104154
1650,89500.0,3.4308910369873047,-8.869319915771484,0.06883329898118973
1651,89600.0,4.0120835304260245,-8.772355079650879,-0.07900865375995636
1652,89700.0,4.0120835304260245,-8.772355079650879,-0.07900865375995636
1653,89800.0,4.113238334655762,-8.564658164978027,-0.24660277366638186
1654,89900.0,4.113238334655762,-8.564658164978027,-0.24660277366638186
1655,90000.0,4.18805742263794,-9.009979248046877,0.4405331015586853
1656,90100.0,4.687248229980469,-8.38808536529541,-0.14006079733371735
1657,90200.0,4.687248229980469,-8.38808536529541,-0.14006079733371735
1658,90300.0,4.356249809265137,-8.574234962463379,-0.4776432514190674
1659,90400.0,4.356249809265137,-8.574234962463379,-0.4776432514190674
1660,90500.0,3.810372114181519,-8.742427825927733,0.09696517139673233
1661,90600.0,3.810372114181519,-8.742427825927733,0.09696517139673233
1662,90700.0,3.6296098232269287,-9.031527519226074,0.228047713637352
1663,90800.0,3.6296098232269287,-9.031527519226074,0.228047713637352
1664,90900.0,4.3837833404541025,-8.444948196411133,-0.13527239859104154
1665,91000.0,3.60566782951355,-8.863334655761719,0.04848258569836617
1666,91100.0,3.60566782951355,-8.863334655761719,0.04848258569836617
1667,91200.0,3.787028551101685,-8.846575736999512,0.0999579206109047
1668,91300.0,3.787028551101685,-8.846575736999512,0.0999579206109047
1669,91400.0,3.728969097137451,-8.895057678222656,-0.14006079733371735
1670,91500.0,3.728969097137451,-8.895057678222656,-0.14006079733371735
1671,91600.0,3.7762546539306636,-8.868123054504395,-0.009576806798577309
1672,91700.0,3.7762546539306636,-8.868123054504395,-0.009576806798577309
1673,91800.0,3.93367338180542,-8.849568367004395,-0.017956512048840526
1674,91900.0,3.5781345367431636,-9.07641887664795,0.1801636815071106
1675,92000.0,3.5781345367431636,-9.07641887664795,0.1801636815071106
1676,92100.0,3.858256101608277,-8.825027465820312,-0.17238251864910126
1677,92200.0,3.858256101608277,-8.825027465820312,-0.17238251864910126
1678,92300.0,4.441244125366211,-8.628703117370605,-0.16160862147808075
1679,92400.0,4.441244125366211,-8.628703117370605,-0.16160862147808075
1680,91000.0,3.60566782951355,-8.863334655761719,0.04848258569836617
1681,91100.0,3.60566782951355,-8.863334655761719,0.04848258569836617
1682,91200.0,3.787028551101685,-8.846575736999512,0.0999579206109047
1683,91300.0,3.787028551101685,-8.846575736999512,0.0999579206109047
1684,91400.0,3.728969097137451,-8.895057678222656,-0.14006079733371735
1685,91500.0,3.728969097137451,-8.895057678222656,-0.14006079733371735
1686,91600.0,3.7762546539306636,-8.868123054504395,-0.009576806798577309
1687,91700.0,3.7762546539306636,-8.868123054504395,-0.009576806798577309
1688,91800.0,3.93367338180542,-8.849568367004395,-0.017956512048840526
1689,91900.0,3.5781345367431636,-9.07641887664795,0.1801636815071106
1690,92000.0,3.5781345367431636,-9.07641887664795,0.1801636815071106
1691,92100.0,3.858256101608277,-8.825027465820312,-0.17238251864910126
1692,92200.0,3.858256101608277,-8.825027465820312,-0.17238251864910126
1693,92300.0,4.441244125366211,-8.628703117370605,-0.16160862147808075
1694,92400.0,4.441244125366211,-8.628703117370605,-0.16160862147808075
1695,92500.0,4.156333923339844,-8.730456352233888,-0.09876082092523576
1696,92600.0,4.156333923339844,-8.730456352233888,-0.09876082092523576
1697,92700.0,3.8534677028656006,-8.743025779724121,-0.09876082092523576
1698,92800.0,4.404133796691895,-8.686163902282715,-0.035314474254846566
1699,92900.0,4.404133796691895,-8.686163902282715,-0.035314474254846566
1700,93000.0,4.834491729736328,-8.301296234130861,-0.013766659423708916
1701,93100.0,4.834491729736328,-8.301296234130861,-0.013766659423708916
1702,93200.0,4.7153801918029785,-8.256404876708983,0.062249243259429925
1703,93300.0,4.7153801918029785,-8.256404876708983,0.062249243259429925
1704,93400.0,4.670488834381104,-8.330624580383299,-0.07242459803819656
1705,93500.0,4.670488834381104,-8.330624580383299,-0.07242459803819656
1706,93600.0,4.1018662452697745,-8.844181060791016,0.3758896589279175
1707,93700.0,4.5848960876464835,-8.695141792297362,-0.1735796183347702
1708,93800.0,4.5848960876464835,-8.695141792297362,-0.1735796183347702
1709,93900.0,4.656722068786621,-8.558073997497559,-0.022146366536617283
1710,92500.0,4.156333923339844,-8.730456352233888,-0.09876082092523576
1711,92600.0,4.156333923339844,-8.730456352233888,-0.09876082092523576
1712,92700.0,3.8534677028656006,-8.743025779724121,-0.09876082092523576
1713,92800.0,4.404133796691895,-8.686163902282715,-0.035314474254846566
1714,92900.0,4.404133796691895,-8.686163902282715,-0.035314474254846566
1715,93000.0,4.834491729736328,-8.301296234130861,-0.013766659423708916
1716,93100.0,4.834491729736328,-8.301296234130861,-0.013766659423708916
1717,93200.0,4.7153801918029785,-8.256404876708983,0.062249243259429925
1718,93300.0,4.7153801918029785,-8.256404876708983,0.062249243259429925
1719,93400.0,4.670488834381104,-8.330624580383299,-0.07242459803819656
1720,93500.0,4.670488834381104,-8.330624580383299,-0.07242459803819656
1721,93600.0,4.1018662452697745,-8.844181060791016,0.3758896589279175
1722,93700.0,4.5848960876464835,-8.695141792297362,-0.1735796183347702
1723,93800.0,4.5848960876464835,-8.695141792297362,-0.1735796183347702
1724,93900.0,4.656722068786621,-8.558073997497559,-0.022146366536617283
1725,94000.0,4.656722068786621,-8.558073997497559,-0.022146366536617283
