,timestamp,ax,ay,az
0,0.0,7.006184577941895,6.276373863220215,-5.14456844329834
1,50.0,7.006184577941895,6.276373863220215,-5.14456844329834
2,100.0,7.006184577941895,6.276373863220215,-5.14456844329834
3,150.0,7.006184577941895,6.276373863220215,-5.14456844329834
4,200.0,7.006184577941895,6.276373863220215,-5.14456844329834
5,250.0,5.029713153839111,5.7954163551330575,-5.477170467376709
6,300.0,5.029713153839111,5.7954163551330575,-5.477170467376709
7,350.0,5.029713153839111,5.7954163551330575,-5.477170467376709
8,400.0,5.029713153839111,5.7954163551330575,-5.477170467376709
9,450.0,5.029713153839111,5.7954163551330575,-5.477170467376709
10,500.0,4.508078098297119,7.025327682495117,-6.149554252624513
11,550.0,4.508078098297119,7.025327682495117,-6.149554252624513
12,600.0,4.508078098297119,7.025327682495117,-6.149554252624513
13,650.0,4.508078098297119,7.025327682495117,-6.149554252624513
14,700.0,2.3258235454559326,5.745166778564452,-5.694917678833008
15,750.0,2.3258235454559326,5.745166778564452,-5.694917678833008
16,800.0,2.3258235454559326,5.745166778564452,-5.694917678833008
17,850.0,2.3258235454559326,5.745166778564452,-5.694917678833008
18,900.0,2.3258235454559326,5.745166778564452,-5.694917678833008
19,950.0,5.838487148284912,1.5792629718780518,-6.625725746154785
20,1000.0,5.838487148284912,1.5792629718780518,-6.625725746154785
21,1050.0,5.838487148284912,1.5792629718780518,-6.625725746154785
22,1100.0,5.838487148284912,1.5792629718780518,-6.625725746154785
23,1150.0,5.838487148284912,1.5792629718780518,-6.625725746154785
24,1200.0,10.992627143859863,-0.4163511395454407,-7.8795647621154785
25,1250.0,10.992627143859863,-0.4163511395454407,-7.8795647621154785
26,1300.0,10.992627143859863,-0.4163511395454407,-7.8795647621154785
27,1350.0,10.992627143859863,-0.4163511395454407,-7.8795647621154785
28,1400.0,5.446063995361328,5.950949668884277,-5.752345561981201
29,1450.0,5.446063995361328,5.950949668884277,-5.752345561981201
30,1500.0,5.446063995361328,5.950949668884277,-5.752345561981201
31,1550.0,5.446063995361328,5.950949668884277,-5.752345561981201
32,1600.0,5.446063995361328,5.950949668884277,-5.752345561981201
33,1650.0,0.4833501875400543,0.5479563474655151,-9.382257461547852
34,1700.0,0.4833501875400543,0.5479563474655151,-9.382257461547852
35,1750.0,0.4833501875400543,0.5479563474655151,-9.382257461547852
36,1800.0,0.4833501875400543,0.5479563474655151,-9.382257461547852
37,1850.0,0.4833501875400543,0.5479563474655151,-9.382257461547852
38,1900.0,-3.1585259437561035,7.190432548522949,-8.329416275024414
39,1950.0,-3.1585259437561035,7.190432548522949,-8.329416275024414
40,1000.0,5.838487148284912,1.5792629718780518,-6.625725746154785
41,1050.0,5.838487148284912,1.5792629718780518,-6.625725746154785
42,1100.0,5.838487148284912,1.5792629718780518,-6.625725746154785
43,1150.0,5.838487148284912,1.5792629718780518,-6.625725746154785
44,1200.0,10.992627143859863,-0.4163511395454407,-7.8795647621154785
45,1250.0,10.992627143859863,-0.4163511395454407,-7.8795647621154785
46,1300.0,10.992627143859863,-0.4163511395454407,-7.8795647621154785
47,1350.0,10.992627143859863,-0.4163511395454407,-7.8795647621154785
48,1400.0,5.446063995361328,5.950949668884277,-5.752345561981201
49,1450.0,5.446063995361328,5.950949668884277,-5.752345561981201
50,1500.0,5.446063995361328,5.950949668884277,-5.752345561981201
51,1550.0,5.446063995361328,5.950949668884277,-5.752345561981201
52,1600.0,5.446063995361328,5.950949668884277,-5.752345561981201
53,1650.0,0.4833501875400543,0.5479563474655151,-9.382257461547852
54,1700.0,0.4833501875400543,0.5479563474655151,-9.382257461547852
55,1750.0,0.4833501875400543,0.5479563474655151,-9.382257461547852
56,1800.0,0.4833501875400543,0.5479563474655151,-9.382257461547852
57,1850.0,0.4833501875400543,0.5479563474655151,-9.382257461547852
58,1900.0,-3.1585259437561035,7.190432548522949,-8.329416275024414
59,1950.0,-3.1585259437561035,7.190432548522949,-8.329416275024414
60,2000.0,-3.1585259437561035,7.190432548522949,-8.329416275024414
61,2050.0,-3.1585259437561035,7.190432548522949,-8.329416275024414
62,2100.0,-5.015356063842773,1.6486548185348509,-2.581855773925781
63,2150.0,-5.015356063842773,1.6486548185348509,-2.581855773925781
64,2200.0,-5.015356063842773,1.6486548185348509,-2.581855773925781
65,2250.0,-5.015356063842773,1.6486548185348509,-2.581855773925781
66,2300.0,-5.015356063842773,1.6486548185348509,-2.581855773925781
67,2350.0,-1.9094725847244265,-2.1918253898620605,-6.675975322723389
68,2400.0,-1.9094725847244265,-2.1918253898620605,-6.675975322723389
69,2450.0,-1.9094725847244265,-2.1918253898620605,-6.675975322723389
70,2500.0,-1.9094725847244265,-2.1918253898620605,-6.675975322723389
71,2550.0,-1.9094725847244265,-2.1918253898620605,-6.675975322723389
72,2600.0,6.833901405334473,1.0815558433532717,-13.112667083740234
73,2650.0,6.833901405334473,1.0815558433532717,-13.112667083740234
74,2700.0,6.833901405334473,1.0815558433532717,-13.112667083740234
75,2750.0,6.833901405334473,1.0815558433532717,-13.112667083740234
76,2800.0,5.91505765914917,2.7661027908325195,-6.7142601013183585
77,2850.0,5.91505765914917,2.7661027908325195,-6.7142601013183585
78,2900.0,5.91505765914917,2.7661027908325195,-6.7142601013183585
79,2950.0,5.91505765914917,2.7661027908325195,-6.7142601013183585
80,2000.0,-3.1585259437561035,7.190432548522949,-8.329416275024414
81,2050.0,-3.1585259437561035,7.190432548522949,-8.329416275024414
82,2100.0,-5.015356063842773,1.6486548185348509,-2.581855773925781
83,2150.0,-5.015356063842773,1.6486548185348509,-2.581855773925781
84,2200.0,-5.015356063842773,1.6486548185348509,-2.581855773925781
85,2250.0,-5.015356063842773,1.6486548185348509,-2.581855773925781
86,2300.0,-5.015356063842773,1.6486548185348509,-2.581855773925781
87,2350.0,-1.9094725847244265,-2.1918253898620605,-6.675975322723389
88,2400.0,-1.9094725847244265,-2.1918253898620605,-6.675975322723389
89,2450.0,-1.9094725847244265,-2.1918253898620605,-6.675975322723389
90,2500.0,-1.9094725847244265,-2.1918253898620605,-6.675975322723389
91,2550.0,-1.9094725847244265,-2.1918253898620605,-6.675975322723389
92,2600.0,6.833901405334473,1.0815558433532717,-13.112667083740234
93,2650.0,6.833901405334473,1.0815558433532717,-13.112667083740234
94,2700.0,6.833901405334473,1.0815558433532717,-13.112667083740234
95,2750.0,6.833901405334473,1.0815558433532717,-13.112667083740234
96,2800.0,5.91505765914917,2.7661027908325195,-6.7142601013183585
97,2850.0,5.91505765914917,2.7661027908325195,-6.7142601013183585
98,2900.0,5.91505765914917,2.7661027908325195,-6.7142601013183585
99,2950.0,5.91505765914917,2.7661027908325195,-6.7142601013183585
100,3000.0,5.91505765914917,2.7661027908325195,-6.7142601013183585
101,3050.0,7.36032247543335,4.728217601776123,-7.147361278533936
102,3100.0,7.36032247543335,4.728217601776123,-7.147361278533936
103,3150.0,7.36032247543335,4.728217601776123,-7.147361278533936
104,3200.0,7.36032247543335,4.728217601776123,-7.147361278533936
105,3250.0,7.36032247543335,4.728217601776123,-7.147361278533936
106,3300.0,6.431907176971436,5.991628170013428,-3.218346357345581
107,3350.0,6.431907176971436,5.991628170013428,-3.218346357345581
108,3400.0,6.431907176971436,5.991628170013428,-3.218346357345581
109,3450.0,6.431907176971436,5.991628170013428,-3.218346357345581
110,3500.0,5.6757755279541025,5.273780822753906,-5.218745708465576
111,3550.0,5.6757755279541025,5.273780822753906,-5.218745708465576
112,3600.0,5.6757755279541025,5.273780822753906,-5.218745708465576
113,3650.0,5.6757755279541025,5.273780822753906,-5.218745708465576
114,3700.0,5.6757755279541025,5.273780822753906,-5.218745708465576
115,3750.0,4.182653903961182,9.789037704467773,-2.995814085006714
116,3800.0,4.182653903961182,9.789037704467773,-2.995814085006714
117,3850.0,4.182653903961182,9.789037704467773,-2.995814085006714
118,3900.0,4.182653903961182,9.789037704467773,-2.995814085006714
119,3950.0,6.235695838928223,6.044269561767577,-4.012763977050781
120,3000.0,5.91505765914917,2.7661027908325195,-6.7142601013183585
121,3050.0,7.36032247543335,4.728217601776123,-7.147361278533936
122,3100.0,7.36032247543335,4.728217601776123,-7.147361278533936
123,3150.0,7.36032247543335,4.728217601776123,-7.147361278533936
124,3200.0,7.36032247543335,4.728217601776123,-7.147361278533936
125,3250.0,7.36032247543335,4.728217601776123,-7.147361278533936
126,3300.0,6.431907176971436,5.991628170013428,-3.218346357345581
127,3350.0,6.431907176971436,5.991628170013428,-3.218346357345581
128,3400.0,6.431907176971436,5.991628170013428,-3.218346357345581
129,3450.0,6.431907176971436,5.991628170013428,-3.218346357345581
130,3500.0,5.6757755279541025,5.273780822753906,-5.218745708465576
131,3550.0,5.6757755279541025,5.273780822753906,-5.218745708465576
132,3600.0,5.6757755279541025,5.273780822753906,-5.218745708465576
133,3650.0,5.6757755279541025,5.273780822753906,-5.218745708465576
134,3700.0,5.6757755279541025,5.273780822753906,-5.218745708465576
135,3750.0,4.182653903961182,9.789037704467773,-2.995814085006714
136,3800.0,4.182653903961182,9.789037704467773,-2.995814085006714
137,3850.0,4.182653903961182,9.789037704467773,-2.995814085006714
138,3900.0,4.182653903961182,9.789037704467773,-2.995814085006714
139,3950.0,6.235695838928223,6.044269561767577,-4.012763977050781
140,4000.0,6.235695838928223,6.044269561767577,-4.012763977050781
141,4050.0,6.235695838928223,6.044269561767577,-4.012763977050781
142,4100.0,6.235695838928223,6.044269561767577,-4.012763977050781
143,4150.0,6.599405288696289,7.1712894439697275,-3.99362063407898
144,4200.0,6.599405288696289,7.1712894439697275,-3.99362063407898
145,4250.0,6.599405288696289,7.1712894439697275,-3.99362063407898
146,4300.0,6.599405288696289,7.1712894439697275,-3.99362063407898
147,4350.0,6.599405288696289,7.1712894439697275,-3.99362063407898
148,4400.0,6.613761901855469,8.233702659606934,-2.232503652572632
149,4450.0,6.613761901855469,8.233702659606934,-2.232503652572632
150,4500.0,6.613761901855469,8.233702659606934,-2.232503652572632
151,4550.0,6.613761901855469,8.233702659606934,-2.232503652572632
152,4600.0,5.077569961547852,6.900900363922119,-4.034298896789552
153,4650.0,5.077569961547852,6.900900363922119,-4.034298896789552
154,4700.0,5.077569961547852,6.900900363922119,-4.034298896789552
155,4750.0,5.077569961547852,6.900900363922119,-4.034298896789552
156,4800.0,5.077569961547852,6.900900363922119,-4.034298896789552
157,4850.0,5.077569961547852,6.900900363922119,-4.034298896789552
158,4900.0,5.254639148712158,7.561319828033447,-1.5768700838088991
159,4950.0,5.254639148712158,7.561319828033447,-1.5768700838088991
160,4000.0,6.235695838928223,6.044269561767577,-4.012763977050781
161,4050.0,6.235695838928223,6.044269561767577,-4.012763977050781
162,4100.0,6.235695838928223,6.044269561767577,-4.012763977050781
163,4150.0,6.599405288696289,7.1712894439697275,-3.99362063407898
164,4200.0,6.599405288696289,7.1712894439697275,-3.99362063407898
165,4250.0,6.599405288696289,7.1712894439697275,-3.99362063407898
166,4300.0,6.599405288696289,7.1712894439697275,-3.99362063407898
167,4350.0,6.599405288696289,7.1712894439697275,-3.99362063407898
168,4400.0,6.613761901855469,8.233702659606934,-2.232503652572632
169,4450.0,6.613761901855469,8.233702659606934,-2.232503652572632
170,4500.0,6.613761901855469,8.233702659606934,-2.232503652572632
171,4550.0,6.613761901855469,8.233702659606934,-2.232503652572632
172,4600.0,5.077569961547852,6.900900363922119,-4.034298896789552
173,4650.0,5.077569961547852,6.900900363922119,-4.034298896789552
174,4700.0,5.077569961547852,6.900900363922119,-4.034298896789552
175,4750.0,5.077569961547852,6.900900363922119,-4.034298896789552
176,4800.0,5.077569961547852,6.900900363922119,-4.034298896789552
177,4850.0,5.077569961547852,6.900900363922119,-4.034298896789552
178,4900.0,5.254639148712158,7.561319828033447,-1.5768700838088991
179,4950.0,5.254639148712158,7.561319828033447,-1.5768700838088991
180,5000.0,5.254639148712158,7.561319828033447,-1.5768700838088991
181,5050.0,5.254639148712158,7.561319828033447,-1.5768700838088991
182,5100.0,5.182853698730469,7.508677005767822,-3.31884503364563
183,5150.0,5.182853698730469,7.508677005767822,-3.31884503364563
184,5200.0,5.182853698730469,7.508677005767822,-3.31884503364563
185,5250.0,5.182853698730469,7.508677005767822,-3.31884503364563
186,5300.0,4.063012599945068,9.712467193603516,1.4356936216354368
187,5350.0,4.063012599945068,9.712467193603516,1.4356936216354368
188,5400.0,4.063012599945068,9.712467193603516,1.4356936216354368
189,5450.0,4.063012599945068,9.712467193603516,1.4356936216354368
190,5500.0,4.063012599945068,9.712467193603516,1.4356936216354368
191,5550.0,4.967499732971191,9.145368576049805,-1.428515076637268
192,5600.0,4.967499732971191,9.145368576049805,-1.428515076637268
193,5650.0,4.967499732971191,9.145368576049805,-1.428515076637268
194,5700.0,4.967499732971191,9.145368576049805,-1.428515076637268
195,5750.0,4.8095736503601065,6.501298904418945,-6.10169792175293
196,5800.0,4.8095736503601065,6.501298904418945,-6.10169792175293
197,5850.0,4.8095736503601065,6.501298904418945,-6.10169792175293
198,5900.0,4.8095736503601065,6.501298904418945,-6.10169792175293
199,5950.0,4.8095736503601065,6.501298904418945,-6.10169792175293
200,5000.0,5.254639148712158,7.561319828033447,-1.5768700838088991
201,5050.0,5.254639148712158,7.561319828033447,-1.5768700838088991
202,5100.0,5.182853698730469,7.508677005767822,-3.31884503364563
203,5150.0,5.182853698730469,7.508677005767822,-3.31884503364563
204,5200.0,5.182853698730469,7.508677005767822,-3.31884503364563
205,5250.0,5.182853698730469,7.508677005767822,-3.31884503364563
206,5300.0,4.063012599945068,9.712467193603516,1.4356936216354368
207,5350.0,4.063012599945068,9.712467193603516,1.4356936216354368
208,5400.0,4.063012599945068,9.712467193603516,1.4356936216354368
209,5450.0,4.063012599945068,9.712467193603516,1.4356936216354368
210,5500.0,4.063012599945068,9.712467193603516,1.4356936216354368
211,5550.0,4.967499732971191,9.145368576049805,-1.428515076637268
212,5600.0,4.967499732971191,9.145368576049805,-1.428515076637268
213,5650.0,4.967499732971191,9.145368576049805,-1.428515076637268
214,5700.0,4.967499732971191,9.145368576049805,-1.428515076637268
215,5750.0,4.8095736503601065,6.501298904418945,-6.10169792175293
216,5800.0,4.8095736503601065,6.501298904418945,-6.10169792175293
217,5850.0,4.8095736503601065,6.501298904418945,-6.10169792175293
218,5900.0,4.8095736503601065,6.501298904418945,-6.10169792175293
219,5950.0,4.8095736503601065,6.501298904418945,-6.10169792175293
220,6000.0,2.71346116065979,10.676774978637695,-4.59421968460083
221,6050.0,2.71346116065979,10.676774978637695,-4.59421968460083
222,6100.0,2.71346116065979,10.676774978637695,-4.59421968460083
223,6150.0,2.71346116065979,10.676774978637695,-4.59421968460083
224,6200.0,8.389235496520996,1.9764715433120728,-7.030113220214844
225,6250.0,8.389235496520996,1.9764715433120728,-7.030113220214844
226,6300.0,8.389235496520996,1.9764715433120728,-7.030113220214844
227,6350.0,8.389235496520996,1.9764715433120728,-7.030113220214844
228,6400.0,8.389235496520996,1.9764715433120728,-7.030113220214844
229,6450.0,8.394021987915039,-0.6747759580612183,-7.963313579559326
230,6500.0,8.394021987915039,-0.6747759580612183,-7.963313579559326
231,6550.0,8.394021987915039,-0.6747759580612183,-7.963313579559326
232,6600.0,8.394021987915039,-0.6747759580612183,-7.963313579559326
233,6650.0,3.369094133377075,3.818945169448853,-7.262216091156006
234,6700.0,3.369094133377075,3.818945169448853,-7.262216091156006
235,6750.0,3.369094133377075,3.818945169448853,-7.262216091156006
236,6800.0,3.369094133377075,3.818945169448853,-7.262216091156006
237,6850.0,3.369094133377075,3.818945169448853,-7.262216091156006
238,6900.0,5.876771926879883,3.002992391586304,-7.365108013153076
239,6950.0,5.876771926879883,3.002992391586304,-7.365108013153076
240,6000.0,2.71346116065979,10.676774978637695,-4.59421968460083
241,6050.0,2.71346116065979,10.676774978637695,-4.59421968460083
242,6100.0,2.71346116065979,10.676774978637695,-4.59421968460083
243,6150.0,2.71346116065979,10.676774978637695,-4.59421968460083
244,6200.0,8.389235496520996,1.9764715433120728,-7.030113220214844
245,6250.0,8.389235496520996,1.9764715433120728,-7.030113220214844
246,6300.0,8.389235496520996,1.9764715433120728,-7.030113220214844
247,6350.0,8.389235496520996,1.9764715433120728,-7.030113220214844
248,6400.0,8.389235496520996,1.9764715433120728,-7.030113220214844
249,6450.0,8.394021987915039,-0.6747759580612183,-7.963313579559326
250,6500.0,8.394021987915039,-0.6747759580612183,-7.963313579559326
251,6550.0,8.394021987915039,-0.6747759580612183,-7.963313579559326
252,6600.0,8.394021987915039,-0.6747759580612183,-7.963313579559326
253,6650.0,3.369094133377075,3.818945169448853,-7.262216091156006
254,6700.0,3.369094133377075,3.818945169448853,-7.262216091156006
255,6750.0,3.369094133377075,3.818945169448853,-7.262216091156006
256,6800.0,3.369094133377075,3.818945169448853,-7.262216091156006
257,6850.0,3.369094133377075,3.818945169448853,-7.262216091156006
258,6900.0,5.876771926879883,3.002992391586304,-7.365108013153076
259,6950.0,5.876771926879883,3.002992391586304,-7.365108013153076
260,7000.0,5.876771926879883,3.002992391586304,-7.365108013153076
261,7050.0,5.876771926879883,3.002992391586304,-7.365108013153076
262,7100.0,11.274980545043945,-1.062413215637207,-5.950949668884277
263,7150.0,11.274980545043945,-1.062413215637207,-5.950949668884277
264,7200.0,11.274980545043945,-1.062413215637207,-5.950949668884277
265,7250.0,11.274980545043945,-1.062413215637207,-5.950949668884277
266,7300.0,11.274980545043945,-1.062413215637207,-5.950949668884277
267,7350.0,4.043870449066162,3.462414264678955,-11.121840476989746
268,7400.0,4.043870449066162,3.462414264678955,-11.121840476989746
269,7450.0,4.043870449066162,3.462414264678955,-11.121840476989746
270,7500.0,4.043870449066162,3.462414264678955,-11.121840476989746
271,7550.0,4.7712883949279785,-0.2392822504043579,-9.008977890014648
272,7600.0,4.7712883949279785,-0.2392822504043579,-9.008977890014648
273,7650.0,4.7712883949279785,-0.2392822504043579,-9.008977890014648
274,7700.0,4.7712883949279785,-0.2392822504043579,-9.008977890014648
275,7750.0,4.7712883949279785,-0.2392822504043579,-9.008977890014648
276,7800.0,4.541577339172363,5.8337016105651855,-8.755338668823242
277,7850.0,4.541577339172363,5.8337016105651855,-8.755338668823242
278,7900.0,4.541577339172363,5.8337016105651855,-8.755338668823242
279,7950.0,4.541577339172363,5.8337016105651855,-8.755338668823242
280,7000.0,5.876771926879883,3.002992391586304,-7.365108013153076
281,7050.0,5.876771926879883,3.002992391586304,-7.365108013153076
282,7100.0,11.274980545043945,-1.062413215637207,-5.950949668884277
283,7150.0,11.274980545043945,-1.062413215637207,-5.950949668884277
284,7200.0,11.274980545043945,-1.062413215637207,-5.950949668884277
285,7250.0,11.274980545043945,-1.062413215637207,-5.950949668884277
286,7300.0,11.274980545043945,-1.062413215637207,-5.950949668884277
287,7350.0,4.043870449066162,3.462414264678955,-11.121840476989746
288,7400.0,4.043870449066162,3.462414264678955,-11.121840476989746
289,7450.0,4.043870449066162,3.462414264678955,-11.121840476989746
290,7500.0,4.043870449066162,3.462414264678955,-11.121840476989746
291,7550.0,4.7712883949279785,-0.2392822504043579,-9.008977890014648
292,7600.0,4.7712883949279785,-0.2392822504043579,-9.008977890014648
293,7650.0,4.7712883949279785,-0.2392822504043579,-9.008977890014648
294,7700.0,4.7712883949279785,-0.2392822504043579,-9.008977890014648
295,7750.0,4.7712883949279785,-0.2392822504043579,-9.008977890014648
296,7800.0,4.541577339172363,5.8337016105651855,-8.755338668823242
297,7850.0,4.541577339172363,5.8337016105651855,-8.755338668823242
298,7900.0,4.541577339172363,5.8337016105651855,-8.755338668823242
299,7950.0,4.541577339172363,5.8337016105651855,-8.755338668823242
300,8000.0,4.541577339172363,5.8337016105651855,-8.755338668823242
301,8050.0,5.704488754272461,10.155139923095703,-0.5120640397071838
302,8100.0,5.704488754272461,10.155139923095703,-0.5120640397071838
303,8150.0,5.704488754272461,10.155139923095703,-0.5120640397071838
304,8200.0,5.704488754272461,10.155139923095703,-0.5120640397071838
305,8250.0,5.704488754272461,10.155139923095703,-0.5120640397071838
306,8300.0,5.493920803070068,7.17368221282959,-4.2041893005371085
307,8350.0,5.493920803070068,7.17368221282959,-4.2041893005371085
308,8400.0,5.493920803070068,7.17368221282959,-4.2041893005371085
309,8450.0,5.493920803070068,7.17368221282959,-4.2041893005371085
310,8500.0,4.512863159179688,8.178668022155763,0.7513462901115417
311,8550.0,4.512863159179688,8.178668022155763,0.7513462901115417
312,8600.0,4.512863159179688,8.178668022155763,0.7513462901115417
313,8650.0,4.512863159179688,8.178668022155763,0.7513462901115417
314,8700.0,4.512863159179688,8.178668022155763,0.7513462901115417
315,8750.0,5.465207099914551,6.082554817199707,-5.137389659881592
316,8800.0,5.465207099914551,6.082554817199707,-5.137389659881592
317,8850.0,5.465207099914551,6.082554817199707,-5.137389659881592
318,8900.0,5.465207099914551,6.082554817199707,-5.137389659881592
319,8950.0,5.608776092529297,6.817151546478272,-3.1274189949035645
320,8000.0,4.541577339172363,5.8337016105651855,-8.755338668823242
321,8050.0,5.704488754272461,10.155139923095703,-0.5120640397071838
322,8100.0,5.704488754272461,10.155139923095703,-0.5120640397071838
323,8150.0,5.704488754272461,10.155139923095703,-0.5120640397071838
324,8200.0,5.704488754272461,10.155139923095703,-0.5120640397071838
325,8250.0,5.704488754272461,10.155139923095703,-0.5120640397071838
326,8300.0,5.493920803070068,7.17368221282959,-4.2041893005371085
327,8350.0,5.493920803070068,7.17368221282959,-4.2041893005371085
328,8400.0,5.493920803070068,7.17368221282959,-4.2041893005371085
329,8450.0,5.493920803070068,7.17368221282959,-4.2041893005371085
330,8500.0,4.512863159179688,8.178668022155763,0.7513462901115417
331,8550.0,4.512863159179688,8.178668022155763,0.7513462901115417
332,8600.0,4.512863159179688,8.178668022155763,0.7513462901115417
333,8650.0,4.512863159179688,8.178668022155763,0.7513462901115417
334,8700.0,4.512863159179688,8.178668022155763,0.7513462901115417
335,8750.0,5.465207099914551,6.082554817199707,-5.137389659881592
336,8800.0,5.465207099914551,6.082554817199707,-5.137389659881592
337,8850.0,5.465207099914551,6.082554817199707,-5.137389659881592
338,8900.0,5.465207099914551,6.082554817199707,-5.137389659881592
339,8950.0,5.608776092529297,6.817151546478272,-3.1274189949035645
340,9000.0,5.608776092529297,6.817151546478272,-3.1274189949035645
341,9050.0,5.608776092529297,6.817151546478272,-3.1274189949035645
342,9100.0,5.608776092529297,6.817151546478272,-3.1274189949035645
343,9150.0,5.608776092529297,6.817151546478272,-3.1274189949035645
344,9200.0,3.8237307071685787,5.469992637634277,-6.795616626739503
345,9250.0,3.8237307071685787,5.469992637634277,-6.795616626739503
346,9300.0,3.8237307071685787,5.469992637634277,-6.795616626739503
347,9350.0,3.8237307071685787,5.469992637634277,-6.795616626739503
348,9400.0,3.8237307071685787,5.469992637634277,-6.795616626739503
349,9450.0,2.6464619636535645,5.546562671661377,-6.659225463867188
350,9500.0,2.6464619636535645,5.546562671661377,-6.659225463867188
351,9550.0,2.6464619636535645,5.546562671661377,-6.659225463867188
352,9600.0,2.6464619636535645,5.546562671661377,-6.659225463867188
353,9650.0,4.785645484924316,4.706681728363037,-4.8502516746521
354,9700.0,4.785645484924316,4.706681728363037,-4.8502516746521
355,9750.0,4.785645484924316,4.706681728363037,-4.8502516746521
356,9800.0,4.785645484924316,4.706681728363037,-4.8502516746521
357,9850.0,4.785645484924316,4.706681728363037,-4.8502516746521
358,9900.0,3.809373617172241,2.84506630897522,-7.563712120056152
359,9950.0,3.809373617172241,2.84506630897522,-7.563712120056152
360,9000.0,5.608776092529297,6.817151546478272,-3.1274189949035645
361,9050.0,5.608776092529297,6.817151546478272,-3.1274189949035645
362,9100.0,5.608776092529297,6.817151546478272,-3.1274189949035645
363,9150.0,5.608776092529297,6.817151546478272,-3.1274189949035645
364,9200.0,3.8237307071685787,5.469992637634277,-6.795616626739503
365,9250.0,3.8237307071685787,5.469992637634277,-6.795616626739503
366,9300.0,3.8237307071685787,5.469992637634277,-6.795616626739503
367,9350.0,3.8237307071685787,5.469992637634277,-6.795616626739503
368,9400.0,3.8237307071685787,5.469992637634277,-6.795616626739503
369,9450.0,2.6464619636535645,5.546562671661377,-6.659225463867188
370,9500.0,2.6464619636535645,5.546562671661377,-6.659225463867188
371,9550.0,2.6464619636535645,5.546562671661377,-6.659225463867188
372,9600.0,2.6464619636535645,5.546562671661377,-6.659225463867188
373,9650.0,4.785645484924316,4.706681728363037,-4.8502516746521
374,9700.0,4.785645484924316,4.706681728363037,-4.8502516746521
375,9750.0,4.785645484924316,4.706681728363037,-4.8502516746521
376,9800.0,4.785645484924316,4.706681728363037,-4.8502516746521
377,9850.0,4.785645484924316,4.706681728363037,-4.8502516746521
378,9900.0,3.809373617172241,2.84506630897522,-7.563712120056152
379,9950.0,3.809373617172241,2.84506630897522,-7.563712120056152
380,10000.0,3.809373617172241,2.84506630897522,-7.563712120056152
381,10050.0,3.809373617172241,2.84506630897522,-7.563712120056152
382,10100.0,3.809373617172241,2.84506630897522,-7.563712120056152
383,10150.0,6.867401123046875,-1.529013752937317,-5.357529640197754
384,10200.0,6.867401123046875,-1.529013752937317,-5.357529640197754
385,10250.0,6.867401123046875,-1.529013752937317,-5.357529640197754
386,10300.0,6.867401123046875,-1.529013752937317,-5.357529640197754
387,10350.0,5.824130058288574,-1.4021940231323242,-6.065804958343506
388,10400.0,5.824130058288574,-1.4021940231323242,-6.065804958343506
389,10450.0,5.824130058288574,-1.4021940231323242,-6.065804958343506
390,10500.0,5.824130058288574,-1.4021940231323242,-6.065804958343506
391,10550.0,6.077769756317139,1.519442439079285,-8.652446746826174
392,10600.0,6.077769756317139,1.519442439079285,-8.652446746826174
393,10650.0,6.077769756317139,1.519442439079285,-8.652446746826174
394,10700.0,6.077769756317139,1.519442439079285,-8.652446746826174
395,10750.0,1.4500504732131958,2.392822742462158,-10.693524360656738
396,10800.0,1.4500504732131958,2.392822742462158,-10.693524360656738
397,10850.0,1.4500504732131958,2.392822742462158,-10.693524360656738
398,10900.0,1.4500504732131958,2.392822742462158,-10.693524360656738
399,10950.0,1.4500504732131958,2.392822742462158,-10.693524360656738
400,10000.0,3.809373617172241,2.84506630897522,-7.563712120056152
401,10050.0,3.809373617172241,2.84506630897522,-7.563712120056152
402,10100.0,3.809373617172241,2.84506630897522,-7.563712120056152
403,10150.0,6.867401123046875,-1.529013752937317,-5.357529640197754
404,10200.0,6.867401123046875,-1.529013752937317,-5.357529640197754
405,10250.0,6.867401123046875,-1.529013752937317,-5.357529640197754
406,10300.0,6.867401123046875,-1.529013752937317,-5.357529640197754
407,10350.0,5.824130058288574,-1.4021940231323242,-6.065804958343506
408,10400.0,5.824130058288574,-1.4021940231323242,-6.065804958343506
409,10450.0,5.824130058288574,-1.4021940231323242,-6.065804958343506
410,10500.0,5.824130058288574,-1.4021940231323242,-6.065804958343506
411,10550.0,6.077769756317139,1.519442439079285,-8.652446746826174
412,10600.0,6.077769756317139,1.519442439079285,-8.652446746826174
413,10650.0,6.077769756317139,1.519442439079285,-8.652446746826174
414,10700.0,6.077769756317139,1.519442439079285,-8.652446746826174
415,10750.0,1.4500504732131958,2.392822742462158,-10.693524360656738
416,10800.0,1.4500504732131958,2.392822742462158,-10.693524360656738
417,10850.0,1.4500504732131958,2.392822742462158,-10.693524360656738
418,10900.0,1.4500504732131958,2.392822742462158,-10.693524360656738
419,10950.0,1.4500504732131958,2.392822742462158,-10.693524360656738
420,11000.0,8.504091262817383,2.526820659637451,-7.590033531188965
421,11050.0,8.504091262817383,2.526820659637451,-7.590033531188965
422,11100.0,8.504091262817383,2.526820659637451,-7.590033531188965
423,11150.0,8.504091262817383,2.526820659637451,-7.590033531188965
424,11200.0,8.504091262817383,2.526820659637451,-7.590033531188965
425,11250.0,5.2115678787231445,6.975078105926514,-5.264209270477295
426,11300.0,5.2115678787231445,6.975078105926514,-5.264209270477295
427,11350.0,5.2115678787231445,6.975078105926514,-5.264209270477295
428,11400.0,5.2115678787231445,6.975078105926514,-5.264209270477295
429,11450.0,3.483949899673462,7.637890338897705,-5.249853134155273
430,11500.0,3.483949899673462,7.637890338897705,-5.249853134155273
431,11550.0,3.483949899673462,7.637890338897705,-5.249853134155273
432,11600.0,3.483949899673462,7.637890338897705,-5.249853134155273
433,11650.0,3.483949899673462,7.637890338897705,-5.249853134155273
434,11700.0,4.25922441482544,2.3856441974639893,-6.86261510848999
435,11750.0,4.25922441482544,2.3856441974639893,-6.86261510848999
436,11800.0,4.25922441482544,2.3856441974639893,-6.86261510848999
437,11850.0,4.25922441482544,2.3856441974639893,-6.86261510848999
438,11900.0,4.25922441482544,2.3856441974639893,-6.86261510848999
439,11950.0,7.465606689453125,-3.5820553302764893,-9.377471923828123
440,11000.0,8.504091262817383,2.526820659637451,-7.590033531188965
441,11050.0,8.504091262817383,2.526820659637451,-7.590033531188965
442,11100.0,8.504091262817383,2.526820659637451,-7.590033531188965
443,11150.0,8.504091262817383,2.526820659637451,-7.590033531188965
444,11200.0,8.504091262817383,2.526820659637451,-7.590033531188965
445,11250.0,5.2115678787231445,6.975078105926514,-5.264209270477295
446,11300.0,5.2115678787231445,6.975078105926514,-5.264209270477295
447,11350.0,5.2115678787231445,6.975078105926514,-5.264209270477295
448,11400.0,5.2115678787231445,6.975078105926514,-5.264209270477295
449,11450.0,3.483949899673462,7.637890338897705,-5.249853134155273
450,11500.0,3.483949899673462,7.637890338897705,-5.249853134155273
451,11550.0,3.483949899673462,7.637890338897705,-5.249853134155273
452,11600.0,3.483949899673462,7.637890338897705,-5.249853134155273
453,11650.0,3.483949899673462,7.637890338897705,-5.249853134155273
454,11700.0,4.25922441482544,2.3856441974639893,-6.86261510848999
455,11750.0,4.25922441482544,2.3856441974639893,-6.86261510848999
456,11800.0,4.25922441482544,2.3856441974639893,-6.86261510848999
457,11850.0,4.25922441482544,2.3856441974639893,-6.86261510848999
458,11900.0,4.25922441482544,2.3856441974639893,-6.86261510848999
459,11950.0,7.465606689453125,-3.5820553302764893,-9.377471923828123
460,12000.0,7.465606689453125,-3.5820553302764893,-9.377471923828123
461,12050.0,7.465606689453125,-3.5820553302764893,-9.377471923828123
462,12100.0,7.465606689453125,-3.5820553302764893,-9.377471923828123
463,12150.0,4.95792818069458,2.885744333267212,-8.350951194763184
464,12200.0,4.95792818069458,2.885744333267212,-8.350951194763184
465,12250.0,4.95792818069458,2.885744333267212,-8.350951194763184
466,12300.0,4.95792818069458,2.885744333267212,-8.350951194763184
467,12350.0,4.95792818069458,2.885744333267212,-8.350951194763184
468,12400.0,6.120840072631836,0.4666004180908203,-8.030312538146973
469,12450.0,6.120840072631836,0.4666004180908203,-8.030312538146973
470,12500.0,6.120840072631836,0.4666004180908203,-8.030312538146973
471,12550.0,6.120840072631836,0.4666004180908203,-8.030312538146973
472,12600.0,6.120840072631836,0.4666004180908203,-8.030312538146973
473,12650.0,5.800201892852782,-0.3708875179290772,-7.738388061523437
474,12700.0,5.800201892852782,-0.3708875179290772,-7.738388061523437
475,12750.0,5.800201892852782,-0.3708875179290772,-7.738388061523437
476,12800.0,5.800201892852782,-0.3708875179290772,-7.738388061523437
477,12850.0,5.962913990020753,-1.2514461278915403,-8.408378601074219
478,12900.0,5.962913990020753,-1.2514461278915403,-8.408378601074219
479,12950.0,5.962913990020753,-1.2514461278915403,-8.408378601074219
480,12000.0,7.465606689453125,-3.5820553302764893,-9.377471923828123
481,12050.0,7.465606689453125,-3.5820553302764893,-9.377471923828123
482,12100.0,7.465606689453125,-3.5820553302764893,-9.377471923828123
483,12150.0,4.95792818069458,2.885744333267212,-8.350951194763184
484,12200.0,4.95792818069458,2.885744333267212,-8.350951194763184
485,12250.0,4.95792818069458,2.885744333267212,-8.350951194763184
486,12300.0,4.95792818069458,2.885744333267212,-8.350951194763184
487,12350.0,4.95792818069458,2.885744333267212,-8.350951194763184
488,12400.0,6.120840072631836,0.4666004180908203,-8.030312538146973
489,12450.0,6.120840072631836,0.4666004180908203,-8.030312538146973
490,12500.0,6.120840072631836,0.4666004180908203,-8.030312538146973
491,12550.0,6.120840072631836,0.4666004180908203,-8.030312538146973
492,12600.0,6.120840072631836,0.4666004180908203,-8.030312538146973
493,12650.0,5.800201892852782,-0.3708875179290772,-7.738388061523437
494,12700.0,5.800201892852782,-0.3708875179290772,-7.738388061523437
495,12750.0,5.800201892852782,-0.3708875179290772,-7.738388061523437
496,12800.0,5.800201892852782,-0.3708875179290772,-7.738388061523437
497,12850.0,5.962913990020753,-1.2514461278915403,-8.408378601074219
498,12900.0,5.962913990020753,-1.2514461278915403,-8.408378601074219
499,12950.0,5.962913990020753,-1.2514461278915403,-8.408378601074219
500,13000.0,5.962913990020753,-1.2514461278915403,-8.408378601074219
501,13050.0,5.962913990020753,-1.2514461278915403,-8.408378601074219
502,13100.0,4.862215518951416,0.15314064919948578,-6.013163089752197
503,13150.0,4.862215518951416,0.15314064919948578,-6.013163089752197
504,13200.0,4.862215518951416,0.15314064919948578,-6.013163089752197
505,13250.0,4.862215518951416,0.15314064919948578,-6.013163089752197
506,13300.0,5.130211353302002,-1.4572290182113647,-8.193024635314941
507,13350.0,5.130211353302002,-1.4572290182113647,-8.193024635314941
508,13400.0,5.130211353302002,-1.4572290182113647,-8.193024635314941
509,13450.0,5.130211353302002,-1.4572290182113647,-8.193024635314941
510,13500.0,5.130211353302002,-1.4572290182113647,-8.193024635314941
511,13550.0,6.422336101531982,-0.8135597109794617,-7.831708431243896
512,13600.0,6.422336101531982,-0.8135597109794617,-7.831708431243896
513,13650.0,6.422336101531982,-0.8135597109794617,-7.831708431243896
514,13700.0,6.422336101531982,-0.8135597109794617,-7.831708431243896
515,13750.0,6.422336101531982,-0.8135597109794617,-7.831708431243896
516,13800.0,6.340980052947997,0.01914258114993572,-6.9511494636535645
517,13850.0,6.340980052947997,0.01914258114993572,-6.9511494636535645
518,13900.0,6.340980052947997,0.01914258114993572,-6.9511494636535645
519,13950.0,6.340980052947997,0.01914258114993572,-6.9511494636535645
520,13000.0,5.962913990020753,-1.2514461278915403,-8.408378601074219
521,13050.0,5.962913990020753,-1.2514461278915403,-8.408378601074219
522,13100.0,4.862215518951416,0.15314064919948578,-6.013163089752197
523,13150.0,4.862215518951416,0.15314064919948578,-6.013163089752197
524,13200.0,4.862215518951416,0.15314064919948578,-6.013163089752197
525,13250.0,4.862215518951416,0.15314064919948578,-6.013163089752197
526,13300.0,5.130211353302002,-1.4572290182113647,-8.193024635314941
527,13350.0,5.130211353302002,-1.4572290182113647,-8.193024635314941
528,13400.0,5.130211353302002,-1.4572290182113647,-8.193024635314941
529,13450.0,5.130211353302002,-1.4572290182113647,-8.193024635314941
530,13500.0,5.130211353302002,-1.4572290182113647,-8.193024635314941
531,13550.0,6.422336101531982,-0.8135597109794617,-7.831708431243896
532,13600.0,6.422336101531982,-0.8135597109794617,-7.831708431243896
533,13650.0,6.422336101531982,-0.8135597109794617,-7.831708431243896
534,13700.0,6.422336101531982,-0.8135597109794617,-7.831708431243896
535,13750.0,6.422336101531982,-0.8135597109794617,-7.831708431243896
536,13800.0,6.340980052947997,0.01914258114993572,-6.9511494636535645
537,13850.0,6.340980052947997,0.01914258114993572,-6.9511494636535645
538,13900.0,6.340980052947997,0.01914258114993572,-6.9511494636535645
539,13950.0,6.340980052947997,0.01914258114993572,-6.9511494636535645
540,14000.0,6.340980052947997,0.01914258114993572,-6.9511494636535645
541,14050.0,3.742374420166016,-0.7657032012939453,-7.192824840545653
542,14100.0,3.742374420166016,-0.7657032012939453,-7.192824840545653
543,14150.0,3.742374420166016,-0.7657032012939453,-7.192824840545653
544,14200.0,3.742374420166016,-0.7657032012939453,-7.192824840545653
545,14250.0,3.742374420166016,-0.7657032012939453,-7.192824840545653
546,14300.0,7.479963302612305,1.428515076637268,-8.094919204711914
547,14350.0,7.479963302612305,1.428515076637268,-8.094919204711914
548,14400.0,7.479963302612305,1.428515076637268,-8.094919204711914
549,14450.0,7.479963302612305,1.428515076637268,-8.094919204711914
550,14500.0,4.584648132324219,0.3756731450557709,-6.252446174621582
551,14550.0,4.584648132324219,0.3756731450557709,-6.252446174621582
552,14600.0,4.584648132324219,0.3756731450557709,-6.252446174621582
553,14650.0,4.584648132324219,0.3756731450557709,-6.252446174621582
554,14700.0,4.584648132324219,0.3756731450557709,-6.252446174621582
555,14750.0,4.584648132324219,0.3756731450557709,-6.252446174621582
556,14800.0,10.078569412231444,-0.22492533922195435,-7.520641803741455
557,14850.0,10.078569412231444,-0.22492533922195435,-7.520641803741455
558,14900.0,10.078569412231444,-0.22492533922195435,-7.520641803741455
559,14950.0,10.078569412231444,-0.22492533922195435,-7.520641803741455
560,14000.0,6.340980052947997,0.01914258114993572,-6.9511494636535645
561,14050.0,3.742374420166016,-0.7657032012939453,-7.192824840545653
562,14100.0,3.742374420166016,-0.7657032012939453,-7.192824840545653
563,14150.0,3.742374420166016,-0.7657032012939453,-7.192824840545653
564,14200.0,3.742374420166016,-0.7657032012939453,-7.192824840545653
565,14250.0,3.742374420166016,-0.7657032012939453,-7.192824840545653
566,14300.0,7.479963302612305,1.428515076637268,-8.094919204711914
567,14350.0,7.479963302612305,1.428515076637268,-8.094919204711914
568,14400.0,7.479963302612305,1.428515076637268,-8.094919204711914
569,14450.0,7.479963302612305,1.428515076637268,-8.094919204711914
570,14500.0,4.584648132324219,0.3756731450557709,-6.252446174621582
571,14550.0,4.584648132324219,0.3756731450557709,-6.252446174621582
572,14600.0,4.584648132324219,0.3756731450557709,-6.252446174621582
573,14650.0,4.584648132324219,0.3756731450557709,-6.252446174621582
574,14700.0,4.584648132324219,0.3756731450557709,-6.252446174621582
575,14750.0,4.584648132324219,0.3756731450557709,-6.252446174621582
576,14800.0,10.078569412231444,-0.22492533922195435,-7.520641803741455
577,14850.0,10.078569412231444,-0.22492533922195435,-7.520641803741455
578,14900.0,10.078569412231444,-0.22492533922195435,-7.520641803741455
579,14950.0,10.078569412231444,-0.22492533922195435,-7.520641803741455
580,15000.0,10.078569412231444,-0.22492533922195435,-7.520641803741455
581,15050.0,7.097111701965332,1.9046868085861208,-6.3290162086486825
582,15100.0,7.097111701965332,1.9046868085861208,-6.3290162086486825
583,15150.0,7.097111701965332,1.9046868085861208,-6.3290162086486825
584,15200.0,7.097111701965332,1.9046868085861208,-6.3290162086486825
585,15250.0,6.522834300994872,2.6081764698028564,-7.855636119842528
586,15300.0,6.522834300994872,2.6081764698028564,-7.855636119842528
587,15350.0,6.522834300994872,2.6081764698028564,-7.855636119842528
588,15400.0,6.522834300994872,2.6081764698028564,-7.855636119842528
589,15450.0,5.288137912750244,5.568098068237305,-5.182853698730469
590,15500.0,5.288137912750244,5.568098068237305,-5.182853698730469
591,15550.0,5.288137912750244,5.568098068237305,-5.182853698730469
592,15600.0,5.288137912750244,5.568098068237305,-5.182853698730469
593,15650.0,5.288137912750244,5.568098068237305,-5.182853698730469
594,15700.0,7.058826446533202,7.613961696624756,-4.8502516746521
595,15750.0,7.058826446533202,7.613961696624756,-4.8502516746521
596,15800.0,7.058826446533202,7.613961696624756,-4.8502516746521
597,15850.0,7.058826446533202,7.613961696624756,-4.8502516746521
598,15900.0,7.058826446533202,7.613961696624756,-4.8502516746521
599,15950.0,6.599405288696289,3.0077781677246094,-6.111269474029541
600,15000.0,10.078569412231444,-0.22492533922195435,-7.520641803741455
601,15050.0,7.097111701965332,1.9046868085861208,-6.3290162086486825
602,15100.0,7.097111701965332,1.9046868085861208,-6.3290162086486825
603,15150.0,7.097111701965332,1.9046868085861208,-6.3290162086486825
604,15200.0,7.097111701965332,1.9046868085861208,-6.3290162086486825
605,15250.0,6.522834300994872,2.6081764698028564,-7.855636119842528
606,15300.0,6.522834300994872,2.6081764698028564,-7.855636119842528
607,15350.0,6.522834300994872,2.6081764698028564,-7.855636119842528
608,15400.0,6.522834300994872,2.6081764698028564,-7.855636119842528
609,15450.0,5.288137912750244,5.568098068237305,-5.182853698730469
610,15500.0,5.288137912750244,5.568098068237305,-5.182853698730469
611,15550.0,5.288137912750244,5.568098068237305,-5.182853698730469
612,15600.0,5.288137912750244,5.568098068237305,-5.182853698730469
613,15650.0,5.288137912750244,5.568098068237305,-5.182853698730469
614,15700.0,7.058826446533202,7.613961696624756,-4.8502516746521
615,15750.0,7.058826446533202,7.613961696624756,-4.8502516746521
616,15800.0,7.058826446533202,7.613961696624756,-4.8502516746521
617,15850.0,7.058826446533202,7.613961696624756,-4.8502516746521
618,15900.0,7.058826446533202,7.613961696624756,-4.8502516746521
619,15950.0,6.599405288696289,3.0077781677246094,-6.111269474029541
620,16000.0,6.599405288696289,3.0077781677246094,-6.111269474029541
621,16050.0,6.599405288696289,3.0077781677246094,-6.111269474029541
622,16100.0,6.599405288696289,3.0077781677246094,-6.111269474029541
623,16150.0,4.5750770568847665,6.269195556640625,-6.16391134262085
624,16200.0,4.5750770568847665,6.269195556640625,-6.16391134262085
625,16250.0,4.5750770568847665,6.269195556640625,-6.16391134262085
626,16300.0,4.5750770568847665,6.269195556640625,-6.16391134262085
627,16350.0,4.5750770568847665,6.269195556640625,-6.16391134262085
628,16400.0,7.020541667938232,1.2634103298187256,-8.133204460144043
629,16450.0,7.020541667938232,1.2634103298187256,-8.133204460144043
630,16500.0,7.020541667938232,1.2634103298187256,-8.133204460144043
631,16550.0,7.020541667938232,1.2634103298187256,-8.133204460144043
632,16600.0,7.020541667938232,1.2634103298187256,-8.133204460144043
633,16650.0,5.134997367858887,5.460421085357666,-4.709074974060059
634,16700.0,5.134997367858887,5.460421085357666,-4.709074974060059
635,16750.0,5.134997367858887,5.460421085357666,-4.709074974060059
636,16800.0,5.134997367858887,5.460421085357666,-4.709074974060059
637,16850.0,4.225724697113037,5.7403812408447275,-5.474778175354004
638,16900.0,4.225724697113037,5.7403812408447275,-5.474778175354004
639,16950.0,4.225724697113037,5.7403812408447275,-5.474778175354004
640,16000.0,6.599405288696289,3.0077781677246094,-6.111269474029541
641,16050.0,6.599405288696289,3.0077781677246094,-6.111269474029541
642,16100.0,6.599405288696289,3.0077781677246094,-6.111269474029541
643,16150.0,4.5750770568847665,6.269195556640625,-6.16391134262085
644,16200.0,4.5750770568847665,6.269195556640625,-6.16391134262085
645,16250.0,4.5750770568847665,6.269195556640625,-6.16391134262085
646,16300.0,4.5750770568847665,6.269195556640625,-6.16391134262085
647,16350.0,4.5750770568847665,6.269195556640625,-6.16391134262085
648,16400.0,7.020541667938232,1.2634103298187256,-8.133204460144043
649,16450.0,7.020541667938232,1.2634103298187256,-8.133204460144043
650,16500.0,7.020541667938232,1.2634103298187256,-8.133204460144043
651,16550.0,7.020541667938232,1.2634103298187256,-8.133204460144043
652,16600.0,7.020541667938232,1.2634103298187256,-8.133204460144043
653,16650.0,5.134997367858887,5.460421085357666,-4.709074974060059
654,16700.0,5.134997367858887,5.460421085357666,-4.709074974060059
655,16750.0,5.134997367858887,5.460421085357666,-4.709074974060059
656,16800.0,5.134997367858887,5.460421085357666,-4.709074974060059
657,16850.0,4.225724697113037,5.7403812408447275,-5.474778175354004
658,16900.0,4.225724697113037,5.7403812408447275,-5.474778175354004
659,16950.0,4.225724697113037,5.7403812408447275,-5.474778175354004
660,17000.0,4.225724697113037,5.7403812408447275,-5.474778175354004
661,17050.0,3.962514162063599,8.025527954101562,-4.072584152221681
662,17100.0,3.962514162063599,8.025527954101562,-4.072584152221681
663,17150.0,3.962514162063599,8.025527954101562,-4.072584152221681
664,17200.0,3.962514162063599,8.025527954101562,-4.072584152221681
665,17250.0,3.962514162063599,8.025527954101562,-4.072584152221681
666,17300.0,3.531806230545044,3.2973096370697017,-6.31944465637207
667,17350.0,3.531806230545044,3.2973096370697017,-6.31944465637207
668,17400.0,3.531806230545044,3.2973096370697017,-6.31944465637207
669,17450.0,3.531806230545044,3.2973096370697017,-6.31944465637207
670,17500.0,3.531806230545044,3.2973096370697017,-6.31944465637207
671,17550.0,3.531806230545044,3.2973096370697017,-6.31944465637207
672,17600.0,4.436293125152588,6.183053970336914,-7.690531730651855
673,17650.0,4.436293125152588,6.183053970336914,-7.690531730651855
674,17700.0,4.436293125152588,6.183053970336914,-7.690531730651855
675,17750.0,4.436293125152588,6.183053970336914,-7.690531730651855
676,17800.0,4.436293125152588,6.183053970336914,-7.690531730651855
677,17850.0,7.379465103149414,12.067005157470705,-0.7561319470405579
678,17900.0,7.379465103149414,12.067005157470705,-0.7561319470405579
679,17950.0,7.379465103149414,12.067005157470705,-0.7561319470405579
680,17000.0,4.225724697113037,5.7403812408447275,-5.474778175354004
681,17050.0,3.962514162063599,8.025527954101562,-4.072584152221681
682,17100.0,3.962514162063599,8.025527954101562,-4.072584152221681
683,17150.0,3.962514162063599,8.025527954101562,-4.072584152221681
684,17200.0,3.962514162063599,8.025527954101562,-4.072584152221681
685,17250.0,3.962514162063599,8.025527954101562,-4.072584152221681
686,17300.0,3.531806230545044,3.2973096370697017,-6.31944465637207
687,17350.0,3.531806230545044,3.2973096370697017,-6.31944465637207
688,17400.0,3.531806230545044,3.2973096370697017,-6.31944465637207
689,17450.0,3.531806230545044,3.2973096370697017,-6.31944465637207
690,17500.0,3.531806230545044,3.2973096370697017,-6.31944465637207
691,17550.0,3.531806230545044,3.2973096370697017,-6.31944465637207
692,17600.0,4.436293125152588,6.183053970336914,-7.690531730651855
693,17650.0,4.436293125152588,6.183053970336914,-7.690531730651855
694,17700.0,4.436293125152588,6.183053970336914,-7.690531730651855
695,17750.0,4.436293125152588,6.183053970336914,-7.690531730651855
696,17800.0,4.436293125152588,6.183053970336914,-7.690531730651855
697,17850.0,7.379465103149414,12.067005157470705,-0.7561319470405579
698,17900.0,7.379465103149414,12.067005157470705,-0.7561319470405579
699,17950.0,7.379465103149414,12.067005157470705,-0.7561319470405579
700,18000.0,7.379465103149414,12.067005157470705,-0.7561319470405579
701,18050.0,2.0243279933929443,5.134997367858887,-5.429314613342285
702,18100.0,2.0243279933929443,5.134997367858887,-5.429314613342285
703,18150.0,2.0243279933929443,5.134997367858887,-5.429314613342285
704,18200.0,2.0243279933929443,5.134997367858887,-5.429314613342285
705,18250.0,2.0243279933929443,5.134997367858887,-5.429314613342285
706,18300.0,5.398207664489746,2.7278177738189697,-7.183253765106201
707,18350.0,5.398207664489746,2.7278177738189697,-7.183253765106201
708,18400.0,5.398207664489746,2.7278177738189697,-7.183253765106201
709,18450.0,5.398207664489746,2.7278177738189697,-7.183253765106201
710,18500.0,5.398207664489746,2.7278177738189697,-7.183253765106201
711,18550.0,3.2829525470733643,4.88853645324707,-8.025527954101562
712,18600.0,3.2829525470733643,4.88853645324707,-8.025527954101562
713,18650.0,3.2829525470733643,4.88853645324707,-8.025527954101562
714,18700.0,3.2829525470733643,4.88853645324707,-8.025527954101562
715,18750.0,3.2829525470733643,4.88853645324707,-8.025527954101562
716,18800.0,6.0394840240478525,8.784051895141603,-3.4480574131011963
717,18850.0,6.0394840240478525,8.784051895141603,-3.4480574131011963
718,18900.0,6.0394840240478525,8.784051895141603,-3.4480574131011963
719,18950.0,6.0394840240478525,8.784051895141603,-3.4480574131011963
720,18000.0,7.379465103149414,12.067005157470705,-0.7561319470405579
721,18050.0,2.0243279933929443,5.134997367858887,-5.429314613342285
722,18100.0,2.0243279933929443,5.134997367858887,-5.429314613342285
723,18150.0,2.0243279933929443,5.134997367858887,-5.429314613342285
724,18200.0,2.0243279933929443,5.134997367858887,-5.429314613342285
725,18250.0,2.0243279933929443,5.134997367858887,-5.429314613342285
726,18300.0,5.398207664489746,2.7278177738189697,-7.183253765106201
727,18350.0,5.398207664489746,2.7278177738189697,-7.183253765106201
728,18400.0,5.398207664489746,2.7278177738189697,-7.183253765106201
729,18450.0,5.398207664489746,2.7278177738189697,-7.183253765106201
730,18500.0,5.398207664489746,2.7278177738189697,-7.183253765106201
731,18550.0,3.2829525470733643,4.88853645324707,-8.025527954101562
732,18600.0,3.2829525470733643,4.88853645324707,-8.025527954101562
733,18650.0,3.2829525470733643,4.88853645324707,-8.025527954101562
734,18700.0,3.2829525470733643,4.88853645324707,-8.025527954101562
735,18750.0,3.2829525470733643,4.88853645324707,-8.025527954101562
736,18800.0,6.0394840240478525,8.784051895141603,-3.4480574131011963
737,18850.0,6.0394840240478525,8.784051895141603,-3.4480574131011963
738,18900.0,6.0394840240478525,8.784051895141603,-3.4480574131011963
739,18950.0,6.0394840240478525,8.784051895141603,-3.4480574131011963
740,19000.0,7.28375244140625,8.908478736877441,-1.6917256116867063
741,19050.0,7.28375244140625,8.908478736877441,-1.6917256116867063
742,19100.0,7.28375244140625,8.908478736877441,-1.6917256116867063
743,19150.0,7.28375244140625,8.908478736877441,-1.6917256116867063
744,19200.0,0.9523434042930604,1.584048628807068,-5.3359947204589835
745,19250.0,0.9523434042930604,1.584048628807068,-5.3359947204589835
746,19300.0,0.9523434042930604,1.584048628807068,-5.3359947204589835
747,19350.0,0.9523434042930604,1.584048628807068,-5.3359947204589835
748,19400.0,0.9523434042930604,1.584048628807068,-5.3359947204589835
749,19450.0,1.5649060010910034,0.19142580032348636,-4.969892501831055
750,19500.0,1.5649060010910034,0.19142580032348636,-4.969892501831055
751,19550.0,1.5649060010910034,0.19142580032348636,-4.969892501831055
752,19600.0,1.5649060010910034,0.19142580032348636,-4.969892501831055
753,19650.0,4.479363918304443,1.730010747909546,-8.71466064453125
754,19700.0,4.479363918304443,1.730010747909546,-8.71466064453125
755,19750.0,4.479363918304443,1.730010747909546,-8.71466064453125
756,19800.0,4.479363918304443,1.730010747909546,-8.71466064453125
757,19850.0,6.489335060119629,3.414557933807373,-6.6831536293029785
758,19900.0,6.489335060119629,3.414557933807373,-6.6831536293029785
759,19950.0,6.489335060119629,3.414557933807373,-6.6831536293029785
760,19000.0,7.28375244140625,8.908478736877441,-1.6917256116867063
761,19050.0,7.28375244140625,8.908478736877441,-1.6917256116867063
762,19100.0,7.28375244140625,8.908478736877441,-1.6917256116867063
763,19150.0,7.28375244140625,8.908478736877441,-1.6917256116867063
764,19200.0,0.9523434042930604,1.584048628807068,-5.3359947204589835
765,19250.0,0.9523434042930604,1.584048628807068,-5.3359947204589835
766,19300.0,0.9523434042930604,1.584048628807068,-5.3359947204589835
767,19350.0,0.9523434042930604,1.584048628807068,-5.3359947204589835
768,19400.0,0.9523434042930604,1.584048628807068,-5.3359947204589835
769,19450.0,1.5649060010910034,0.19142580032348636,-4.969892501831055
770,19500.0,1.5649060010910034,0.19142580032348636,-4.969892501831055
771,19550.0,1.5649060010910034,0.19142580032348636,-4.969892501831055
772,19600.0,1.5649060010910034,0.19142580032348636,-4.969892501831055
773,19650.0,4.479363918304443,1.730010747909546,-8.71466064453125
774,19700.0,4.479363918304443,1.730010747909546,-8.71466064453125
775,19750.0,4.479363918304443,1.730010747909546,-8.71466064453125
776,19800.0,4.479363918304443,1.730010747909546,-8.71466064453125
777,19850.0,6.489335060119629,3.414557933807373,-6.6831536293029785
778,19900.0,6.489335060119629,3.414557933807373,-6.6831536293029785
779,19950.0,6.489335060119629,3.414557933807373,-6.6831536293029785
780,20000.0,6.489335060119629,3.414557933807373,-6.6831536293029785
781,20050.0,6.489335060119629,3.414557933807373,-6.6831536293029785
782,20100.0,8.317451477050781,3.081955671310425,-6.013163089752197
783,20150.0,8.317451477050781,3.081955671310425,-6.013163089752197
784,20200.0,8.317451477050781,3.081955671310425,-6.013163089752197
785,20250.0,8.317451477050781,3.081955671310425,-6.013163089752197
786,20300.0,8.317451477050781,3.081955671310425,-6.013163089752197
787,20350.0,5.560920238494873,4.831109046936035,-8.915657043457031
788,20400.0,5.560920238494873,4.831109046936035,-8.915657043457031
789,20450.0,5.560920238494873,4.831109046936035,-8.915657043457031
790,20500.0,5.560920238494873,4.831109046936035,-8.915657043457031
791,20550.0,2.3162522315979004,5.855237007141112,-8.214560508728027
792,20600.0,2.3162522315979004,5.855237007141112,-8.214560508728027
793,20650.0,2.3162522315979004,5.855237007141112,-8.214560508728027
794,20700.0,2.3162522315979004,5.855237007141112,-8.214560508728027
795,20750.0,2.3162522315979004,5.855237007141112,-8.214560508728027
796,20800.0,0.6173481941223145,5.9342002868652335,-4.048655986785889
797,20850.0,0.6173481941223145,5.9342002868652335,-4.048655986785889
798,20900.0,0.6173481941223145,5.9342002868652335,-4.048655986785889
799,20950.0,0.6173481941223145,5.9342002868652335,-4.048655986785889
800,20000.0,6.489335060119629,3.414557933807373,-6.6831536293029785
801,20050.0,6.489335060119629,3.414557933807373,-6.6831536293029785
802,20100.0,8.317451477050781,3.081955671310425,-6.013163089752197
803,20150.0,8.317451477050781,3.081955671310425,-6.013163089752197
804,20200.0,8.317451477050781,3.081955671310425,-6.013163089752197
805,20250.0,8.317451477050781,3.081955671310425,-6.013163089752197
806,20300.0,8.317451477050781,3.081955671310425,-6.013163089752197
807,20350.0,5.560920238494873,4.831109046936035,-8.915657043457031
808,20400.0,5.560920238494873,4.831109046936035,-8.915657043457031
809,20450.0,5.560920238494873,4.831109046936035,-8.915657043457031
810,20500.0,5.560920238494873,4.831109046936035,-8.915657043457031
811,20550.0,2.3162522315979004,5.855237007141112,-8.214560508728027
812,20600.0,2.3162522315979004,5.855237007141112,-8.214560508728027
813,20650.0,2.3162522315979004,5.855237007141112,-8.214560508728027
814,20700.0,2.3162522315979004,5.855237007141112,-8.214560508728027
815,20750.0,2.3162522315979004,5.855237007141112,-8.214560508728027
816,20800.0,0.6173481941223145,5.9342002868652335,-4.048655986785889
817,20850.0,0.6173481941223145,5.9342002868652335,-4.048655986785889
818,20900.0,0.6173481941223145,5.9342002868652335,-4.048655986785889
819,20950.0,0.6173481941223145,5.9342002868652335,-4.048655986785889
820,21000.0,-0.9427721500396729,6.946363925933838,-6.6831536293029785
821,21050.0,-0.9427721500396729,6.946363925933838,-6.6831536293029785
822,21100.0,-0.9427721500396729,6.946363925933838,-6.6831536293029785
823,21150.0,-0.9427721500396729,6.946363925933838,-6.6831536293029785
824,21200.0,-0.9427721500396729,6.946363925933838,-6.6831536293029785
825,21250.0,-0.6556334495544434,6.137589931488037,-6.886543273925781
826,21300.0,-0.6556334495544434,6.137589931488037,-6.886543273925781
827,21350.0,-0.6556334495544434,6.137589931488037,-6.886543273925781
828,21400.0,-0.6556334495544434,6.137589931488037,-6.886543273925781
829,21450.0,-4.043870449066162,7.609175682067871,-7.915457248687744
830,21500.0,-4.043870449066162,7.609175682067871,-7.915457248687744
831,21550.0,-4.043870449066162,7.609175682067871,-7.915457248687744
832,21600.0,-4.043870449066162,7.609175682067871,-7.915457248687744
833,21650.0,-4.043870449066162,7.609175682067871,-7.915457248687744
834,21700.0,-7.795816421508789,3.4360933303833012,-3.2853453159332275
835,21750.0,-7.795816421508789,3.4360933303833012,-3.2853453159332275
836,21800.0,-7.795816421508789,3.4360933303833012,-3.2853453159332275
837,21850.0,-7.795816421508789,3.4360933303833012,-3.2853453159332275
838,21900.0,-7.795816421508789,3.4360933303833012,-3.2853453159332275
839,21950.0,-1.191625714302063,4.666004180908203,-3.967299938201904
840,21000.0,-0.9427721500396729,6.946363925933838,-6.6831536293029785
841,21050.0,-0.9427721500396729,6.946363925933838,-6.6831536293029785
842,21100.0,-0.9427721500396729,6.946363925933838,-6.6831536293029785
843,21150.0,-0.9427721500396729,6.946363925933838,-6.6831536293029785
844,21200.0,-0.9427721500396729,6.946363925933838,-6.6831536293029785
845,21250.0,-0.6556334495544434,6.137589931488037,-6.886543273925781
846,21300.0,-0.6556334495544434,6.137589931488037,-6.886543273925781
847,21350.0,-0.6556334495544434,6.137589931488037,-6.886543273925781
848,21400.0,-0.6556334495544434,6.137589931488037,-6.886543273925781
849,21450.0,-4.043870449066162,7.609175682067871,-7.915457248687744
850,21500.0,-4.043870449066162,7.609175682067871,-7.915457248687744
851,21550.0,-4.043870449066162,7.609175682067871,-7.915457248687744
852,21600.0,-4.043870449066162,7.609175682067871,-7.915457248687744
853,21650.0,-4.043870449066162,7.609175682067871,-7.915457248687744
854,21700.0,-7.795816421508789,3.4360933303833012,-3.2853453159332275
855,21750.0,-7.795816421508789,3.4360933303833012,-3.2853453159332275
856,21800.0,-7.795816421508789,3.4360933303833012,-3.2853453159332275
857,21850.0,-7.795816421508789,3.4360933303833012,-3.2853453159332275
858,21900.0,-7.795816421508789,3.4360933303833012,-3.2853453159332275
859,21950.0,-1.191625714302063,4.666004180908203,-3.967299938201904
860,22000.0,-1.191625714302063,4.666004180908203,-3.967299938201904
861,22050.0,-1.191625714302063,4.666004180908203,-3.967299938201904
862,22100.0,-1.191625714302063,4.666004180908203,-3.967299938201904
863,22150.0,3.1824538707733154,1.057627558708191,-7.917850017547607
864,22200.0,3.1824538707733154,1.057627558708191,-7.917850017547607
865,22250.0,3.1824538707733154,1.057627558708191,-7.917850017547607
866,22300.0,3.1824538707733154,1.057627558708191,-7.917850017547607
867,22350.0,3.1824538707733154,1.057627558708191,-7.917850017547607
868,22400.0,9.944571495056152,-1.423729419708252,-9.535398483276367
869,22450.0,9.944571495056152,-1.423729419708252,-9.535398483276367
870,22500.0,9.944571495056152,-1.423729419708252,-9.535398483276367
871,22550.0,9.944571495056152,-1.423729419708252,-9.535398483276367
872,22600.0,7.082754611968994,1.739582061767578,-8.434700012207031
873,22650.0,7.082754611968994,1.739582061767578,-8.434700012207031
874,22700.0,7.082754611968994,1.739582061767578,-8.434700012207031
875,22750.0,7.082754611968994,1.739582061767578,-8.434700012207031
876,22800.0,7.082754611968994,1.739582061767578,-8.434700012207031
877,22850.0,4.876572608947754,2.560320377349853,-8.13798999786377
878,22900.0,4.876572608947754,2.560320377349853,-8.13798999786377
879,22950.0,4.876572608947754,2.560320377349853,-8.13798999786377
880,22000.0,-1.191625714302063,4.666004180908203,-3.967299938201904
881,22050.0,-1.191625714302063,4.666004180908203,-3.967299938201904
882,22100.0,-1.191625714302063,4.666004180908203,-3.967299938201904
883,22150.0,3.1824538707733154,1.057627558708191,-7.917850017547607
884,22200.0,3.1824538707733154,1.057627558708191,-7.917850017547607
885,22250.0,3.1824538707733154,1.057627558708191,-7.917850017547607
886,22300.0,3.1824538707733154,1.057627558708191,-7.917850017547607
887,22350.0,3.1824538707733154,1.057627558708191,-7.917850017547607
888,22400.0,9.944571495056152,-1.423729419708252,-9.535398483276367
889,22450.0,9.944571495056152,-1.423729419708252,-9.535398483276367
890,22500.0,9.944571495056152,-1.423729419708252,-9.535398483276367
891,22550.0,9.944571495056152,-1.423729419708252,-9.535398483276367
892,22600.0,7.082754611968994,1.739582061767578,-8.434700012207031
893,22650.0,7.082754611968994,1.739582061767578,-8.434700012207031
894,22700.0,7.082754611968994,1.739582061767578,-8.434700012207031
895,22750.0,7.082754611968994,1.739582061767578,-8.434700012207031
896,22800.0,7.082754611968994,1.739582061767578,-8.434700012207031
897,22850.0,4.876572608947754,2.560320377349853,-8.13798999786377
898,22900.0,4.876572608947754,2.560320377349853,-8.13798999786377
899,22950.0,4.876572608947754,2.560320377349853,-8.13798999786377
900,23000.0,4.876572608947754,2.560320377349853,-8.13798999786377
901,23050.0,6.647261142730713,1.916650891304016,-7.16650390625
902,23100.0,6.647261142730713,1.916650891304016,-7.16650390625
903,23150.0,6.647261142730713,1.916650891304016,-7.16650390625
904,23200.0,6.647261142730713,1.916650891304016,-7.16650390625
905,23250.0,6.647261142730713,1.916650891304016,-7.16650390625
906,23300.0,8.757731437683105,-0.3613162040710449,-5.4006004333496085
907,23350.0,8.757731437683105,-0.3613162040710449,-5.4006004333496085
908,23400.0,8.757731437683105,-0.3613162040710449,-5.4006004333496085
909,23450.0,8.757731437683105,-0.3613162040710449,-5.4006004333496085
910,23500.0,8.757731437683105,-0.3613162040710449,-5.4006004333496085
911,23550.0,6.948756694793701,0.3756731450557709,-5.149354457855225
912,23600.0,6.948756694793701,0.3756731450557709,-5.149354457855225
913,23650.0,6.948756694793701,0.3756731450557709,-5.149354457855225
914,23700.0,6.948756694793701,0.3756731450557709,-5.149354457855225
915,23750.0,7.28375244140625,-2.847458839416504,-4.53200626373291
916,23800.0,7.28375244140625,-2.847458839416504,-4.53200626373291
917,23850.0,7.28375244140625,-2.847458839416504,-4.53200626373291
918,23900.0,7.28375244140625,-2.847458839416504,-4.53200626373291
919,23950.0,7.28375244140625,-2.847458839416504,-4.53200626373291
920,23000.0,4.876572608947754,2.560320377349853,-8.13798999786377
921,23050.0,6.647261142730713,1.916650891304016,-7.16650390625
922,23100.0,6.647261142730713,1.916650891304016,-7.16650390625
923,23150.0,6.647261142730713,1.916650891304016,-7.16650390625
924,23200.0,6.647261142730713,1.916650891304016,-7.16650390625
925,23250.0,6.647261142730713,1.916650891304016,-7.16650390625
926,23300.0,8.757731437683105,-0.3613162040710449,-5.4006004333496085
927,23350.0,8.757731437683105,-0.3613162040710449,-5.4006004333496085
928,23400.0,8.757731437683105,-0.3613162040710449,-5.4006004333496085
929,23450.0,8.757731437683105,-0.3613162040710449,-5.4006004333496085
930,23500.0,8.757731437683105,-0.3613162040710449,-5.4006004333496085
931,23550.0,6.948756694793701,0.3756731450557709,-5.149354457855225
932,23600.0,6.948756694793701,0.3756731450557709,-5.149354457855225
933,23650.0,6.948756694793701,0.3756731450557709,-5.149354457855225
934,23700.0,6.948756694793701,0.3756731450557709,-5.149354457855225
935,23750.0,7.28375244140625,-2.847458839416504,-4.53200626373291
936,23800.0,7.28375244140625,-2.847458839416504,-4.53200626373291
937,23850.0,7.28375244140625,-2.847458839416504,-4.53200626373291
938,23900.0,7.28375244140625,-2.847458839416504,-4.53200626373291
939,23950.0,7.28375244140625,-2.847458839416504,-4.53200626373291
940,24000.0,9.53779125213623,0.7489535212516785,-5.125426292419434
941,24050.0,9.53779125213623,0.7489535212516785,-5.125426292419434
942,24100.0,9.53779125213623,0.7489535212516785,-5.125426292419434
943,24150.0,9.53779125213623,0.7489535212516785,-5.125426292419434
944,24200.0,9.53779125213623,0.7489535212516785,-5.125426292419434
945,24250.0,7.896315097808838,-0.7824530005455017,-5.8097734451293945
946,24300.0,7.896315097808838,-0.7824530005455017,-5.8097734451293945
947,24350.0,7.896315097808838,-0.7824530005455017,-5.8097734451293945
948,24400.0,7.896315097808838,-0.7824530005455017,-5.8097734451293945
949,24450.0,5.565705299377441,-0.2847459018230438,-7.494320392608643
950,24500.0,5.565705299377441,-0.2847459018230438,-7.494320392608643
951,24550.0,5.565705299377441,-0.2847459018230438,-7.494320392608643
952,24600.0,5.565705299377441,-0.2847459018230438,-7.494320392608643
953,24650.0,5.565705299377441,-0.2847459018230438,-7.494320392608643
954,24700.0,4.804787635803223,0.82791668176651,-7.214360237121582
955,24750.0,4.804787635803223,0.82791668176651,-7.214360237121582
956,24800.0,4.804787635803223,0.82791668176651,-7.214360237121582
957,24850.0,4.804787635803223,0.82791668176651,-7.214360237121582
958,24900.0,4.804787635803223,0.82791668176651,-7.214360237121582
959,24950.0,7.752745151519775,-0.729810893535614,-6.400800704956055
960,24000.0,9.53779125213623,0.7489535212516785,-5.125426292419434
961,24050.0,9.53779125213623,0.7489535212516785,-5.125426292419434
962,24100.0,9.53779125213623,0.7489535212516785,-5.125426292419434
963,24150.0,9.53779125213623,0.7489535212516785,-5.125426292419434
964,24200.0,9.53779125213623,0.7489535212516785,-5.125426292419434
965,24250.0,7.896315097808838,-0.7824530005455017,-5.8097734451293945
966,24300.0,7.896315097808838,-0.7824530005455017,-5.8097734451293945
967,24350.0,7.896315097808838,-0.7824530005455017,-5.8097734451293945
968,24400.0,7.896315097808838,-0.7824530005455017,-5.8097734451293945
969,24450.0,5.565705299377441,-0.2847459018230438,-7.494320392608643
970,24500.0,5.565705299377441,-0.2847459018230438,-7.494320392608643
971,24550.0,5.565705299377441,-0.2847459018230438,-7.494320392608643
972,24600.0,5.565705299377441,-0.2847459018230438,-7.494320392608643
973,24650.0,5.565705299377441,-0.2847459018230438,-7.494320392608643
974,24700.0,4.804787635803223,0.82791668176651,-7.214360237121582
975,24750.0,4.804787635803223,0.82791668176651,-7.214360237121582
976,24800.0,4.804787635803223,0.82791668176651,-7.214360237121582
977,24850.0,4.804787635803223,0.82791668176651,-7.214360237121582
978,24900.0,4.804787635803223,0.82791668176651,-7.214360237121582
979,24950.0,7.752745151519775,-0.729810893535614,-6.400800704956055
980,25000.0,7.752745151519775,-0.729810893535614,-6.400800704956055
981,25050.0,7.752745151519775,-0.729810893535614,-6.400800704956055
982,25100.0,7.752745151519775,-0.729810893535614,-6.400800704956055
983,25150.0,6.599405288696289,-0.3828516006469727,-9.14297580718994
984,25200.0,6.599405288696289,-0.3828516006469727,-9.14297580718994
985,25250.0,6.599405288696289,-0.3828516006469727,-9.14297580718994
986,25300.0,6.599405288696289,-0.3828516006469727,-9.14297580718994
987,25350.0,7.192824840545653,5.249853134155273,-7.188039302825928
988,25400.0,7.192824840545653,5.249853134155273,-7.188039302825928
989,25450.0,7.192824840545653,5.249853134155273,-7.188039302825928
990,25500.0,7.192824840545653,5.249853134155273,-7.188039302825928
991,25550.0,5.206782341003418,3.38105845451355,-6.9511494636535645
992,25600.0,5.206782341003418,3.38105845451355,-6.9511494636535645
993,25650.0,5.206782341003418,3.38105845451355,-6.9511494636535645
994,25700.0,5.206782341003418,3.38105845451355,-6.9511494636535645
995,25750.0,5.206782341003418,3.38105845451355,-6.9511494636535645
996,25800.0,7.767102241516112,-0.5264209508895874,-5.716453552246094
997,25850.0,7.767102241516112,-0.5264209508895874,-5.716453552246094
998,25900.0,7.767102241516112,-0.5264209508895874,-5.716453552246094
999,25950.0,7.767102241516112,-0.5264209508895874,-5.716453552246094
1000,25000.0,7.752745151519775,-0.729810893535614,-6.400800704956055
1001,25050.0,7.752745151519775,-0.729810893535614,-6.400800704956055
1002,25100.0,7.752745151519775,-0.729810893535614,-6.400800704956055
1003,25150.0,6.599405288696289,-0.3828516006469727,-9.14297580718994
1004,25200.0,6.599405288696289,-0.3828516006469727,-9.14297580718994
1005,25250.0,6.599405288696289,-0.3828516006469727,-9.14297580718994
1006,25300.0,6.599405288696289,-0.3828516006469727,-9.14297580718994
1007,25350.0,7.192824840545653,5.249853134155273,-7.188039302825928
1008,25400.0,7.192824840545653,5.249853134155273,-7.188039302825928
1009,25450.0,7.192824840545653,5.249853134155273,-7.188039302825928
1010,25500.0,7.192824840545653,5.249853134155273,-7.188039302825928
1011,25550.0,5.206782341003418,3.38105845451355,-6.9511494636535645
1012,25600.0,5.206782341003418,3.38105845451355,-6.9511494636535645
1013,25650.0,5.206782341003418,3.38105845451355,-6.9511494636535645
1014,25700.0,5.206782341003418,3.38105845451355,-6.9511494636535645
1015,25750.0,5.206782341003418,3.38105845451355,-6.9511494636535645
1016,25800.0,7.767102241516112,-0.5264209508895874,-5.716453552246094
1017,25850.0,7.767102241516112,-0.5264209508895874,-5.716453552246094
1018,25900.0,7.767102241516112,-0.5264209508895874,-5.716453552246094
1019,25950.0,7.767102241516112,-0.5264209508895874,-5.716453552246094
1020,26000.0,7.767102241516112,-0.5264209508895874,-5.716453552246094
1021,26050.0,6.451050281524657,3.168097257614136,-5.01296329498291
1022,26100.0,6.451050281524657,3.168097257614136,-5.01296329498291
1023,26150.0,6.451050281524657,3.168097257614136,-5.01296329498291
1024,26200.0,6.451050281524657,3.168097257614136,-5.01296329498291
1025,26250.0,4.651647090911865,4.821537494659424,-5.651846885681152
1026,26300.0,4.651647090911865,4.821537494659424,-5.651846885681152
1027,26350.0,4.651647090911865,4.821537494659424,-5.651846885681152
1028,26400.0,4.651647090911865,4.821537494659424,-5.651846885681152
1029,26450.0,4.651647090911865,4.821537494659424,-5.651846885681152
1030,26500.0,4.833501815795898,4.122833251953125,-6.247659683227539
1031,26550.0,4.833501815795898,4.122833251953125,-6.247659683227539
1032,26600.0,4.833501815795898,4.122833251953125,-6.247659683227539
1033,26650.0,4.833501815795898,4.122833251953125,-6.247659683227539
1034,26700.0,4.833501815795898,4.122833251953125,-6.247659683227539
1035,26750.0,4.790431022644043,0.8207381367683411,-8.669197082519531
1036,26800.0,4.790431022644043,0.8207381367683411,-8.669197082519531
1037,26850.0,4.790431022644043,0.8207381367683411,-8.669197082519531
1038,26900.0,4.790431022644043,0.8207381367683411,-8.669197082519531
1039,26950.0,5.489135265350342,-0.3661018908023834,-7.5254268646240225
1040,26000.0,7.767102241516112,-0.5264209508895874,-5.716453552246094
1041,26050.0,6.451050281524657,3.168097257614136,-5.01296329498291
1042,26100.0,6.451050281524657,3.168097257614136,-5.01296329498291
1043,26150.0,6.451050281524657,3.168097257614136,-5.01296329498291
1044,26200.0,6.451050281524657,3.168097257614136,-5.01296329498291
1045,26250.0,4.651647090911865,4.821537494659424,-5.651846885681152
1046,26300.0,4.651647090911865,4.821537494659424,-5.651846885681152
1047,26350.0,4.651647090911865,4.821537494659424,-5.651846885681152
1048,26400.0,4.651647090911865,4.821537494659424,-5.651846885681152
1049,26450.0,4.651647090911865,4.821537494659424,-5.651846885681152
1050,26500.0,4.833501815795898,4.122833251953125,-6.247659683227539
1051,26550.0,4.833501815795898,4.122833251953125,-6.247659683227539
1052,26600.0,4.833501815795898,4.122833251953125,-6.247659683227539
1053,26650.0,4.833501815795898,4.122833251953125,-6.247659683227539
1054,26700.0,4.833501815795898,4.122833251953125,-6.247659683227539
1055,26750.0,4.790431022644043,0.8207381367683411,-8.669197082519531
1056,26800.0,4.790431022644043,0.8207381367683411,-8.669197082519531
1057,26850.0,4.790431022644043,0.8207381367683411,-8.669197082519531
1058,26900.0,4.790431022644043,0.8207381367683411,-8.669197082519531
1059,26950.0,5.489135265350342,-0.3661018908023834,-7.5254268646240225
1060,27000.0,5.489135265350342,-0.3661018908023834,-7.5254268646240225
1061,27050.0,5.489135265350342,-0.3661018908023834,-7.5254268646240225
1062,27100.0,5.489135265350342,-0.3661018908023834,-7.5254268646240225
1063,27150.0,5.9342002868652335,3.201596736907959,-8.102097511291504
1064,27200.0,5.9342002868652335,3.201596736907959,-8.102097511291504
1065,27250.0,5.9342002868652335,3.201596736907959,-8.102097511291504
1066,27300.0,5.9342002868652335,3.201596736907959,-8.102097511291504
1067,27350.0,6.589833736419678,0.3326023519039154,-7.389035701751709
1068,27400.0,6.589833736419678,0.3326023519039154,-7.389035701751709
1069,27450.0,6.589833736419678,0.3326023519039154,-7.389035701751709
1070,27500.0,6.589833736419678,0.3326023519039154,-7.389035701751709
1071,27550.0,6.589833736419678,0.3326023519039154,-7.389035701751709
1072,27600.0,5.546562671661377,0.25842484831810003,-6.436692714691162
1073,27650.0,5.546562671661377,0.25842484831810003,-6.436692714691162
1074,27700.0,5.546562671661377,0.25842484831810003,-6.436692714691162
1075,27750.0,5.546562671661377,0.25842484831810003,-6.436692714691162
1076,27800.0,5.546562671661377,0.25842484831810003,-6.436692714691162
1077,27850.0,5.182853698730469,0.4666004180908203,-7.4608211517333975
1078,27900.0,5.182853698730469,0.4666004180908203,-7.4608211517333975
1079,27950.0,5.182853698730469,0.4666004180908203,-7.4608211517333975
1080,27000.0,5.489135265350342,-0.3661018908023834,-7.5254268646240225
1081,27050.0,5.489135265350342,-0.3661018908023834,-7.5254268646240225
1082,27100.0,5.489135265350342,-0.3661018908023834,-7.5254268646240225
1083,27150.0,5.9342002868652335,3.201596736907959,-8.102097511291504
1084,27200.0,5.9342002868652335,3.201596736907959,-8.102097511291504
1085,27250.0,5.9342002868652335,3.201596736907959,-8.102097511291504
1086,27300.0,5.9342002868652335,3.201596736907959,-8.102097511291504
1087,27350.0,6.589833736419678,0.3326023519039154,-7.389035701751709
1088,27400.0,6.589833736419678,0.3326023519039154,-7.389035701751709
1089,27450.0,6.589833736419678,0.3326023519039154,-7.389035701751709
1090,27500.0,6.589833736419678,0.3326023519039154,-7.389035701751709
1091,27550.0,6.589833736419678,0.3326023519039154,-7.389035701751709
1092,27600.0,5.546562671661377,0.25842484831810003,-6.436692714691162
1093,27650.0,5.546562671661377,0.25842484831810003,-6.436692714691162
1094,27700.0,5.546562671661377,0.25842484831810003,-6.436692714691162
1095,27750.0,5.546562671661377,0.25842484831810003,-6.436692714691162
1096,27800.0,5.546562671661377,0.25842484831810003,-6.436692714691162
1097,27850.0,5.182853698730469,0.4666004180908203,-7.4608211517333975
1098,27900.0,5.182853698730469,0.4666004180908203,-7.4608211517333975
1099,27950.0,5.182853698730469,0.4666004180908203,-7.4608211517333975
1100,28000.0,5.182853698730469,0.4666004180908203,-7.4608211517333975
1101,28050.0,5.680561065673827,0.1938186287879944,-7.051648139953612
1102,28100.0,5.680561065673827,0.1938186287879944,-7.051648139953612
1103,28150.0,5.680561065673827,0.1938186287879944,-7.051648139953612
1104,28200.0,5.680561065673827,0.1938186287879944,-7.051648139953612
1105,28250.0,5.680561065673827,0.1938186287879944,-7.051648139953612
1106,28300.0,6.206982612609862,-1.0336993932724001,-9.1716890335083
1107,28350.0,6.206982612609862,-1.0336993932724001,-9.1716890335083
1108,28400.0,6.206982612609862,-1.0336993932724001,-9.1716890335083
1109,28450.0,6.206982612609862,-1.0336993932724001,-9.1716890335083
1110,28500.0,4.3166518211364755,-1.7084753513336182,-6.135197162628174
1111,28550.0,4.3166518211364755,-1.7084753513336182,-6.135197162628174
1112,28600.0,4.3166518211364755,-1.7084753513336182,-6.135197162628174
1113,28650.0,4.3166518211364755,-1.7084753513336182,-6.135197162628174
1114,28700.0,4.3166518211364755,-1.7084753513336182,-6.135197162628174
1115,28750.0,6.98704195022583,-0.5575276613235474,-9.083154678344727
1116,28800.0,6.98704195022583,-0.5575276613235474,-9.083154678344727
1117,28850.0,6.98704195022583,-0.5575276613235474,-9.083154678344727
1118,28900.0,6.98704195022583,-0.5575276613235474,-9.083154678344727
1119,28950.0,6.98704195022583,-0.5575276613235474,-9.083154678344727
1120,28000.0,5.182853698730469,0.4666004180908203,-7.4608211517333975
1121,28050.0,5.680561065673827,0.1938186287879944,-7.051648139953612
1122,28100.0,5.680561065673827,0.1938186287879944,-7.051648139953612
1123,28150.0,5.680561065673827,0.1938186287879944,-7.051648139953612
1124,28200.0,5.680561065673827,0.1938186287879944,-7.051648139953612
1125,28250.0,5.680561065673827,0.1938186287879944,-7.051648139953612
1126,28300.0,6.206982612609862,-1.0336993932724001,-9.1716890335083
1127,28350.0,6.206982612609862,-1.0336993932724001,-9.1716890335083
1128,28400.0,6.206982612609862,-1.0336993932724001,-9.1716890335083
1129,28450.0,6.206982612609862,-1.0336993932724001,-9.1716890335083
1130,28500.0,4.3166518211364755,-1.7084753513336182,-6.135197162628174
1131,28550.0,4.3166518211364755,-1.7084753513336182,-6.135197162628174
1132,28600.0,4.3166518211364755,-1.7084753513336182,-6.135197162628174
1133,28650.0,4.3166518211364755,-1.7084753513336182,-6.135197162628174
1134,28700.0,4.3166518211364755,-1.7084753513336182,-6.135197162628174
1135,28750.0,6.98704195022583,-0.5575276613235474,-9.083154678344727
1136,28800.0,6.98704195022583,-0.5575276613235474,-9.083154678344727
1137,28850.0,6.98704195022583,-0.5575276613235474,-9.083154678344727
1138,28900.0,6.98704195022583,-0.5575276613235474,-9.083154678344727
1139,28950.0,6.98704195022583,-0.5575276613235474,-9.083154678344727
1140,29000.0,3.617947816848755,0.3326023519039154,-6.427121639251709
1141,29050.0,3.617947816848755,0.3326023519039154,-6.427121639251709
1142,29100.0,3.617947816848755,0.3326023519039154,-6.427121639251709
1143,29150.0,3.617947816848755,0.3326023519039154,-6.427121639251709
1144,29200.0,4.493720531463623,5.709274768829347,-8.449056625366211
1145,29250.0,4.493720531463623,5.709274768829347,-8.449056625366211
1146,29300.0,4.493720531463623,5.709274768829347,-8.449056625366211
1147,29350.0,4.493720531463623,5.709274768829347,-8.449056625366211
1148,29400.0,4.493720531463623,5.709274768829347,-8.449056625366211
1149,29450.0,4.871786594390869,1.4620146751403809,-8.219346046447754
1150,29500.0,4.871786594390869,1.4620146751403809,-8.219346046447754
1151,29550.0,4.871786594390869,1.4620146751403809,-8.219346046447754
1152,29600.0,4.871786594390869,1.4620146751403809,-8.219346046447754
1153,29650.0,4.871786594390869,1.4620146751403809,-8.219346046447754
1154,29700.0,8.518448829650879,2.914458036422729,-6.675975322723389
1155,29750.0,8.518448829650879,2.914458036422729,-6.675975322723389
1156,29800.0,8.518448829650879,2.914458036422729,-6.675975322723389
1157,29850.0,8.518448829650879,2.914458036422729,-6.675975322723389
1158,29900.0,3.73758864402771,5.460421085357666,-5.501099109649658
1159,29950.0,3.73758864402771,5.460421085357666,-5.501099109649658
1160,29000.0,3.617947816848755,0.3326023519039154,-6.427121639251709
1161,29050.0,3.617947816848755,0.3326023519039154,-6.427121639251709
1162,29100.0,3.617947816848755,0.3326023519039154,-6.427121639251709
1163,29150.0,3.617947816848755,0.3326023519039154,-6.427121639251709
1164,29200.0,4.493720531463623,5.709274768829347,-8.449056625366211
1165,29250.0,4.493720531463623,5.709274768829347,-8.449056625366211
1166,29300.0,4.493720531463623,5.709274768829347,-8.449056625366211
1167,29350.0,4.493720531463623,5.709274768829347,-8.449056625366211
1168,29400.0,4.493720531463623,5.709274768829347,-8.449056625366211
1169,29450.0,4.871786594390869,1.4620146751403809,-8.219346046447754
1170,29500.0,4.871786594390869,1.4620146751403809,-8.219346046447754
1171,29550.0,4.871786594390869,1.4620146751403809,-8.219346046447754
1172,29600.0,4.871786594390869,1.4620146751403809,-8.219346046447754
1173,29650.0,4.871786594390869,1.4620146751403809,-8.219346046447754
1174,29700.0,8.518448829650879,2.914458036422729,-6.675975322723389
1175,29750.0,8.518448829650879,2.914458036422729,-6.675975322723389
1176,29800.0,8.518448829650879,2.914458036422729,-6.675975322723389
1177,29850.0,8.518448829650879,2.914458036422729,-6.675975322723389
1178,29900.0,3.73758864402771,5.460421085357666,-5.501099109649658
1179,29950.0,3.73758864402771,5.460421085357666,-5.501099109649658
1180,30000.0,3.73758864402771,5.460421085357666,-5.501099109649658
1181,30050.0,3.73758864402771,5.460421085357666,-5.501099109649658
1182,30100.0,6.929614543914795,3.438485860824585,-6.429513931274414
1183,30150.0,6.929614543914795,3.438485860824585,-6.429513931274414
1184,30200.0,6.929614543914795,3.438485860824585,-6.429513931274414
1185,30250.0,6.929614543914795,3.438485860824585,-6.429513931274414
1186,30300.0,6.929614543914795,3.438485860824585,-6.429513931274414
1187,30350.0,7.762316703796388,3.38823676109314,-6.647261142730713
1188,30400.0,7.762316703796388,3.38823676109314,-6.647261142730713
1189,30450.0,7.762316703796388,3.38823676109314,-6.647261142730713
1190,30500.0,7.762316703796388,3.38823676109314,-6.647261142730713
1191,30550.0,2.0721843242645264,7.891529560089111,-5.484349250793457
1192,30600.0,2.0721843242645264,7.891529560089111,-5.484349250793457
1193,30650.0,2.0721843242645264,7.891529560089111,-5.484349250793457
1194,30700.0,2.0721843242645264,7.891529560089111,-5.484349250793457
1195,30750.0,2.0721843242645264,7.891529560089111,-5.484349250793457
1196,30800.0,7.432106971740723,3.2805597782135014,-6.2739810943603525
1197,30850.0,7.432106971740723,3.2805597782135014,-6.2739810943603525
1198,30900.0,7.432106971740723,3.2805597782135014,-6.2739810943603525
1199,30950.0,7.432106971740723,3.2805597782135014,-6.2739810943603525
1200,30000.0,3.73758864402771,5.460421085357666,-5.501099109649658
1201,30050.0,3.73758864402771,5.460421085357666,-5.501099109649658
1202,30100.0,6.929614543914795,3.438485860824585,-6.429513931274414
1203,30150.0,6.929614543914795,3.438485860824585,-6.429513931274414
1204,30200.0,6.929614543914795,3.438485860824585,-6.429513931274414
1205,30250.0,6.929614543914795,3.438485860824585,-6.429513931274414
1206,30300.0,6.929614543914795,3.438485860824585,-6.429513931274414
1207,30350.0,7.762316703796388,3.38823676109314,-6.647261142730713
1208,30400.0,7.762316703796388,3.38823676109314,-6.647261142730713
1209,30450.0,7.762316703796388,3.38823676109314,-6.647261142730713
1210,30500.0,7.762316703796388,3.38823676109314,-6.647261142730713
1211,30550.0,2.0721843242645264,7.891529560089111,-5.484349250793457
1212,30600.0,2.0721843242645264,7.891529560089111,-5.484349250793457
1213,30650.0,2.0721843242645264,7.891529560089111,-5.484349250793457
1214,30700.0,2.0721843242645264,7.891529560089111,-5.484349250793457
1215,30750.0,2.0721843242645264,7.891529560089111,-5.484349250793457
1216,30800.0,7.432106971740723,3.2805597782135014,-6.2739810943603525
1217,30850.0,7.432106971740723,3.2805597782135014,-6.2739810943603525
1218,30900.0,7.432106971740723,3.2805597782135014,-6.2739810943603525
1219,30950.0,7.432106971740723,3.2805597782135014,-6.2739810943603525
1220,31000.0,7.432106971740723,3.2805597782135014,-6.2739810943603525
1221,31050.0,4.063012599945068,6.501298904418945,-6.798008918762207
1222,31100.0,4.063012599945068,6.501298904418945,-6.798008918762207
1223,31150.0,4.063012599945068,6.501298904418945,-6.798008918762207
1224,31200.0,4.063012599945068,6.501298904418945,-6.798008918762207
1225,31250.0,4.59421968460083,5.860023021697997,-5.627918720245361
1226,31300.0,4.59421968460083,5.860023021697997,-5.627918720245361
1227,31350.0,4.59421968460083,5.860023021697997,-5.627918720245361
1228,31400.0,4.59421968460083,5.860023021697997,-5.627918720245361
1229,31450.0,4.058227062225342,7.020541667938232,-6.941578388214111
1230,31500.0,4.058227062225342,7.020541667938232,-6.941578388214111
1231,31550.0,4.058227062225342,7.020541667938232,-6.941578388214111
1232,31600.0,4.058227062225342,7.020541667938232,-6.941578388214111
1233,31650.0,4.058227062225342,7.020541667938232,-6.941578388214111
1234,31700.0,1.9046868085861208,5.190032482147217,-6.479763507843018
1235,31750.0,1.9046868085861208,5.190032482147217,-6.479763507843018
1236,31800.0,1.9046868085861208,5.190032482147217,-6.479763507843018
1237,31850.0,1.9046868085861208,5.190032482147217,-6.479763507843018
1238,31900.0,6.838686943054199,3.2207393646240234,-9.568897247314453
1239,31950.0,6.838686943054199,3.2207393646240234,-9.568897247314453
1240,31000.0,7.432106971740723,3.2805597782135014,-6.2739810943603525
1241,31050.0,4.063012599945068,6.501298904418945,-6.798008918762207
1242,31100.0,4.063012599945068,6.501298904418945,-6.798008918762207
1243,31150.0,4.063012599945068,6.501298904418945,-6.798008918762207
1244,31200.0,4.063012599945068,6.501298904418945,-6.798008918762207
1245,31250.0,4.59421968460083,5.860023021697997,-5.627918720245361
1246,31300.0,4.59421968460083,5.860023021697997,-5.627918720245361
1247,31350.0,4.59421968460083,5.860023021697997,-5.627918720245361
1248,31400.0,4.59421968460083,5.860023021697997,-5.627918720245361
1249,31450.0,4.058227062225342,7.020541667938232,-6.941578388214111
1250,31500.0,4.058227062225342,7.020541667938232,-6.941578388214111
1251,31550.0,4.058227062225342,7.020541667938232,-6.941578388214111
1252,31600.0,4.058227062225342,7.020541667938232,-6.941578388214111
1253,31650.0,4.058227062225342,7.020541667938232,-6.941578388214111
1254,31700.0,1.9046868085861208,5.190032482147217,-6.479763507843018
1255,31750.0,1.9046868085861208,5.190032482147217,-6.479763507843018
1256,31800.0,1.9046868085861208,5.190032482147217,-6.479763507843018
1257,31850.0,1.9046868085861208,5.190032482147217,-6.479763507843018
1258,31900.0,6.838686943054199,3.2207393646240234,-9.568897247314453
1259,31950.0,6.838686943054199,3.2207393646240234,-9.568897247314453
1260,32000.0,6.838686943054199,3.2207393646240234,-9.568897247314453
1261,32050.0,6.838686943054199,3.2207393646240234,-9.568897247314453
1262,32100.0,6.838686943054199,3.2207393646240234,-9.568897247314453
1263,32150.0,2.857030153274536,4.931607723236084,-7.16650390625
1264,32200.0,2.857030153274536,4.931607723236084,-7.16650390625
1265,32250.0,2.857030153274536,4.931607723236084,-7.16650390625
1266,32300.0,2.857030153274536,4.931607723236084,-7.16650390625
1267,32350.0,4.110869407653809,5.556134223937988,-6.151947498321532
1268,32400.0,4.110869407653809,5.556134223937988,-6.151947498321532
1269,32450.0,4.110869407653809,5.556134223937988,-6.151947498321532
1270,32500.0,4.110869407653809,5.556134223937988,-6.151947498321532
1271,32550.0,4.110869407653809,5.556134223937988,-6.151947498321532
1272,32600.0,4.110869407653809,5.556134223937988,-6.151947498321532
1273,32650.0,5.048855781555176,8.171488761901855,-5.544170379638672
1274,32700.0,5.048855781555176,8.171488761901855,-5.544170379638672
1275,32750.0,5.048855781555176,8.171488761901855,-5.544170379638672
1276,32800.0,5.048855781555176,8.171488761901855,-5.544170379638672
1277,32850.0,1.3878371715545654,7.767102241516112,-5.027320384979248
1278,32900.0,1.3878371715545654,7.767102241516112,-5.027320384979248
1279,32950.0,1.3878371715545654,7.767102241516112,-5.027320384979248
1280,32000.0,6.838686943054199,3.2207393646240234,-9.568897247314453
1281,32050.0,6.838686943054199,3.2207393646240234,-9.568897247314453
1282,32100.0,6.838686943054199,3.2207393646240234,-9.568897247314453
1283,32150.0,2.857030153274536,4.931607723236084,-7.16650390625
1284,32200.0,2.857030153274536,4.931607723236084,-7.16650390625
1285,32250.0,2.857030153274536,4.931607723236084,-7.16650390625
1286,32300.0,2.857030153274536,4.931607723236084,-7.16650390625
1287,32350.0,4.110869407653809,5.556134223937988,-6.151947498321532
1288,32400.0,4.110869407653809,5.556134223937988,-6.151947498321532
1289,32450.0,4.110869407653809,5.556134223937988,-6.151947498321532
1290,32500.0,4.110869407653809,5.556134223937988,-6.151947498321532
1291,32550.0,4.110869407653809,5.556134223937988,-6.151947498321532
1292,32600.0,4.110869407653809,5.556134223937988,-6.151947498321532
1293,32650.0,5.048855781555176,8.171488761901855,-5.544170379638672
1294,32700.0,5.048855781555176,8.171488761901855,-5.544170379638672
1295,32750.0,5.048855781555176,8.171488761901855,-5.544170379638672
1296,32800.0,5.048855781555176,8.171488761901855,-5.544170379638672
1297,32850.0,1.3878371715545654,7.767102241516112,-5.027320384979248
1298,32900.0,1.3878371715545654,7.767102241516112,-5.027320384979248
1299,32950.0,1.3878371715545654,7.767102241516112,-5.027320384979248
1300,33000.0,1.3878371715545654,7.767102241516112,-5.027320384979248
1301,33050.0,1.3878371715545654,7.767102241516112,-5.027320384979248
1302,33100.0,2.3545374870300293,5.764309883117676,-6.498906135559082
1303,33150.0,2.3545374870300293,5.764309883117676,-6.498906135559082
1304,33200.0,2.3545374870300293,5.764309883117676,-6.498906135559082
1305,33250.0,2.3545374870300293,5.764309883117676,-6.498906135559082
1306,33300.0,8.437092781066895,7.623533248901367,-8.501699447631836
1307,33350.0,8.437092781066895,7.623533248901367,-8.501699447631836
1308,33400.0,8.437092781066895,7.623533248901367,-8.501699447631836
1309,33450.0,8.437092781066895,7.623533248901367,-8.501699447631836
1310,33500.0,1.5649060010910034,7.319644451141357,-6.142375946044923
1311,33550.0,1.5649060010910034,7.319644451141357,-6.142375946044923
1312,33600.0,1.5649060010910034,7.319644451141357,-6.142375946044923
1313,33650.0,1.5649060010910034,7.319644451141357,-6.142375946044923
1314,33700.0,1.5649060010910034,7.319644451141357,-6.142375946044923
1315,33750.0,3.7328033447265625,5.678168296813965,-6.386443614959718
1316,33800.0,3.7328033447265625,5.678168296813965,-6.386443614959718
1317,33850.0,3.7328033447265625,5.678168296813965,-6.386443614959718
1318,33900.0,3.7328033447265625,5.678168296813965,-6.386443614959718
1319,33950.0,6.63769006729126,4.292723655700684,-6.522834300994872
1320,33000.0,1.3878371715545654,7.767102241516112,-5.027320384979248
1321,33050.0,1.3878371715545654,7.767102241516112,-5.027320384979248
1322,33100.0,2.3545374870300293,5.764309883117676,-6.498906135559082
1323,33150.0,2.3545374870300293,5.764309883117676,-6.498906135559082
1324,33200.0,2.3545374870300293,5.764309883117676,-6.498906135559082
1325,33250.0,2.3545374870300293,5.764309883117676,-6.498906135559082
1326,33300.0,8.437092781066895,7.623533248901367,-8.501699447631836
1327,33350.0,8.437092781066895,7.623533248901367,-8.501699447631836
1328,33400.0,8.437092781066895,7.623533248901367,-8.501699447631836
1329,33450.0,8.437092781066895,7.623533248901367,-8.501699447631836
1330,33500.0,1.5649060010910034,7.319644451141357,-6.142375946044923
1331,33550.0,1.5649060010910034,7.319644451141357,-6.142375946044923
1332,33600.0,1.5649060010910034,7.319644451141357,-6.142375946044923
1333,33650.0,1.5649060010910034,7.319644451141357,-6.142375946044923
1334,33700.0,1.5649060010910034,7.319644451141357,-6.142375946044923
1335,33750.0,3.7328033447265625,5.678168296813965,-6.386443614959718
1336,33800.0,3.7328033447265625,5.678168296813965,-6.386443614959718
1337,33850.0,3.7328033447265625,5.678168296813965,-6.386443614959718
1338,33900.0,3.7328033447265625,5.678168296813965,-6.386443614959718
1339,33950.0,6.63769006729126,4.292723655700684,-6.522834300994872
1340,34000.0,6.63769006729126,4.292723655700684,-6.522834300994872
1341,34050.0,6.63769006729126,4.292723655700684,-6.522834300994872
1342,34100.0,6.63769006729126,4.292723655700684,-6.522834300994872
1343,34150.0,6.63769006729126,4.292723655700684,-6.522834300994872
1344,34200.0,6.63769006729126,4.292723655700684,-6.522834300994872
1345,34250.0,2.4885356426239014,10.480563163757324,2.057827472686768
1346,34300.0,2.4885356426239014,10.480563163757324,2.057827472686768
1347,34350.0,2.4885356426239014,10.480563163757324,2.057827472686768
1348,34400.0,2.4885356426239014,10.480563163757324,2.057827472686768
1349,34450.0,6.829115867614746,12.940383911132812,2.3401806354522705
1350,34500.0,6.829115867614746,12.940383911132812,2.3401806354522705
1351,34550.0,6.829115867614746,12.940383911132812,2.3401806354522705
1352,34600.0,6.829115867614746,12.940383911132812,2.3401806354522705
1353,34650.0,6.829115867614746,12.940383911132812,2.3401806354522705
1354,34700.0,2.569891452789306,4.744967460632324,-5.989234924316406
1355,34750.0,2.569891452789306,4.744967460632324,-5.989234924316406
1356,34800.0,2.569891452789306,4.744967460632324,-5.989234924316406
1357,34850.0,2.569891452789306,4.744967460632324,-5.989234924316406
1358,34900.0,1.641476273536682,-0.15314064919948578,-9.791430473327637
1359,34950.0,1.641476273536682,-0.15314064919948578,-9.791430473327637
1360,34000.0,6.63769006729126,4.292723655700684,-6.522834300994872
1361,34050.0,6.63769006729126,4.292723655700684,-6.522834300994872
1362,34100.0,6.63769006729126,4.292723655700684,-6.522834300994872
1363,34150.0,6.63769006729126,4.292723655700684,-6.522834300994872
1364,34200.0,6.63769006729126,4.292723655700684,-6.522834300994872
1365,34250.0,2.4885356426239014,10.480563163757324,2.057827472686768
1366,34300.0,2.4885356426239014,10.480563163757324,2.057827472686768
1367,34350.0,2.4885356426239014,10.480563163757324,2.057827472686768
1368,34400.0,2.4885356426239014,10.480563163757324,2.057827472686768
1369,34450.0,6.829115867614746,12.940383911132812,2.3401806354522705
1370,34500.0,6.829115867614746,12.940383911132812,2.3401806354522705
1371,34550.0,6.829115867614746,12.940383911132812,2.3401806354522705
1372,34600.0,6.829115867614746,12.940383911132812,2.3401806354522705
1373,34650.0,6.829115867614746,12.940383911132812,2.3401806354522705
1374,34700.0,2.569891452789306,4.744967460632324,-5.989234924316406
1375,34750.0,2.569891452789306,4.744967460632324,-5.989234924316406
1376,34800.0,2.569891452789306,4.744967460632324,-5.989234924316406
1377,34850.0,2.569891452789306,4.744967460632324,-5.989234924316406
1378,34900.0,1.641476273536682,-0.15314064919948578,-9.791430473327637
1379,34950.0,1.641476273536682,-0.15314064919948578,-9.791430473327637
1380,35000.0,1.641476273536682,-0.15314064919948578,-9.791430473327637
1381,35050.0,1.641476273536682,-0.15314064919948578,-9.791430473327637
1382,35100.0,1.641476273536682,-0.15314064919948578,-9.791430473327637
1383,35150.0,0.25363919138908386,7.893921852111816,-4.407578945159912
1384,35200.0,0.25363919138908386,7.893921852111816,-4.407578945159912
1385,35250.0,0.25363919138908386,7.893921852111816,-4.407578945159912
1386,35300.0,0.25363919138908386,7.893921852111816,-4.407578945159912
1387,35350.0,0.25363919138908386,7.893921852111816,-4.407578945159912
1388,35400.0,0.8087739944458008,8.365307807922362,2.931207656860352
1389,35450.0,0.8087739944458008,8.365307807922362,2.931207656860352
1390,35500.0,0.8087739944458008,8.365307807922362,2.931207656860352
1391,35550.0,0.8087739944458008,8.365307807922362,2.931207656860352
1392,35600.0,0.5072783827781677,8.614161491394043,3.6945178508758554
1393,35650.0,0.5072783827781677,8.614161491394043,3.6945178508758554
1394,35700.0,0.5072783827781677,8.614161491394043,3.6945178508758554
1395,35750.0,0.5072783827781677,8.614161491394043,3.6945178508758554
1396,35800.0,1.8855443000793457,9.473184585571287,0.6843472719192505
1397,35850.0,1.8855443000793457,9.473184585571287,0.6843472719192505
1398,35900.0,1.8855443000793457,9.473184585571287,0.6843472719192505
1399,35950.0,1.8855443000793457,9.473184585571287,0.6843472719192505
1400,35000.0,1.641476273536682,-0.15314064919948578,-9.791430473327637
1401,35050.0,1.641476273536682,-0.15314064919948578,-9.791430473327637
1402,35100.0,1.641476273536682,-0.15314064919948578,-9.791430473327637
1403,35150.0,0.25363919138908386,7.893921852111816,-4.407578945159912
1404,35200.0,0.25363919138908386,7.893921852111816,-4.407578945159912
1405,35250.0,0.25363919138908386,7.893921852111816,-4.407578945159912
1406,35300.0,0.25363919138908386,7.893921852111816,-4.407578945159912
1407,35350.0,0.25363919138908386,7.893921852111816,-4.407578945159912
1408,35400.0,0.8087739944458008,8.365307807922362,2.931207656860352
1409,35450.0,0.8087739944458008,8.365307807922362,2.931207656860352
1410,35500.0,0.8087739944458008,8.365307807922362,2.931207656860352
1411,35550.0,0.8087739944458008,8.365307807922362,2.931207656860352
1412,35600.0,0.5072783827781677,8.614161491394043,3.6945178508758554
1413,35650.0,0.5072783827781677,8.614161491394043,3.6945178508758554
1414,35700.0,0.5072783827781677,8.614161491394043,3.6945178508758554
1415,35750.0,0.5072783827781677,8.614161491394043,3.6945178508758554
1416,35800.0,1.8855443000793457,9.473184585571287,0.6843472719192505
1417,35850.0,1.8855443000793457,9.473184585571287,0.6843472719192505
1418,35900.0,1.8855443000793457,9.473184585571287,0.6843472719192505
1419,35950.0,1.8855443000793457,9.473184585571287,0.6843472719192505
1420,36000.0,1.8855443000793457,9.473184585571287,0.6843472719192505
1421,36050.0,0.8662018179893494,11.184053421020508,-2.3617160320281982
1422,36100.0,0.8662018179893494,11.184053421020508,-2.3617160320281982
1423,36150.0,0.8662018179893494,11.184053421020508,-2.3617160320281982
1424,36200.0,0.8662018179893494,11.184053421020508,-2.3617160320281982
1425,36250.0,0.8662018179893494,11.184053421020508,-2.3617160320281982
1426,36300.0,1.6845470666885376,4.290330886840819,-9.578469276428224
1427,36350.0,1.6845470666885376,4.290330886840819,-9.578469276428224
1428,36400.0,1.6845470666885376,4.290330886840819,-9.578469276428224
1429,36450.0,1.6845470666885376,4.290330886840819,-9.578469276428224
1430,36500.0,-1.6175479888916016,5.285745620727539,-6.790830135345459
1431,36550.0,-1.6175479888916016,5.285745620727539,-6.790830135345459
1432,36600.0,-1.6175479888916016,5.285745620727539,-6.790830135345459
1433,36650.0,-1.6175479888916016,5.285745620727539,-6.790830135345459
1434,36700.0,0.2153540551662445,9.052047729492188,-2.9838497638702397
1435,36750.0,0.2153540551662445,9.052047729492188,-2.9838497638702397
1436,36800.0,0.2153540551662445,9.052047729492188,-2.9838497638702397
1437,36850.0,0.2153540551662445,9.052047729492188,-2.9838497638702397
1438,36900.0,-0.0047856452874839315,6.0538411140441895,-6.041877269744872
1439,36950.0,-0.0047856452874839315,6.0538411140441895,-6.041877269744872
1440,36000.0,1.8855443000793457,9.473184585571287,0.6843472719192505
1441,36050.0,0.8662018179893494,11.184053421020508,-2.3617160320281982
1442,36100.0,0.8662018179893494,11.184053421020508,-2.3617160320281982
1443,36150.0,0.8662018179893494,11.184053421020508,-2.3617160320281982
1444,36200.0,0.8662018179893494,11.184053421020508,-2.3617160320281982
1445,36250.0,0.8662018179893494,11.184053421020508,-2.3617160320281982
1446,36300.0,1.6845470666885376,4.290330886840819,-9.578469276428224
1447,36350.0,1.6845470666885376,4.290330886840819,-9.578469276428224
1448,36400.0,1.6845470666885376,4.290330886840819,-9.578469276428224
1449,36450.0,1.6845470666885376,4.290330886840819,-9.578469276428224
1450,36500.0,-1.6175479888916016,5.285745620727539,-6.790830135345459
1451,36550.0,-1.6175479888916016,5.285745620727539,-6.790830135345459
1452,36600.0,-1.6175479888916016,5.285745620727539,-6.790830135345459
1453,36650.0,-1.6175479888916016,5.285745620727539,-6.790830135345459
1454,36700.0,0.2153540551662445,9.052047729492188,-2.9838497638702397
1455,36750.0,0.2153540551662445,9.052047729492188,-2.9838497638702397
1456,36800.0,0.2153540551662445,9.052047729492188,-2.9838497638702397
1457,36850.0,0.2153540551662445,9.052047729492188,-2.9838497638702397
1458,36900.0,-0.0047856452874839315,6.0538411140441895,-6.041877269744872
1459,36950.0,-0.0047856452874839315,6.0538411140441895,-6.041877269744872
1460,37000.0,-0.0047856452874839315,6.0538411140441895,-6.041877269744872
1461,37050.0,-0.0047856452874839315,6.0538411140441895,-6.041877269744872
1462,37100.0,-0.0047856452874839315,6.0538411140441895,-6.041877269744872
1463,37150.0,0.7704889178276062,9.81535816192627,-5.7954163551330575
1464,37200.0,0.7704889178276062,9.81535816192627,-5.7954163551330575
1465,37250.0,0.7704889178276062,9.81535816192627,-5.7954163551330575
1466,37300.0,0.7704889178276062,9.81535816192627,-5.7954163551330575
1467,37350.0,-2.177468776702881,5.125426292419434,-5.936593055725098
1468,37400.0,-2.177468776702881,5.125426292419434,-5.936593055725098
1469,37450.0,-2.177468776702881,5.125426292419434,-5.936593055725098
1470,37500.0,-2.177468776702881,5.125426292419434,-5.936593055725098
1471,37550.0,-3.4983065128326416,7.2263240814208975,-6.675975322723389
1472,37600.0,-3.4983065128326416,7.2263240814208975,-6.675975322723389
1473,37650.0,-3.4983065128326416,7.2263240814208975,-6.675975322723389
1474,37700.0,-3.4983065128326416,7.2263240814208975,-6.675975322723389
1475,37750.0,-3.4983065128326416,7.2263240814208975,-6.675975322723389
1476,37800.0,-4.168296813964844,0.3038884699344635,-8.740981101989746
1477,37850.0,-4.168296813964844,0.3038884699344635,-8.740981101989746
1478,37900.0,-4.168296813964844,0.3038884699344635,-8.740981101989746
1479,37950.0,-4.168296813964844,0.3038884699344635,-8.740981101989746
1480,37000.0,-0.0047856452874839315,6.0538411140441895,-6.041877269744872
1481,37050.0,-0.0047856452874839315,6.0538411140441895,-6.041877269744872
1482,37100.0,-0.0047856452874839315,6.0538411140441895,-6.041877269744872
1483,37150.0,0.7704889178276062,9.81535816192627,-5.7954163551330575
1484,37200.0,0.7704889178276062,9.81535816192627,-5.7954163551330575
1485,37250.0,0.7704889178276062,9.81535816192627,-5.7954163551330575
1486,37300.0,0.7704889178276062,9.81535816192627,-5.7954163551330575
1487,37350.0,-2.177468776702881,5.125426292419434,-5.936593055725098
1488,37400.0,-2.177468776702881,5.125426292419434,-5.936593055725098
1489,37450.0,-2.177468776702881,5.125426292419434,-5.936593055725098
1490,37500.0,-2.177468776702881,5.125426292419434,-5.936593055725098
1491,37550.0,-3.4983065128326416,7.2263240814208975,-6.675975322723389
1492,37600.0,-3.4983065128326416,7.2263240814208975,-6.675975322723389
1493,37650.0,-3.4983065128326416,7.2263240814208975,-6.675975322723389
1494,37700.0,-3.4983065128326416,7.2263240814208975,-6.675975322723389
1495,37750.0,-3.4983065128326416,7.2263240814208975,-6.675975322723389
1496,37800.0,-4.168296813964844,0.3038884699344635,-8.740981101989746
1497,37850.0,-4.168296813964844,0.3038884699344635,-8.740981101989746
1498,37900.0,-4.168296813964844,0.3038884699344635,-8.740981101989746
1499,37950.0,-4.168296813964844,0.3038884699344635,-8.740981101989746
1500,38000.0,-4.168296813964844,0.3038884699344635,-8.740981101989746
1501,38050.0,-4.785645484924316,4.409972190856934,-7.345965385437013
1502,38100.0,-4.785645484924316,4.409972190856934,-7.345965385437013
1503,38150.0,-4.785645484924316,4.409972190856934,-7.345965385437013
1504,38200.0,-4.785645484924316,4.409972190856934,-7.345965385437013
1505,38250.0,-4.785645484924316,4.409972190856934,-7.345965385437013
1506,38300.0,-3.780659914016724,-2.7876384258270264,-7.4081788063049325
1507,38350.0,-3.780659914016724,-2.7876384258270264,-7.4081788063049325
1508,38400.0,-3.780659914016724,-2.7876384258270264,-7.4081788063049325
1509,38450.0,-3.780659914016724,-2.7876384258270264,-7.4081788063049325
1510,38500.0,-6.173482418060303,-0.4594219326972962,-9.293723106384276
1511,38550.0,-6.173482418060303,-0.4594219326972962,-9.293723106384276
1512,38600.0,-6.173482418060303,-0.4594219326972962,-9.293723106384276
1513,38650.0,-6.173482418060303,-0.4594219326972962,-9.293723106384276
1514,38700.0,-6.173482418060303,-0.4594219326972962,-9.293723106384276
1515,38750.0,-4.091726779937743,2.8211379051208496,-5.477170467376709
1516,38800.0,-4.091726779937743,2.8211379051208496,-5.477170467376709
1517,38850.0,-4.091726779937743,2.8211379051208496,-5.477170467376709
1518,38900.0,-4.091726779937743,2.8211379051208496,-5.477170467376709
1519,38950.0,-4.091726779937743,2.8211379051208496,-5.477170467376709
1520,38000.0,-4.168296813964844,0.3038884699344635,-8.740981101989746
1521,38050.0,-4.785645484924316,4.409972190856934,-7.345965385437013
1522,38100.0,-4.785645484924316,4.409972190856934,-7.345965385437013
1523,38150.0,-4.785645484924316,4.409972190856934,-7.345965385437013
1524,38200.0,-4.785645484924316,4.409972190856934,-7.345965385437013
1525,38250.0,-4.785645484924316,4.409972190856934,-7.345965385437013
1526,38300.0,-3.780659914016724,-2.7876384258270264,-7.4081788063049325
1527,38350.0,-3.780659914016724,-2.7876384258270264,-7.4081788063049325
1528,38400.0,-3.780659914016724,-2.7876384258270264,-7.4081788063049325
1529,38450.0,-3.780659914016724,-2.7876384258270264,-7.4081788063049325
1530,38500.0,-6.173482418060303,-0.4594219326972962,-9.293723106384276
1531,38550.0,-6.173482418060303,-0.4594219326972962,-9.293723106384276
1532,38600.0,-6.173482418060303,-0.4594219326972962,-9.293723106384276
1533,38650.0,-6.173482418060303,-0.4594219326972962,-9.293723106384276
1534,38700.0,-6.173482418060303,-0.4594219326972962,-9.293723106384276
1535,38750.0,-4.091726779937743,2.8211379051208496,-5.477170467376709
1536,38800.0,-4.091726779937743,2.8211379051208496,-5.477170467376709
1537,38850.0,-4.091726779937743,2.8211379051208496,-5.477170467376709
1538,38900.0,-4.091726779937743,2.8211379051208496,-5.477170467376709
1539,38950.0,-4.091726779937743,2.8211379051208496,-5.477170467376709
1540,39000.0,1.9956141710281368,-0.397208571434021,-7.858029365539551
1541,39050.0,1.9956141710281368,-0.397208571434021,-7.858029365539551
1542,39100.0,1.9956141710281368,-0.397208571434021,-7.858029365539551
1543,39150.0,1.9956141710281368,-0.397208571434021,-7.858029365539551
1544,39200.0,1.9956141710281368,-0.397208571434021,-7.858029365539551
1545,39250.0,7.939385414123535,-1.3375877141952517,-9.164510726928713
1546,39300.0,7.939385414123535,-1.3375877141952517,-9.164510726928713
1547,39350.0,7.939385414123535,-1.3375877141952517,-9.164510726928713
1548,39400.0,7.939385414123535,-1.3375877141952517,-9.164510726928713
1549,39450.0,9.221939086914062,-0.7824530005455017,-5.900700569152832
1550,39500.0,9.221939086914062,-0.7824530005455017,-5.900700569152832
1551,39550.0,9.221939086914062,-0.7824530005455017,-5.900700569152832
1552,39600.0,9.221939086914062,-0.7824530005455017,-5.900700569152832
1553,39650.0,9.221939086914062,-0.7824530005455017,-5.900700569152832
1554,39700.0,9.221939086914062,-0.7824530005455017,-5.900700569152832
1555,39750.0,6.312265872955322,3.1752755641937256,-7.621140003204347
1556,39800.0,6.312265872955322,3.1752755641937256,-7.621140003204347
1557,39850.0,6.312265872955322,3.1752755641937256,-7.621140003204347
1558,39900.0,6.312265872955322,3.1752755641937256,-7.621140003204347
1559,39950.0,8.327022552490233,-2.3258235454559326,-5.565705299377441
1560,39000.0,1.9956141710281368,-0.397208571434021,-7.858029365539551
1561,39050.0,1.9956141710281368,-0.397208571434021,-7.858029365539551
1562,39100.0,1.9956141710281368,-0.397208571434021,-7.858029365539551
1563,39150.0,1.9956141710281368,-0.397208571434021,-7.858029365539551
1564,39200.0,1.9956141710281368,-0.397208571434021,-7.858029365539551
1565,39250.0,7.939385414123535,-1.3375877141952517,-9.164510726928713
1566,39300.0,7.939385414123535,-1.3375877141952517,-9.164510726928713
1567,39350.0,7.939385414123535,-1.3375877141952517,-9.164510726928713
1568,39400.0,7.939385414123535,-1.3375877141952517,-9.164510726928713
1569,39450.0,9.221939086914062,-0.7824530005455017,-5.900700569152832
1570,39500.0,9.221939086914062,-0.7824530005455017,-5.900700569152832
1571,39550.0,9.221939086914062,-0.7824530005455017,-5.900700569152832
1572,39600.0,9.221939086914062,-0.7824530005455017,-5.900700569152832
1573,39650.0,9.221939086914062,-0.7824530005455017,-5.900700569152832
1574,39700.0,9.221939086914062,-0.7824530005455017,-5.900700569152832
1575,39750.0,6.312265872955322,3.1752755641937256,-7.621140003204347
1576,39800.0,6.312265872955322,3.1752755641937256,-7.621140003204347
1577,39850.0,6.312265872955322,3.1752755641937256,-7.621140003204347
1578,39900.0,6.312265872955322,3.1752755641937256,-7.621140003204347
1579,39950.0,8.327022552490233,-2.3258235454559326,-5.565705299377441
1580,40000.0,8.327022552490233,-2.3258235454559326,-5.565705299377441
1581,40050.0,8.327022552490233,-2.3258235454559326,-5.565705299377441
1582,40100.0,8.327022552490233,-2.3258235454559326,-5.565705299377441
1583,40150.0,8.327022552490233,-2.3258235454559326,-5.565705299377441
1584,40200.0,8.432307243347168,-1.442872166633606,-5.245067596435547
1585,40250.0,8.432307243347168,-1.442872166633606,-5.245067596435547
1586,40300.0,8.432307243347168,-1.442872166633606,-5.245067596435547
1587,40350.0,8.432307243347168,-1.442872166633606,-5.245067596435547
1588,40400.0,8.063812255859375,-0.552742063999176,-5.663811206817628
1589,40450.0,8.063812255859375,-0.552742063999176,-5.663811206817628
1590,40500.0,8.063812255859375,-0.552742063999176,-5.663811206817628
1591,40550.0,8.063812255859375,-0.552742063999176,-5.663811206817628
1592,40600.0,8.063812255859375,-0.552742063999176,-5.663811206817628
1593,40650.0,6.671189785003662,-1.1940184831619265,-6.541977405548097
1594,40700.0,6.671189785003662,-1.1940184831619265,-6.541977405548097
1595,40750.0,6.671189785003662,-1.1940184831619265,-6.541977405548097
1596,40800.0,6.671189785003662,-1.1940184831619265,-6.541977405548097
1597,40850.0,5.905486583709718,-3.2614171504974365,-7.314858913421631
1598,40900.0,5.905486583709718,-3.2614171504974365,-7.314858913421631
1599,40950.0,5.905486583709718,-3.2614171504974365,-7.314858913421631
1600,40000.0,8.327022552490233,-2.3258235454559326,-5.565705299377441
1601,40050.0,8.327022552490233,-2.3258235454559326,-5.565705299377441
1602,40100.0,8.327022552490233,-2.3258235454559326,-5.565705299377441
1603,40150.0,8.327022552490233,-2.3258235454559326,-5.565705299377441
1604,40200.0,8.432307243347168,-1.442872166633606,-5.245067596435547
1605,40250.0,8.432307243347168,-1.442872166633606,-5.245067596435547
1606,40300.0,8.432307243347168,-1.442872166633606,-5.245067596435547
1607,40350.0,8.432307243347168,-1.442872166633606,-5.245067596435547
1608,40400.0,8.063812255859375,-0.552742063999176,-5.663811206817628
1609,40450.0,8.063812255859375,-0.552742063999176,-5.663811206817628
1610,40500.0,8.063812255859375,-0.552742063999176,-5.663811206817628
1611,40550.0,8.063812255859375,-0.552742063999176,-5.663811206817628
1612,40600.0,8.063812255859375,-0.552742063999176,-5.663811206817628
1613,40650.0,6.671189785003662,-1.1940184831619265,-6.541977405548097
1614,40700.0,6.671189785003662,-1.1940184831619265,-6.541977405548097
1615,40750.0,6.671189785003662,-1.1940184831619265,-6.541977405548097
1616,40800.0,6.671189785003662,-1.1940184831619265,-6.541977405548097
1617,40850.0,5.905486583709718,-3.2614171504974365,-7.314858913421631
1618,40900.0,5.905486583709718,-3.2614171504974365,-7.314858913421631
1619,40950.0,5.905486583709718,-3.2614171504974365,-7.314858913421631
1620,41000.0,5.905486583709718,-3.2614171504974365,-7.314858913421631
1621,41050.0,5.905486583709718,-3.2614171504974365,-7.314858913421631
1622,41100.0,6.340980052947997,-0.605384111404419,-7.609175682067871
1623,41150.0,6.340980052947997,-0.605384111404419,-7.609175682067871
1624,41200.0,6.340980052947997,-0.605384111404419,-7.609175682067871
1625,41250.0,6.340980052947997,-0.605384111404419,-7.609175682067871
1626,41300.0,6.340980052947997,-0.605384111404419,-7.609175682067871
1627,41350.0,5.905486583709718,-0.0263210479170084,-7.716853141784668
1628,41400.0,5.905486583709718,-0.0263210479170084,-7.716853141784668
1629,41450.0,5.905486583709718,-0.0263210479170084,-7.716853141784668
1630,41500.0,5.905486583709718,-0.0263210479170084,-7.716853141784668
1631,41550.0,5.905486583709718,-0.0263210479170084,-7.716853141784668
1632,41600.0,5.3694939613342285,0.5000999569892883,-7.953742504119872
1633,41650.0,5.3694939613342285,0.5000999569892883,-7.953742504119872
1634,41700.0,5.3694939613342285,0.5000999569892883,-7.953742504119872
1635,41750.0,5.3694939613342285,0.5000999569892883,-7.953742504119872
1636,41800.0,2.9383859634399414,3.3427734375,-8.84626579284668
1637,41850.0,2.9383859634399414,3.3427734375,-8.84626579284668
1638,41900.0,2.9383859634399414,3.3427734375,-8.84626579284668
1639,41950.0,2.9383859634399414,3.3427734375,-8.84626579284668
1640,41000.0,5.905486583709718,-3.2614171504974365,-7.314858913421631
1641,41050.0,5.905486583709718,-3.2614171504974365,-7.314858913421631
1642,41100.0,6.340980052947997,-0.605384111404419,-7.609175682067871
1643,41150.0,6.340980052947997,-0.605384111404419,-7.609175682067871
1644,41200.0,6.340980052947997,-0.605384111404419,-7.609175682067871
1645,41250.0,6.340980052947997,-0.605384111404419,-7.609175682067871
1646,41300.0,6.340980052947997,-0.605384111404419,-7.609175682067871
1647,41350.0,5.905486583709718,-0.0263210479170084,-7.716853141784668
1648,41400.0,5.905486583709718,-0.0263210479170084,-7.716853141784668
1649,41450.0,5.905486583709718,-0.0263210479170084,-7.716853141784668
1650,41500.0,5.905486583709718,-0.0263210479170084,-7.716853141784668
1651,41550.0,5.905486583709718,-0.0263210479170084,-7.716853141784668
1652,41600.0,5.3694939613342285,0.5000999569892883,-7.953742504119872
1653,41650.0,5.3694939613342285,0.5000999569892883,-7.953742504119872
1654,41700.0,5.3694939613342285,0.5000999569892883,-7.953742504119872
1655,41750.0,5.3694939613342285,0.5000999569892883,-7.953742504119872
1656,41800.0,2.9383859634399414,3.3427734375,-8.84626579284668
1657,41850.0,2.9383859634399414,3.3427734375,-8.84626579284668
1658,41900.0,2.9383859634399414,3.3427734375,-8.84626579284668
1659,41950.0,2.9383859634399414,3.3427734375,-8.84626579284668
1660,42000.0,2.9383859634399414,3.3427734375,-8.84626579284668
1661,42050.0,4.589433670043945,2.311466693878174,-6.850651264190674
1662,42100.0,4.589433670043945,2.311466693878174,-6.850651264190674
1663,42150.0,4.589433670043945,2.311466693878174,-6.850651264190674
1664,42200.0,4.589433670043945,2.311466693878174,-6.850651264190674
1665,42250.0,8.322237014770508,-0.5718846321105957,-6.671189785003662
1666,42300.0,8.322237014770508,-0.5718846321105957,-6.671189785003662
1667,42350.0,8.322237014770508,-0.5718846321105957,-6.671189785003662
1668,42400.0,8.322237014770508,-0.5718846321105957,-6.671189785003662
1669,42450.0,8.322237014770508,-0.5718846321105957,-6.671189785003662
1670,42500.0,4.335794448852538,4.8191447257995605,-9.004191398620605
1671,42550.0,4.335794448852538,4.8191447257995605,-9.004191398620605
1672,42600.0,4.335794448852538,4.8191447257995605,-9.004191398620605
1673,42650.0,4.335794448852538,4.8191447257995605,-9.004191398620605
1674,42700.0,4.335794448852538,4.8191447257995605,-9.004191398620605
1675,42750.0,5.876771926879883,4.6061835289001465,-4.7712883949279785
1676,42800.0,5.876771926879883,4.6061835289001465,-4.7712883949279785
1677,42850.0,5.876771926879883,4.6061835289001465,-4.7712883949279785
1678,42900.0,5.876771926879883,4.6061835289001465,-4.7712883949279785
1679,42950.0,6.642475128173827,0.5264209508895874,-7.6115684509277335
1680,42000.0,2.9383859634399414,3.3427734375,-8.84626579284668
1681,42050.0,4.589433670043945,2.311466693878174,-6.850651264190674
1682,42100.0,4.589433670043945,2.311466693878174,-6.850651264190674
1683,42150.0,4.589433670043945,2.311466693878174,-6.850651264190674
1684,42200.0,4.589433670043945,2.311466693878174,-6.850651264190674
1685,42250.0,8.322237014770508,-0.5718846321105957,-6.671189785003662
1686,42300.0,8.322237014770508,-0.5718846321105957,-6.671189785003662
1687,42350.0,8.322237014770508,-0.5718846321105957,-6.671189785003662
1688,42400.0,8.322237014770508,-0.5718846321105957,-6.671189785003662
1689,42450.0,8.322237014770508,-0.5718846321105957,-6.671189785003662
1690,42500.0,4.335794448852538,4.8191447257995605,-9.004191398620605
1691,42550.0,4.335794448852538,4.8191447257995605,-9.004191398620605
1692,42600.0,4.335794448852538,4.8191447257995605,-9.004191398620605
1693,42650.0,4.335794448852538,4.8191447257995605,-9.004191398620605
1694,42700.0,4.335794448852538,4.8191447257995605,-9.004191398620605
1695,42750.0,5.876771926879883,4.6061835289001465,-4.7712883949279785
1696,42800.0,5.876771926879883,4.6061835289001465,-4.7712883949279785
1697,42850.0,5.876771926879883,4.6061835289001465,-4.7712883949279785
1698,42900.0,5.876771926879883,4.6061835289001465,-4.7712883949279785
1699,42950.0,6.642475128173827,0.5264209508895874,-7.6115684509277335
1700,43000.0,6.642475128173827,0.5264209508895874,-7.6115684509277335
1701,43050.0,6.642475128173827,0.5264209508895874,-7.6115684509277335
1702,43100.0,6.642475128173827,0.5264209508895874,-7.6115684509277335
1703,43150.0,4.776073932647705,5.647061824798584,-5.2833523750305185
1704,43200.0,4.776073932647705,5.647061824798584,-5.2833523750305185
1705,43250.0,4.776073932647705,5.647061824798584,-5.2833523750305185
1706,43300.0,4.776073932647705,5.647061824798584,-5.2833523750305185
1707,43350.0,4.776073932647705,5.647061824798584,-5.2833523750305185
1708,43400.0,5.661418437957764,4.8023948669433585,-4.4506497383117685
1709,43450.0,5.661418437957764,4.8023948669433585,-4.4506497383117685
1710,43500.0,5.661418437957764,4.8023948669433585,-4.4506497383117685
1711,43550.0,5.661418437957764,4.8023948669433585,-4.4506497383117685
1712,43600.0,4.8095736503601065,5.1804609298706055,-5.273780822753906
1713,43650.0,4.8095736503601065,5.1804609298706055,-5.273780822753906
1714,43700.0,4.8095736503601065,5.1804609298706055,-5.273780822753906
1715,43750.0,4.8095736503601065,5.1804609298706055,-5.273780822753906
1716,43800.0,5.26899528503418,5.608776092529297,-6.343372344970702
1717,43850.0,5.26899528503418,5.608776092529297,-6.343372344970702
1718,43900.0,5.26899528503418,5.608776092529297,-6.343372344970702
1719,43950.0,5.26899528503418,5.608776092529297,-6.343372344970702
1720,43000.0,6.642475128173827,0.5264209508895874,-7.6115684509277335
1721,43050.0,6.642475128173827,0.5264209508895874,-7.6115684509277335
1722,43100.0,6.642475128173827,0.5264209508895874,-7.6115684509277335
1723,43150.0,4.776073932647705,5.647061824798584,-5.2833523750305185
1724,43200.0,4.776073932647705,5.647061824798584,-5.2833523750305185
1725,43250.0,4.776073932647705,5.647061824798584,-5.2833523750305185
1726,43300.0,4.776073932647705,5.647061824798584,-5.2833523750305185
1727,43350.0,4.776073932647705,5.647061824798584,-5.2833523750305185
1728,43400.0,5.661418437957764,4.8023948669433585,-4.4506497383117685
1729,43450.0,5.661418437957764,4.8023948669433585,-4.4506497383117685
1730,43500.0,5.661418437957764,4.8023948669433585,-4.4506497383117685
1731,43550.0,5.661418437957764,4.8023948669433585,-4.4506497383117685
1732,43600.0,4.8095736503601065,5.1804609298706055,-5.273780822753906
1733,43650.0,4.8095736503601065,5.1804609298706055,-5.273780822753906
1734,43700.0,4.8095736503601065,5.1804609298706055,-5.273780822753906
1735,43750.0,4.8095736503601065,5.1804609298706055,-5.273780822753906
1736,43800.0,5.26899528503418,5.608776092529297,-6.343372344970702
1737,43850.0,5.26899528503418,5.608776092529297,-6.343372344970702
1738,43900.0,5.26899528503418,5.608776092529297,-6.343372344970702
1739,43950.0,5.26899528503418,5.608776092529297,-6.343372344970702
1740,44000.0,5.26899528503418,5.608776092529297,-6.343372344970702
1741,44050.0,6.675975322723389,7.793423175811768,-4.917250633239746
1742,44100.0,6.675975322723389,7.793423175811768,-4.917250633239746
1743,44150.0,6.675975322723389,7.793423175811768,-4.917250633239746
1744,44200.0,6.675975322723389,7.793423175811768,-4.917250633239746
1745,44250.0,6.675975322723389,7.793423175811768,-4.917250633239746
1746,44300.0,2.2779672145843506,6.891329765319824,-4.697111129760742
1747,44350.0,2.2779672145843506,6.891329765319824,-4.697111129760742
1748,44400.0,2.2779672145843506,6.891329765319824,-4.697111129760742
1749,44450.0,2.2779672145843506,6.891329765319824,-4.697111129760742
1750,44500.0,5.187639236450195,3.6299118995666495,-8.193024635314941
1751,44550.0,5.187639236450195,3.6299118995666495,-8.193024635314941
1752,44600.0,5.187639236450195,3.6299118995666495,-8.193024635314941
1753,44650.0,5.187639236450195,3.6299118995666495,-8.193024635314941
1754,44700.0,5.187639236450195,3.6299118995666495,-8.193024635314941
1755,44750.0,3.641876220703125,6.123232841491699,-6.884150981903076
1756,44800.0,3.641876220703125,6.123232841491699,-6.884150981903076
1757,44850.0,3.641876220703125,6.123232841491699,-6.884150981903076
1758,44900.0,3.641876220703125,6.123232841491699,-6.884150981903076
1759,44950.0,6.647261142730713,6.367300987243652,-6.539584159851074
1760,44000.0,5.26899528503418,5.608776092529297,-6.343372344970702
1761,44050.0,6.675975322723389,7.793423175811768,-4.917250633239746
