timestamp,ax,ay,az
1481523493422,-2.013523578643799,-9.25299072265625,1.975814938545227
1481523493561,-1.9075802564620972,-9.125499725341797,1.669357180595398
1481523493742,-2.007538080215454,-9.271546363830566,1.8555063009262085
1481523493922,-3.3734302520751953,-9.342175483703613,1.4401123523712158
1481523494105,-1.820790410041809,-9.96825885772705,3.2746694087982178
1481523494285,-1.0594342947006226,-6.976703643798828,3.3004069328308105
1481523494463,-2.0817582607269287,-7.619546890258789,3.8079779148101807
1481523494645,-2.4013843536376953,-8.689156532287598,3.378218650817871
1481523494827,-3.9246952533721924,-7.924209117889404,1.6831238269805908
1481523495007,-3.7421371936798096,-13.558363914489746,0.8349778652191162
1481523495184,-3.1531636714935303,-7.663839817047119,2.189497470855713
1481523495365,-2.9077579975128174,-7.399878978729248,3.1890766620635986
1481523495551,-2.007538080215454,-7.582436561584473,1.9093759059906006
1481523495724,-3.399766445159912,-14.295778274536133,5.875370979309082
1481523495903,-1.1079168319702148,-4.565144062042236,2.7030537128448486
1481523496088,-0.7218518257141113,-6.9491705894470215,3.2369606494903564
1481523496263,-3.6589386463165283,-7.08144998550415,3.5679590702056885
1481523496445,-7.229291915893555,-16.35419273376465,0.44532153010368347
1481523496629,-0.22744916379451752,-6.855197906494141,0.22625206410884857
1481523496809,-3.0615854263305664,-8.726266860961914,1.590348482131958
1481523496985,-3.090914487838745,-7.3023152351379395,3.4392707347869873
1481523497170,-2.2020668983459473,-11.645397186279297,7.207744121551514
1481523497345,-3.450044631958008,-5.8873419761657715,2.8413188457489014
1481523497526,-0.004189853090792894,-8.44315242767334,1.3838485479354858
1481523497710,-1.2216414213180542,-10.780491828918457,-1.824381709098816
1481523497891,-4.6507368087768555,-9.837176322937012,-0.17836803197860718
1481523498071,-3.2968156337738037,-7.750629425048828,1.2563573122024536
1481523498257,-1.9536685943603516,-7.921814918518066,1.0779893398284912
1481523498433,-2.029684543609619,-11.386823654174805,4.688445568084717
1481523498611,-1.7507599592208862,-6.145317077636719,2.626439332962036
1481523498791,-2.958634853363037,-8.759186744689941,2.1703438758850098
1481523498968,-2.693476915359497,-14.56692123413086,2.3499090671539307
1481523499152,-4.111443042755127,-9.223063468933105,-0.5398924946784973
1481523499335,-2.889801502227783,-6.7714009284973145,-0.4225766062736511
1481523499507,-3.2399535179138184,-8.031349182128906,3.3285388946533203
1481523499692,-3.332130193710327,-12.719196319580078,4.048594951629639
1481523499872,-0.9163807034492493,-5.537788391113281,2.3995885848999023
1481523500048,-3.6505589485168457,-7.2783732414245605,3.030460834503174
1481523500233,-2.211045265197754,-16.548124313354492,1.3658920526504517
1481523500412,-3.42490553855896,-8.743025779724121,-0.6901286244392395
1481523500594,-2.343324899673462,-9.258976936340332,-1.2713210582733154
1481523500773,-3.995922565460205,-9.100958824157715,1.6891093254089355
1481523500948,-2.7054479122161865,-8.75080680847168,1.9231425523757935
1481523501133,2.5049335956573486,-12.021286964416504,2.3744494915008545
1481523501314,0.06883329898118973,-5.621585369110107,1.7106571197509766
1481523501489,-1.535880446434021,-5.922656536102295,4.818330764770508
1481523501672,-0.26096799969673157,-10.491990089416504,2.3295583724975586
1481523501854,-6.47092866897583,-8.82203483581543,-0.25498247146606445
1481523502030,-3.732560396194458,-6.712742805480957,1.2767080068588257
1481523502213,-3.5446155071258545,-7.404667377471924,0.8236053586006165
1481523502395,-3.640383720397949,-7.310694694519043,2.4648306369781494
1481523502573,-3.669712543487549,-13.440449714660645,6.705560207366943
1481523502778,-1.8944120407104492,-7.117961883544922,4.228758811950684
1481523502935,-0.1628057211637497,-6.802525520324707,2.4444799423217773
1481523503115,-5.450400352478027,-12.459425926208496,-2.058414936065674
1481523503293,-5.301361083984375,-7.589619159698486,1.2288240194320679
1481523503496,-3.951031446456909,-7.672817707061768,2.938283920288086
1481523503656,-3.824138641357422,-7.512406349182129,2.5462334156036377
1481523503837,-4.945822238922119,-10.72482681274414,3.535637378692627
1481523504012,-4.318541526794434,-7.981071472167969,3.5176808834075928
1481523504196,-2.339733600616455,-6.413467884063721,2.9933507442474365
1481523504377,0.5901707410812378,-7.899069786071777,3.937863349914551
1481523504552,-1.335964560508728,-7.418434143066406,2.433107376098633
1481523504738,-7.672219276428223,-17.76617431640625,1.679532527923584
1481523504918,-4.677671432495117,-7.041347026824951,0.7080851793289185
1481523505095,-3.7241806983947754,-7.334038257598877,3.1220390796661377
1481523505277,-1.2713210582733154,-7.794922351837158,4.267664432525635
1481523505456,0.30466216802597046,-14.499883651733398,6.263830184936523
1481523505638,1.7603367567062378,-4.553771495819092,2.166752576828003
1481523505816,-1.3646949529647827,-10.595540046691895,2.8646624088287354
1481523505998,-2.072181463241577,-7.606977462768555,0.44352585077285767
1481523506178,-4.43705415725708,-9.756970405578613,2.362478494644165
1481523506358,-2.522890090942383,-8.250418663024902,1.581370234489441
1481523506534,-4.534617900848389,-8.928576469421387,1.5191209316253662
1481523506719,-2.6156654357910156,-7.216124057769775,2.603095769882202
1481523506899,-2.117671489715576,-7.8092875480651855,1.5316904783248901
1481523507075,-3.931279182434082,-11.399991035461426,4.163516521453857
1481523507259,-2.3349452018737793,-5.27263069152832,1.86508309841156
1481523507439,-2.036867141723633,-9.1847562789917,3.757699489593506
1481523507615,-0.7044938206672668,-12.734758377075195,1.1755530834197998
1481523507799,-4.294000625610352,-10.919355392456055,-2.25473952293396
1481523507978,-4.062361717224121,-9.724050521850586,0.6625953316688538
1481523508155,-2.0213048458099365,-8.565256118774414,2.540247917175293
1481523508339,2.9305028915405273,-11.61487102508545,-4.043806552886963
1481523508519,-0.608127236366272,-6.856395244598389,1.2868833541870117
1481523508700,-1.9841946363449097,-8.598775863647461,3.955819845199585
1481523508881,-0.7703344225883484,-8.498218536376953,4.170699596405029
1481523509060,-1.6041151285171509,-7.475894927978516,4.794388771057129
1481523509241,-3.998316764831543,-13.692439079284668,-1.8022353649139404
1481523509421,-3.312976598739624,-9.476848602294922,0.5883750915527344
1481523509597,-2.3122003078460693,-8.965686798095703,-0.7451952695846558
1481523509781,-2.844910144805908,-9.545083999633789,2.4821887016296387
1481523509961,-2.318185806274414,-7.67042350769043,2.388216257095337
1481523510137,-2.8880057334899902,-6.631340026855469,2.5779566764831543
1481523510321,-1.5496470928192139,-19.608510971069336,3.6098575592041016
1481523510502,-1.6543933153152466,-5.004479885101318,4.429871559143066
1481523510680,-1.8710685968399048,-7.213130950927734,4.095880508422852
1481523510863,-1.5843629837036133,-8.860342025756836,4.225766181945801
1481523511043,-3.7870285511016846,-7.511209487915039,4.013879299163818
1481523511223,-2.7269957065582275,-7.6075758934021,2.079364061355591
1481523511403,-2.7269957065582275,-7.458536624908447,0.9965864419937134
1481523511581,-2.2445640563964844,-7.431003570556641,1.7148469686508179
1481523511761,-2.8185739517211914,-6.205770969390869,4.601057052612305
1481523511944,0.8888474106788635,-14.776413917541504,8.664615631103516
1481523512119,0.3621230125427246,-5.588066577911377,3.0196869373321533
1481523512304,-2.0183119773864746,-9.70310115814209,2.868253707885742
1481523512484,-2.692279815673828,-6.915052890777588,2.0254945755004883
1481523512659,-0.2663549482822418,-13.202825546264648,3.3243491649627686
1481523512842,-2.360682964324951,-10.876858711242676,4.711789131164551
1481523513025,-3.332130193710327,-7.968502044677734,1.768117904663086
1481523513203,-3.1316158771514893,-8.848969459533691,1.9105730056762695
1481523513385,-2.651578426361084,-7.16584587097168,2.2008697986602783
1481523513565,-2.8197710514068604,-12.810774803161621,3.755903959274292
1481523513745,-2.231395959854126,-7.9182233810424805,4.2963948249816895
1481523513925,-1.2401964664459229,-7.550713539123535,3.511096715927124
1481523514104,-1.4658499956130981,-7.881711959838867,3.7038300037384033
1481523514286,-0.7667431235313416,-7.589619159698486,1.191115379333496
1481523514466,-3.4374752044677734,-9.051279067993164,1.2856862545013428
1481523514641,-2.8580782413482666,-7.8056960105896,1.713649868965149
1481523514823,-2.889202833175659,-8.23006820678711,1.5622166395187378
1481523515007,-3.1513679027557373,-10.42615032196045,1.4891934394836426
1481523515182,-2.832340717315674,-9.020753860473633,5.185841083526611
1481523515367,-0.5638344883918762,-5.974730491638184,1.072602391242981
1481523515546,-3.713406801223755,-5.717353820800781,2.143409013748169
1481523515722,-4.934449672698975,-16.560094833374023,1.6903064250946045
1481523515903,-2.8203697204589844,-7.689577102661133,0.9068039059638977
1481523516087,-3.6535518169403076,-8.389283180236816,1.1480196714401245
1481523516268,-1.9853917360305786,-7.4136457443237305,4.177882194519043
1481523516447,-2.9203274250030518,-13.922283172607422,5.867589950561523
1481523516628,-0.9103952050209045,-6.020818710327148,0.4010287821292877
1481523516808,-4.089895248413086,-8.927978515625,5.134365558624268
1481523516988,-1.3634978532791138,-11.611279487609863,-2.5755624771118164
1481523517164,-2.9759926795959473,-8.53413200378418,0.19393034279346466
1481523517348,-4.4310688972473145,-8.714295387268066,-0.3016694188117981
1481523517529,-2.941276788711548,-9.349956512451172,2.5097219944000244
1481523517704,1.2407950162887573,-9.751583099365234,-0.8164227604866028
1481523517887,-3.3961751461029053,-7.964910507202148,3.88818359375
1481523518069,-1.5795745849609375,-5.719149112701416,1.3263877630233765
1481523518249,-0.7050924301147461,-8.979453086853027,6.138733386993408
1481523518424,-3.7708675861358643,-13.810952186584473,-0.5416881442070007
1481523518607,-3.691859006881714,-6.345232963562012,-1.4179660081863403
1481523518785,-3.141192674636841,-7.790133953094482,0.8188169598579407
1481523518970,-1.5245078802108765,-6.754641532897949,3.8115692138671875
1481523519146,-2.93888258934021,-12.638392448425293,5.56053352355957
1481523519355,-0.314238965511322,-5.574300289154053,2.9077579975128174
1481523519511,1.368884801864624,-8.777742385864258,-1.3658920526504517
1481523519686,-3.688866376876831,-11.95125675201416,-0.5428852438926697
1481523519870,-1.6502034664154053,-8.23006820678711,-0.2932897210121155
1481523520051,-1.7274165153503418,-8.24503231048584,1.5526398420333862
1481523520227,-2.892195701599121,-8.039729118347168,1.8070237636566162
1481523520407,-1.778891921043396,-5.978919982910156,3.8097734451293945
1481523520592,-3.6972460746765137,-11.018714904785156,4.061164855957031
1481523520770,-0.005985504016280174,-5.060145378112793,0.9660604000091553
1481523520952,0.0077811554074287415,-8.94773006439209,3.244741916656494
1481523521131,0.882861852645874,-9.795876502990723,-1.091755986213684
1481523521312,-1.9309237003326416,-7.0790557861328125,1.0851719379425049
1481523521493,-1.3742717504501343,-8.550890922546387,2.8359320163726807
1481523521668,-2.142810583114624,-7.691971302032471,0.912190854549408
1481523521848,-2.607884168624878,-7.573458671569824,1.2892776727676392
1481523522033,-2.9951462745666504,-8.034940719604492,3.273472309112549
1481523522208,-0.3208230137825012,-8.010998725891113,0.06464344263076782
1481523522393,-1.9847931861877441,-6.558317184448242,3.1645359992980957
1481523522573,-5.4665608406066895,-14.313136100769043,1.2814964056015015
1481523522749,-2.980182647705078,-7.436390399932861,-1.0696096420288086
1481523522933,-3.9157168865203857,-8.300098419189453,2.318185806274414
1481523523114,-2.361281394958496,-8.659229278564453,1.592742681503296
1481523523294,-4.774038314819336,-7.412448406219482,3.775057554244995
1481523523474,0.272938996553421,-13.004106521606445,3.5260605812072754
1481523523650,0.363918662071228,-5.5563435554504395,2.8143839836120605
1481523523833,-2.759916067123413,-8.963293075561523,4.987122058868408
1481523524015,-1.4472949504852295,-5.38096809387207,4.076726913452148
1481523524191,-3.2130186557769775,-13.046603202819824,-1.1426327228546143
1481523524375,-0.960673451423645,-6.339247703552246,0.08798690885305405
1481523524554,-2.0248961448669434,-10.45966911315918,2.673126220703125
1481523524731,0.002992752008140087,-10.654197692871094,-2.8826189041137695
1481523524911,-0.44831427931785583,-7.55011510848999,-0.3627215623855591
1481523525094,-1.756745457649231,-7.380725383758545,3.1980550289154053
1481523525271,-1.6873136758804321,-9.651625633239746,5.154117584228516
1481523525454,-0.9427168965339661,-10.111910820007324,-1.723825216293335
1481523525637,-1.3922282457351685,-9.57441234588623,-0.043095629662275314
1481523525817,-2.0440497398376465,-8.981847763061523,-0.28371289372444153
1481523525992,-3.1980550289154053,-9.622895240783691,1.2395979166030884
1481523526175,2.5468320846557617,-10.294468879699707,0.10295066982507706
1481523526358,-0.019153613597154617,-6.314108371734619,2.873640537261963
1481523526537,-0.34416648745536804,-9.21588134765625,2.2260091304779053
1481523526713,-1.3323732614517212,-7.881711959838867,2.5025393962860107
1481523526897,-7.645284652709961,-19.608510971069336,3.1723172664642334
1481523527077,-3.315969467163086,-7.095216751098633,-1.0217255353927612
1481523527253,-3.00053334236145,-8.7298583984375,2.1936872005462646
1481523527439,-1.9375077486038208,-7.408258438110352,3.8510735034942627
1481523527617,0.043095629662275314,-13.33809757232666,5.374982833862305
1481523527796,-1.9979612827301025,-7.580641269683838,3.158550500869751
1481523527977,-1.0217255353927612,-10.3148193359375,5.916072368621826
1481523528158,-0.7697358727455139,-7.773972988128662,3.156156301498413
1481523528339,-1.4951789379119873,-7.1490864753723145,2.6204538345336914
1481523528518,-1.9536685943603516,-6.916250228881836,2.1565771102905273
1481523528700,-2.5995044708251953,-13.217190742492676,7.17242956161499
1481523528879,-2.7964274883270264,-8.465298652648926,0.19273324310779572
1481523529058,-3.271078109741211,-8.921992301940918,0.8535329103469849
1481523529235,-3.77565598487854,-7.153275966644287,2.4606409072875977
1481523529420,-0.1346738487482071,-14.427459716796875,5.415684223175049
1481523529599,-0.982221245765686,-6.861782073974609,2.412158250808716
1481523529775,-1.502361536026001,-8.387487411499023,3.6565444469451904
1481523529959,-1.6825252771377563,-7.669825077056885,2.9035680294036865
1481523530139,-1.592742681503296,-6.628347396850586,3.180696964263916
1481523530319,-9.412803649902344,-19.16498565673828,4.010287761688232
1481523530501,-3.1250317096710205,-5.854421615600586,-0.013766659423708916
1481523530679,-3.205237627029419,-11.271303176879883,3.8343141078948975
1481523530864,-2.4193408489227295,-6.988076210021973,2.5486276149749756
1481523531040,-3.1956608295440674,-9.509170532226563,1.1402385234832764
1481523531221,-2.9011738300323486,-7.024587631225586,2.4845829010009766
1481523531401,-0.31184476613998413,-6.118382453918457,1.2108675241470337
1481523531582,-3.333327293395996,-12.503119468688965,2.279279947280884
1481523531758,-3.7678749561309814,-13.44643497467041,3.489548921585083
1481523531944,-3.5027170181274414,-8.421006202697754,2.273893117904663
1481523532122,-2.623446464538574,-8.639476776123047,1.4059948921203613
1481523532298,-2.9442696571350098,-7.288548469543457,3.465606927871704
1481523532483,1.8531121015548706,-14.633360862731934,8.85555362701416
1481523532663,-0.02454056777060032,-5.7754130363464355,3.135207176208496
1481523532842,-2.095525026321411,-7.800309181213379,3.6583402156829834
1481523533023,0.48602294921875,-18.675371170043945,0.6302735805511475
1481523533203,-2.233790159225464,-10.3734769821167,-2.318784236907959
1481523533383,-5.382165431976318,-8.633491516113281,-0.017956512048840523
1481523533558,-1.7818846702575684,-10.517727851867676,2.4384944438934326
1481523533747,-4.577713489532471,-10.796652793884277,-0.9768342971801758
1481523533941,-1.9363106489181519,-10.138845443725586,-1.0564415454864502
1481523534104,-1.0869675874710083,-7.679401874542236,2.87064790725708
1481523534280,-2.2679076194763184,-7.17242956161499,4.352658748626709
1481523534464,-1.8854337930679321,-13.420099258422852,3.9899370670318604
1481523534644,-1.3449428081512451,-8.21151351928711,0.19632454216480255
1481523534820,-2.5330653190612793,-8.745420455932617,-0.7864952683448792
1481523535007,-2.403778553009033,-8.194753646850586,0.41778820753097534
1481523535185,-2.7066450119018555,-7.220912456512451,2.0590133666992188
1481523535363,-3.27227520942688,-9.189544677734375,2.0189106464385986
1481523535545,-0.3944447338581085,-7.346009254455566,3.2782607078552246
1481523535724,-1.8070237636566162,-5.412691593170166,1.4407109022140503
1481523535906,-3.446453332901001,-15.109807014465332,1.2563573122024536
1481523536081,-1.8375498056411743,-10.405200958251953,0.7338228225708008
1481523536261,-3.005920171737671,-7.451354026794434,1.7531541585922241
1481523536447,-3.029263734817505,-8.324639320373535,0.8619126081466675
1481523536627,-2.4642322063446045,-7.710526466369629,2.27209734916687
1481523536802,-1.932719349861145,-8.964489936828613,3.251924514770508
1481523536984,-2.8197710514068604,-8.060678482055664,1.3862427473068237
1481523537167,-1.9560627937316895,-8.807669639587402,3.736151695251465
1481523537342,-1.657984733581543,-5.986701488494873,2.655169725418091
1481523537524,-5.674258232116699,-12.68747329711914,3.9600095748901367
1481523537708,-1.380257248878479,-6.891709804534912,1.5107412338256836
1481523537887,-2.630629062652588,-9.507973670959473,3.335721492767334
1481523538068,-2.32297420501709,-8.052298545837402,2.5761611461639404
1481523538245,-1.1623848676681519,-12.95801830291748,3.596689462661743
1481523538428,-2.054823637008667,-5.808931827545166,0.8822633028030396
1481523538608,-0.9421183466911316,-10.18493366241455,5.280411720275879
1481523538784,-3.8798038959503174,-5.411494255065918,2.386420488357544
1481523538968,-5.070919036865234,-13.249512672424316,-0.17896658182144165
1481523539149,-4.383783340454102,-7.712322235107422,0.08319851011037827
1481523539324,-3.245340347290039,-7.220313549041748,2.608482837677002
1481523539509,-2.0913352966308594,-6.68640661239624,2.4917654991149902
1481523539689,-0.2663549482822418,-11.549629211425781,3.2106244564056396
1481523539867,1.0247182846069336,-6.039972305297852,2.674921751022339
1481523540044,-0.33099839091300964,-8.109759330749512,4.443638324737549
1481523540224,-1.9650410413742065,-14.118607521057129,3.1705214977264404
1481523540408,-2.7964274883270264,-13.619416236877441,1.247977614402771
1481523540590,-2.5312697887420654,-7.399280548095703,2.0649988651275635
1481523540768,-1.081580638885498,-7.404068946838379,1.3658920526504517
1481523540946,-1.9692308902740479,-10.370484352111816,0.28969839215278625
1481523541126,-0.828393816947937,-9.152434349060059,4.036623954772949
1481523541307,-1.853710651397705,-7.259818077087402,4.614225387573242
1481523541491,-0.751779317855835,-15.654487609863281,6.53377628326416
1481523541670,-1.236605167388916,-10.160393714904785,0.8589198589324951
1481523541846,-3.777451753616333,-9.522936820983887,3.154959201812744
1481523542031,-3.026270866394043,-8.87171459197998,0.9469067454338074
1481523542211,-1.0749965906143188,-11.046248435974121,1.634641170501709
1481523542391,-1.1779472827911377,-8.899248123168945,1.8225860595703125
1481523542571,0.18076223134994507,-7.310694694519043,4.033631324768066
1481523542752,-3.0873231887817383,-8.474875450134277,4.43585729598999
1481523542932,-1.0462661981582642,-7.690176010131836,4.613626480102539
1481523543108,1.4460978507995605,-7.8056960105896,0.7146692276000977
1481523543295,0.6584054827690125,-10.028712272644043,2.5935189723968506
1481523543472,-2.1368250846862793,-8.326435089111328,2.2667105197906494
1481523543653,-1.8644845485687256,-7.007828235626221,2.0853497982025146
1481523543828,-3.0597896575927734,-8.665214538574219,1.2874820232391357
1481523544013,-2.6168625354766846,-7.95832633972168,2.138620615005493
1481523544192,-1.8154034614562988,-6.761225700378418,1.7615338563919067
1481523544369,-0.5566518902778625,-6.738480567932129,3.0137014389038086
1481523544552,-0.3381809890270233,-9.321824073791504,5.137956619262695
1481523544734,-2.630629062652588,-8.531139373779297,0.08140286058187485
1481523544909,-1.8058266639709473,-7.785345554351807,2.4450783729553223
1481523545089,-1.8812439441680908,-7.295132637023926,2.8179752826690674
1481523545274,-1.3754688501358032,-11.98477554321289,3.2609026432037354
1481523545451,-2.3331496715545654,-7.630919456481934,4.261679172515869
1481523545634,0.43933600187301636,-7.365761756896973,-0.14245499670505524
1481523545814,-1.1743559837341309,-7.813477039337158,4.749497413635254
1481523545995,-2.404376983642578,-11.603498458862305,1.8710685968399048
1481523546169,-2.6126725673675537,-6.619369029998779,0.8445546627044678
1481523546351,-2.1278467178344727,-8.665813446044922,2.695871114730835
1481523546533,-1.3036428689956665,-7.645883083343506,2.8987796306610107
1481523546715,-3.3668460845947266,-9.015965461730957,1.9500772953033447
1481523546891,-1.613093376159668,-11.175535202026367,4.370615005493164
1481523547076,-0.8870517015457153,-5.658695697784424,2.3475148677825928
1481523547257,-1.61069917678833,-7.545925140380859,1.3808557987213135
1481523547434,-0.6811503767967224,-13.241730690002441,1.2575544118881226
1481523547616,-3.979761838912964,-9.82759952545166,1.2611457109451294
1481523547796,-3.797203779220581,-8.294113159179688,1.6490063667297363
1481523547977,-0.08978256583213806,-7.490260124206543,3.6553473472595215
1481523548158,-0.050876785069704056,-12.428300857543945,4.766256809234619
1481523548332,-0.24181437492370605,-6.885724067687988,2.9945478439331055
1481523548518,-0.4692635238170624,-7.742249965667725,3.8510735034942627
1481523548697,-2.1511902809143066,-11.060613632202148,3.247734546661377
1481523548873,-1.8393454551696777,-12.768278121948242,4.0743327140808105
1481523549055,-1.66696298122406,-6.620566368103027,-0.07242459803819656
1481523549237,-4.13179349899292,-7.3023152351379395,1.246780514717102
1481523549413,-0.9774328470230103,-15.908272743225098,3.377619981765747
1481523549597,0.5129576921463013,-5.197213172912598,0.10893617570400238
1481523549778,-2.671929121017456,-9.711481094360352,4.730942726135254
1481523549959,1.6490063667297363,-10.424952507019043,2.3936030864715576
1481523550135,-1.6484078168869019,-8.308478355407715,0.07661445438861847
1481523550319,-4.0563764572143555,-9.482834815979004,0.1430535465478897
1481523550499,-1.7501614093780518,-8.430583000183105,0.45190557837486267
1481523550678,-1.2958617210388184,-11.309011459350586,-0.444722980260849
1481523550855,-1.933916449546814,-9.260771751403809,2.561795711517334
1481523551039,-2.3726539611816406,-7.682993412017822,3.4314894676208496
1481523551218,0.7649474143981934,-7.250839710235596,-1.259350061416626
1481523551395,-2.4672248363494873,-9.684545516967773,2.562992811203003
1481523551580,-1.9578584432601929,-8.442553520202637,2.4217350482940674
1481523551759,-1.9488801956176758,-7.416039943695068,2.0452468395233154
1481523551936,-1.7028759717941284,-8.838793754577637,3.557185173034668
1481523552120,-0.4429273009300232,-7.976881504058838,3.4302923679351807
1481523552295,0.11252748221158981,-8.323442459106445,2.6671407222747803
1481523552479,-0.5566518902778625,-7.007828235626221,1.6298527717590332
1481523552661,-3.5033156871795654,-9.148244857788086,2.7257986068725586
1481523552837,-2.253542423248291,-7.357980251312256,1.4155718088150024
1481523553021,-3.885190725326538,-7.528567314147949,2.609679937362671
1481523553201,0.262763649225235,-12.773066520690918,4.686649799346924
1481523553378,-1.6585832834243774,-5.468955039978027,1.535880446434021
1481523553562,-0.9133879542350769,-9.426570892333984,5.477334976196289
1481523553741,-1.5310919284820557,-6.798335552215576,3.177105665206909
1481523553917,-3.2543187141418457,-7.614160060882568,0.5033808946609497
1481523554103,-2.561795711517334,-8.077438354492188,2.1745336055755615
1481523554282,-4.137180328369141,-8.106766700744629,1.4838064908981323
1481523554458,-3.426102638244629,-7.8781208992004395,3.906738519668579
1481523554644,-1.514931082725525,-13.819931030273438,8.042123794555664
1481523554823,-0.8601169586181641,-5.5760955810546875,1.9117701053619385
1481523555003,-1.3862427473068237,-6.258443355560303,3.77565598487854
1481523555183,-3.845686435699463,-15.719131469726563,3.1944637298583984
1481523555360,-2.758718967437744,-8.195950508117676,3.050212860107422
1481523555542,-6.552331447601318,-9.319430351257324,2.7461493015289307
1481523555724,-1.0432734489440918,-16.482282638549805,4.933252811431885
1481523555899,-0.4141969084739685,-6.384139060974121,3.3237504959106445
1481523556088,-0.8690952062606812,-8.646659851074219,5.173271179199219
1481523556264,-2.978386878967285,-8.113350868225098,0.32202014327049255
1481523556441,-6.135141849517822,-9.41519832611084,-0.6991068720817566
1481523556627,-3.9659950733184814,-6.475717067718506,1.469441294670105
1481523556805,-1.6915035247802734,-8.854954719543457,4.719570159912109
1481523556983,1.66696298122406,-17.00421905517578,3.8923733234405518
1481523557165,0.71766197681427,-4.78660774230957,2.1583728790283203
1481523557345,-2.0482394695281982,-9.913191795349121,5.265448093414307
1481523557525,-2.6587610244750977,-11.779472351074219,4.384980201721191
1481523557706,-1.6789339780807495,-9.065046310424805,0.09217676520347595
1481523557888,-2.8347349166870117,-9.275735855102539,0.9564836025238037
1481523558067,-3.643376350402832,-9.59177017211914,0.9870096445083618
1481523558246,-2.0685901641845703,-9.573814392089844,0.579995334148407
1481523558422,-1.6490063667297363,-10.845733642578125,-2.0254945755004883
1481523558606,-1.3784615993499756,-12.16912841796875,2.3912088871002197
1481523558787,-1.479616641998291,-8.54909610748291,2.6862943172454834
1481523558962,-2.118868589401245,-8.47667121887207,4.111443042755127
1481523559146,-1.0169371366500854,-7.464522361755371,3.734954595565796
1481523559325,-1.6759412288665771,-6.509834289550781,-0.39863458275794983
1481523559507,-1.4089876413345337,-10.927735328674316,3.0376434326171875
1481523559683,-1.212663173675537,-9.70429801940918,1.1348515748977661
1481523559866,-2.655169725418091,-8.513182640075684,1.0971429347991943
1481523560048,-1.0414776802062988,-6.032191276550293,2.9945478439331055
1481523560240,-1.6065093278884888,-7.4094557762146,3.027467966079712
1481523560409,1.5765818357467651,-17.24782943725586,6.8575921058654785
1481523560587,-0.5805938839912415,-7.542334079742432,3.7894227504730225
1481523560763,-0.7362170219421387,-8.682572364807129,2.1272482872009277
1481523560943,-1.9578584432601929,-7.0156097412109375,3.2136173248291016
1481523561127,-3.6984431743621826,-11.842320442199707,3.821146011352539
1481523561307,-3.7433342933654785,-9.639654159545898,1.3617022037506104
1481523561484,-2.561795711517334,-7.630321025848389,1.3317747116088867
1481523561669,-3.6523547172546387,-8.38808536529541,2.144606113433838
1481523561848,-2.715623378753662,-10.791864395141602,3.0615854263305664
1481523562030,-4.112041473388672,-7.495048522949219,2.8646624088287354
1481523562207,-1.5328876972198486,-8.609549522399902,4.113238334655762
1481523562390,-1.9572598934173584,-8.945934295654297,4.234145641326904
1481523562570,-2.230797529220581,-5.394136428833008,2.735974073410034
1481523562746,-3.312378168106079,-18.816030502319336,8.740632057189941
1481523562925,-4.3191399574279785,-10.254964828491211,2.1475989818573
1481523563111,-5.339069843292236,-9.247604370117188,5.131372928619385
1481523563289,-3.8821980953216553,-8.728062629699707,2.7533318996429443
1481523563467,-2.094327926635742,-7.687781810760498,1.9907786846160889
1481523563651,-2.0649988651275635,-6.967126846313477,3.448249101638794
1481523563826,0.43035775423049927,-10.460267066955566,3.819350242614746
1481523564007,-0.6985083222389221,-6.07588529586792,2.8778305053710938
1481523564192,-1.6280571222305298,-9.05487060546875,2.808398485183716
1481523564374,-1.0013748407363892,-7.1006035804748535,3.0819361209869385
1481523564551,0.47884035110473633,-16.307506561279297,3.2351651191711426
1481523564732,0.41718965768814087,-7.31847620010376,-0.4854243993759155
1481523564913,-3.1244332790374756,-7.957727909088135,1.9345149993896484
1481523565092,-3.4117374420166016,-7.247847080230713,2.0021512508392334
1481523565272,-5.17626428604126,-10.878055572509766,1.6065093278884888
1481523565451,-2.313995838165283,-9.983222961425781,2.8987796306610107
1481523565633,-1.6849194765090942,-9.023147583007813,3.47039532661438
1481523565813,-1.5622166395187378,-8.827422142028809,4.112041473388672
1481523565989,-1.1671733856201172,-7.264606475830078,3.5673606395721436
1481523566173,-1.2288240194320679,-5.816712856292725,2.6809072494506836
1481523566354,-6.871957302093506,-11.537059783935547,2.3062148094177246
1481523566529,-2.340930700302124,-7.846996307373047,-0.5793967843055725
1481523566714,-4.298789024353027,-8.497021675109863,2.251746654510498
1481523566894,-2.234987258911133,-8.541314125061035,1.7956513166427612
1481523567073,-2.342726469039917,-7.740454196929932,2.0470423698425293
1481523567254,-2.3265655040740967,-7.347805023193359,3.1681272983551025
1481523567433,2.4875755310058594,-18.099565505981445,8.183979988098145
1481523567614,-1.24917471408844,-7.50582218170166,3.537432909011841
1481523567793,-1.5173252820968628,-6.600813865661621,3.8367083072662354
1481523567979,-1.7723077535629272,-8.013991355895996,3.1220390796661377
1481523568158,-1.523909330368042,-6.488884925842285,3.469198226928711
1481523568335,-4.8686089515686035,-19.608510971069336,-0.03531447425484657
1481523568511,-3.773261785507202,-6.3518171310424805,0.3190273642539978
1481523568696,-3.022081136703491,-9.099164009094238,2.5977089405059814
1481523568876,-2.403179883956909,-9.132083892822266,1.8279730081558228
1481523569051,-2.805405855178833,-8.7268648147583,1.8183962106704712
1481523569234,-3.001730442047119,-7.7847466468811035,3.468599796295166
1481523569414,-2.0482394695281982,-8.343792915344238,2.345120668411255
1481523569596,1.0109516382217407,-9.185953140258789,1.2689268589019775
1481523569777,-1.258152961730957,-8.256404876708984,3.1477766036987305
1481523569958,-1.6932991743087769,-7.27298641204834,3.8355112075805664
1481523570138,-1.614290475845337,-7.751826763153076,4.322132587432861
1481523570315,-1.2108675241470337,-7.79372501373291,2.5695769786834717
1481523570497,0.9026140570640564,-12.40376091003418,3.007715940475464
1481523570678,-2.278082847595215,-11.14381217956543,3.443460702896118
1481523570858,-2.027888774871826,-8.340201377868652,2.7461493015289307
1481523571033,-2.9436709880828857,-8.40424633026123,1.977012038230896
1481523571213,-2.5755624771118164,-7.428609371185303,1.977012038230896
1481523571398,-2.2439656257629395,-10.449493408203125,3.6774938106536865
1481523571574,0.4040215313434601,-7.564480304718018,3.8552632331848145
1481523571757,-1.0576386451721191,-10.160393714904785,4.1611223220825195
1481523571939,-2.7718870639801025,-8.170811653137207,3.5248634815216064
1481523572117,-0.4141969084739685,-7.857171535491943,2.5534160137176514
1481523572299,-7.712322235107422,-14.676456451416016,-0.3076549172401428
1481523572479,-3.3010056018829346,-7.441777229309082,0.7146692276000977
1481523572659,-1.5682021379470825,-9.192537307739258,3.8127663135528564
1481523572840,-1.8860323429107666,-9.164405822753906,3.1016883850097656
1481523573015,-1.9937714338302612,-7.231686115264893,1.6316484212875366
1481523573198,-0.6649895310401917,-15.14033317565918,4.146158695220947
1481523573380,-1.026513934135437,-8.674192428588867,3.7199909687042236
1481523573556,-2.6773159503936768,-8.124124526977539,3.119046211242676
1481523573740,-1.015141487121582,-9.515155792236328,6.531382083892822
1481523573919,0.07781155407428741,-9.461286544799805,3.030460834503174
1481523574096,-9.142857551574707,-18.33539581298828,4.40892219543457
1481523574281,-3.15974760055542,-7.5884222984313965,2.0404584407806396
1481523574461,-2.2002713680267334,-9.03751277923584,1.5478514432907104
1481523574641,-1.6813281774520874,-7.359776020050049,3.0107085704803467
1481523574846,-1.3856441974639893,-12.503119468688965,4.089296340942383
1481523575001,-4.14915132522583,-7.101202011108398,2.8598740100860596
1481523575182,-2.6443958282470703,-8.028955459594727,2.7748796939849854
1481523575362,-2.2625205516815186,-7.512406349182129,1.3850456476211548
1481523575538,-0.8445546627044678,-7.33703088760376,2.1326351165771484
1481523575722,-3.714603900909424,-11.43291187286377,-0.28371289372444153
1481523575898,-1.1994950771331787,-8.772355079650879,-0.0077811554074287415
1481523576078,-2.978386878967285,-6.903680801391602,1.2880805730819702
1481523576263,-2.316988706588745,-7.531559944152832,2.4211363792419434
1481523576443,-0.6607996821403503,-14.43344497680664,1.2509703636169434
1481523576618,0.4991910457611084,-5.32889461517334,1.523909330368042
1481523576802,-1.8620903491973877,-10.409989356994629,5.264849662780762
1481523576983,0.5764040350914001,-7.600991725921631,4.530427932739258
1481523577163,0.13407529890537262,-9.3427734375,-0.6153098344802856
1481523577341,-1.1881226301193237,-9.37629222869873,1.0534487962722778
1481523577522,-1.856104850769043,-8.743624687194824,0.1107318252325058
1481523577704,-2.4007856845855713,-9.499593734741211,1.8040310144424438
1481523577893,-3.401561975479126,-10.304045677185059,-0.23942017555236816
1481523578065,-2.494758129119873,-10.674548149108887,2.1721394062042236
1481523578244,-1.5897499322891235,-8.343792915344238,3.0771477222442627
1481523578423,-1.3365631103515625,-8.537124633789063,4.216787815093994
1481523578600,-1.8997989892959595,-7.377732753753662,1.5496470928192139
1481523578781,-2.214038133621216,-9.475651741027832,-1.9105730056762695
1481523578965,-1.4179660081863403,-8.695740699768066,1.2713210582733154
1481523579141,-1.9488801956176758,-9.154829025268555,2.056020736694336
1481523579323,-2.675520420074463,-7.400477409362793,0.6853402256965637
1481523579506,-4.8033671379089355,-12.413337707519531,3.3632547855377197
1481523579681,-1.9285295009613037,-4.972756862640381,0.09277531504631042
1481523579865,-3.183689594268799,-13.109451293945313,7.612364292144775
1481523580045,-1.833359956741333,-7.68658447265625,2.4007856845855713
1481523580224,-1.14742112159729,-6.961141586303711,2.189497470855713
1481523580404,-7.29154109954834,-9.485228538513184,-1.2282254695892334
1481523580582,-2.2918496131896973,-5.8436479568481445,0.31842881441116333
1481523580768,-2.7772738933563232,-9.090185165405273,1.7896658182144165
1481523580943,-2.324171304702759,-7.062894821166992,1.6214730739593506
1481523581122,-2.7557260990142822,-9.667786598205566,3.0208840370178223
1481523581306,-0.6123170852661133,-10.381258964538574,4.753687381744385
1481523581488,-0.6248866319656372,-7.917026519775391,2.1098902225494385
1481523581663,-0.7422025203704834,-11.389816284179688,5.378573894500732
1481523581848,-1.7064672708511353,-7.960720539093018,2.849100112915039
1481523582023,-0.8966285586357117,-9.77253246307373,3.5428199768066406
1481523582208,-0.6039373874664307,-8.738836288452148,1.5310919284820557
1481523582388,-1.886630892753601,-8.409034729003906,1.9638439416885376
1481523582572,-3.0825347900390625,-9.724050521850586,1.4227544069290161
1481523582743,-3.4314894676208496,-6.76002836227417,1.7028759717941284
1481523582926,-0.05147533491253853,-16.85637664794922,5.8209028244018555
1481523583105,-0.24420857429504395,-7.4567413330078125,2.827552318572998
1481523583289,-0.45489832758903503,-8.968679428100586,2.519298791885376
1481523583469,-2.5929205417633057,-8.661623001098633,2.4211363792419434
1481523583645,0.29568392038345337,-9.16081428527832,1.6819267272949219
1481523583830,-2.7311856746673584,-8.450933456420898,2.607884168624878
1481523584008,-5.157110691070557,-8.121131896972656,1.8279730081558228
1481523584185,-3.663727045059204,-8.42040729522705,1.933916449546814
1481523584370,-2.274491548538208,-7.022792339324951,2.257133722305298
1481523584550,0.44592007994651794,-13.614627838134766,4.656722068786621
1481523584731,-0.12030863761901855,-6.522404193878174,2.9251158237457275
1481523584909,-1.6376339197158813,-9.997588157653809,4.77044677734375
1481523585090,-1.5502456426620483,-5.51504373550415,1.0893617868423462
1481523585268,-0.3034650683403015,-8.509591102600098,2.7222073078155518
1481523585451,-1.2545616626739502,-9.5223388671875,4.374804973602295
1481523585629,-2.5043349266052246,-7.040150165557861,1.338358759880066
1481523585806,-3.064578056335449,-8.819640159606934,0.7583633661270142
1481523585991,-2.3912088871002197,-6.65288782119751,2.9251158237457275
1481523586167,-1.2653355598449707,-13.193846702575684,4.7824177742004395
1481523586351,-0.45669397711753845,-5.3791728019714355,1.0079588890075684
1481523586532,-2.807201385498047,-8.668806076049805,4.905120849609375
1481523586708,-2.270900249481201,-5.704783916473389,2.165555477142334
1481523586891,-0.9971849918365479,-5.57370138168335,3.2770636081695557
1481523587073,-4.908711910247803,-7.725490570068359,-0.008978256024420261
1481523587253,-3.8073792457580566,-6.993463039398193,-0.030526071786880493
1481523587428,-3.868431329727173,-8.145073890686035,1.1127052307128906
1481523587611,-2.537853717803955,-7.218518257141113,0.8954314589500427
1481523587793,-3.2776620388031006,-8.055291175842285,4.083909511566162
1481523587975,-6.4415998458862305,-11.676521301269531,-3.139995574951172
1481523588153,-6.761225700378418,-10.58775806427002,0.333991140127182
1481523588334,-2.4869771003723145,-5.118803024291992,3.2626984119415283
1481523588512,-2.406771183013916,-8.365939140319824,5.9753289222717285
1481523588690,-2.208052635192871,-7.452551364898682,3.27227520942688
1481523588874,0.05386953800916672,-7.259818077087402,2.5073277950286865
1481523589049,0.8858546018600464,-9.747992515563965,0.8301894664764404
1481523589230,0.8535329103469849,-9.320627212524414,0.2256535142660141
