timestamp,ax,ay,az
1481198766399,-1.754351258277893,-9.251194953918457,2.1302409172058105
1481198766579,-1.4544775485992432,-9.316437721252441,2.1775264739990234
1481198766761,-2.4654293060302734,-10.369287490844727,3.2297780513763428
1481198766940,-2.410961151123047,-8.950722694396973,2.123656988143921
1481198767123,-2.517503023147583,-8.75080680847168,2.5989060401916504
1481198767301,-2.3062148094177246,-8.892663955688477,1.8088194131851196
1481198767482,-4.801571369171143,-9.120711326599121,-0.018555063754320145
1481198767663,-3.7690720558166504,-8.522160530090332,-0.4034229815006256
1481198767842,-3.341108560562134,-7.864354133605957,0.28371289372444153
1481198768024,-3.706224203109741,-8.553884506225586,1.127070426940918
1481198768202,-3.751115560531616,-7.313687801361084,1.7794904708862305
1481198768381,-2.1350293159484863,-9.785101890563965,2.455253839492798
1481198768561,-2.0649988651275635,-7.5004353523254395,2.5025393962860107
1481198768742,-4.43585729598999,-7.3693528175354,4.302978992462158
1481198768923,-4.351461410522461,-7.718906402587891,3.599682331085205
1481198769103,-2.9041666984558105,-8.109759330749512,2.8844144344329834
1481198769282,-3.1675288677215576,-8.760383605957031,3.6176388263702393
1481198769463,-3.309983968734741,-8.03075122833252,2.7126305103302
1481198769644,-4.49870491027832,-8.346187591552734,0.5680243372917175
1481198769823,-4.065354347229004,-8.315062522888184,-1.4077905416488647
1481198770007,-4.0970778465271,-9.254786491394043,-0.05446808785200119
1481198770193,-5.365406036376953,-8.506598472595215,0.09576806426048279
1481198770369,-4.141968727111816,-8.638279914855957,-0.17417816817760468
1481198770543,-4.065354347229004,-7.177816867828369,0.07062894850969315
1481198770725,-5.956175327301025,-7.648875713348389,1.1180921792984009
1481198770907,-2.120065689086914,-10.153210639953613,0.9876081943511963
1481198771089,-5.066130638122559,-9.241618156433105,2.5025393962860107
1481198771264,-4.4071269035339355,-7.8314337730407715,3.582324266433716
1481198771444,-5.1361613273620605,-5.9525837898254395,3.135207176208496
1481198771630,-3.7445313930511475,-5.047575950622559,1.5879542827606201
1481198771805,-2.936488389968872,-8.325836181640625,3.360262155532837
1481198771991,-3.5284547805786133,-10.552444458007813,1.125873327255249
1481198772170,-1.4000093936920166,-6.998251438140869,-0.1735796183347702
1481198772349,-2.8610711097717285,-8.710105895996094,0.3728969097137451
1481198772532,-3.422511339187622,-8.780136108398438,1.0211269855499268
1481198772711,-2.8868086338043213,-8.919598579406738,0.9068039059638977
1481198772891,-4.1395745277404785,-9.06863784790039,0.24480712413787842
1481198773070,-4.128800868988037,-8.916605949401855,0.1454477459192276
1481198773246,-2.6653449535369873,-7.713519096374512,0.16998831927776337
1481198773431,-4.17728328704834,-7.782951354980469,0.8906430602073669
1481198773611,-2.8634653091430664,-11.210250854492188,2.07397723197937
1481198773787,-3.7690720558166504,-8.231863975524902,2.7748796939849854
1481198773972,-4.589086055755615,-7.754819393157959,3.2591071128845215
1481198774151,-4.326322555541992,-7.36396598815918,2.627037763595581
1481198774327,-3.6762967109680176,-7.220313549041748,2.2822728157043457
1481198774510,-3.3303346633911133,-8.465298652648926,2.672527551651001
1481198774694,-4.824316501617432,-11.389217376708984,2.983773946762085
1481198774868,-6.676231384277344,-10.138845443725586,0.17477671802043915
1481198775052,-3.6619315147399902,-9.063849449157715,0.3734954595565796
1481198775232,-4.052186489105225,-8.602965354919434,0.3016694188117981
1481198775413,-3.424306869506836,-7.071873188018799,0.07062894850969315
1481198775593,-5.5359930992126465,-8.685564994812012,1.0522516965866089
1481198775769,-5.233725070953369,-12.315773963928223,2.2619221210479736
1481198775952,-2.1984755992889404,-7.049128532409668,2.115875720977783
1481198776132,-4.598064422607422,-6.7480573654174805,2.6599581241607666
1481198776309,-4.564545631408691,-6.8809356689453125,2.5791537761688232
1481198776493,-3.267486810684204,-8.583212852478027,2.497152328491211
1481198776674,-4.17608642578125,-7.681197643280029,2.6228480339050293
1481198776850,-4.492719650268555,-12.770671844482422,1.1330559253692627
1481198777034,-6.928221225738525,-8.30249309539795,0.3274070918560028
1481198777214,-3.7223851680755615,-8.249820709228516,-0.3010708689689636
1481198777394,-3.827131509780884,-9.712079048156738,0.2322375625371933
1481198777578,-4.446032524108887,-7.712322235107422,0.524330198764801
1481198777752,-5.7526679039001465,-8.276755332946777,1.3437457084655762
1481198777936,-5.556941986083984,-9.024344444274902,1.9596540927886963
1481198778115,-4.586093425750732,-11.836933135986328,2.3062148094177246
1481198778291,-4.919486045837402,-8.130110740661621,3.4590229988098145
1481198778475,-4.75308895111084,-6.585251808166504,2.979583978652954
1481198778650,-4.103063106536865,-6.038775444030762,2.2649147510528564
1481198778831,-3.1501708030700684,-8.738237380981445,4.158129692077637
1481198779016,-5.207987308502197,-9.898826599121094,2.2433669567108154
1481198779196,-4.20541524887085,-5.929839134216309,-2.42472767829895
1481198779372,-5.0014872550964355,-9.305065155029297,-0.05925649031996727
1481198779571,-4.035427093505859,-8.242039680480957,-0.1933317929506302
1481198779737,-3.825335741043091,-7.886500358581543,0.7649474143981934
1481198779916,-3.8821980953216553,-7.049726963043213,0.4225766062736511
1481198780097,-6.377554893493652,-14.194025039672852,2.4917654991149902
1481198780280,-3.5260605812072754,-6.9910688400268555,1.8519150018692017
1481198780457,-2.956839084625244,-8.169614791870117,2.5306711196899414
1481198780631,-4.969764232635498,-7.12035608291626,2.7311856746673584
1481198780813,-3.9911341667175293,-7.305307865142822,2.807201385498047
1481198780998,-2.2703018188476563,-7.589020729064941,2.5695769786834717
1481198781178,-4.657919406890869,-14.763246536254883,-1.1150994300842285
1481198781353,-4.678868770599365,-7.706336498260498,0.8732850551605225
1481198781539,-4.471171855926514,-8.734646797180176,-0.24121582508087158
1481198781714,-4.338293552398682,-8.588001251220703,0.23942017555236816
1481198781896,-4.352658748626709,-8.258200645446777,0.3693056106567383
1481198782080,-4.520851135253906,-7.185597896575928,1.161187767982483
1481198782256,-3.4967315196990967,-5.54317569732666,1.0121487379074097
1481198782440,-3.4386723041534424,-10.497377395629883,1.2300211191177368
1481198782629,-3.8289270401000977,-7.756615161895752,2.3116016387939453
1481198782796,-4.55496883392334,-7.529764175415039,2.9544448852539063
1481198782979,-4.432265758514404,-7.548917770385742,2.5294740200042725
1481198783160,-4.1192240715026855,-8.200738906860352,2.804807186126709
1481198783335,-5.045780181884766,-6.605003833770752,2.894589900970459
1481198783520,-0.872686505317688,-10.836156845092773,-1.1085153818130493
1481198783695,-3.4787750244140625,-9.711481094360352,-0.8254010081291199
1481198783876,-4.669890403747559,-8.493430137634277,0.2472013235092163
1481198784061,-4.717774391174316,-8.794501304626465,0.3250128924846649
1481198784241,-4.444835662841797,-8.933364868164063,0.40521863102912903
1481198784416,-3.796006679534912,-7.004237174987793,0.6841431260108948
1481198784601,-0.7757213711738586,-11.066598892211914,3.023876667022705
1481198784781,-1.8830395936965942,-6.723516941070557,3.030460834503174
1481198784961,-4.923676013946533,-6.631938934326172,2.937086820602417
1481198785142,-4.021660327911377,-6.209362030029297,2.7246015071868896
1481198785321,-4.581903457641602,-7.669825077056885,3.886387825012207
1481198785502,-5.947795391082764,-8.635287284851074,-1.7627309560775757
1481198785682,-4.196436882019043,-8.901641845703125,-1.4790180921554565
1481198785858,-4.004302501678467,-9.12968921661377,-0.25019407272338867
1481198786040,-3.8337154388427734,-9.115324020385742,0.24181437492370605
1481198786223,-3.9624037742614746,-7.512406349182129,0.67815762758255
1481198786398,-3.248931646347046,-6.309918403625488,0.2867056429386139
1481198786583,-5.1152119636535645,-11.264719009399414,2.9963433742523193
1481198786758,-2.9706058502197266,-5.803544998168945,2.7527334690093994
1481198786941,-5.608417510986328,-8.232462882995605,3.5027170181274414
1481198787123,-4.3179426193237305,-7.208342552185059,2.7563247680664063
1481198787304,-3.1465795040130615,-7.857769966125488,2.800018787384033
1481198787484,-4.540005207061768,-8.654440879821777,-1.1785458326339722
1481198787683,-5.433042049407959,-7.9212164878845215,-0.18495208024978638
1481198787842,-4.624400615692139,-8.281543731689453,-0.1496376097202301
1481198788024,-3.690661907196045,-8.613141059875488,-0.2968810200691223
1481198788204,-4.333505153656006,-6.646304130554199,-0.06763619929552078
1481198788380,-7.942165374755859,-17.17241096496582,4.028244495391846
1481198788565,-5.919663906097412,-6.704961776733398,1.3509283065795898
1481198788744,-5.12119722366333,-8.06427001953125,3.309385299682617
1481198788920,-5.127781391143799,-7.192780494689941,2.385223388671875
1481198789105,-4.3622355461120605,-7.73087739944458,2.115875720977783
1481198789284,-2.846107244491577,-8.9680814743042,3.465606927871704
1481198789466,-4.796184539794922,-11.961431503295898,-1.502361536026001
1481198789646,-2.674323320388794,-7.800309181213379,-0.01496376097202301
1481198789821,-4.3628339767456055,-7.845200538635254,0.30047231912612915
1481198790008,-4.444835662841797,-7.528567314147949,0.851138710975647
1481198790186,-2.6144683361053467,-7.9176249504089355,1.0678139925003052
1481198790364,-3.5003228187561035,-9.061454772949219,1.935113549232483
1481198790547,-5.221155166625977,-8.699930191040039,4.191050052642822
1481198790726,-4.601057052612305,-6.501454830169678,3.2806549072265625
1481198790902,-4.914099216461182,-7.46033239364624,3.2118215560913086
1481198791087,-4.109048843383789,-6.874950408935547,1.8997989892959595
1481198791267,-3.403956174850464,-6.755838871002197,3.220201253890991
1481198791443,-5.209184169769287,-6.4817023277282715,1.3389573097229004
1481198791625,-3.6577415466308594,-7.2005615234375,-0.3477577865123749
1481198791802,-4.135983467102051,-8.664615631103516,-0.13287819921970367
1481198791986,-3.88818359375,-8.50061321258545,-0.21547815203666687
1481198792169,-4.093486309051514,-8.944737434387207,-0.16220717132091522
1481198792346,-4.010886192321777,-8.127716064453125,0.23104046285152435
1481198792526,-5.312135219573975,-6.801927089691162,1.1300631761550903
1481198792704,-2.959831953048706,-11.402984619140625,0.5811924338340759
1481198792885,-4.738125324249268,-8.219294548034668,2.1086931228637695
1481198793066,-4.076726913452148,-7.222109317779541,3.022081136703491
1481198793247,-3.9139211177825928,-7.954136371612549,3.2638955116271973
1481198793425,-3.5003228187561035,-6.57926607131958,2.2810757160186768
1481198793610,-3.296217203140259,-8.110358238220215,2.3558945655822754
1481198793790,-5.766434669494629,-14.09705924987793,-0.05686229094862938
1481198793965,-3.958214044570923,-8.716690063476563,-1.8387469053268433
1481198794150,-4.233547210693359,-8.815450668334961,0.21368250250816345
1481198794330,-4.322731018066406,-8.647856712341309,-0.4572925269603729
1481198794510,-4.10246467590332,-7.008427143096924,0.5351040959358215
1481198794690,-3.512892484664917,-7.246650218963623,0.5847837924957275
1481198794866,-5.063138008117676,-13.654730796813965,3.245340347290039
1481198795049,-2.8616695404052734,-5.817910194396973,2.764105796813965
1481198795231,-4.7369279861450195,-8.094197273254395,3.2740707397460938
1481198795407,-5.188833713531494,-7.945756912231445,2.6868927478790283
1481198795591,-3.0131027698516846,-5.583877086639404,1.8112136125564575
1481198795771,-2.8616695404052734,-6.633135795593262,3.135805606842041
1481198795947,-2.2002713680267334,-11.727398872375488,-0.6721721291542053
1481198796131,-3.243544816970825,-9.691728591918945,-0.8337807655334473
1481198796310,-3.423708438873291,-8.651448249816895,-0.43335050344467163
1481198796490,-5.987898349761963,-8.547300338745117,1.5167267322540283
1481198796672,-6.465541839599609,-11.437101364135742,0.8912416100502014
1481198796852,-6.252457618713379,-15.690999031066895,4.9805378913879395
1481198797031,-3.266289710998535,-6.59004020690918,4.0545806884765625
1481198797213,-4.0114850997924805,-7.8092875480651855,5.066729545593262
1481198797399,-3.050811529159546,-5.199008941650391,5.770026206970215
1481198797573,-7.873930931091309,-9.922768592834473,4.587889194488525
1481198797749,-4.399345397949219,-6.7941460609436035,2.471414804458618
1481198797929,-2.740163803100586,-8.188169479370117,0.09516951441764832
1481198798113,-5.006874084472656,-8.389283180236816,1.4664485454559326
1481198798294,-4.6507368087768555,-8.117541313171387,-0.7817068696022034
1481198798469,-0.002992752008140087,-9.023147583007813,1.7357962131500244
1481198798654,-1.9410990476608276,-3.8540661334991455,2.673126220703125
1481198798834,-4.2993879318237305,-7.450157165527344,2.0195090770721436
1481198799011,-3.669114112854004,-7.407660007476807,3.466804027557373
1481198799193,-3.2375593185424805,-10.512341499328613,-1.3760673999786377
1481198799374,-4.774038314819336,-9.172784805297852,0.1975216418504715
1481198799554,-5.01405668258667,-7.342418193817139,0.945111095905304
1481198799735,-3.4763808250427246,-8.130110740661621,0.862511157989502
1481198799914,-4.505887508392334,-8.289923667907715,1.5364789962768555
1481198800096,-5.044582843780518,-9.981427192687988,1.5053542852401733
1481198800275,-2.364274263381958,-7.9182233810424805,2.4145524501800537
1481198800451,-3.955819845199585,-7.067683219909668,3.0208840370178223
1481198800636,-4.443039894104004,-6.785167694091797,3.3045969009399414
1481198800814,-4.047996520996094,-7.079654216766357,3.1980550289154053
1481198800991,-3.118447780609131,-6.967126846313477,2.7491421699523926
1481198801176,-2.273294448852539,-14.132972717285156,-1.334767460823059
1481198801356,-4.96737003326416,-11.012130737304688,0.29568392038345337
1481198801532,-3.6379895210266113,-8.722076416015625,-0.5997475385665894
1481198801715,-3.535038709640503,-9.059659004211426,-0.1975216418504715
1481198801898,-3.819350242614746,-8.20492935180664,-0.35673606395721436
1481198802076,-4.598662853240967,-7.621342658996582,0.3423708379268646
1481198802256,-6.897096633911133,-10.747570991516113,1.8189947605133057
1481198802437,-3.671508312225342,-10.04188060760498,2.47560453414917
1481198802618,-4.278438568115234,-7.268198013305664,2.7479450702667236
1481198802796,-4.811747074127197,-7.412448406219482,2.694075345993042
1481198802973,-5.618592739105225,-7.550713539123535,2.844910144805908
1481198803159,-2.228403329849243,-5.024232387542725,2.4007856845855713
1481198803336,-3.758896589279175,-7.661445617675781,3.712209701538086
1481198803514,-3.9438488483428955,-10.583568572998047,1.22642982006073
1481198803699,-4.579509258270264,-9.07222843170166,0.5674257874488831
1481198803880,-5.122992992401123,-8.471283912658691,-0.406415730714798
1481198804057,-3.689464807510376,-9.433155059814453,-0.028131870552897453
1481198804240,-4.001908302307129,-8.854954719543457,-0.2801215946674347
1481198804420,-3.472191095352173,-8.388684272766113,-0.314238965511322
1481198804600,-6.09324312210083,-8.304288864135742,1.1569979190826416
1481198804780,-5.103240966796875,-6.382941722869873,0.40940847992897034
1481198804955,-0.34835633635520935,-10.956465721130371,0.8451532125473022
1481198805140,-2.759916067123413,-6.525995254516602,3.0125043392181396
1481198805317,-5.3342814445495605,-7.529764175415039,3.0561983585357666
1481198805496,-4.859032154083252,-8.53652572631836,3.1280245780944824
1481198805680,-3.029263734817505,-6.274604320526123,1.824381709098816
1481198805861,-4.183867454528809,-6.266224384307861,3.557185173034668
1481198806036,-4.598662853240967,-10.027515411376953,0.06584054976701736
1481198806221,-3.816956043243408,-8.304288864135742,-1.522712230682373
1481198806401,-4.292803764343262,-8.790909767150879,0.09217676520347595
1481198806580,-3.1890766620635986,-8.028955459594727,0.36092591285705566
1481198806761,-3.3452982902526855,-6.514622688293457,-0.5398924946784973
1481198806940,-3.9905357360839844,-13.79179859161377,3.818751811981201
1481198807121,-3.8959646224975586,-5.652710437774658,2.4678235054016113
1481198807302,-4.124012470245361,-7.7631988525390625,3.450643301010132
1481198807482,-3.997119665145874,-7.728483200073242,2.742558002471924
1481198807662,-2.6611552238464355,-7.019200801849365,2.138620615005493
1481198807839,-3.602674961090088,-8.18757152557373,2.6647465229034424
1481198808022,-6.773795127868652,-8.87051773071289,0.6314706802368164
1481198808203,-5.90589714050293,-11.893197059631348,-0.026336219161748886
1481198808383,-4.4508209228515625,-8.614337921142578,0.3824737071990967
1481198808559,-3.823540210723877,-8.10437297821045,0.2753331959247589
1481198808743,-3.9444472789764404,-8.059481620788574,0.43335050344467163
1481198808921,-3.418321371078491,-6.827065944671631,1.546055793762207
1481198809100,-1.9889830350875854,-9.906607627868652,2.049436569213867
1481198809281,-3.117250680923462,-6.299743175506592,2.800018787384033
1481198809463,-5.2672438621521,-8.943540573120117,3.8720226287841797
1481198809643,-4.127005100250244,-7.196970462799072,3.201646327972412
1481198809821,-4.520851135253906,-7.881113529205322,3.5158851146698
1481198810003,-3.626616954803467,-9.5223388671875,3.1687259674072266
1481198810185,-2.3068132400512695,-9.059659004211426,-1.4113819599151611
1481198810365,-4.550778865814209,-8.348581314086914,-0.31842881441116333
1481198810541,-4.180276393890381,-8.579023361206055,0.03890577703714371
1481198810725,-3.3632547855377197,-7.581239700317383,0.4106055796146393
1481198810906,-4.383184909820557,-5.509057998657227,1.6519991159439087
1481198811081,-3.2405519485473633,-11.035473823547363,3.028665065765381
1481198811265,-2.561197280883789,-7.215525150299072,3.318363666534424
1481198811446,-4.853645324707031,-7.363367557525635,3.7481226921081543
1481198811626,-3.9875428676605225,-7.256227016448975,2.89339280128479
1481198811806,-4.646546840667725,-7.841609001159668,3.0567970275878906
1481198811982,-5.132569789886475,-8.814253807067871,3.8079779148101807
1481198812166,-6.421248912811279,-9.569623947143555,-0.1472434103488922
1481198812344,-3.909731388092041,-7.547720909118652,-0.6147112846374512
1481198812527,-3.4189200401306152,-8.999205589294434,-0.2867056429386139
1481198812707,-3.6733038425445557,-6.901286602020264,-0.37469255924224854
1481198812886,-4.408323764801025,-5.744886875152588,1.2850877046585083
1481198813063,1.0259153842926025,-12.460622787475586,3.0166940689086914
1481198813258,-2.273294448852539,-6.25664758682251,2.6354174613952637
1481198813426,-4.675876140594482,-7.814075946807861,3.712209701538086
1481198813603,-5.653308868408203,-7.642292022705078,3.293224334716797
1481198813789,-3.5960910320281982,-7.415441036224365,2.428917646408081
1481198813963,-3.0639796257019043,-7.317278861999512,3.1926679611206055
1481198814204,-5.248688697814941,-11.962628364562988,-0.6979097723960876
1481198814324,-0.28550854325294495,-6.822876453399658,-1.5292962789535522
1481198814509,-4.701613426208496,-8.13370132446289,0.49619829654693604
1481198814690,-4.379593372344971,-8.270770072937012,0.3687070608139038
1481198814870,-3.361459255218506,-8.400654792785645,0.48901569843292236
1481198815047,-4.432864665985107,-8.201936721801758,1.9572598934173584
1481198815227,-6.015431880950928,-8.26478385925293,2.6437971591949463
1481198815409,-4.355651378631592,-7.48846435546875,1.7381904125213623
1481198815585,-5.0284223556518555,-6.983886241912842,3.3931822776794434
1481198815771,-4.686051368713379,-5.513247966766357,4.134786128997803
1481198815948,-4.333505153656006,-5.385756492614746,6.604405403137207
1481198816125,-4.598064422607422,-2.9753942489624023,9.428964614868164
1481198816308,-3.5936968326568604,-8.516175270080566,0.9941922426223755
1481198816490,-3.9450459480285645,-10.24538803100586,1.1139023303985596
1481198816669,-3.0526070594787598,-8.562862396240234,-0.2950853705406189
1481198816852,-3.9426517486572266,-8.51916790008545,-0.7044938206672668
1481198817030,-4.613028049468994,-9.470264434814453,-1.4664485454559326
1481198817206,-3.7618894577026367,-9.428366661071777,-0.0293289702385664
1481198817389,-4.1192240715026855,-11.05283260345459,1.3551181554794312
1481198817567,-3.2531216144561768,-5.697601318359375,2.540247917175293
1481198817752,-3.071162223815918,-7.416039943695068,1.3198037147521973
1481198817934,-3.0334534645080566,-8.089408874511719,3.6541502475738525
1481198818107,-2.565985679626465,-12.127828598022461,1.6903064250946045
1481198818291,-3.1316158771514893,-7.952341079711914,0.18136078119277954
1481198818472,-4.032433986663818,-8.578424453735352,0.07781155407428741
1481198818649,-4.380191802978516,-8.829815864562988,-0.14185644686222076
1481198818833,-3.8941690921783447,-9.024943351745605,-0.03531447425484657
1481198819013,-4.0330328941345215,-8.616133689880371,-0.14065934717655182
1481198819189,-3.4865562915802,-8.944737434387207,-0.17836803197860718
1481198819373,-3.8067808151245117,-7.389104843139648,0.07481880486011505
1481198819550,-2.9257144927978516,-5.60602331161499,1.4119805097579956
1481198819731,-2.964620351791382,-10.960655212402344,3.0992941856384277
1481198819914,-2.8574798107147217,-6.846818447113037,3.560776472091675
1481198820091,-4.355651378631592,-7.830236434936523,3.780444383621216
1481198820268,-3.883993625640869,-8.358757019042969,3.4135329723358154
1481198820453,-2.5983073711395264,-6.4631476402282715,2.122459888458252
1481198820630,-5.205593109130859,-6.733692169189453,2.5552117824554443
1481198820814,-3.8953661918640137,-13.992912292480469,-0.27653029561042786
1481198820995,-4.20421838760376,-9.20091724395752,-0.6009446382522583
1481198821171,-3.380612850189209,-8.97885513305664,-0.21547815203666687
1481198821355,-3.9211037158966064,-8.357559204101563,-0.871489405632019
1481198821535,-4.623802185058594,-6.562506675720215,1.1318588256835938
1481198821715,-4.653131008148193,-10.548852920532227,1.3617022037506104
1481198821895,-4.887164115905762,-11.30302619934082,3.93367338180542
1481198822074,-3.4979286193847656,-7.12155294418335,2.544437885284424
1481198822256,-4.908113479614258,-7.9744873046875,3.2956185340881348
1481198822433,-3.3219549655914307,-7.101800918579102,2.081159830093384
1481198822611,-3.090914487838745,-7.1688385009765625,3.0825347900390625
1481198822794,-4.057573318481445,-11.82376480102539,-0.4411316514015198
1481198822975,-4.575319290161133,-9.294290542602539,-1.7974469661712646
1481198823152,-3.9671921730041504,-8.605359077453613,0.16759411990642548
1481198823338,-3.158550500869751,-8.58919906616211,0.0933738648891449
1481198823517,-3.907935619354248,-8.221090316772461,1.0672154426574707
1481198823692,-2.9747955799102783,-6.05852746963501,1.746570110321045
1481198823877,-2.5133132934570313,-10.758345603942871,1.6490063667297363
1481198824057,-3.4356794357299805,-6.479308128356934,2.184709072113037
1481198824235,-3.1531636714935303,-7.247847080230713,2.561197280883789
1481198824417,-4.083311080932617,-8.586804389953613,2.74076247215271
1481198824596,-2.230198860168457,-7.267000675201416,3.384204149246216
1481198824777,-4.059369087219238,-12.069170951843262,-1.0073603391647339
1481198824956,-2.495356798171997,-8.088212013244629,-1.0684125423431396
1481198825132,-4.21080207824707,-8.874707221984863,-0.5081692934036255
1481198825319,-4.296993732452393,-8.893860816955566,-0.07422025501728058
1481198825499,-3.6361937522888184,-8.153453826904297,0.7445967197418213
1481198825674,-3.7600936889648438,-7.33583402633667,1.3970166444778442
1481198825860,-6.30094051361084,-13.147758483886719,1.3407529592514038
1481198826035,-3.426701068878174,-8.707113265991211,2.4612393379211426
1481198826223,-3.820547342300415,-7.447164535522461,3.2854433059692383
1481198826398,-4.24970817565918,-8.110957145690918,3.1681272983551025
1481198826580,-2.653373956680298,-7.026981830596924,2.7060465812683105
1481198826760,-3.6379895210266113,-6.426037311553955,2.892794132232666
1481198826940,-5.586271286010742,-12.70483112335205,-0.8960300087928772
1481198827116,-3.028665065765381,-8.82442855834961,-0.46327802538871765
1481198827299,-4.43705415725708,-8.777742385864258,0.29149407148361206
1481198827481,-3.7469255924224854,-8.735244750976563,-0.2621650993824005
1481198827656,-3.066373825073242,-6.534973621368408,1.1480196714401245
1481198827836,-7.702147006988525,-14.207192420959473,1.3198037147521973
1481198828024,-4.359242916107178,-7.438784599304199,1.5897499322891235
1481198828197,-4.001908302307129,-8.12053394317627,2.868253707885742
1481198828381,-4.966172695159912,-7.8332295417785645,3.1316158771514893
1481198828561,-3.290830135345459,-7.085041522979736,2.3774423599243164
1481198828736,-3.642777919769287,-6.845621109008789,3.247734546661377
1481198828917,-3.5015199184417725,-6.780379295349121,2.3558945655822754
1481198829100,-6.6391215324401855,-11.959037780761719,-0.9876081943511963
1481198829282,-4.001908302307129,-8.268974304199219,-0.4423287510871887
1481198829458,-4.26826286315918,-8.539519309997559,0.07481880486011505
1481198829642,-3.824138641357422,-8.675390243530273,0.15143325924873352
1481198829819,-4.144362926483154,-7.166444301605225,0.8750807046890259
1481198830004,-5.161300182342529,-7.650671482086182,1.3365631103515625
1481198830178,-0.3477577865123749,-12.805986404418945,2.432508945465088
1481198830362,-3.4823663234710693,-6.333261966705322,1.5867571830749512
1481198830543,-4.286219596862793,-6.38114595413208,3.5230677127838135
1481198830720,-5.117606163024902,-7.305307865142822,4.632780075073242
1481198830904,-4.2527008056640625,-6.246472358703613,5.960963726043701
1481198831084,-3.7451300621032715,-19.608510971069336,-1.789067268371582
1481198831265,-1.789067268371582,-9.288904190063477,-0.2950853705406189
1481198831444,-3.023876667022705,-11.10610294342041,0.30047231912612915
1481198831623,-4.3628339767456055,-8.06307315826416,-0.17657238245010376
1481198831804,-4.208407878875732,-9.628880500793457,-0.4040215313434601
1481198831985,-0.5518634915351868,-10.331579208374023,0.7146692276000977
1481198832161,-2.87064790725708,-9.150638580322266,1.1330559253692627
1481198832354,-4.412513732910156,-7.690774440765381,1.4957774877548218
1481198832525,-3.0424318313598633,-7.881711959838867,2.4630351066589355
1481198832701,-3.730764865875244,-7.240066051483154,2.2379801273345947
1481198832918,-3.4512417316436768,-8.779537200927734,2.6449942588806152
1481198833060,-3.6517560482025146,-7.909843921661377,3.5895068645477295
1481198833241,-3.8079779148101807,-7.744045257568359,1.4323312044143677
1481198833424,-4.13059663772583,-10.63504409790039,-0.31603461503982544
1481198833606,-5.065532207489014,-9.810839653015137,-0.11611878126859665
1481198833786,-3.86543869972229,-9.226655006408691,0.10773907601833344
1481198833966,-5.2714338302612305,-9.17936897277832,-0.03232172131538391
1481198834151,-4.258686065673828,-8.019378662109375,0.24660277366638184
1481198834321,-5.4013190269470215,-8.636484146118164,0.5632359385490417
1481198834507,-5.631761074066162,-14.816516876220703,1.2575544118881226
1481198834682,-2.499546527862549,-7.572859764099121,1.5592238903045654
1481198834867,-3.7714662551879883,-7.1712327003479,3.030460834503174
1481198835046,-4.018068790435791,-6.959345817565918,2.5276784896850586
1481198835223,-3.448847532272339,-6.656479358673096,2.5767595767974854
1481198835405,-5.63535213470459,-16.401477813720703,1.2030863761901855
1481198835589,-4.6501383781433105,-8.010400772094727,-1.445499300956726
1481198835765,-4.902127742767334,-8.485649108886719,0.21188685297966003
1481198835948,-3.9151182174682617,-8.601768493652344,-0.6901286244392395
1481198836129,-3.7900211811065674,-7.9427642822265625,-0.10893617570400238
1481198836307,-3.9695863723754883,-6.588842868804932,0.5309142470359802
1481198836489,-6.110601425170898,-9.85034465789795,1.1438298225402832
1481198836667,-5.350442409515381,-11.312004089355469,4.178480625152588
1481198836850,-4.6513352394104,-7.646481513977051,4.088099479675293
1481198837030,-4.5423994064331055,-7.556699275970459,2.873640537261963
1481198837205,-2.999934673309326,-7.573458671569824,2.5043349266052246
1481198837389,-4.792593479156494,-10.427347183227539,0.41718965768814087
1481198837570,-5.398924827575684,-10.18792724609375,-1.3748703002929688
1481198837746,-4.150947093963623,-8.814253807067871,0.07481880486011505
1481198837931,-3.796605348587036,-8.741828918457031,-0.43933600187301636
1481198838110,-4.095880508422852,-7.91283655166626,0.8349778652191162
1481198838286,-3.4769794940948486,-5.783792972564697,0.6093243360519409
1481198838469,-1.8614917993545532,-11.239580154418945,3.228580951690674
1481198838650,-4.148552894592285,-5.6634840965271,3.26688814163208
1481198838831,-4.67946720123291,-8.175002098083496,3.2567129135131836
1481198839011,-4.853645324707031,-7.848791599273682,2.9305028915405273
1481198839192,-5.110423564910889,-9.147047996520996,2.848501443862915
1481198839370,-2.050035238265991,-9.147645950317383,-1.1468225717544556
1481198839552,-3.5452141761779785,-8.176198959350586,-1.0983400344848633
1481198839727,-4.434659957885742,-8.614935874938965,0.47405192255973816
1481198839910,-4.675876140594482,-8.734646797180176,0.055665191262960434
1481198840090,-2.7449522018432617,-7.038952827453613,0.1885433793067932
1481198840268,-3.046621561050415,-6.056133270263672,1.7687164545059204
1481198840452,-1.0420763492584229,-7.5650787353515625,2.072181463241577
1481198840631,-3.78104305267334,-8.179790496826172,3.3716344833374023
1481198840809,-4.603451251983643,-7.457938194274902,3.06876802444458
1481198840993,-3.0573954582214355,-7.139509677886963,2.7329812049865723
1481198841171,-3.1741127967834473,-7.905653953552246,3.7044286727905273
1481198841353,-8.239047050476074,-15.50185775756836,0.5153518915176392
1481198841531,-4.194641590118408,-8.827422142028809,0.729034423828125
1481198841714,-4.236539840698242,-8.556877136230469,0.5183446407318115
1481198841892,-3.4111387729644775,-6.9473748207092285,-0.19931729137897491
1481198842074,-3.957615375518799,-6.766612529754639,1.556231141090393
1481198842250,-3.6589386463165283,-8.368931770324707,2.96162748336792
1481198842435,-2.9221231937408447,-5.506663799285889,3.5218706130981445
1481198842614,-4.985925197601318,-7.216124057769775,2.9945478439331055
1481198842790,-2.9885623455047607,-7.351396083831787,2.671330451965332
1481198842974,-2.5737667083740234,-5.901108741760254,2.380434989929199
1481198843151,-0.7709329724311829,-8.31985092163086,0.10953472554683685
1481198843336,-4.489128112792969,-9.184157371520996,-0.14245499670505524
1481198843515,-3.804386615753174,-9.013570785522461,0.22086510062217712
1481198843695,-3.0585925579071045,-8.70950698852539,-1.6011223793029785
1481198843876,-3.3045969009399414,-7.160458564758301,0.2322375625371933
1481198844056,-0.9528923034667969,-11.934496879577637,2.1344308853149414
1481198844238,-4.156333923339844,-8.044517517089844,3.0561983585357666
1481198844416,-5.312135219573975,-6.468534469604492,3.4536359310150146
1481198844596,-4.262277603149414,-6.879738807678223,2.783858060836792
1481198844772,-4.5394062995910645,-6.271611213684082,3.555389642715454
1481198844955,-4.676474571228027,-9.65222454071045,-1.3646949529647827
1481198845137,-0.8044517636299133,-8.643068313598633,-0.3298012912273407
1481198845312,-4.669291973114014,-8.660426139831543,0.24121582508087158
1481198845497,-3.382408380508423,-7.9852614402771,0.12389993667602539
1481198845677,-3.397970676422119,-5.428253650665283,0.46627077460289
1481198845856,-3.6128504276275635,-13.691841125488281,2.6443958282470703
1481198846037,-1.4083890914916992,-4.675277233123779,2.9328970909118652
1481198846216,-4.881178855895996,-8.55029296875,3.75291109085083
1481198846396,-5.421669960021973,-8.151060104370117,2.783259391784668
1481198846579,-2.5546131134033203,-5.409698963165283,1.7687164545059204
1481198846754,-2.431910276412964,-17.322050094604492,-0.8361749649047852
1481198846937,-3.9701850414276123,-10.079588890075684,-0.7116764783859253
1481198847119,-3.153762102127075,-8.656834602355957,0.6530185341835022
1481198847294,-2.6665420532226563,-8.641871452331543,-1.3102269172668457
1481198847477,-5.6443305015563965,-6.405087947845459,1.41257905960083
1481198847660,-5.520430564880371,-11.58973217010498,3.6583402156829834
1481198847835,-2.713827610015869,-5.7311201095581055,3.7463271617889404
1481198848019,-4.593874454498291,-6.011241912841797,4.954201698303223
1481198848197,-6.033388137817383,-7.434594631195068,4.887762546539307
1481198848379,-2.3343467712402344,-8.201337814331055,0.6015431880950928
1481198848560,-1.3988122940063477,-9.001001358032227,1.427542805671692
1481198848741,-4.72376012802124,-8.782530784606934,0.7817068696022034
1481198848918,-4.67946720123291,-8.162431716918945,-0.7823054194450378
1481198849100,-2.315791606903076,-11.17852783203125,-1.0516531467437744
1481198849275,-2.316988706588745,-11.540650367736816,1.5155296325683594
1481198849461,-3.226186752319336,-7.058106422424316,2.2852654457092285
1481198849641,-4.0300397872924805,-6.596624374389648,2.7922377586364746
1481198849816,-2.7036523818969727,-8.2127103805542,4.246715068817139
1481198850001,-4.049193859100342,-8.087015151977539,3.8049850463867188
1481198850180,-5.507861137390137,-12.933477401733398,1.0534487962722778
1481198850357,-3.8582561016082764,-8.598176956176758,-0.5309142470359802
1481198850541,-3.758896589279175,-7.162254333496094,0.15741875767707825
1481198850717,-2.7257986068725586,-6.5050458908081055,0.5015852451324463
1481198850924,-2.0715830326080322,-14.011466979980469,3.798999547958374
1481198851082,-3.0526070594787598,-4.943428039550781,1.809417963027954
1481198851261,-4.035427093505859,-7.669825077056885,3.3446998596191406
1481198851443,-2.8215668201446533,-6.777386665344238,1.6454150676727295
1481198851623,-2.474407434463501,-7.822455406188965,3.6996402740478516
1481198851799,-2.6204538345336914,-12.953827857971191,-0.7254431247711182
1481198851981,-5.037400245666504,-10.314221382141113,1.5496470928192139
1481198852159,-3.773860454559326,-8.389283180236816,0.20350714027881622
1481198852339,-3.333327293395996,-8.526350975036621,0.4812345504760742
1481198852524,-5.626972675323486,-8.267178535461426,0.17238251864910126
1481198852704,-3.958214044570923,-14.189834594726563,3.333327293395996
1481198852880,-3.804386615753174,-11.140220642089844,3.688866376876831
1481198853060,-3.464409828186035,-6.982090473175049,2.847304344177246
1481198853240,-4.399944305419922,-7.4752960205078125,2.544437885284424
1481198853426,-3.975571870803833,-7.1490864753723145,2.2822728157043457
1481198853605,-2.3265655040740967,-16.758214950561523,-0.8277952671051025
1481198853782,-5.359420299530029,-9.765948295593262,-0.5811924338340759
1481198853965,-3.9815573692321777,-8.397662162780762,0.6805518269538879
1481198854142,-5.048772811889648,-8.339004516601563,0.2932897210121155
1481198854321,-3.5649664402008057,-5.8005523681640625,0.04668693244457245
1481198854505,-4.0300397872924805,-18.672977447509766,6.770204067230225
1481198854685,-7.335235595703125,-9.710882186889648,4.219780445098877
1481198854861,-4.477755546569824,-5.275623321533203,1.8022353649139404
1481198855046,-1.335964560508728,-6.550535678863525,1.3221979141235352
1481198855226,-4.153341293334961,-11.753734588623047,-2.2433669567108154
1481198855402,0.3423708379268646,-5.155314922332764,-2.0649988651275635
1481198855586,-3.162740468978882,-9.114127159118652,0.061052143573760986
1481198855766,-3.450643301010132,-8.974664688110352,-0.11851298063993454
1481198855946,-3.1435868740081787,-8.905831336975098,0.15741875767707825
1481198856127,-3.4997243881225586,-6.575675010681152,0.6320692300796509
1481198856303,-6.038775444030762,-11.340734481811523,1.5029600858688354
1481198856486,-4.856039524078369,-8.344989776611328,3.95641827583313
1481198856671,-4.167706489562988,-7.30770206451416,3.3315317630767822
1481198856843,-3.709217071533203,-8.129511833190918,3.2632968425750732
1481198857029,-3.0615854263305664,-7.694365501403809,3.18249249458313
1481198857206,-2.580350875854492,-6.879738807678223,2.8395233154296875
1481198857383,-7.545925140380859,-12.2403564453125,-0.5291185975074768
1481198857569,-3.5643677711486816,-8.68017864227295,-1.489791989326477
1481198857749,-3.4099416732788086,-9.670180320739746,-0.37828385829925537
1481198857926,-3.109469413757324,-8.237251281738281,-0.3280056416988373
1481198858109,-0.1107318252325058,-8.65743350982666,-0.36571431159973145
1481198858291,-4.501099109649658,-7.625532627105713,1.2862848043441772
1481198858470,-5.942408561706543,-8.60116958618164,0.07661445438861847
1481198858651,-5.309142112731934,-9.044695854187012,1.0983400344848633
1481198858826,-2.1493945121765137,-10.60391902923584,2.8658595085144043
1481198859010,-2.4839842319488525,-6.721721172332764,3.2112231254577637
1481198859190,-2.8347349166870117,-8.22767448425293,2.9550435543060303
1481198859365,-3.8522706031799316,-6.8043212890625,2.2918496131896973
1481198859550,-4.6704888343811035,-15.900491714477539,3.9013516902923584
1481198859727,-2.390610456466675,-9.598953247070313,-0.767341673374176
1481198859905,-4.292803764343262,-9.9586820602417,0.5027823448181152
1481198860090,-3.9193081855773926,-8.229470252990723,0.6380547285079956
1481198860271,-4.040215492248535,-7.202357292175293,0.21368250250816345
1481198860451,-3.6062662601470947,-13.266870498657227,1.6873136758804321
1481198860631,-3.639785051345825,-9.657610893249512,3.6074633598327637
1481198860810,-2.4372973442077637,-8.01339340209961,3.1459810733795166
1481198860990,-2.346317768096924,-7.832630634307861,2.6402058601379395
1481198861171,-3.473388195037842,-8.54909610748291,3.7469255924224854
1481198861347,-2.2260091304779053,-10.20767879486084,-1.1085153818130493
1481198861532,-1.8112136125564575,-6.94079065322876,-2.364872694015503
1481198861711,-4.51067590713501,-7.903259754180908,0.25079262256622314
1481198861888,-3.514089584350586,-7.3885064125061035,-0.10115502029657364
1481198862070,-3.847482204437256,-6.828263282775879,0.5339069962501526
1481198862249,-3.8379054069519043,-17.452533721923828,4.392761707305908
1481198862428,-4.200028419494629,-9.229647636413574,3.356072187423706
1481198862612,-3.025073766708374,-7.450157165527344,2.3271639347076416
1481198862794,-2.5899276733398438,-7.721899032592773,2.0446481704711914
1481198862973,-1.5610195398330688,-7.4100542068481445,2.7970261573791504
1481198863153,-4.640561580657959,-9.463082313537598,-0.2454056739807129
1481198863333,-4.332307815551758,-9.928155899047852,0.48602294921875
1481198863514,-4.717774391174316,-8.560467720031738,0.3776853084564209
1481198863694,-3.531447410583496,-8.131906509399414,0.9929951429367065
1481198863870,-3.597886562347412,-6.276399612426758,0.46567222476005554
1481198864052,-2.521692991256714,-12.88559341430664,3.599083662033081
1481198864234,-2.495356798171997,-7.511807918548584,3.4524388313293457
1481198864409,-2.6575639247894287,-6.366182327270508,3.2800562381744385
1481198864595,-2.6455929279327393,-8.416815757751465,2.5492262840270996
1481198864775,-5.033210754394531,-6.906673431396484,3.9851486682891846
1481198864950,-2.940079689025879,-4.499902248382568,4.918887615203857
1481198865135,-3.244741916656494,-6.390124320983887,7.075464725494385
1481198865315,-0.01496376097202301,-19.608510971069336,-0.7864952683448792
1481198865491,-0.7433996200561523,-10.400412559509277,0.1646013706922531
1481198865676,-3.8965632915496826,-8.610147476196289,0.2537853717803955
1481198865851,-3.891176223754883,-8.333617210388184,0.7038952708244324
1481198866036,-3.536834478378296,-8.545504570007324,-0.03711012750864029
1481198866216,-1.7627309560775757,-10.483611106872559,1.3952209949493408
1481198866397,-2.7557260990142822,-10.606313705444336,1.1887211799621582
1481198866576,-2.521692991256714,-8.289324760437012,1.7363947629928589
1481198866757,-2.5043349266052246,-8.268974304199219,1.0654197931289673
1481198866933,-2.5456349849700928,-10.664372444152832,1.7962498664855957
1481198867115,-3.8564603328704834,-7.632116317749023,2.072181463241577
1481198867297,-3.4087445735931396,-6.889914035797119,2.470816135406494
1481198867473,-3.2160115242004395,-9.03631591796875,3.044826030731201
1481198867656,-2.3098061084747314,-11.372458457946777,-2.272696018218994
1481198867838,-1.455674648284912,-6.3931169509887695,-0.9528923034667969
1481198868014,-4.73573112487793,-8.867524147033691,-0.08858546614646912
1481198868199,-3.53204607963562,-8.98543930053711,0.395043283700943
1481198868377,-3.001730442047119,-8.54909610748291,0.013766659423708916
1481198868557,-4.858433723449707,-9.009979248046875,0.01975216343998909
1481198868739,-3.339911460876465,-6.943783283233643,1.3215993642807007
1481198868931,-0.9714473485946655,-10.63624095916748,2.4588451385498047
1481198869099,-3.4081461429595947,-6.445190906524658,2.980781078338623
1481198869280,-4.14915132522583,-7.875726699829102,3.445854902267456
1481198869460,-4.410717964172363,-8.411429405212402,2.7934348583221436
1481198869640,-3.205836057662964,-6.387131690979004,2.3517045974731445
1481198869820,-2.166752576828003,-6.186617374420166,2.4157495498657227
1481198869995,-6.411672115325928,-15.432425498962402,-0.050876785069704056
1481198870180,-2.609679937362671,-7.858967304229736,-0.8080430626869202
1481198870360,-3.3889925479888916,-8.259397506713867,-0.70090252161026
1481198870536,-3.7181951999664307,-8.250418663024902,-0.152031809091568
1481198870720,-3.827131509780884,-7.498041152954102,1.2563573122024536
1481198870900,-2.0422539710998535,-7.056909561157227,1.9734207391738892
1481198871080,-2.380434989929199,-10.225635528564453,0.6159083843231201
1481198871261,-4.623802185058594,-9.08719253540039,3.0550012588500977
1481198871440,-4.167108058929443,-5.770026206970215,2.938283920288086
1481198871621,-3.554192304611206,-6.5942301750183105,3.0795419216156006
1481198871801,-5.017049789428711,-8.406042098999023,3.3273417949676514
1481198871981,-6.782175064086914,-8.720879554748535,-2.3942017555236816
1481198872160,-4.504690647125244,-8.723274230957031,-0.3621230125427246
1481198872342,-3.1064767837524414,-9.336189270019531,0.08379705995321274
1481198872518,-3.93367338180542,-8.604761123657227,-0.16998831927776337
1481198872702,-3.861248731613159,-9.012373924255371,-0.06763619929552078
1481198872882,-3.2609026432037354,-7.465120792388916,0.32202014327049255
1481198873058,-5.30076265335083,-7.016208171844482,1.1276689767837524
1481198873240,-0.29568392038345337,-11.459247589111328,1.216254472732544
1481198873421,-2.4636335372924805,-5.349843502044678,2.890998601913452
1481198873599,-3.561375141143799,-7.134122371673584,3.1507694721221924
1481198873783,-2.1978771686553955,-6.053140640258789,1.544858694076538
1481198873960,-3.2315738201141357,-6.8557963371276855,3.267486810684204
1481198874143,-2.5049335956573486,-9.785700798034668,-2.300827741622925
1481198874323,-2.2625205516815186,-8.307879447937012,0.12868833541870117
1481198874501,-4.02465295791626,-8.441356658935547,0.5015852451324463
1481198874683,-3.977367639541626,-7.353790283203125,1.003769040107727
1481198874864,-3.2190041542053223,-6.229712963104248,1.1839327812194824
1481198875047,-2.205059766769409,-9.32421875,1.8489222526550293
1481198875224,-3.155557870864868,-6.248267650604248,2.4917654991149902
1481198875405,-4.121618270874023,-7.7763671875,2.6240451335906982
1481198875580,-1.193509578704834,-7.739256858825684,2.425326347351074
1481198875765,-3.9486372470855713,-10.57040023803711,-0.020949264988303185
1481198875945,-2.1356279850006104,-8.376712799072266,-1.3335703611373901
1481198876121,-3.3039982318878174,-8.613739013671875,0.07182604819536209
1481198876306,-3.8061821460723877,-8.965686798095703,0.20111294090747833
1481198876484,-3.708019971847534,-8.7484130859375,0.3693056106567383
1481198876666,-3.3746273517608643,-6.91146183013916,0.46088382601737976
1481198876846,-3.3943793773651123,-6.158485412597656,0.8888474106788635
1481198877022,-1.0875661373138428,-14.392743110656738,3.181295394897461
1481198877207,-3.1633388996124268,-4.717774391174316,2.1571757793426514
1481198877386,-3.4614171981811523,-8.43896198272705,3.315370798110962
1481198877562,-4.101866245269775,-7.558494567871094,2.63362193107605
1481198877747,-2.8646624088287354,-7.888894557952881,1.922544002532959
1481198877927,-1.7489643096923828,-6.642114162445068,1.348534107208252
1481198878103,-6.22731876373291,-6.5930328369140625,1.5933412313461304
1481198878287,-1.802833914756775,-9.236231803894043,0.7948749661445618
1481198878466,-3.1531636714935303,-9.238625526428223,-0.4752490520477295
1481198878643,-3.648164749145508,-8.65743350982666,0.0071826050989329815
1481198878828,-3.7026329040527344,-8.813654899597168,-0.35913026332855225
1481198879009,-3.7852327823638916,-7.672817707061768,0.4297592043876648
1481198879188,-3.3267433643341064,-6.744466304779053,1.6077064275741577
1481198879369,-0.6141127347946167,-13.12501335144043,4.0863037109375
1481198879546,-2.648585557937622,-5.96754789352417,2.479794502258301
1481198879727,-4.449624061584473,-8.456918716430664,2.979583978652954
1481198879909,-1.9806033372879028,-7.505223751068115,1.9470845460891724
1481198880084,-3.002328872680664,-7.614758491516113,2.557007312774658
1481198880266,-4.13179349899292,-8.614337921142578,-1.2473790645599365
1481198880446,-3.205237627029419,-7.800907611846924,-1.0205284357070923
1481198880625,-4.261679172515869,-8.596381187438965,0.3866635859012604
1481198880810,-2.850895643234253,-8.835203170776367,-0.8607155084609985
1481198880990,-4.504690647125244,-8.388684272766113,1.821987509727478
1481198881164,-6.225522994995117,-9.451709747314453,2.210446834564209
1481198881350,-2.0009541511535645,-8.744223594665527,2.471414804458618
1481198881530,-3.649960517883301,-7.861959934234619,3.7433342933654785
1481198881706,-3.508104085922241,-8.04810905456543,3.272873640060425
1481198881890,-2.8125884532928467,-8.117541313171387,2.6180596351623535
1481198882071,-3.3512837886810303,-7.465120792388916,2.914341926574707
1481198882249,-4.797980308532715,-12.931083679199219,0.4231751561164856
1481198882431,-4.326920986175537,-8.191162109375,-1.3084312677383423
1481198882610,-3.181295394897461,-9.534309387207031,-0.011372458189725876
1481198882791,-3.7193922996520996,-8.451532363891602,-0.4016273319721222
1481198882970,-3.494935989379883,-8.055890083312988,0.5871779918670654
1481198883147,-5.342660903930664,-5.462969779968262,-0.16639702022075653
1481198883330,-1.489791989326477,-12.157755851745605,3.248931646347046
1481198883512,-2.522890090942383,-5.934627532958984,3.27227520942688
1481198883688,-4.23893404006958,-7.288548469543457,3.6493618488311768
1481198883872,-4.366425514221191,-8.031349182128906,3.1872811317443848
1481198884053,-2.9712042808532715,-7.886500358581543,2.3738510608673096
1481198884227,-1.6298527717590332,-7.269993305206299,1.6992846727371216
1481198884411,-3.2345664501190186,-11.741165161132813,-2.030881643295288
1481198884593,-2.785653591156006,-7.7631988525390625,-0.497395396232605
1481198884773,-3.292625904083252,-8.500014305114746,0.7679402232170105
1481198884953,-3.075352191925049,-8.89565658569336,0.4818331003189087
1481198885132,-3.7684733867645264,-7.994239330291748,1.05105459690094
1481198885312,-4.653729438781738,-7.894880294799805,0.4495113790035248
1481198885497,-2.853289842605591,-7.262810707092285,0.7493851184844971
1481198885670,-0.11911153793334961,-12.026673316955566,1.8315643072128296
1481198885854,-2.6569652557373047,-6.409876346588135,2.6348190307617188
1481198886034,-2.604891538619995,-7.24605131149292,2.1499931812286377
1481198886210,-2.984971046447754,-10.409989356994629,3.3464953899383545
1481198886395,-4.059967517852783,-14.805743217468262,1.4083890914916992
1481198886569,-6.7510504722595215,-7.252037048339844,-0.1825578808784485
1481198886750,-3.3063924312591553,-11.067197799682617,0.13826514780521393
1481198886935,-3.4135329723358154,-8.963293075561523,-0.17537526786327362
1481198887115,-3.3530795574188232,-5.541379928588867,-0.4321534037590027
1481198887290,-2.6390087604522705,-6.151302814483643,2.2637176513671875
1481198887475,-4.296993732452393,-8.42160415649414,3.9815573692321777
1481198887655,-5.756259441375732,-7.751227855682373,3.1699230670928955
1481198887836,-4.8722004890441895,-7.690176010131836,3.5404257774353027
1481198888015,-4.757278919219971,-6.909666061401367,3.315969467163086
1481198888192,-2.5127146244049072,-7.240664482116699,2.3283610343933105
1481198888377,-3.155557870864868,-7.537545680999756,3.266289710998535
1481198888569,-1.3425486087799072,-13.48653793334961,-0.090979665517807
1481198888732,-1.7178397178649902,-7.2119340896606445,-1.7435773611068726
1481198888917,-3.3195607662200928,-8.862735748291016,0.16579847037792206
1481198889097,-4.0096893310546875,-8.778340339660645,0.12449848651885986
1481198889273,-3.317166566848755,-8.790311813354492,0.6697779297828674
1481198889452,-3.4572272300720215,-6.92881965637207,0.6440402865409851
1481198889632,-3.8995559215545654,-8.879495620727539,1.0001777410507202
1481198889817,-5.142146587371826,-9.634865760803223,4.414907932281494
1481198889999,-3.382408380508423,-6.684012413024902,3.1968579292297363
1481198890181,-4.644152641296387,-7.967903137207031,2.806602954864502
1481198890353,-2.1320366859436035,-6.900089263916016,1.4323312044143677
1481198890537,-2.3116016387939453,-6.938994884490967,2.4408886432647705
1481198890714,-5.609015941619873,-11.509526252746582,-0.13946224749088287
1481198890896,-3.0651767253875732,-9.309853553771973,0.6799532771110535
1481198891079,-2.872443437576294,-9.068038940429688,-0.3058592677116394
1481198891253,-4.027047157287598,-8.917802810668945,-0.05147533491253853
1481198891437,-4.083909511566162,-8.816049575805664,0.09935937076807022
1481198891620,-3.538031578063965,-9.18355941772461,-0.12509703636169434
1481198891807,-4.396352767944336,-8.44434928894043,-0.1711854189634323
1481198891977,-3.1465795040130615,-9.180566787719727,-0.3405751883983612
1481198892157,-3.1735143661499023,-9.642647743225098,-0.3663128614425659
1481198892335,-3.5643677711486816,-8.847173690795898,-0.09696517139673233
1481198892575,-3.180098295211792,-9.111733436584473,-0.4513070285320282
1481198892705,-3.4811692237854004,-9.116521835327148,-0.35673606395721436
1481198892876,-3.4608185291290283,-9.047688484191895,-0.2849099934101105
1481198893055,-4.060565948486328,-9.476848602294922,-0.06763619929552078
