,Unnamed: 0,timestamp,ax,ay,az
0,0.0,5000.0,-8.564059257507324,0.7296329736709595,4.328118324279785
1,1.0,5100.0,-8.564059257507324,0.7296329736709595,4.328118324279785
2,2.0,5200.0,-8.564059257507324,0.7296329736709595,4.328118324279785
3,3.0,5300.0,-8.556877136230469,0.7068880796432495,4.279635429382323
4,4.0,5400.0,-8.556877136230469,0.7068880796432495,4.279635429382323
5,5.0,5500.0,-8.562263488769531,0.6925228238105774,4.282628059387207
6,6.0,5600.0,-8.593388557434082,0.7152677774429321,4.261080265045166
7,7.0,5700.0,-8.593388557434082,0.7152677774429321,4.261080265045166
8,8.0,5800.0,-8.55268669128418,0.7032967209815979,4.335899353027344
9,9.0,5900.0,-8.55268669128418,0.7032967209815979,4.335899353027344
10,5.0,5500.0,-8.562263488769531,0.6925228238105774,4.282628059387207
11,6.0,5600.0,-8.593388557434082,0.7152677774429321,4.261080265045166
12,7.0,5700.0,-8.593388557434082,0.7152677774429321,4.261080265045166
13,8.0,5800.0,-8.55268669128418,0.7032967209815979,4.335899353027344
14,9.0,5900.0,-8.55268669128418,0.7032967209815979,4.335899353027344
15,10.0,6000.0,-8.565256118774414,0.6811503767967224,4.2784385681152335
16,11.0,6100.0,-8.565256118774414,0.6811503767967224,4.2784385681152335
17,12.0,6200.0,-8.595184326171875,0.7380126714706421,4.305373191833496
18,13.0,6300.0,-8.595184326171875,0.7380126714706421,4.305373191833496
19,14.0,6400.0,-8.559869766235353,0.6883329749107361,4.2700586318969735
20,10.0,6000.0,-8.565256118774414,0.6811503767967224,4.2784385681152335
21,11.0,6100.0,-8.565256118774414,0.6811503767967224,4.2784385681152335
22,12.0,6200.0,-8.595184326171875,0.7380126714706421,4.305373191833496
23,13.0,6300.0,-8.595184326171875,0.7380126714706421,4.305373191833496
24,14.0,6400.0,-8.559869766235353,0.6883329749107361,4.2700586318969735
25,15.0,6500.0,-8.571242332458496,0.6889315247535706,4.274847030639648
26,16.0,6600.0,-8.571242332458496,0.6889315247535706,4.274847030639648
27,17.0,6700.0,-8.589199066162111,0.7320271730422974,4.272452831268311
28,18.0,6800.0,-8.589199066162111,0.7320271730422974,4.272452831268311
29,19.0,6900.0,-8.556877136230469,0.7481880187988281,4.308964729309082
30,15.0,6500.0,-8.571242332458496,0.6889315247535706,4.274847030639648
31,16.0,6600.0,-8.571242332458496,0.6889315247535706,4.274847030639648
32,17.0,6700.0,-8.589199066162111,0.7320271730422974,4.272452831268311
33,18.0,6800.0,-8.589199066162111,0.7320271730422974,4.272452831268311
34,19.0,6900.0,-8.556877136230469,0.7481880187988281,4.308964729309082
35,20.0,7000.0,-8.556877136230469,0.7481880187988281,4.308964729309082
36,21.0,7100.0,-8.577826499938965,0.6817489266395569,4.292205333709717
37,22.0,7200.0,-8.577826499938965,0.6817489266395569,4.292205333709717
38,23.0,7300.0,-8.577227592468263,0.7086837291717529,4.285621166229248
39,24.0,7400.0,-8.611943244934082,0.7134721279144287,4.263474464416504
40,20.0,7000.0,-8.556877136230469,0.7481880187988281,4.308964729309082
41,21.0,7100.0,-8.577826499938965,0.6817489266395569,4.292205333709717
42,22.0,7200.0,-8.577826499938965,0.6817489266395569,4.292205333709717
43,23.0,7300.0,-8.577227592468263,0.7086837291717529,4.285621166229248
44,24.0,7400.0,-8.611943244934082,0.7134721279144287,4.263474464416504
45,25.0,7500.0,-8.611943244934082,0.7134721279144287,4.263474464416504
46,26.0,7600.0,-8.558672904968263,0.6703764796257019,4.306570529937743
47,27.0,7700.0,-8.558672904968263,0.6703764796257019,4.306570529937743
48,28.0,7800.0,-8.626907348632812,0.629675030708313,4.254496574401856
49,29.0,7900.0,-8.626907348632812,0.629675030708313,4.254496574401856
50,25.0,7500.0,-8.611943244934082,0.7134721279144287,4.263474464416504
51,26.0,7600.0,-8.558672904968263,0.6703764796257019,4.306570529937743
52,27.0,7700.0,-8.558672904968263,0.6703764796257019,4.306570529937743
53,28.0,7800.0,-8.626907348632812,0.629675030708313,4.254496574401856
54,29.0,7900.0,-8.626907348632812,0.629675030708313,4.254496574401856
55,30.0,8000.0,-8.595782279968263,0.7433996200561523,4.273051261901856
56,31.0,8100.0,-8.595782279968263,0.7433996200561523,4.273051261901856
57,32.0,8200.0,-8.579621315002441,0.8020575642585754,4.28322696685791
58,33.0,8300.0,-8.522759437561035,0.6607996821403503,4.3149499893188485
59,34.0,8400.0,-8.522759437561035,0.6607996821403503,4.3149499893188485
60,30.0,8000.0,-8.595782279968263,0.7433996200561523,4.273051261901856
61,31.0,8100.0,-8.595782279968263,0.7433996200561523,4.273051261901856
62,32.0,8200.0,-8.579621315002441,0.8020575642585754,4.28322696685791
63,33.0,8300.0,-8.522759437561035,0.6607996821403503,4.3149499893188485
64,34.0,8400.0,-8.522759437561035,0.6607996821403503,4.3149499893188485
65,35.0,8500.0,-8.631096839904785,0.7667431235313416,4.264073371887207
66,36.0,8600.0,-8.631096839904785,0.7667431235313416,4.264073371887207
67,37.0,8700.0,-8.589797019958496,0.7541735172271729,4.287416458129884
68,38.0,8800.0,-8.589797019958496,0.7541735172271729,4.287416458129884
69,39.0,8900.0,-8.590395927429201,0.6602011322975159,4.301183223724365
70,35.0,8500.0,-8.631096839904785,0.7667431235313416,4.264073371887207
71,36.0,8600.0,-8.631096839904785,0.7667431235313416,4.264073371887207
72,37.0,8700.0,-8.589797019958496,0.7541735172271729,4.287416458129884
73,38.0,8800.0,-8.589797019958496,0.7541735172271729,4.287416458129884
74,39.0,8900.0,-8.590395927429201,0.6602011322975159,4.301183223724365
75,40.0,9000.0,-8.590395927429201,0.6602011322975159,4.301183223724365
76,41.0,9100.0,-8.561066627502441,0.6643909811973572,4.2491092681884775
77,42.0,9200.0,-8.582614898681639,0.7074866294860841,4.258087635040283
78,43.0,9300.0,-8.582614898681639,0.7074866294860841,4.258087635040283
79,44.0,9400.0,-8.57004451751709,0.6542156338691711,4.254496574401856
80,40.0,9000.0,-8.590395927429201,0.6602011322975159,4.301183223724365
81,41.0,9100.0,-8.561066627502441,0.6643909811973572,4.2491092681884775
82,42.0,9200.0,-8.582614898681639,0.7074866294860841,4.258087635040283
83,43.0,9300.0,-8.582614898681639,0.7074866294860841,4.258087635040283
84,44.0,9400.0,-8.57004451751709,0.6542156338691711,4.254496574401856
85,45.0,9500.0,-8.57004451751709,0.6542156338691711,4.254496574401856
86,46.0,9600.0,-8.589199066162111,0.6853402256965637,4.245518207550049
87,47.0,9700.0,-8.589199066162111,0.6853402256965637,4.245518207550049
88,48.0,9800.0,-8.570643424987793,0.7056909799575806,4.2993879318237305
89,49.0,9900.0,-8.570643424987793,0.7056909799575806,4.2993879318237305
90,45.0,9500.0,-8.57004451751709,0.6542156338691711,4.254496574401856
91,46.0,9600.0,-8.589199066162111,0.6853402256965637,4.245518207550049
92,47.0,9700.0,-8.589199066162111,0.6853402256965637,4.245518207550049
93,48.0,9800.0,-8.570643424987793,0.7056909799575806,4.2993879318237305
94,49.0,9900.0,-8.570643424987793,0.7056909799575806,4.2993879318237305
95,50.0,10000.0,-8.544307708740233,0.6883329749107361,4.313753128051759
96,51.0,10100.0,-8.637083053588867,0.6518214344978333,4.2503066062927255
97,52.0,10200.0,-8.637083053588867,0.6518214344978333,4.2503066062927255
98,53.0,10300.0,-8.587403297424316,0.7122750282287598,4.281431198120116
99,54.0,10400.0,-8.587403297424316,0.7122750282287598,4.281431198120116
100,50.0,10000.0,-8.544307708740233,0.6883329749107361,4.313753128051759
101,51.0,10100.0,-8.637083053588867,0.6518214344978333,4.2503066062927255
102,52.0,10200.0,-8.637083053588867,0.6518214344978333,4.2503066062927255
103,53.0,10300.0,-8.587403297424316,0.7122750282287598,4.281431198120116
104,54.0,10400.0,-8.587403297424316,0.7122750282287598,4.281431198120116
105,55.0,10500.0,-8.577826499938965,0.729034423828125,4.271854400634767
106,56.0,10600.0,-8.577826499938965,0.729034423828125,4.271854400634767
107,57.0,10700.0,-8.647257804870605,0.7254431247711182,4.267664432525635
108,58.0,10800.0,-8.647257804870605,0.7254431247711182,4.267664432525635
109,59.0,10900.0,-8.561066627502441,0.6841431260108948,4.2760443687438965
110,55.0,10500.0,-8.577826499938965,0.729034423828125,4.271854400634767
111,56.0,10600.0,-8.577826499938965,0.729034423828125,4.271854400634767
112,57.0,10700.0,-8.647257804870605,0.7254431247711182,4.267664432525635
113,58.0,10800.0,-8.647257804870605,0.7254431247711182,4.267664432525635
114,59.0,10900.0,-8.561066627502441,0.6841431260108948,4.2760443687438965
115,60.0,11000.0,-8.604162216186522,0.8008604645729065,4.274847030639648
116,61.0,11100.0,-8.604162216186522,0.8008604645729065,4.274847030639648
117,62.0,11200.0,-8.62511157989502,0.6841431260108948,4.2491092681884775
118,63.0,11300.0,-8.62511157989502,0.6841431260108948,4.2491092681884775
119,64.0,11400.0,-8.519766807556152,0.6751648783683777,4.304774761199951
120,60.0,11000.0,-8.604162216186522,0.8008604645729065,4.274847030639648
121,61.0,11100.0,-8.604162216186522,0.8008604645729065,4.274847030639648
122,62.0,11200.0,-8.62511157989502,0.6841431260108948,4.2491092681884775
123,63.0,11300.0,-8.62511157989502,0.6841431260108948,4.2491092681884775
124,64.0,11400.0,-8.519766807556152,0.6751648783683777,4.304774761199951
125,65.0,11500.0,-8.519766807556152,0.6751648783683777,4.304774761199951
126,66.0,11600.0,-8.587403297424316,0.7541735172271729,4.247912406921387
127,67.0,11700.0,-8.587403297424316,0.7541735172271729,4.247912406921387
128,68.0,11800.0,-8.563461303710938,0.6685808300971985,4.275445461273193
129,69.0,11900.0,-8.57004451751709,0.7278373241424559,4.268262863159181
130,65.0,11500.0,-8.519766807556152,0.6751648783683777,4.304774761199951
131,66.0,11600.0,-8.587403297424316,0.7541735172271729,4.247912406921387
132,67.0,11700.0,-8.587403297424316,0.7541735172271729,4.247912406921387
133,68.0,11800.0,-8.563461303710938,0.6685808300971985,4.275445461273193
134,69.0,11900.0,-8.57004451751709,0.7278373241424559,4.268262863159181
135,70.0,12000.0,-8.57004451751709,0.7278373241424559,4.268262863159181
136,71.0,12100.0,-8.543109893798826,0.7015010714530945,4.2784385681152335
137,72.0,12200.0,-8.543109893798826,0.7015010714530945,4.2784385681152335
138,73.0,12300.0,-8.527547836303711,1.0546458959579468,4.333505153656007
139,74.0,12400.0,-8.527547836303711,1.0546458959579468,4.333505153656007
140,70.0,12000.0,-8.57004451751709,0.7278373241424559,4.268262863159181
141,71.0,12100.0,-8.543109893798826,0.7015010714530945,4.2784385681152335
142,72.0,12200.0,-8.543109893798826,0.7015010714530945,4.2784385681152335
143,73.0,12300.0,-8.527547836303711,1.0546458959579468,4.333505153656007
144,74.0,12400.0,-8.527547836303711,1.0546458959579468,4.333505153656007
145,75.0,12500.0,-8.523358345031737,0.7805097699165344,4.373009204864502
146,76.0,12600.0,-8.523358345031737,0.7805097699165344,4.373009204864502
147,77.0,12700.0,-8.652046203613281,0.5476736426353455,4.271255970001222
148,78.0,12800.0,-8.655637741088867,0.6590040326118469,4.210802078247069
149,79.0,12900.0,-8.655637741088867,0.6590040326118469,4.210802078247069
150,75.0,12500.0,-8.523358345031737,0.7805097699165344,4.373009204864502
151,76.0,12600.0,-8.523358345031737,0.7805097699165344,4.373009204864502
152,77.0,12700.0,-8.652046203613281,0.5476736426353455,4.271255970001222
153,78.0,12800.0,-8.655637741088867,0.6590040326118469,4.210802078247069
154,79.0,12900.0,-8.655637741088867,0.6590040326118469,4.210802078247069
155,80.0,13000.0,-8.593987464904785,0.6871358752250671,4.287416458129884
156,81.0,13100.0,-8.593987464904785,0.6871358752250671,4.287416458129884
157,82.0,13200.0,-8.565855026245117,0.6542156338691711,4.277241230010986
158,83.0,13300.0,-8.565855026245117,0.6542156338691711,4.277241230010986
159,84.0,13400.0,-8.583212852478027,0.6709750294685364,4.255693435668944
160,80.0,13000.0,-8.593987464904785,0.6871358752250671,4.287416458129884
161,81.0,13100.0,-8.593987464904785,0.6871358752250671,4.287416458129884
162,82.0,13200.0,-8.565855026245117,0.6542156338691711,4.277241230010986
163,83.0,13300.0,-8.565855026245117,0.6542156338691711,4.277241230010986
164,84.0,13400.0,-8.583212852478027,0.6709750294685364,4.255693435668944
165,85.0,13500.0,-8.583212852478027,0.6709750294685364,4.255693435668944
166,86.0,13600.0,-8.590993881225586,0.6512228846549988,4.268262863159181
167,87.0,13700.0,-8.617330551147461,0.6775590777397156,4.2509050369262695
168,88.0,13800.0,-8.617330551147461,0.6775590777397156,4.2509050369262695
169,89.0,13900.0,-8.510788917541504,0.6835445761680603,4.2940006256103525
170,85.0,13500.0,-8.583212852478027,0.6709750294685364,4.255693435668944
171,86.0,13600.0,-8.590993881225586,0.6512228846549988,4.268262863159181
172,87.0,13700.0,-8.617330551147461,0.6775590777397156,4.2509050369262695
173,88.0,13800.0,-8.617330551147461,0.6775590777397156,4.2509050369262695
174,89.0,13900.0,-8.510788917541504,0.6835445761680603,4.2940006256103525
175,90.0,14000.0,-8.510788917541504,0.6835445761680603,4.2940006256103525
176,91.0,14100.0,-8.614935874938965,0.6266822814941406,4.244919776916504
177,92.0,14200.0,-8.614935874938965,0.6266822814941406,4.244919776916504
178,93.0,14300.0,-8.580220222473145,0.641047477722168,4.255693435668944
179,94.0,14400.0,-8.580220222473145,0.641047477722168,4.255693435668944
180,90.0,14000.0,-8.510788917541504,0.6835445761680603,4.2940006256103525
181,91.0,14100.0,-8.614935874938965,0.6266822814941406,4.244919776916504
182,92.0,14200.0,-8.614935874938965,0.6266822814941406,4.244919776916504
183,93.0,14300.0,-8.580220222473145,0.641047477722168,4.255693435668944
184,94.0,14400.0,-8.580220222473145,0.641047477722168,4.255693435668944
185,95.0,14500.0,-8.64246940612793,0.6625953316688538,4.22157621383667
186,96.0,14600.0,-8.564658164978027,0.7445967197418213,4.259883403778076
187,97.0,14700.0,-8.564658164978027,0.7445967197418213,4.259883403778076
188,98.0,14800.0,-8.608950614929201,0.6925228238105774,4.252102375030519
189,99.0,14900.0,-8.608950614929201,0.6925228238105774,4.252102375030519
190,95.0,14500.0,-8.64246940612793,0.6625953316688538,4.22157621383667
191,96.0,14600.0,-8.564658164978027,0.7445967197418213,4.259883403778076
192,97.0,14700.0,-8.564658164978027,0.7445967197418213,4.259883403778076
193,98.0,14800.0,-8.608950614929201,0.6925228238105774,4.252102375030519
194,99.0,14900.0,-8.608950614929201,0.6925228238105774,4.252102375030519
195,100.0,15000.0,-8.571840286254883,0.6667851805686951,4.252700805664063
196,101.0,15100.0,-8.571840286254883,0.6667851805686951,4.252700805664063
197,102.0,15200.0,-8.580220222473145,0.6991068720817566,4.255693435668944
198,103.0,15300.0,-8.580220222473145,0.6991068720817566,4.255693435668944
199,104.0,15400.0,-8.64127254486084,0.6631938815116882,4.235941410064696
200,100.0,15000.0,-8.571840286254883,0.6667851805686951,4.252700805664063
201,101.0,15100.0,-8.571840286254883,0.6667851805686951,4.252700805664063
202,102.0,15200.0,-8.580220222473145,0.6991068720817566,4.255693435668944
203,103.0,15300.0,-8.580220222473145,0.6991068720817566,4.255693435668944
204,104.0,15400.0,-8.64127254486084,0.6631938815116882,4.235941410064696
205,105.0,15500.0,-8.531737327575684,0.6428431272506714,4.335300922393799
206,106.0,15600.0,-8.531737327575684,0.6428431272506714,4.335300922393799
207,107.0,15700.0,-8.622118949890138,0.6440402865409851,4.217386245727538
208,108.0,15800.0,-8.622118949890138,0.6440402865409851,4.217386245727538
209,109.0,15900.0,-8.548497200012207,0.6560112833976746,4.291007995605469
210,105.0,15500.0,-8.531737327575684,0.6428431272506714,4.335300922393799
211,106.0,15600.0,-8.531737327575684,0.6428431272506714,4.335300922393799
212,107.0,15700.0,-8.622118949890138,0.6440402865409851,4.217386245727538
213,108.0,15800.0,-8.622118949890138,0.6440402865409851,4.217386245727538
214,109.0,15900.0,-8.548497200012207,0.6560112833976746,4.291007995605469
215,110.0,16000.0,-8.548497200012207,0.6560112833976746,4.291007995605469
216,111.0,16100.0,-8.636484146118164,0.706289529800415,4.200626850128174
217,112.0,16200.0,-8.636484146118164,0.706289529800415,4.200626850128174
218,113.0,16300.0,-8.614337921142576,0.751779317855835,4.2509050369262695
219,114.0,16400.0,-8.618527412414549,0.6823474764823914,4.19344425201416
220,110.0,16000.0,-8.548497200012207,0.6560112833976746,4.291007995605469
221,111.0,16100.0,-8.636484146118164,0.706289529800415,4.200626850128174
222,112.0,16200.0,-8.636484146118164,0.706289529800415,4.200626850128174
223,113.0,16300.0,-8.614337921142576,0.751779317855835,4.2509050369262695
224,114.0,16400.0,-8.618527412414549,0.6823474764823914,4.19344425201416
225,115.0,16500.0,-8.618527412414549,0.6823474764823914,4.19344425201416
226,116.0,16600.0,-8.571242332458496,0.641047477722168,4.302380561828613
227,117.0,16700.0,-8.571242332458496,0.641047477722168,4.302380561828613
228,118.0,16800.0,-8.627506256103517,0.6745663285255432,4.218583583831787
229,119.0,16900.0,-8.627506256103517,0.6745663285255432,4.218583583831787
230,115.0,16500.0,-8.618527412414549,0.6823474764823914,4.19344425201416
231,116.0,16600.0,-8.571242332458496,0.641047477722168,4.302380561828613
232,117.0,16700.0,-8.571242332458496,0.641047477722168,4.302380561828613
233,118.0,16800.0,-8.627506256103517,0.6745663285255432,4.218583583831787
234,119.0,16900.0,-8.627506256103517,0.6745663285255432,4.218583583831787
235,120.0,17000.0,-8.609549522399902,0.6811503767967224,4.248510837554932
236,121.0,17100.0,-8.609549522399902,0.6811503767967224,4.248510837554932
237,122.0,17200.0,-8.613141059875487,0.6703764796257019,4.2293572425842285
238,123.0,17300.0,-8.613141059875487,0.6703764796257019,4.2293572425842285
239,124.0,17400.0,-8.595184326171875,0.669179379940033,4.240131378173828
240,120.0,17000.0,-8.609549522399902,0.6811503767967224,4.248510837554932
241,121.0,17100.0,-8.609549522399902,0.6811503767967224,4.248510837554932
242,122.0,17200.0,-8.613141059875487,0.6703764796257019,4.2293572425842285
243,123.0,17300.0,-8.613141059875487,0.6703764796257019,4.2293572425842285
244,124.0,17400.0,-8.595184326171875,0.669179379940033,4.240131378173828
245,125.0,17500.0,-8.587403297424316,0.6494272351264954,4.236539840698241
246,126.0,17600.0,-8.587403297424316,0.6494272351264954,4.236539840698241
247,127.0,17700.0,-8.598176956176758,0.6805518269538879,4.258686065673828
248,128.0,17800.0,-8.598176956176758,0.6805518269538879,4.258686065673828
249,129.0,17900.0,-8.604761123657228,0.6560112833976746,4.228758811950684
250,125.0,17500.0,-8.587403297424316,0.6494272351264954,4.236539840698241
251,126.0,17600.0,-8.587403297424316,0.6494272351264954,4.236539840698241
252,127.0,17700.0,-8.598176956176758,0.6805518269538879,4.258686065673828
253,128.0,17800.0,-8.598176956176758,0.6805518269538879,4.258686065673828
254,129.0,17900.0,-8.604761123657228,0.6560112833976746,4.228758811950684
255,130.0,18000.0,-8.604761123657228,0.6560112833976746,4.228758811950684
256,131.0,18100.0,-8.593388557434082,0.6961141228675842,4.239532470703125
257,132.0,18200.0,-8.593388557434082,0.6961141228675842,4.239532470703125
258,133.0,18300.0,-8.602965354919434,0.6769605278968811,4.228160381317139
259,134.0,18400.0,-8.665214538574219,0.6452373862266539,4.1904516220092765
260,130.0,18000.0,-8.604761123657228,0.6560112833976746,4.228758811950684
261,131.0,18100.0,-8.593388557434082,0.6961141228675842,4.239532470703125
262,132.0,18200.0,-8.593388557434082,0.6961141228675842,4.239532470703125
263,133.0,18300.0,-8.602965354919434,0.6769605278968811,4.228160381317139
264,134.0,18400.0,-8.665214538574219,0.6452373862266539,4.1904516220092765
265,135.0,18500.0,-8.665214538574219,0.6452373862266539,4.1904516220092765
266,136.0,18600.0,-8.580220222473145,0.6943184733390808,4.305373191833496
267,137.0,18700.0,-8.580220222473145,0.6943184733390808,4.305373191833496
268,138.0,18800.0,-8.862735748291016,0.568622887134552,4.0737342834472665
269,139.0,18900.0,-8.862735748291016,0.568622887134552,4.0737342834472665
270,135.0,18500.0,-8.665214538574219,0.6452373862266539,4.1904516220092765
271,136.0,18600.0,-8.580220222473145,0.6943184733390808,4.305373191833496
272,137.0,18700.0,-8.580220222473145,0.6943184733390808,4.305373191833496
273,138.0,18800.0,-8.862735748291016,0.568622887134552,4.0737342834472665
274,139.0,18900.0,-8.862735748291016,0.568622887134552,4.0737342834472665
275,140.0,19000.0,-8.366538047790527,0.7326257228851318,4.3640313148498535
276,141.0,19100.0,-8.366538047790527,0.7326257228851318,4.3640313148498535
277,142.0,19200.0,-8.652645111083983,0.6344634294509888,4.210802078247069
278,143.0,19300.0,-8.572439193725586,0.6637924313545227,4.240729808807373
279,144.0,19400.0,-8.572439193725586,0.6637924313545227,4.240729808807373
280,140.0,19000.0,-8.366538047790527,0.7326257228851318,4.3640313148498535
281,141.0,19100.0,-8.366538047790527,0.7326257228851318,4.3640313148498535
282,142.0,19200.0,-8.652645111083983,0.6344634294509888,4.210802078247069
283,143.0,19300.0,-8.572439193725586,0.6637924313545227,4.240729808807373
284,144.0,19400.0,-8.572439193725586,0.6637924313545227,4.240729808807373
285,145.0,19500.0,-8.608352661132812,0.679354727268219,4.241926670074463
286,146.0,19600.0,-8.608352661132812,0.679354727268219,4.241926670074463
287,147.0,19700.0,-8.605359077453612,0.6643909811973572,4.244320869445802
288,148.0,19800.0,-8.605359077453612,0.6643909811973572,4.244320869445802
289,149.0,19900.0,-8.601768493652344,0.6655880808830261,4.251503467559815
290,145.0,19500.0,-8.608352661132812,0.679354727268219,4.241926670074463
291,146.0,19600.0,-8.608352661132812,0.679354727268219,4.241926670074463
292,147.0,19700.0,-8.605359077453612,0.6643909811973572,4.244320869445802
293,148.0,19800.0,-8.605359077453612,0.6643909811973572,4.244320869445802
294,149.0,19900.0,-8.601768493652344,0.6655880808830261,4.251503467559815
295,150.0,20000.0,-8.595782279968263,0.6769605278968811,4.233547210693359
296,151.0,20100.0,-8.595782279968263,0.6769605278968811,4.233547210693359
297,152.0,20200.0,-8.548497200012207,0.6607996821403503,4.233547210693359
298,153.0,20300.0,-8.548497200012207,0.6607996821403503,4.233547210693359
299,154.0,20400.0,-8.610147476196289,0.6937199234962463,4.238335609436035
300,150.0,20000.0,-8.595782279968263,0.6769605278968811,4.233547210693359
301,151.0,20100.0,-8.595782279968263,0.6769605278968811,4.233547210693359
302,152.0,20200.0,-8.548497200012207,0.6607996821403503,4.233547210693359
303,153.0,20300.0,-8.548497200012207,0.6607996821403503,4.233547210693359
304,154.0,20400.0,-8.610147476196289,0.6937199234962463,4.238335609436035
305,155.0,20500.0,-8.610147476196289,0.6937199234962463,4.238335609436035
306,156.0,20600.0,-8.58620548248291,0.6709750294685364,4.242525577545166
307,157.0,20700.0,-8.58620548248291,0.6709750294685364,4.242525577545166
308,158.0,20800.0,-8.631695747375487,0.6673837304115295,4.231751441955566
309,159.0,20900.0,-8.631695747375487,0.6673837304115295,4.231751441955566
310,155.0,20500.0,-8.610147476196289,0.6937199234962463,4.238335609436035
311,156.0,20600.0,-8.58620548248291,0.6709750294685364,4.242525577545166
312,157.0,20700.0,-8.58620548248291,0.6709750294685364,4.242525577545166
313,158.0,20800.0,-8.631695747375487,0.6673837304115295,4.231751441955566
314,159.0,20900.0,-8.631695747375487,0.6673837304115295,4.231751441955566
315,160.0,21000.0,-8.580819129943848,0.6548141837120056,4.241926670074463
316,161.0,21100.0,-8.584410667419434,0.6685808300971985,4.232349872589111
317,162.0,21200.0,-8.584410667419434,0.6685808300971985,4.232349872589111
318,163.0,21300.0,-8.573038101196289,0.6560112833976746,4.219780445098877
319,164.0,21400.0,-8.573038101196289,0.6560112833976746,4.219780445098877
320,160.0,21000.0,-8.580819129943848,0.6548141837120056,4.241926670074463
321,161.0,21100.0,-8.584410667419434,0.6685808300971985,4.232349872589111
322,162.0,21200.0,-8.584410667419434,0.6685808300971985,4.232349872589111
323,163.0,21300.0,-8.573038101196289,0.6560112833976746,4.219780445098877
324,164.0,21400.0,-8.573038101196289,0.6560112833976746,4.219780445098877
325,165.0,21500.0,-8.590993881225586,0.6643909811973572,4.232948780059815
326,166.0,21600.0,-8.590993881225586,0.6643909811973572,4.232948780059815
327,167.0,21700.0,-8.609549522399902,0.6625953316688538,4.241328239440918
328,168.0,21800.0,-8.609549522399902,0.6625953316688538,4.241328239440918
329,169.0,21900.0,-8.605359077453612,0.6548141837120056,4.246116638183594
330,165.0,21500.0,-8.590993881225586,0.6643909811973572,4.232948780059815
331,166.0,21600.0,-8.590993881225586,0.6643909811973572,4.232948780059815
332,167.0,21700.0,-8.609549522399902,0.6625953316688538,4.241328239440918
333,168.0,21800.0,-8.609549522399902,0.6625953316688538,4.241328239440918
334,169.0,21900.0,-8.605359077453612,0.6548141837120056,4.246116638183594
335,170.0,22000.0,-8.605957984924316,0.6488286852836609,4.23893404006958
336,171.0,22100.0,-8.605957984924316,0.6488286852836609,4.23893404006958
337,172.0,22200.0,-8.616133689880371,0.6320692300796509,4.234744071960448
338,173.0,22300.0,-8.616133689880371,0.6320692300796509,4.234744071960448
339,174.0,22400.0,-8.576030731201174,0.6524199843406677,4.255693435668944
340,170.0,22000.0,-8.605957984924316,0.6488286852836609,4.23893404006958
341,171.0,22100.0,-8.605957984924316,0.6488286852836609,4.23893404006958
342,172.0,22200.0,-8.616133689880371,0.6320692300796509,4.234744071960448
343,173.0,22300.0,-8.616133689880371,0.6320692300796509,4.234744071960448
344,174.0,22400.0,-8.576030731201174,0.6524199843406677,4.255693435668944
345,175.0,22500.0,-8.576030731201174,0.6524199843406677,4.255693435668944
346,176.0,22600.0,-8.613739013671875,0.6602011322975159,4.224568843841554
347,177.0,22700.0,-8.613739013671875,0.6602011322975159,4.224568843841554
348,178.0,22800.0,-8.577826499938965,0.6548141837120056,4.25629186630249
349,179.0,22900.0,-8.619724273681639,0.6440402865409851,4.22157621383667
350,175.0,22500.0,-8.576030731201174,0.6524199843406677,4.255693435668944
351,176.0,22600.0,-8.613739013671875,0.6602011322975159,4.224568843841554
352,177.0,22700.0,-8.613739013671875,0.6602011322975159,4.224568843841554
353,178.0,22800.0,-8.577826499938965,0.6548141837120056,4.25629186630249
354,179.0,22900.0,-8.619724273681639,0.6440402865409851,4.22157621383667
355,180.0,23000.0,-8.619724273681639,0.6440402865409851,4.22157621383667
356,181.0,23100.0,-8.623315811157228,0.6524199843406677,4.212597846984863
357,182.0,23200.0,-8.623315811157228,0.6524199843406677,4.212597846984863
358,183.0,23300.0,-8.599972724914549,0.5722141861915588,4.269460201263429
359,184.0,23400.0,-8.599972724914549,0.5722141861915588,4.269460201263429
360,180.0,23000.0,-8.619724273681639,0.6440402865409851,4.22157621383667
361,181.0,23100.0,-8.623315811157228,0.6524199843406677,4.212597846984863
362,182.0,23200.0,-8.623315811157228,0.6524199843406677,4.212597846984863
363,183.0,23300.0,-8.599972724914549,0.5722141861915588,4.269460201263429
364,184.0,23400.0,-8.599972724914549,0.5722141861915588,4.269460201263429
365,185.0,23500.0,-8.615534782409668,0.6362590789794922,4.219780445098877
366,186.0,23600.0,-8.615534782409668,0.6362590789794922,4.219780445098877
367,187.0,23700.0,-8.582015991210938,0.6649895310401917,4.249708175659181
368,188.0,23800.0,-8.56645393371582,0.6631938815116882,4.251503467559815
369,189.0,23900.0,-8.56645393371582,0.6631938815116882,4.251503467559815
370,185.0,23500.0,-8.615534782409668,0.6362590789794922,4.219780445098877
371,186.0,23600.0,-8.615534782409668,0.6362590789794922,4.219780445098877
372,187.0,23700.0,-8.582015991210938,0.6649895310401917,4.249708175659181
373,188.0,23800.0,-8.56645393371582,0.6631938815116882,4.251503467559815
374,189.0,23900.0,-8.56645393371582,0.6631938815116882,4.251503467559815
375,190.0,24000.0,-8.590993881225586,0.6901286244392395,4.23893404006958
376,191.0,24100.0,-8.590993881225586,0.6901286244392395,4.23893404006958
377,192.0,24200.0,-8.619724273681639,0.6739677786827087,4.219182014465332
378,193.0,24300.0,-8.619724273681639,0.6739677786827087,4.219182014465332
379,194.0,24400.0,-8.612542152404785,0.6991068720817566,4.244320869445802
380,190.0,24000.0,-8.590993881225586,0.6901286244392395,4.23893404006958
381,191.0,24100.0,-8.590993881225586,0.6901286244392395,4.23893404006958
382,192.0,24200.0,-8.619724273681639,0.6739677786827087,4.219182014465332
383,193.0,24300.0,-8.619724273681639,0.6739677786827087,4.219182014465332
384,194.0,24400.0,-8.612542152404785,0.6991068720817566,4.244320869445802
385,195.0,24500.0,-8.612542152404785,0.6991068720817566,4.244320869445802
386,196.0,24600.0,-8.60236644744873,0.6709750294685364,4.194042682647705
387,197.0,24700.0,-8.541913032531737,0.5656301379203796,4.290409564971924
388,198.0,24800.0,-8.541913032531737,0.5656301379203796,4.290409564971924
389,199.0,24900.0,-8.651448249816895,0.6147112846374512,4.183867454528809
390,195.0,24500.0,-8.612542152404785,0.6991068720817566,4.244320869445802
391,196.0,24600.0,-8.60236644744873,0.6709750294685364,4.194042682647705
392,197.0,24700.0,-8.541913032531737,0.5656301379203796,4.290409564971924
393,198.0,24800.0,-8.541913032531737,0.5656301379203796,4.290409564971924
394,199.0,24900.0,-8.651448249816895,0.6147112846374512,4.183867454528809
395,200.0,25000.0,-8.651448249816895,0.6147112846374512,4.183867454528809
396,201.0,25100.0,-8.616731643676758,0.6356605291366577,4.243722438812257
397,202.0,25200.0,-8.616731643676758,0.6356605291366577,4.243722438812257
398,203.0,25300.0,-8.612542152404785,0.6745663285255432,4.217386245727538
399,204.0,25400.0,-8.612542152404785,0.6745663285255432,4.217386245727538
400,200.0,25000.0,-8.651448249816895,0.6147112846374512,4.183867454528809
401,201.0,25100.0,-8.616731643676758,0.6356605291366577,4.243722438812257
402,202.0,25200.0,-8.616731643676758,0.6356605291366577,4.243722438812257
403,203.0,25300.0,-8.612542152404785,0.6745663285255432,4.217386245727538
404,204.0,25400.0,-8.612542152404785,0.6745663285255432,4.217386245727538
405,205.0,25500.0,-8.579621315002441,0.6470330357551575,4.264073371887207
406,206.0,25600.0,-8.623315811157228,0.6590040326118469,4.210802078247069
407,207.0,25700.0,-8.623315811157228,0.6590040326118469,4.210802078247069
408,208.0,25800.0,-8.643068313598633,0.6446388363838196,4.2114009857177725
409,209.0,25900.0,-8.643068313598633,0.6446388363838196,4.2114009857177725
410,205.0,25500.0,-8.579621315002441,0.6470330357551575,4.264073371887207
411,206.0,25600.0,-8.623315811157228,0.6590040326118469,4.210802078247069
412,207.0,25700.0,-8.623315811157228,0.6590040326118469,4.210802078247069
413,208.0,25800.0,-8.643068313598633,0.6446388363838196,4.2114009857177725
414,209.0,25900.0,-8.643068313598633,0.6446388363838196,4.2114009857177725
415,210.0,26000.0,-8.638877868652344,0.6709750294685364,4.238335609436035
416,211.0,26100.0,-8.638877868652344,0.6709750294685364,4.238335609436035
417,212.0,26200.0,-8.618527412414549,0.6697779297828674,4.222174644470215
418,213.0,26300.0,-8.618527412414549,0.6697779297828674,4.222174644470215
419,214.0,26400.0,-8.520963668823242,0.6631938815116882,4.347271919250488
420,210.0,26000.0,-8.638877868652344,0.6709750294685364,4.238335609436035
421,211.0,26100.0,-8.638877868652344,0.6709750294685364,4.238335609436035
422,212.0,26200.0,-8.618527412414549,0.6697779297828674,4.222174644470215
423,213.0,26300.0,-8.618527412414549,0.6697779297828674,4.222174644470215
424,214.0,26400.0,-8.520963668823242,0.6631938815116882,4.347271919250488
425,215.0,26500.0,-8.605359077453612,0.7721300721168518,4.2700586318969735
426,216.0,26600.0,-8.605359077453612,0.7721300721168518,4.2700586318969735
427,217.0,26700.0,-8.611345291137695,0.6536170840263367,4.228758811950684
428,218.0,26800.0,-8.611345291137695,0.6536170840263367,4.228758811950684
429,219.0,26900.0,-8.629899978637695,0.6709750294685364,4.226364612579347
430,215.0,26500.0,-8.605359077453612,0.7721300721168518,4.2700586318969735
431,216.0,26600.0,-8.605359077453612,0.7721300721168518,4.2700586318969735
432,217.0,26700.0,-8.611345291137695,0.6536170840263367,4.228758811950684
433,218.0,26800.0,-8.611345291137695,0.6536170840263367,4.228758811950684
434,219.0,26900.0,-8.629899978637695,0.6709750294685364,4.226364612579347
435,220.0,27000.0,-8.629899978637695,0.6709750294685364,4.226364612579347
436,221.0,27100.0,-8.598775863647461,0.6338648796081543,4.2760443687438965
437,222.0,27200.0,-8.598775863647461,0.6338648796081543,4.2760443687438965
438,223.0,27300.0,-8.600570678710938,0.6470330357551575,4.220378875732422
439,224.0,27400.0,-8.559869766235353,0.6320692300796509,4.257489204406738
440,220.0,27000.0,-8.629899978637695,0.6709750294685364,4.226364612579347
441,221.0,27100.0,-8.598775863647461,0.6338648796081543,4.2760443687438965
442,222.0,27200.0,-8.598775863647461,0.6338648796081543,4.2760443687438965
443,223.0,27300.0,-8.600570678710938,0.6470330357551575,4.220378875732422
444,224.0,27400.0,-8.559869766235353,0.6320692300796509,4.257489204406738
445,225.0,27500.0,-8.559869766235353,0.6320692300796509,4.257489204406738
446,226.0,27600.0,-8.631096839904785,0.6530185341835022,4.210802078247069
447,227.0,27700.0,-8.631096839904785,0.6530185341835022,4.210802078247069
448,228.0,27800.0,-8.561665534973145,0.6368576288223267,4.236539840698241
449,229.0,27900.0,-8.561665534973145,0.6368576288223267,4.236539840698241
450,225.0,27500.0,-8.559869766235353,0.6320692300796509,4.257489204406738
451,226.0,27600.0,-8.631096839904785,0.6530185341835022,4.210802078247069
452,227.0,27700.0,-8.631096839904785,0.6530185341835022,4.210802078247069
453,228.0,27800.0,-8.561665534973145,0.6368576288223267,4.236539840698241
454,229.0,27900.0,-8.561665534973145,0.6368576288223267,4.236539840698241
455,230.0,28000.0,-8.593388557434082,0.6476315855979919,4.225766181945802
456,231.0,28100.0,-8.593388557434082,0.6476315855979919,4.225766181945802
457,232.0,28200.0,-8.579023361206055,0.6428431272506714,4.238335609436035
458,233.0,28300.0,-8.560467720031737,0.6458359360694885,4.261080265045166
459,234.0,28400.0,-8.560467720031737,0.6458359360694885,4.261080265045166
460,230.0,28000.0,-8.593388557434082,0.6476315855979919,4.225766181945802
461,231.0,28100.0,-8.593388557434082,0.6476315855979919,4.225766181945802
462,232.0,28200.0,-8.579023361206055,0.6428431272506714,4.238335609436035
463,233.0,28300.0,-8.560467720031737,0.6458359360694885,4.261080265045166
464,234.0,28400.0,-8.560467720031737,0.6458359360694885,4.261080265045166
465,235.0,28500.0,-8.598775863647461,0.6500257849693298,4.2299556732177725
466,236.0,28600.0,-8.598775863647461,0.6500257849693298,4.2299556732177725
467,237.0,28700.0,-8.589199066162111,0.5752069354057312,4.2251672744750985
468,238.0,28800.0,-8.589199066162111,0.5752069354057312,4.2251672744750985
469,239.0,28900.0,-8.581417083740233,0.6177040338516235,4.262277603149413
470,235.0,28500.0,-8.598775863647461,0.6500257849693298,4.2299556732177725
471,236.0,28600.0,-8.598775863647461,0.6500257849693298,4.2299556732177725
472,237.0,28700.0,-8.589199066162111,0.5752069354057312,4.2251672744750985
473,238.0,28800.0,-8.589199066162111,0.5752069354057312,4.2251672744750985
474,239.0,28900.0,-8.581417083740233,0.6177040338516235,4.262277603149413
475,240.0,29000.0,-8.581417083740233,0.6177040338516235,4.262277603149413
476,241.0,29100.0,-8.616731643676758,0.6649895310401917,4.223970413208009
477,242.0,29200.0,-8.590993881225586,0.6338648796081543,4.245518207550049
478,243.0,29300.0,-8.590993881225586,0.6338648796081543,4.245518207550049
479,244.0,29400.0,-8.611943244934082,0.6619967818260193,4.22157621383667
480,240.0,29000.0,-8.581417083740233,0.6177040338516235,4.262277603149413
481,241.0,29100.0,-8.616731643676758,0.6649895310401917,4.223970413208009
482,242.0,29200.0,-8.590993881225586,0.6338648796081543,4.245518207550049
483,243.0,29300.0,-8.590993881225586,0.6338648796081543,4.245518207550049
484,244.0,29400.0,-8.611943244934082,0.6619967818260193,4.22157621383667
485,245.0,29500.0,-8.611943244934082,0.6619967818260193,4.22157621383667
486,246.0,29600.0,-8.617929458618164,0.5883750915527344,4.212597846984863
487,247.0,29700.0,-8.617929458618164,0.5883750915527344,4.212597846984863
488,248.0,29800.0,-8.575431823730469,0.7302315235137941,4.228160381317139
489,249.0,29900.0,-8.575431823730469,0.7302315235137941,4.228160381317139
490,245.0,29500.0,-8.611943244934082,0.6619967818260193,4.22157621383667
491,246.0,29600.0,-8.617929458618164,0.5883750915527344,4.212597846984863
492,247.0,29700.0,-8.617929458618164,0.5883750915527344,4.212597846984863
493,248.0,29800.0,-8.575431823730469,0.7302315235137941,4.228160381317139
494,249.0,29900.0,-8.575431823730469,0.7302315235137941,4.228160381317139
495,250.0,30000.0,-8.652046203613281,0.629675030708313,4.210802078247069
496,251.0,30100.0,-8.608950614929201,0.6488286852836609,4.23893404006958
497,252.0,30200.0,-8.608950614929201,0.6488286852836609,4.23893404006958
498,253.0,30300.0,-8.637681007385254,0.6206967830657959,4.202422618865967
499,254.0,30400.0,-8.637681007385254,0.6206967830657959,4.202422618865967
500,250.0,30000.0,-8.652046203613281,0.629675030708313,4.210802078247069
501,251.0,30100.0,-8.608950614929201,0.6488286852836609,4.23893404006958
502,252.0,30200.0,-8.608950614929201,0.6488286852836609,4.23893404006958
503,253.0,30300.0,-8.637681007385254,0.6206967830657959,4.202422618865967
504,254.0,30400.0,-8.637681007385254,0.6206967830657959,4.202422618865967
505,255.0,30500.0,-8.635885238647461,0.6302735805511475,4.207211017608644
506,256.0,30600.0,-8.635885238647461,0.6302735805511475,4.207211017608644
507,257.0,30700.0,-8.591592788696289,0.596754789352417,4.170100688934326
508,258.0,30800.0,-8.591592788696289,0.596754789352417,4.170100688934326
509,259.0,30900.0,-8.584410667419434,0.5512649416923523,4.216787815093993
510,255.0,30500.0,-8.635885238647461,0.6302735805511475,4.207211017608644
511,256.0,30600.0,-8.635885238647461,0.6302735805511475,4.207211017608644
512,257.0,30700.0,-8.591592788696289,0.596754789352417,4.170100688934326
513,258.0,30800.0,-8.591592788696289,0.596754789352417,4.170100688934326
514,259.0,30900.0,-8.584410667419434,0.5512649416923523,4.216787815093993
515,260.0,31000.0,-8.641871452331543,0.6506243348121643,4.155137062072754
516,261.0,31100.0,-8.641871452331543,0.6506243348121643,4.155137062072754
517,262.0,31200.0,-8.632892608642576,0.6613982319831848,4.213196277618408
518,263.0,31300.0,-8.632892608642576,0.6613982319831848,4.213196277618408
519,264.0,31400.0,-8.613141059875487,0.5991489887237549,4.198232650756837
520,260.0,31000.0,-8.641871452331543,0.6506243348121643,4.155137062072754
521,261.0,31100.0,-8.641871452331543,0.6506243348121643,4.155137062072754
522,262.0,31200.0,-8.632892608642576,0.6613982319831848,4.213196277618408
523,263.0,31300.0,-8.632892608642576,0.6613982319831848,4.213196277618408
524,264.0,31400.0,-8.613141059875487,0.5991489887237549,4.198232650756837
525,265.0,31500.0,-8.613141059875487,0.5991489887237549,4.198232650756837
526,266.0,31600.0,-8.617330551147461,0.6033388376235962,4.198232650756837
527,267.0,31700.0,-8.617330551147461,0.6033388376235962,4.198232650756837
528,268.0,31800.0,-8.621520042419434,0.6470330357551575,4.2060136795043945
529,269.0,31900.0,-8.618527412414549,0.6476315855979919,4.203021049499512
530,265.0,31500.0,-8.613141059875487,0.5991489887237549,4.198232650756837
531,266.0,31600.0,-8.617330551147461,0.6033388376235962,4.198232650756837
532,267.0,31700.0,-8.617330551147461,0.6033388376235962,4.198232650756837
533,268.0,31800.0,-8.621520042419434,0.6470330357551575,4.2060136795043945
534,269.0,31900.0,-8.618527412414549,0.6476315855979919,4.203021049499512
535,270.0,32000.0,-8.618527412414549,0.6476315855979919,4.203021049499512
536,271.0,32100.0,-8.629899978637695,0.6314706802368164,4.202422618865967
537,272.0,32200.0,-8.629899978637695,0.6314706802368164,4.202422618865967
538,273.0,32300.0,-8.602965354919434,0.6368576288223267,4.218583583831787
539,274.0,32400.0,-8.602965354919434,0.6368576288223267,4.218583583831787
540,270.0,32000.0,-8.618527412414549,0.6476315855979919,4.203021049499512
541,271.0,32100.0,-8.629899978637695,0.6314706802368164,4.202422618865967
542,272.0,32200.0,-8.629899978637695,0.6314706802368164,4.202422618865967
543,273.0,32300.0,-8.602965354919434,0.6368576288223267,4.218583583831787
544,274.0,32400.0,-8.602965354919434,0.6368576288223267,4.218583583831787
545,275.0,32500.0,-8.635287284851074,0.6554127335548401,4.197634220123291
546,276.0,32600.0,-8.635287284851074,0.6554127335548401,4.197634220123291
547,277.0,32700.0,-8.610746383666992,0.6386532783508301,4.214393615722656
548,278.0,32800.0,-8.610746383666992,0.6386532783508301,4.214393615722656
549,279.0,32900.0,-8.600570678710938,0.6278793811798096,4.2066125869750985
550,275.0,32500.0,-8.635287284851074,0.6554127335548401,4.197634220123291
551,276.0,32600.0,-8.635287284851074,0.6554127335548401,4.197634220123291
552,277.0,32700.0,-8.610746383666992,0.6386532783508301,4.214393615722656
553,278.0,32800.0,-8.610746383666992,0.6386532783508301,4.214393615722656
554,279.0,32900.0,-8.600570678710938,0.6278793811798096,4.2066125869750985
555,280.0,33000.0,-8.611943244934082,0.639850378036499,4.185064792633057
556,281.0,33100.0,-8.611943244934082,0.639850378036499,4.185064792633057
557,282.0,33200.0,-8.607753753662111,0.6470330357551575,4.181473255157472
558,283.0,33300.0,-8.607753753662111,0.6470330357551575,4.181473255157472
559,284.0,33400.0,-8.604761123657228,0.6380547285079956,4.22277307510376
560,280.0,33000.0,-8.611943244934082,0.639850378036499,4.185064792633057
561,281.0,33100.0,-8.611943244934082,0.639850378036499,4.185064792633057
562,282.0,33200.0,-8.607753753662111,0.6470330357551575,4.181473255157472
563,283.0,33300.0,-8.607753753662111,0.6470330357551575,4.181473255157472
564,284.0,33400.0,-8.604761123657228,0.6380547285079956,4.22277307510376
565,285.0,33500.0,-8.604761123657228,0.6380547285079956,4.22277307510376
566,286.0,33600.0,-8.644265174865723,0.6560112833976746,4.201225280761719
567,287.0,33700.0,-8.622118949890138,0.6452373862266539,4.195240020751953
568,288.0,33800.0,-8.622118949890138,0.6452373862266539,4.195240020751953
569,289.0,33900.0,-8.599373817443848,0.6476315855979919,4.180276393890382
570,285.0,33500.0,-8.604761123657228,0.6380547285079956,4.22277307510376
571,286.0,33600.0,-8.644265174865723,0.6560112833976746,4.201225280761719
572,287.0,33700.0,-8.622118949890138,0.6452373862266539,4.195240020751953
573,288.0,33800.0,-8.622118949890138,0.6452373862266539,4.195240020751953
574,289.0,33900.0,-8.599373817443848,0.6476315855979919,4.180276393890382
575,290.0,34000.0,-8.599373817443848,0.6476315855979919,4.180276393890382
576,291.0,34100.0,-8.611943244934082,0.6446388363838196,4.201225280761719
577,292.0,34200.0,-8.611943244934082,0.6446388363838196,4.201225280761719
578,293.0,34300.0,-8.599972724914549,0.6536170840263367,4.2060136795043945
579,294.0,34400.0,-8.599972724914549,0.6536170840263367,4.2060136795043945
580,290.0,34000.0,-8.599373817443848,0.6476315855979919,4.180276393890382
581,291.0,34100.0,-8.611943244934082,0.6446388363838196,4.201225280761719
582,292.0,34200.0,-8.611943244934082,0.6446388363838196,4.201225280761719
583,293.0,34300.0,-8.599972724914549,0.6536170840263367,4.2060136795043945
584,294.0,34400.0,-8.599972724914549,0.6536170840263367,4.2060136795043945
585,295.0,34500.0,-8.637681007385254,0.6500257849693298,4.1665096282958975
586,296.0,34600.0,-8.604761123657228,0.6625953316688538,4.219780445098877
587,297.0,34700.0,-8.604761123657228,0.6625953316688538,4.219780445098877
588,298.0,34800.0,-8.651448249816895,0.6272808313369751,4.197035789489746
589,299.0,34900.0,-8.651448249816895,0.6272808313369751,4.197035789489746
590,295.0,34500.0,-8.637681007385254,0.6500257849693298,4.1665096282958975
591,296.0,34600.0,-8.604761123657228,0.6625953316688538,4.219780445098877
592,297.0,34700.0,-8.604761123657228,0.6625953316688538,4.219780445098877
593,298.0,34800.0,-8.651448249816895,0.6272808313369751,4.197035789489746
594,299.0,34900.0,-8.651448249816895,0.6272808313369751,4.197035789489746
595,300.0,35000.0,-8.616133689880371,0.6428431272506714,4.2251672744750985
596,301.0,35100.0,-8.616133689880371,0.6428431272506714,4.2251672744750985
597,302.0,35200.0,-8.619126319885254,0.6422445774078369,4.200626850128174
598,303.0,35300.0,-8.619126319885254,0.6422445774078369,4.200626850128174
599,304.0,35400.0,-8.620922088623049,0.6470330357551575,4.2066125869750985
600,300.0,35000.0,-8.616133689880371,0.6428431272506714,4.2251672744750985
601,301.0,35100.0,-8.616133689880371,0.6428431272506714,4.2251672744750985
602,302.0,35200.0,-8.619126319885254,0.6422445774078369,4.200626850128174
603,303.0,35300.0,-8.619126319885254,0.6422445774078369,4.200626850128174
604,304.0,35400.0,-8.620922088623049,0.6470330357551575,4.2066125869750985
605,305.0,35500.0,-8.621520042419434,0.6434416770935059,4.19344425201416
606,306.0,35600.0,-8.621520042419434,0.6434416770935059,4.19344425201416
607,307.0,35700.0,-8.590993881225586,0.6416460275650024,4.2066125869750985
608,308.0,35800.0,-8.590993881225586,0.6416460275650024,4.2066125869750985
609,309.0,35900.0,-8.611943244934082,0.641047477722168,4.203619480133057
610,305.0,35500.0,-8.621520042419434,0.6434416770935059,4.19344425201416
611,306.0,35600.0,-8.621520042419434,0.6434416770935059,4.19344425201416
612,307.0,35700.0,-8.590993881225586,0.6416460275650024,4.2066125869750985
613,308.0,35800.0,-8.590993881225586,0.6416460275650024,4.2066125869750985
614,309.0,35900.0,-8.611943244934082,0.641047477722168,4.203619480133057
615,310.0,36000.0,-8.611943244934082,0.641047477722168,4.203619480133057
616,311.0,36100.0,-8.616133689880371,0.6111199855804443,4.202422618865967
617,312.0,36200.0,-8.616133689880371,0.6111199855804443,4.202422618865967
618,313.0,36300.0,-8.64366626739502,0.6290764808654785,4.197035789489746
619,314.0,36400.0,-8.612542152404785,0.6254851818084717,4.207809448242188
620,310.0,36000.0,-8.611943244934082,0.641047477722168,4.203619480133057
621,311.0,36100.0,-8.616133689880371,0.6111199855804443,4.202422618865967
622,312.0,36200.0,-8.616133689880371,0.6111199855804443,4.202422618865967
623,313.0,36300.0,-8.64366626739502,0.6290764808654785,4.197035789489746
624,314.0,36400.0,-8.612542152404785,0.6254851818084717,4.207809448242188
625,315.0,36500.0,-8.612542152404785,0.6254851818084717,4.207809448242188
626,316.0,36600.0,-8.621520042419434,0.6374561786651611,4.189254283905028
627,317.0,36700.0,-8.621520042419434,0.6374561786651611,4.189254283905028
628,318.0,36800.0,-8.611943244934082,0.6362590789794922,4.212597846984863
629,319.0,36900.0,-8.611943244934082,0.6362590789794922,4.212597846984863
630,315.0,36500.0,-8.612542152404785,0.6254851818084717,4.207809448242188
631,316.0,36600.0,-8.621520042419434,0.6374561786651611,4.189254283905028
632,317.0,36700.0,-8.621520042419434,0.6374561786651611,4.189254283905028
633,318.0,36800.0,-8.611943244934082,0.6362590789794922,4.212597846984863
634,319.0,36900.0,-8.611943244934082,0.6362590789794922,4.212597846984863
635,320.0,37000.0,-8.634688377380371,0.6518214344978333,4.180874824523927
636,321.0,37100.0,-8.634688377380371,0.6518214344978333,4.180874824523927
637,322.0,37200.0,-8.607154846191406,0.6224924325942993,4.200028419494629
638,323.0,37300.0,-8.617330551147461,0.6272808313369751,4.209006786346436
639,324.0,37400.0,-8.617330551147461,0.6272808313369751,4.209006786346436
640,320.0,37000.0,-8.634688377380371,0.6518214344978333,4.180874824523927
641,321.0,37100.0,-8.634688377380371,0.6518214344978333,4.180874824523927
642,322.0,37200.0,-8.607154846191406,0.6224924325942993,4.200028419494629
643,323.0,37300.0,-8.617330551147461,0.6272808313369751,4.209006786346436
644,324.0,37400.0,-8.617330551147461,0.6272808313369751,4.209006786346436
645,325.0,37500.0,-8.609549522399902,0.6392518281936646,4.195240020751953
646,326.0,37600.0,-8.609549522399902,0.6392518281936646,4.195240020751953
647,327.0,37700.0,-8.607753753662111,0.6248866319656372,4.215590476989746
648,328.0,37800.0,-8.607753753662111,0.6248866319656372,4.215590476989746
649,329.0,37900.0,-8.632294654846191,0.6488286852836609,4.1862616539001465
650,325.0,37500.0,-8.609549522399902,0.6392518281936646,4.195240020751953
651,326.0,37600.0,-8.609549522399902,0.6392518281936646,4.195240020751953
652,327.0,37700.0,-8.607753753662111,0.6248866319656372,4.215590476989746
653,328.0,37800.0,-8.607753753662111,0.6248866319656372,4.215590476989746
654,329.0,37900.0,-8.632294654846191,0.6488286852836609,4.1862616539001465
655,330.0,38000.0,-8.632294654846191,0.6488286852836609,4.1862616539001465
656,331.0,38100.0,-8.595782279968263,0.6356605291366577,4.232948780059815
657,332.0,38200.0,-8.632294654846191,0.6440402865409851,4.219182014465332
658,333.0,38300.0,-8.632294654846191,0.6440402865409851,4.219182014465332
659,334.0,38400.0,-8.581417083740233,0.608127236366272,4.2491092681884775
660,330.0,38000.0,-8.632294654846191,0.6488286852836609,4.1862616539001465
661,331.0,38100.0,-8.595782279968263,0.6356605291366577,4.232948780059815
662,332.0,38200.0,-8.632294654846191,0.6440402865409851,4.219182014465332
663,333.0,38300.0,-8.632294654846191,0.6440402865409851,4.219182014465332
664,334.0,38400.0,-8.581417083740233,0.608127236366272,4.2491092681884775
665,335.0,38500.0,-8.581417083740233,0.608127236366272,4.2491092681884775
666,336.0,38600.0,-8.62511157989502,0.6368576288223267,4.208407878875732
667,337.0,38700.0,-8.62511157989502,0.6368576288223267,4.208407878875732
668,338.0,38800.0,-8.615534782409668,0.6338648796081543,4.200626850128174
669,339.0,38900.0,-8.615534782409668,0.6338648796081543,4.200626850128174
670,335.0,38500.0,-8.581417083740233,0.608127236366272,4.2491092681884775
671,336.0,38600.0,-8.62511157989502,0.6368576288223267,4.208407878875732
672,337.0,38700.0,-8.62511157989502,0.6368576288223267,4.208407878875732
673,338.0,38800.0,-8.615534782409668,0.6338648796081543,4.200626850128174
674,339.0,38900.0,-8.615534782409668,0.6338648796081543,4.200626850128174
675,340.0,39000.0,-8.610147476196289,0.629675030708313,4.218583583831787
676,341.0,39100.0,-8.610147476196289,0.629675030708313,4.218583583831787
677,342.0,39200.0,-8.60236644744873,0.6476315855979919,4.226364612579347
678,343.0,39300.0,-8.60655689239502,0.641047477722168,4.197634220123291
679,344.0,39400.0,-8.60655689239502,0.641047477722168,4.197634220123291
680,340.0,39000.0,-8.610147476196289,0.629675030708313,4.218583583831787
681,341.0,39100.0,-8.610147476196289,0.629675030708313,4.218583583831787
682,342.0,39200.0,-8.60236644744873,0.6476315855979919,4.226364612579347
683,343.0,39300.0,-8.60655689239502,0.641047477722168,4.197634220123291
684,344.0,39400.0,-8.60655689239502,0.641047477722168,4.197634220123291
685,345.0,39500.0,-8.597578048706055,0.6218938827514648,4.182670593261719
686,346.0,39600.0,-8.597578048706055,0.6218938827514648,4.182670593261719
687,347.0,39700.0,-8.64127254486084,0.6476315855979919,4.181473255157472
688,348.0,39800.0,-8.64127254486084,0.6476315855979919,4.181473255157472
689,349.0,39900.0,-8.619724273681639,0.6147112846374512,4.200626850128174
690,345.0,39500.0,-8.597578048706055,0.6218938827514648,4.182670593261719
691,346.0,39600.0,-8.597578048706055,0.6218938827514648,4.182670593261719
692,347.0,39700.0,-8.64127254486084,0.6476315855979919,4.181473255157472
693,348.0,39800.0,-8.64127254486084,0.6476315855979919,4.181473255157472
694,349.0,39900.0,-8.619724273681639,0.6147112846374512,4.200626850128174
695,350.0,40000.0,-8.619724273681639,0.6147112846374512,4.200626850128174
696,351.0,40100.0,-8.653243064880371,0.6087257862091064,4.176684856414795
697,352.0,40200.0,-8.632892608642576,0.6159083843231201,4.191648483276366
698,353.0,40300.0,-8.632892608642576,0.6159083843231201,4.191648483276366
699,354.0,40400.0,-8.632294654846191,0.6506243348121643,4.1904516220092765
700,350.0,40000.0,-8.619724273681639,0.6147112846374512,4.200626850128174
701,351.0,40100.0,-8.653243064880371,0.6087257862091064,4.176684856414795
702,352.0,40200.0,-8.632892608642576,0.6159083843231201,4.191648483276366
703,353.0,40300.0,-8.632892608642576,0.6159083843231201,4.191648483276366
704,354.0,40400.0,-8.632294654846191,0.6506243348121643,4.1904516220092765
705,355.0,40500.0,-8.632294654846191,0.6506243348121643,4.1904516220092765
706,356.0,40600.0,-8.599373817443848,0.6194996833801271,4.214393615722656
707,357.0,40700.0,-8.599373817443848,0.6194996833801271,4.214393615722656
708,358.0,40800.0,-8.635885238647461,0.6356605291366577,4.191648483276366
709,359.0,40900.0,-8.635885238647461,0.6356605291366577,4.191648483276366
710,355.0,40500.0,-8.632294654846191,0.6506243348121643,4.1904516220092765
711,356.0,40600.0,-8.599373817443848,0.6194996833801271,4.214393615722656
712,357.0,40700.0,-8.599373817443848,0.6194996833801271,4.214393615722656
713,358.0,40800.0,-8.635885238647461,0.6356605291366577,4.191648483276366
714,359.0,40900.0,-8.635885238647461,0.6356605291366577,4.191648483276366
715,360.0,41000.0,-8.602965354919434,0.6063315868377686,4.188655853271484
716,361.0,41100.0,-8.634688377380371,0.6039373874664307,4.180276393890382
717,362.0,41200.0,-8.634688377380371,0.6039373874664307,4.180276393890382
718,363.0,41300.0,-8.623315811157228,0.6117185354232788,4.200626850128174
719,364.0,41400.0,-8.623315811157228,0.6117185354232788,4.200626850128174
720,360.0,41000.0,-8.602965354919434,0.6063315868377686,4.188655853271484
721,361.0,41100.0,-8.634688377380371,0.6039373874664307,4.180276393890382
722,362.0,41200.0,-8.634688377380371,0.6039373874664307,4.180276393890382
723,363.0,41300.0,-8.623315811157228,0.6117185354232788,4.200626850128174
724,364.0,41400.0,-8.623315811157228,0.6117185354232788,4.200626850128174
725,365.0,41500.0,-8.64127254486084,0.6087257862091064,4.185064792633057
726,366.0,41600.0,-8.64127254486084,0.6087257862091064,4.185064792633057
727,367.0,41700.0,-8.605957984924316,0.6230909824371338,4.216787815093993
728,368.0,41800.0,-8.605957984924316,0.6230909824371338,4.216787815093993
729,369.0,41900.0,-8.617929458618164,0.6141127347946167,4.202422618865967
730,365.0,41500.0,-8.64127254486084,0.6087257862091064,4.185064792633057
731,366.0,41600.0,-8.64127254486084,0.6087257862091064,4.185064792633057
732,367.0,41700.0,-8.605957984924316,0.6230909824371338,4.216787815093993
733,368.0,41800.0,-8.605957984924316,0.6230909824371338,4.216787815093993
734,369.0,41900.0,-8.617929458618164,0.6141127347946167,4.202422618865967
735,370.0,42000.0,-8.620922088623049,0.6404489278793335,4.213196277618408
736,371.0,42100.0,-8.620922088623049,0.6404489278793335,4.213196277618408
737,372.0,42200.0,-8.610746383666992,0.6290764808654785,4.2066125869750985
738,373.0,42300.0,-8.610746383666992,0.6290764808654785,4.2066125869750985
739,374.0,42400.0,-8.617929458618164,0.6350619792938232,4.2251672744750985
740,370.0,42000.0,-8.620922088623049,0.6404489278793335,4.213196277618408
741,371.0,42100.0,-8.620922088623049,0.6404489278793335,4.213196277618408
742,372.0,42200.0,-8.610746383666992,0.6290764808654785,4.2066125869750985
743,373.0,42300.0,-8.610746383666992,0.6290764808654785,4.2066125869750985
744,374.0,42400.0,-8.617929458618164,0.6350619792938232,4.2251672744750985
745,375.0,42500.0,-8.617929458618164,0.6350619792938232,4.2251672744750985
746,376.0,42600.0,-8.591592788696289,0.6619967818260193,4.179079055786134
747,377.0,42700.0,-8.591592788696289,0.6619967818260193,4.179079055786134
748,378.0,42800.0,-8.625710487365723,0.6500257849693298,4.199429988861084
749,379.0,42900.0,-8.625710487365723,0.6500257849693298,4.199429988861084
750,375.0,42500.0,-8.617929458618164,0.6350619792938232,4.2251672744750985
751,376.0,42600.0,-8.591592788696289,0.6619967818260193,4.179079055786134
752,377.0,42700.0,-8.591592788696289,0.6619967818260193,4.179079055786134
753,378.0,42800.0,-8.625710487365723,0.6500257849693298,4.199429988861084
754,379.0,42900.0,-8.625710487365723,0.6500257849693298,4.199429988861084
755,380.0,43000.0,-8.625710487365723,0.6350619792938232,4.212597846984863
756,381.0,43100.0,-8.620323181152344,0.6428431272506714,4.197035789489746
757,382.0,43200.0,-8.620323181152344,0.6428431272506714,4.197035789489746
758,383.0,43300.0,-8.624512672424316,0.656609833240509,4.208407878875732
759,384.0,43400.0,-8.624512672424316,0.656609833240509,4.208407878875732
760,380.0,43000.0,-8.625710487365723,0.6350619792938232,4.212597846984863
761,381.0,43100.0,-8.620323181152344,0.6428431272506714,4.197035789489746
762,382.0,43200.0,-8.620323181152344,0.6428431272506714,4.197035789489746
763,383.0,43300.0,-8.624512672424316,0.656609833240509,4.208407878875732
764,384.0,43400.0,-8.624512672424316,0.656609833240509,4.208407878875732
765,385.0,43500.0,-8.593987464904785,0.6434416770935059,4.202422618865967
766,386.0,43600.0,-8.593987464904785,0.6434416770935059,4.202422618865967
767,387.0,43700.0,-8.613739013671875,0.6368576288223267,4.192845821380615
768,388.0,43800.0,-8.621520042419434,0.6326677799224854,4.176684856414795
769,389.0,43900.0,-8.621520042419434,0.6326677799224854,4.176684856414795
770,385.0,43500.0,-8.593987464904785,0.6434416770935059,4.202422618865967
771,386.0,43600.0,-8.593987464904785,0.6434416770935059,4.202422618865967
772,387.0,43700.0,-8.613739013671875,0.6368576288223267,4.192845821380615
773,388.0,43800.0,-8.621520042419434,0.6326677799224854,4.176684856414795
774,389.0,43900.0,-8.621520042419434,0.6326677799224854,4.176684856414795
775,390.0,44000.0,-8.627506256103517,0.6338648796081543,4.197634220123291
776,391.0,44100.0,-8.627506256103517,0.6338648796081543,4.197634220123291
777,392.0,44200.0,-8.629301071166992,0.6344634294509888,4.214393615722656
778,393.0,44300.0,-8.629301071166992,0.6344634294509888,4.214393615722656
779,394.0,44400.0,-8.617330551147461,0.6572083830833435,4.197035789489746
780,390.0,44000.0,-8.627506256103517,0.6338648796081543,4.197634220123291
781,391.0,44100.0,-8.627506256103517,0.6338648796081543,4.197634220123291
782,392.0,44200.0,-8.629301071166992,0.6344634294509888,4.214393615722656
783,393.0,44300.0,-8.629301071166992,0.6344634294509888,4.214393615722656
784,394.0,44400.0,-8.617330551147461,0.6572083830833435,4.197035789489746
785,395.0,44500.0,-8.617330551147461,0.6572083830833435,4.197035789489746
786,396.0,44600.0,-8.638279914855957,0.657806932926178,4.1874589920043945
787,397.0,44700.0,-8.628703117370605,0.6392518281936646,4.1904516220092765
788,398.0,44800.0,-8.628703117370605,0.6392518281936646,4.1904516220092765
789,399.0,44900.0,-8.631695747375487,0.6224924325942993,4.191648483276366
790,395.0,44500.0,-8.617330551147461,0.6572083830833435,4.197035789489746
791,396.0,44600.0,-8.638279914855957,0.657806932926178,4.1874589920043945
792,397.0,44700.0,-8.628703117370605,0.6392518281936646,4.1904516220092765
793,398.0,44800.0,-8.628703117370605,0.6392518281936646,4.1904516220092765
794,399.0,44900.0,-8.631695747375487,0.6224924325942993,4.191648483276366
795,400.0,45000.0,-8.631695747375487,0.6224924325942993,4.191648483276366
796,401.0,45100.0,-8.607753753662111,0.641047477722168,4.200626850128174
797,402.0,45200.0,-8.607753753662111,0.641047477722168,4.200626850128174
798,403.0,45300.0,-8.613141059875487,0.6344634294509888,4.200028419494629
799,404.0,45400.0,-8.613141059875487,0.6344634294509888,4.200028419494629
800,400.0,45000.0,-8.631695747375487,0.6224924325942993,4.191648483276366
801,401.0,45100.0,-8.607753753662111,0.641047477722168,4.200626850128174
802,402.0,45200.0,-8.607753753662111,0.641047477722168,4.200626850128174
803,403.0,45300.0,-8.613141059875487,0.6344634294509888,4.200028419494629
804,404.0,45400.0,-8.613141059875487,0.6344634294509888,4.200028419494629
805,405.0,45500.0,-8.608950614929201,0.6350619792938232,4.207809448242188
806,406.0,45600.0,-8.628703117370605,0.6350619792938232,4.199429988861084
807,407.0,45700.0,-8.628703117370605,0.6350619792938232,4.199429988861084
808,408.0,45800.0,-8.621520042419434,0.6272808313369751,4.2066125869750985
809,409.0,45900.0,-8.621520042419434,0.6272808313369751,4.2066125869750985
810,405.0,45500.0,-8.608950614929201,0.6350619792938232,4.207809448242188
811,406.0,45600.0,-8.628703117370605,0.6350619792938232,4.199429988861084
812,407.0,45700.0,-8.628703117370605,0.6350619792938232,4.199429988861084
813,408.0,45800.0,-8.621520042419434,0.6272808313369751,4.2066125869750985
814,409.0,45900.0,-8.621520042419434,0.6272808313369751,4.2066125869750985
815,410.0,46000.0,-8.617929458618164,0.6338648796081543,4.195838451385498
816,411.0,46100.0,-8.617929458618164,0.6338648796081543,4.195838451385498
817,412.0,46200.0,-8.617929458618164,0.6111199855804443,4.2066125869750985
818,413.0,46300.0,-8.617929458618164,0.6111199855804443,4.2066125869750985
819,414.0,46400.0,-8.60655689239502,0.6326677799224854,4.217984676361084
820,410.0,46000.0,-8.617929458618164,0.6338648796081543,4.195838451385498
821,411.0,46100.0,-8.617929458618164,0.6338648796081543,4.195838451385498
822,412.0,46200.0,-8.617929458618164,0.6111199855804443,4.2066125869750985
823,413.0,46300.0,-8.617929458618164,0.6111199855804443,4.2066125869750985
824,414.0,46400.0,-8.60655689239502,0.6326677799224854,4.217984676361084
825,415.0,46500.0,-8.610147476196289,0.628477931022644,4.2054152488708505
826,416.0,46600.0,-8.610147476196289,0.628477931022644,4.2054152488708505
827,417.0,46700.0,-8.620922088623049,0.6416460275650024,4.19344425201416
828,418.0,46800.0,-8.620922088623049,0.6416460275650024,4.19344425201416
829,419.0,46900.0,-8.633491516113281,0.6189011335372925,4.204816818237306
830,415.0,46500.0,-8.610147476196289,0.628477931022644,4.2054152488708505
831,416.0,46600.0,-8.610147476196289,0.628477931022644,4.2054152488708505
832,417.0,46700.0,-8.620922088623049,0.6416460275650024,4.19344425201416
833,418.0,46800.0,-8.620922088623049,0.6416460275650024,4.19344425201416
834,419.0,46900.0,-8.633491516113281,0.6189011335372925,4.204816818237306
835,420.0,47000.0,-8.633491516113281,0.6189011335372925,4.204816818237306
836,421.0,47100.0,-8.632294654846191,0.6123170852661133,4.171298027038573
837,422.0,47200.0,-8.632294654846191,0.6123170852661133,4.171298027038573
838,423.0,47300.0,-8.633491516113281,0.6554127335548401,4.182670593261719
839,424.0,47400.0,-8.627506256103517,0.6344634294509888,4.216787815093993
840,420.0,47000.0,-8.633491516113281,0.6189011335372925,4.204816818237306
841,421.0,47100.0,-8.632294654846191,0.6123170852661133,4.171298027038573
842,422.0,47200.0,-8.632294654846191,0.6123170852661133,4.171298027038573
843,423.0,47300.0,-8.633491516113281,0.6554127335548401,4.182670593261719
844,424.0,47400.0,-8.627506256103517,0.6344634294509888,4.216787815093993
845,425.0,47500.0,-8.627506256103517,0.6344634294509888,4.216787815093993
846,426.0,47600.0,-8.632294654846191,0.6236895322799683,4.188655853271484
847,427.0,47700.0,-8.632294654846191,0.6236895322799683,4.188655853271484
848,428.0,47800.0,-8.60655689239502,0.6344634294509888,4.198831081390382
849,429.0,47900.0,-8.60655689239502,0.6344634294509888,4.198831081390382
850,425.0,47500.0,-8.627506256103517,0.6344634294509888,4.216787815093993
851,426.0,47600.0,-8.632294654846191,0.6236895322799683,4.188655853271484
852,427.0,47700.0,-8.632294654846191,0.6236895322799683,4.188655853271484
853,428.0,47800.0,-8.60655689239502,0.6344634294509888,4.198831081390382
854,429.0,47900.0,-8.60655689239502,0.6344634294509888,4.198831081390382
855,430.0,48000.0,-8.616731643676758,0.6123170852661133,4.197634220123291
856,431.0,48100.0,-8.616731643676758,0.6123170852661133,4.197634220123291
857,432.0,48200.0,-8.641871452331543,0.6362590789794922,4.183269023895264
858,433.0,48300.0,-8.616731643676758,0.6206967830657959,4.195240020751953
859,434.0,48400.0,-8.616731643676758,0.6206967830657959,4.195240020751953
860,430.0,48000.0,-8.616731643676758,0.6123170852661133,4.197634220123291
861,431.0,48100.0,-8.616731643676758,0.6123170852661133,4.197634220123291
862,432.0,48200.0,-8.641871452331543,0.6362590789794922,4.183269023895264
863,433.0,48300.0,-8.616731643676758,0.6206967830657959,4.195240020751953
864,434.0,48400.0,-8.616731643676758,0.6206967830657959,4.195240020751953
865,435.0,48500.0,-8.622118949890138,0.6135141849517822,4.201824188232422
866,436.0,48600.0,-8.622118949890138,0.6135141849517822,4.201824188232422
867,437.0,48700.0,-8.65743350982666,0.6242880821228027,4.200626850128174
868,438.0,48800.0,-8.65743350982666,0.6242880821228027,4.200626850128174
869,439.0,48900.0,-8.626308441162111,0.6332663297653198,4.181473255157472
870,435.0,48500.0,-8.622118949890138,0.6135141849517822,4.201824188232422
871,436.0,48600.0,-8.622118949890138,0.6135141849517822,4.201824188232422
872,437.0,48700.0,-8.65743350982666,0.6242880821228027,4.200626850128174
873,438.0,48800.0,-8.65743350982666,0.6242880821228027,4.200626850128174
874,439.0,48900.0,-8.626308441162111,0.6332663297653198,4.181473255157472
875,440.0,49000.0,-8.626308441162111,0.6332663297653198,4.181473255157472
876,441.0,49100.0,-8.631695747375487,0.639850378036499,4.2096052169799805
877,442.0,49200.0,-8.621520042419434,0.6667851805686951,4.200028419494629
878,443.0,49300.0,-8.621520042419434,0.6667851805686951,4.200028419494629
879,444.0,49400.0,-8.620323181152344,0.6362590789794922,4.235342979431152
880,440.0,49000.0,-8.626308441162111,0.6332663297653198,4.181473255157472
881,441.0,49100.0,-8.631695747375487,0.639850378036499,4.2096052169799805
882,442.0,49200.0,-8.621520042419434,0.6667851805686951,4.200028419494629
883,443.0,49300.0,-8.621520042419434,0.6667851805686951,4.200028419494629
884,444.0,49400.0,-8.620323181152344,0.6362590789794922,4.235342979431152
885,445.0,49500.0,-8.620323181152344,0.6362590789794922,4.235342979431152
886,446.0,49600.0,-8.620323181152344,0.6446388363838196,4.195838451385498
887,447.0,49700.0,-8.620323181152344,0.6446388363838196,4.195838451385498
888,448.0,49800.0,-8.632892608642576,0.6536170840263367,4.189254283905028
889,449.0,49900.0,-8.632892608642576,0.6536170840263367,4.189254283905028
890,445.0,49500.0,-8.620323181152344,0.6362590789794922,4.235342979431152
891,446.0,49600.0,-8.620323181152344,0.6446388363838196,4.195838451385498
892,447.0,49700.0,-8.620323181152344,0.6446388363838196,4.195838451385498
893,448.0,49800.0,-8.632892608642576,0.6536170840263367,4.189254283905028
894,449.0,49900.0,-8.632892608642576,0.6536170840263367,4.189254283905028
895,450.0,50000.0,-8.626907348632812,0.6422445774078369,4.178480625152588
896,451.0,50100.0,-8.617330551147461,0.6518214344978333,4.201824188232422
897,452.0,50200.0,-8.617330551147461,0.6518214344978333,4.201824188232422
898,453.0,50300.0,-8.620922088623049,0.6308721303939819,4.203021049499512
899,454.0,50400.0,-8.620922088623049,0.6308721303939819,4.203021049499512
900,450.0,50000.0,-8.626907348632812,0.6422445774078369,4.178480625152588
901,451.0,50100.0,-8.617330551147461,0.6518214344978333,4.201824188232422
902,452.0,50200.0,-8.617330551147461,0.6518214344978333,4.201824188232422
903,453.0,50300.0,-8.620922088623049,0.6308721303939819,4.203021049499512
904,454.0,50400.0,-8.620922088623049,0.6308721303939819,4.203021049499512
905,455.0,50500.0,-8.607753753662111,0.6302735805511475,4.194042682647705
906,456.0,50600.0,-8.607753753662111,0.6302735805511475,4.194042682647705
907,457.0,50700.0,-8.602965354919434,0.646434485912323,4.2066125869750985
908,458.0,50800.0,-8.602965354919434,0.646434485912323,4.2066125869750985
909,459.0,50900.0,-8.619724273681639,0.6518214344978333,4.199429988861084
910,455.0,50500.0,-8.607753753662111,0.6302735805511475,4.194042682647705
911,456.0,50600.0,-8.607753753662111,0.6302735805511475,4.194042682647705
912,457.0,50700.0,-8.602965354919434,0.646434485912323,4.2066125869750985
913,458.0,50800.0,-8.602965354919434,0.646434485912323,4.2066125869750985
914,459.0,50900.0,-8.619724273681639,0.6518214344978333,4.199429988861084
915,460.0,51000.0,-8.631695747375487,0.6428431272506714,4.192845821380615
916,461.0,51100.0,-8.631695747375487,0.6428431272506714,4.192845821380615
917,462.0,51200.0,-8.619724273681639,0.641047477722168,4.197634220123291
918,463.0,51300.0,-8.619724273681639,0.641047477722168,4.197634220123291
919,464.0,51400.0,-8.627506256103517,0.6206967830657959,4.1862616539001465
920,460.0,51000.0,-8.631695747375487,0.6428431272506714,4.192845821380615
921,461.0,51100.0,-8.631695747375487,0.6428431272506714,4.192845821380615
922,462.0,51200.0,-8.619724273681639,0.641047477722168,4.197634220123291
923,463.0,51300.0,-8.619724273681639,0.641047477722168,4.197634220123291
924,464.0,51400.0,-8.627506256103517,0.6206967830657959,4.1862616539001465
925,465.0,51500.0,-8.627506256103517,0.6206967830657959,4.1862616539001465
926,466.0,51600.0,-8.60655689239502,0.6452373862266539,4.1856632232666025
927,467.0,51700.0,-8.60655689239502,0.6452373862266539,4.1856632232666025
928,468.0,51800.0,-8.609549522399902,0.6494272351264954,4.1862616539001465
929,469.0,51900.0,-8.608352661132812,0.6260837316513062,4.195240020751953
930,465.0,51500.0,-8.627506256103517,0.6206967830657959,4.1862616539001465
931,466.0,51600.0,-8.60655689239502,0.6452373862266539,4.1856632232666025
932,467.0,51700.0,-8.60655689239502,0.6452373862266539,4.1856632232666025
933,468.0,51800.0,-8.609549522399902,0.6494272351264954,4.1862616539001465
934,469.0,51900.0,-8.608352661132812,0.6260837316513062,4.195240020751953
935,470.0,52000.0,-8.608352661132812,0.6260837316513062,4.195240020751953
936,471.0,52100.0,-8.640673637390138,0.6230909824371338,4.179079055786134
937,472.0,52200.0,-8.640673637390138,0.6230909824371338,4.179079055786134
938,473.0,52300.0,-8.62391471862793,0.6440402865409851,4.199429988861084
939,474.0,52400.0,-8.62391471862793,0.6440402865409851,4.199429988861084
940,470.0,52000.0,-8.608352661132812,0.6260837316513062,4.195240020751953
941,471.0,52100.0,-8.640673637390138,0.6230909824371338,4.179079055786134
942,472.0,52200.0,-8.640673637390138,0.6230909824371338,4.179079055786134
943,473.0,52300.0,-8.62391471862793,0.6440402865409851,4.199429988861084
944,474.0,52400.0,-8.62391471862793,0.6440402865409851,4.199429988861084
945,475.0,52500.0,-8.622118949890138,0.6099228858947754,4.171896457672118
946,476.0,52600.0,-8.622118949890138,0.6099228858947754,4.171896457672118
947,477.0,52700.0,-8.630498886108397,0.6254851818084717,4.174290657043457
948,478.0,52800.0,-8.622118949890138,0.6392518281936646,4.200028419494629
949,479.0,52900.0,-8.622118949890138,0.6392518281936646,4.200028419494629
950,475.0,52500.0,-8.622118949890138,0.6099228858947754,4.171896457672118
951,476.0,52600.0,-8.622118949890138,0.6099228858947754,4.171896457672118
952,477.0,52700.0,-8.630498886108397,0.6254851818084717,4.174290657043457
953,478.0,52800.0,-8.622118949890138,0.6392518281936646,4.200028419494629
954,479.0,52900.0,-8.622118949890138,0.6392518281936646,4.200028419494629
955,480.0,53000.0,-8.634089469909668,0.6236895322799683,4.202422618865967
956,481.0,53100.0,-8.634089469909668,0.6236895322799683,4.202422618865967
957,482.0,53200.0,-8.618527412414549,0.6380547285079956,4.185064792633057
958,483.0,53300.0,-8.618527412414549,0.6380547285079956,4.185064792633057
959,484.0,53400.0,-8.601169586181639,0.6332663297653198,4.19344425201416
960,480.0,53000.0,-8.634089469909668,0.6236895322799683,4.202422618865967
961,481.0,53100.0,-8.634089469909668,0.6236895322799683,4.202422618865967
962,482.0,53200.0,-8.618527412414549,0.6380547285079956,4.185064792633057
963,483.0,53300.0,-8.618527412414549,0.6380547285079956,4.185064792633057
964,484.0,53400.0,-8.601169586181639,0.6332663297653198,4.19344425201416
965,485.0,53500.0,-8.601169586181639,0.6332663297653198,4.19344425201416
966,486.0,53600.0,-8.608352661132812,0.6392518281936646,4.228160381317139
967,487.0,53700.0,-8.67479133605957,0.6380547285079956,4.173692226409912
968,488.0,53800.0,-8.67479133605957,0.6380547285079956,4.173692226409912
969,489.0,53900.0,-8.628104209899902,0.6374561786651611,4.194042682647705
970,485.0,53500.0,-8.601169586181639,0.6332663297653198,4.19344425201416
971,486.0,53600.0,-8.608352661132812,0.6392518281936646,4.228160381317139
972,487.0,53700.0,-8.67479133605957,0.6380547285079956,4.173692226409912
973,488.0,53800.0,-8.67479133605957,0.6380547285079956,4.173692226409912
974,489.0,53900.0,-8.628104209899902,0.6374561786651611,4.194042682647705
975,490.0,54000.0,-8.628104209899902,0.6374561786651611,4.194042682647705
976,491.0,54100.0,-8.644265174865723,0.6290764808654785,4.1856632232666025
977,492.0,54200.0,-8.644265174865723,0.6290764808654785,4.1856632232666025
978,493.0,54300.0,-8.638877868652344,0.6350619792938232,4.1856632232666025
979,494.0,54400.0,-8.638877868652344,0.6350619792938232,4.1856632232666025
980,490.0,54000.0,-8.628104209899902,0.6374561786651611,4.194042682647705
981,491.0,54100.0,-8.644265174865723,0.6290764808654785,4.1856632232666025
982,492.0,54200.0,-8.644265174865723,0.6290764808654785,4.1856632232666025
983,493.0,54300.0,-8.638877868652344,0.6350619792938232,4.1856632232666025
984,494.0,54400.0,-8.638877868652344,0.6350619792938232,4.1856632232666025
985,495.0,54500.0,-8.644265174865723,0.6542156338691711,4.173093795776366
986,496.0,54600.0,-8.594585418701174,0.641047477722168,4.202422618865967
987,497.0,54700.0,-8.594585418701174,0.641047477722168,4.202422618865967
988,498.0,54800.0,-8.630498886108397,0.6290764808654785,4.201824188232422
989,499.0,54900.0,-8.630498886108397,0.6290764808654785,4.201824188232422
990,495.0,54500.0,-8.644265174865723,0.6542156338691711,4.173093795776366
991,496.0,54600.0,-8.594585418701174,0.641047477722168,4.202422618865967
992,497.0,54700.0,-8.594585418701174,0.641047477722168,4.202422618865967
993,498.0,54800.0,-8.630498886108397,0.6290764808654785,4.201824188232422
994,499.0,54900.0,-8.630498886108397,0.6290764808654785,4.201824188232422
995,500.0,55000.0,-8.616731643676758,0.6326677799224854,4.191648483276366
996,501.0,55100.0,-8.616731643676758,0.6326677799224854,4.191648483276366
997,502.0,55200.0,-8.647257804870605,0.6320692300796509,4.197634220123291
998,503.0,55300.0,-8.647257804870605,0.6320692300796509,4.197634220123291
999,504.0,55400.0,-8.619724273681639,0.6045359373092651,4.207809448242188
1000,500.0,55000.0,-8.616731643676758,0.6326677799224854,4.191648483276366
1001,501.0,55100.0,-8.616731643676758,0.6326677799224854,4.191648483276366
1002,502.0,55200.0,-8.647257804870605,0.6320692300796509,4.197634220123291
1003,503.0,55300.0,-8.647257804870605,0.6320692300796509,4.197634220123291
1004,504.0,55400.0,-8.619724273681639,0.6045359373092651,4.207809448242188
1005,505.0,55500.0,-8.620922088623049,0.5536591410636902,4.167706489562988
1006,506.0,55600.0,-8.620922088623049,0.5536591410636902,4.167706489562988
1007,507.0,55700.0,-8.644265174865723,0.6715735793113708,4.1449618339538565
1008,508.0,55800.0,-8.644265174865723,0.6715735793113708,4.1449618339538565
1009,509.0,55900.0,-8.683171272277832,0.5368997454643251,4.109647274017334
1010,505.0,55500.0,-8.620922088623049,0.5536591410636902,4.167706489562988
1011,506.0,55600.0,-8.620922088623049,0.5536591410636902,4.167706489562988
1012,507.0,55700.0,-8.644265174865723,0.6715735793113708,4.1449618339538565
1013,508.0,55800.0,-8.644265174865723,0.6715735793113708,4.1449618339538565
1014,509.0,55900.0,-8.683171272277832,0.5368997454643251,4.109647274017334
1015,510.0,56000.0,-8.683171272277832,0.5368997454643251,4.109647274017334
1016,511.0,56100.0,-8.662221908569336,0.5889736413955688,4.124610900878906
1017,512.0,56200.0,-8.662221908569336,0.5889736413955688,4.124610900878906
1018,513.0,56300.0,-8.665214538574219,0.6051344871520996,4.091690540313722
1019,514.0,56400.0,-8.617330551147461,0.6554127335548401,4.161721229553224
1020,510.0,56000.0,-8.683171272277832,0.5368997454643251,4.109647274017334
1021,511.0,56100.0,-8.662221908569336,0.5889736413955688,4.124610900878906
1022,512.0,56200.0,-8.662221908569336,0.5889736413955688,4.124610900878906
1023,513.0,56300.0,-8.665214538574219,0.6051344871520996,4.091690540313722
1024,514.0,56400.0,-8.617330551147461,0.6554127335548401,4.161721229553224
1025,515.0,56500.0,-8.617330551147461,0.6554127335548401,4.161721229553224
1026,516.0,56600.0,-8.662819862365723,0.6302735805511475,4.121618270874023
1027,517.0,56700.0,-8.662819862365723,0.6302735805511475,4.121618270874023
1028,518.0,56800.0,-8.64127254486084,0.6368576288223267,4.167108058929443
1029,519.0,56900.0,-8.64127254486084,0.6368576288223267,4.167108058929443
1030,515.0,56500.0,-8.617330551147461,0.6554127335548401,4.161721229553224
1031,516.0,56600.0,-8.662819862365723,0.6302735805511475,4.121618270874023
1032,517.0,56700.0,-8.662819862365723,0.6302735805511475,4.121618270874023
1033,518.0,56800.0,-8.64127254486084,0.6368576288223267,4.167108058929443
1034,519.0,56900.0,-8.64127254486084,0.6368576288223267,4.167108058929443
1035,520.0,57000.0,-8.632892608642576,0.6015431880950928,4.146757125854491
1036,521.0,57100.0,-8.632892608642576,0.6015431880950928,4.146757125854491
1037,522.0,57200.0,-8.632294654846191,0.5955576896667479,4.1874589920043945
1038,523.0,57300.0,-8.626308441162111,0.6218938827514648,4.16112232208252
1039,524.0,57400.0,-8.626308441162111,0.6218938827514648,4.16112232208252
1040,520.0,57000.0,-8.632892608642576,0.6015431880950928,4.146757125854491
1041,521.0,57100.0,-8.632892608642576,0.6015431880950928,4.146757125854491
1042,522.0,57200.0,-8.632294654846191,0.5955576896667479,4.1874589920043945
1043,523.0,57300.0,-8.626308441162111,0.6218938827514648,4.16112232208252
1044,524.0,57400.0,-8.626308441162111,0.6218938827514648,4.16112232208252
1045,525.0,57500.0,-8.621520042419434,0.6236895322799683,4.167706489562988
1046,526.0,57600.0,-8.621520042419434,0.6236895322799683,4.167706489562988
1047,527.0,57700.0,-8.651448249816895,0.606930136680603,4.153939723968507
1048,528.0,57800.0,-8.651448249816895,0.606930136680603,4.153939723968507
1049,529.0,57900.0,-8.650849342346191,0.6230909824371338,4.1629180908203125
1050,525.0,57500.0,-8.621520042419434,0.6236895322799683,4.167706489562988
1051,526.0,57600.0,-8.621520042419434,0.6236895322799683,4.167706489562988
1052,527.0,57700.0,-8.651448249816895,0.606930136680603,4.153939723968507
1053,528.0,57800.0,-8.651448249816895,0.606930136680603,4.153939723968507
1054,529.0,57900.0,-8.650849342346191,0.6230909824371338,4.1629180908203125
1055,530.0,58000.0,-8.650849342346191,0.6230909824371338,4.1629180908203125
1056,531.0,58100.0,-8.635885238647461,0.6021417379379272,4.152742862701416
1057,532.0,58200.0,-8.635885238647461,0.6021417379379272,4.152742862701416
1058,533.0,58300.0,-8.669404029846191,0.646434485912323,4.146158695220946
1059,534.0,58400.0,-8.658031463623049,0.6212953329086304,4.1635165214538565
1060,530.0,58000.0,-8.650849342346191,0.6230909824371338,4.1629180908203125
1061,531.0,58100.0,-8.635885238647461,0.6021417379379272,4.152742862701416
1062,532.0,58200.0,-8.635885238647461,0.6021417379379272,4.152742862701416
1063,533.0,58300.0,-8.669404029846191,0.646434485912323,4.146158695220946
1064,534.0,58400.0,-8.658031463623049,0.6212953329086304,4.1635165214538565
1065,535.0,58500.0,-8.658031463623049,0.6212953329086304,4.1635165214538565
1066,536.0,58600.0,-8.634089469909668,0.6308721303939819,4.16112232208252
1067,537.0,58700.0,-8.634089469909668,0.6308721303939819,4.16112232208252
1068,538.0,58800.0,-8.640673637390138,0.628477931022644,4.160523891448976
1069,539.0,58900.0,-8.640673637390138,0.628477931022644,4.160523891448976
1070,535.0,58500.0,-8.658031463623049,0.6212953329086304,4.1635165214538565
1071,536.0,58600.0,-8.634089469909668,0.6308721303939819,4.16112232208252
1072,537.0,58700.0,-8.634089469909668,0.6308721303939819,4.16112232208252
1073,538.0,58800.0,-8.640673637390138,0.628477931022644,4.160523891448976
1074,539.0,58900.0,-8.640673637390138,0.628477931022644,4.160523891448976
1075,540.0,59000.0,-8.646060943603517,0.6230909824371338,4.140771865844728
1076,541.0,59100.0,-8.64366626739502,0.6189011335372925,4.134786128997804
1077,542.0,59200.0,-8.64366626739502,0.6189011335372925,4.134786128997804
1078,543.0,59300.0,-8.650849342346191,0.6135141849517822,4.147356033325194
1079,544.0,59400.0,-8.650849342346191,0.6135141849517822,4.147356033325194
1080,540.0,59000.0,-8.646060943603517,0.6230909824371338,4.140771865844728
1081,541.0,59100.0,-8.64366626739502,0.6189011335372925,4.134786128997804
1082,542.0,59200.0,-8.64366626739502,0.6189011335372925,4.134786128997804
1083,543.0,59300.0,-8.650849342346191,0.6135141849517822,4.147356033325194
1084,544.0,59400.0,-8.650849342346191,0.6135141849517822,4.147356033325194
1085,545.0,59500.0,-8.639476776123049,0.6212953329086304,4.161721229553224
1086,546.0,59600.0,-8.639476776123049,0.6212953329086304,4.161721229553224
1087,547.0,59700.0,-8.640673637390138,0.5943605899810791,4.147356033325194
1088,548.0,59800.0,-8.640673637390138,0.5943605899810791,4.147356033325194
1089,549.0,59900.0,-8.650849342346191,0.6422445774078369,4.165910720825194
1090,545.0,59500.0,-8.639476776123049,0.6212953329086304,4.161721229553224
1091,546.0,59600.0,-8.639476776123049,0.6212953329086304,4.161721229553224
1092,547.0,59700.0,-8.640673637390138,0.5943605899810791,4.147356033325194
1093,548.0,59800.0,-8.640673637390138,0.5943605899810791,4.147356033325194
1094,549.0,59900.0,-8.650849342346191,0.6422445774078369,4.165910720825194
1095,550.0,60000.0,-8.650849342346191,0.6422445774078369,4.165910720825194
1096,551.0,60100.0,-8.648454666137695,0.6177040338516235,4.167108058929443
1097,552.0,60200.0,-8.65623664855957,0.6057330369949341,4.1449618339538565
1098,553.0,60300.0,-8.65623664855957,0.6057330369949341,4.1449618339538565
1099,554.0,60400.0,-8.614935874938965,0.6272808313369751,4.155137062072754
1100,550.0,60000.0,-8.650849342346191,0.6422445774078369,4.165910720825194
1101,551.0,60100.0,-8.648454666137695,0.6177040338516235,4.167108058929443
1102,552.0,60200.0,-8.65623664855957,0.6057330369949341,4.1449618339538565
1103,553.0,60300.0,-8.65623664855957,0.6057330369949341,4.1449618339538565
1104,554.0,60400.0,-8.614935874938965,0.6272808313369751,4.155137062072754
1105,555.0,60500.0,-8.614935874938965,0.6272808313369751,4.155137062072754
1106,556.0,60600.0,-8.649053573608397,0.6177040338516235,4.14256763458252
1107,557.0,60700.0,-8.649053573608397,0.6177040338516235,4.14256763458252
1108,558.0,60800.0,-8.65863037109375,0.6248866319656372,4.133589267730713
1109,559.0,60900.0,-8.65863037109375,0.6248866319656372,4.133589267730713
1110,555.0,60500.0,-8.614935874938965,0.6272808313369751,4.155137062072754
1111,556.0,60600.0,-8.649053573608397,0.6177040338516235,4.14256763458252
1112,557.0,60700.0,-8.649053573608397,0.6177040338516235,4.14256763458252
1113,558.0,60800.0,-8.65863037109375,0.6248866319656372,4.133589267730713
1114,559.0,60900.0,-8.65863037109375,0.6248866319656372,4.133589267730713
1115,560.0,61000.0,-8.650250434875487,0.6123170852661133,4.1449618339538565
1116,561.0,61100.0,-8.687360763549805,0.6374561786651611,4.155735492706299
1117,562.0,61200.0,-8.687360763549805,0.6374561786651611,4.155735492706299
1118,563.0,61300.0,-8.648454666137695,0.6386532783508301,4.1623196601867685
1119,564.0,61400.0,-8.648454666137695,0.6386532783508301,4.1623196601867685
1120,560.0,61000.0,-8.650250434875487,0.6123170852661133,4.1449618339538565
1121,561.0,61100.0,-8.687360763549805,0.6374561786651611,4.155735492706299
1122,562.0,61200.0,-8.687360763549805,0.6374561786651611,4.155735492706299
1123,563.0,61300.0,-8.648454666137695,0.6386532783508301,4.1623196601867685
1124,564.0,61400.0,-8.648454666137695,0.6386532783508301,4.1623196601867685
1125,565.0,61500.0,-8.652645111083983,0.6452373862266539,4.152742862701416
1126,566.0,61600.0,-8.652645111083983,0.6452373862266539,4.152742862701416
1127,567.0,61700.0,-8.653243064880371,0.6308721303939819,4.157531261444092
1128,568.0,61800.0,-8.653243064880371,0.6308721303939819,4.157531261444092
1129,569.0,61900.0,-8.647856712341309,0.6111199855804443,4.150348663330078
1130,565.0,61500.0,-8.652645111083983,0.6452373862266539,4.152742862701416
1131,566.0,61600.0,-8.652645111083983,0.6452373862266539,4.152742862701416
1132,567.0,61700.0,-8.653243064880371,0.6308721303939819,4.157531261444092
1133,568.0,61800.0,-8.653243064880371,0.6308721303939819,4.157531261444092
1134,569.0,61900.0,-8.647856712341309,0.6111199855804443,4.150348663330078
1135,570.0,62000.0,-8.659229278564451,0.6039373874664307,4.125209331512451
1136,571.0,62100.0,-8.659229278564451,0.6039373874664307,4.125209331512451
1137,572.0,62200.0,-8.652645111083983,0.6422445774078369,4.155137062072754
1138,573.0,62300.0,-8.652645111083983,0.6422445774078369,4.155137062072754
1139,574.0,62400.0,-8.638877868652344,0.6141127347946167,4.13179349899292
1140,570.0,62000.0,-8.659229278564451,0.6039373874664307,4.125209331512451
1141,571.0,62100.0,-8.659229278564451,0.6039373874664307,4.125209331512451
1142,572.0,62200.0,-8.652645111083983,0.6422445774078369,4.155137062072754
1143,573.0,62300.0,-8.652645111083983,0.6422445774078369,4.155137062072754
1144,574.0,62400.0,-8.638877868652344,0.6141127347946167,4.13179349899292
1145,575.0,62500.0,-8.638877868652344,0.6141127347946167,4.13179349899292
1146,576.0,62600.0,-8.652645111083983,0.6129156351089478,4.167108058929443
1147,577.0,62700.0,-8.652645111083983,0.6129156351089478,4.167108058929443
1148,578.0,62800.0,-8.638877868652344,0.6338648796081543,4.1437644958496085
1149,579.0,62900.0,-8.649053573608397,0.6434416770935059,4.13179349899292
1150,575.0,62500.0,-8.638877868652344,0.6141127347946167,4.13179349899292
1151,576.0,62600.0,-8.652645111083983,0.6129156351089478,4.167108058929443
1152,577.0,62700.0,-8.652645111083983,0.6129156351089478,4.167108058929443
1153,578.0,62800.0,-8.638877868652344,0.6338648796081543,4.1437644958496085
1154,579.0,62900.0,-8.649053573608397,0.6434416770935059,4.13179349899292
1155,580.0,63000.0,-8.649053573608397,0.6434416770935059,4.13179349899292
1156,581.0,63100.0,-8.647257804870605,0.6123170852661133,4.140173435211182
1157,582.0,63200.0,-8.647257804870605,0.6123170852661133,4.140173435211182
1158,583.0,63300.0,-8.653243064880371,0.6051344871520996,4.116231441497804
1159,584.0,63400.0,-8.653243064880371,0.6051344871520996,4.116231441497804
1160,580.0,63000.0,-8.649053573608397,0.6434416770935059,4.13179349899292
1161,581.0,63100.0,-8.647257804870605,0.6123170852661133,4.140173435211182
1162,582.0,63200.0,-8.647257804870605,0.6123170852661133,4.140173435211182
1163,583.0,63300.0,-8.653243064880371,0.6051344871520996,4.116231441497804
1164,584.0,63400.0,-8.653243064880371,0.6051344871520996,4.116231441497804
1165,585.0,63500.0,-8.65982723236084,0.6488286852836609,4.141370296478272
1166,586.0,63600.0,-8.65982723236084,0.6488286852836609,4.141370296478272
1167,587.0,63700.0,-8.64366626739502,0.7086837291717529,4.140173435211182
1168,588.0,63800.0,-8.626907348632812,0.6613982319831848,4.177882194519043
1169,589.0,63900.0,-8.626907348632812,0.6613982319831848,4.177882194519043
1170,585.0,63500.0,-8.65982723236084,0.6488286852836609,4.141370296478272
1171,586.0,63600.0,-8.65982723236084,0.6488286852836609,4.141370296478272
1172,587.0,63700.0,-8.64366626739502,0.7086837291717529,4.140173435211182
1173,588.0,63800.0,-8.626907348632812,0.6613982319831848,4.177882194519043
1174,589.0,63900.0,-8.626907348632812,0.6613982319831848,4.177882194519043
1175,590.0,64000.0,-8.650849342346191,0.6117185354232788,4.129399299621582
1176,591.0,64100.0,-8.650849342346191,0.6117185354232788,4.129399299621582
1177,592.0,64200.0,-8.614337921142576,0.6254851818084717,4.186860084533691
1178,593.0,64300.0,-8.614337921142576,0.6254851818084717,4.186860084533691
1179,594.0,64400.0,-8.641871452331543,0.6230909824371338,4.127603530883788
1180,590.0,64000.0,-8.650849342346191,0.6117185354232788,4.129399299621582
1181,591.0,64100.0,-8.650849342346191,0.6117185354232788,4.129399299621582
1182,592.0,64200.0,-8.614337921142576,0.6254851818084717,4.186860084533691
1183,593.0,64300.0,-8.614337921142576,0.6254851818084717,4.186860084533691
1184,594.0,64400.0,-8.641871452331543,0.6230909824371338,4.127603530883788
1185,595.0,64500.0,-8.633491516113281,0.6177040338516235,4.138377666473389
1186,596.0,64600.0,-8.633491516113281,0.6177040338516235,4.138377666473389
1187,597.0,64700.0,-8.632892608642576,0.6230909824371338,4.147356033325194
1188,598.0,64800.0,-8.632892608642576,0.6230909824371338,4.147356033325194
1189,599.0,64900.0,-8.661025047302246,0.6380547285079956,4.155137062072754
1190,595.0,64500.0,-8.633491516113281,0.6177040338516235,4.138377666473389
1191,596.0,64600.0,-8.633491516113281,0.6177040338516235,4.138377666473389
1192,597.0,64700.0,-8.632892608642576,0.6230909824371338,4.147356033325194
1193,598.0,64800.0,-8.632892608642576,0.6230909824371338,4.147356033325194
1194,599.0,64900.0,-8.661025047302246,0.6380547285079956,4.155137062072754
1195,600.0,65000.0,-8.661025047302246,0.6380547285079956,4.155137062072754
1196,601.0,65100.0,-8.653243064880371,0.5955576896667479,4.158129692077637
1197,602.0,65200.0,-8.653243064880371,0.5955576896667479,4.158129692077637
1198,603.0,65300.0,-8.667010307312013,0.6093243360519409,4.138377666473389
1199,604.0,65400.0,-8.667010307312013,0.6093243360519409,4.138377666473389
1200,600.0,65000.0,-8.661025047302246,0.6380547285079956,4.155137062072754
1201,601.0,65100.0,-8.653243064880371,0.5955576896667479,4.158129692077637
1202,602.0,65200.0,-8.653243064880371,0.5955576896667479,4.158129692077637
1203,603.0,65300.0,-8.667010307312013,0.6093243360519409,4.138377666473389
1204,604.0,65400.0,-8.667010307312013,0.6093243360519409,4.138377666473389
1205,605.0,65500.0,-8.645462036132812,0.6147112846374512,4.134786128997804
1206,606.0,65600.0,-8.639476776123049,0.5859808921813965,4.140771865844728
1207,607.0,65700.0,-8.639476776123049,0.5859808921813965,4.140771865844728
1208,608.0,65800.0,-8.62391471862793,0.5943605899810791,4.1431660652160645
1209,609.0,65900.0,-8.62391471862793,0.5943605899810791,4.1431660652160645
1210,605.0,65500.0,-8.645462036132812,0.6147112846374512,4.134786128997804
1211,606.0,65600.0,-8.639476776123049,0.5859808921813965,4.140771865844728
1212,607.0,65700.0,-8.639476776123049,0.5859808921813965,4.140771865844728
1213,608.0,65800.0,-8.62391471862793,0.5943605899810791,4.1431660652160645
1214,609.0,65900.0,-8.62391471862793,0.5943605899810791,4.1431660652160645
1215,610.0,66000.0,-8.601169586181639,0.6194996833801271,4.158129692077637
1216,611.0,66100.0,-8.601169586181639,0.6194996833801271,4.158129692077637
1217,612.0,66200.0,-8.651448249816895,0.6123170852661133,4.1653122901916495
1218,613.0,66300.0,-8.651448249816895,0.6123170852661133,4.1653122901916495
1219,614.0,66400.0,-8.647856712341309,0.6093243360519409,4.167108058929443
1220,610.0,66000.0,-8.601169586181639,0.6194996833801271,4.158129692077637
1221,611.0,66100.0,-8.601169586181639,0.6194996833801271,4.158129692077637
1222,612.0,66200.0,-8.651448249816895,0.6123170852661133,4.1653122901916495
1223,613.0,66300.0,-8.651448249816895,0.6123170852661133,4.1653122901916495
1224,614.0,66400.0,-8.647856712341309,0.6093243360519409,4.167108058929443
1225,615.0,66500.0,-8.65982723236084,0.6051344871520996,4.14256763458252
1226,616.0,66600.0,-8.65982723236084,0.6051344871520996,4.14256763458252
1227,617.0,66700.0,-8.608352661132812,0.5997475385665894,4.1192240715026855
1228,618.0,66800.0,-8.608352661132812,0.5997475385665894,4.1192240715026855
1229,619.0,66900.0,-8.65743350982666,0.6260837316513062,4.120420932769775
1230,615.0,66500.0,-8.65982723236084,0.6051344871520996,4.14256763458252
1231,616.0,66600.0,-8.65982723236084,0.6051344871520996,4.14256763458252
1232,617.0,66700.0,-8.608352661132812,0.5997475385665894,4.1192240715026855
1233,618.0,66800.0,-8.608352661132812,0.5997475385665894,4.1192240715026855
1234,619.0,66900.0,-8.65743350982666,0.6260837316513062,4.120420932769775
1235,620.0,67000.0,-8.65743350982666,0.6260837316513062,4.120420932769775
1236,621.0,67100.0,-8.638877868652344,0.6057330369949341,4.161721229553224
1237,622.0,67200.0,-8.638877868652344,0.6057330369949341,4.161721229553224
1238,623.0,67300.0,-8.655038833618164,0.5907692909240723,4.1449618339538565
1239,624.0,67400.0,-8.647257804870605,0.6404489278793335,4.158129692077637
1240,620.0,67000.0,-8.65743350982666,0.6260837316513062,4.120420932769775
1241,621.0,67100.0,-8.638877868652344,0.6057330369949341,4.161721229553224
1242,622.0,67200.0,-8.638877868652344,0.6057330369949341,4.161721229553224
1243,623.0,67300.0,-8.655038833618164,0.5907692909240723,4.1449618339538565
1244,624.0,67400.0,-8.647257804870605,0.6404489278793335,4.158129692077637
1245,625.0,67500.0,-8.647257804870605,0.6404489278793335,4.158129692077637
1246,626.0,67600.0,-8.65623664855957,0.6320692300796509,4.134786128997804
1247,627.0,67700.0,-8.65623664855957,0.6320692300796509,4.134786128997804
1248,628.0,67800.0,-8.656834602355957,0.6218938827514648,4.127603530883788
1249,629.0,67900.0,-8.656834602355957,0.6218938827514648,4.127603530883788
1250,625.0,67500.0,-8.647257804870605,0.6404489278793335,4.158129692077637
1251,626.0,67600.0,-8.65623664855957,0.6320692300796509,4.134786128997804
1252,627.0,67700.0,-8.65623664855957,0.6320692300796509,4.134786128997804
1253,628.0,67800.0,-8.656834602355957,0.6218938827514648,4.127603530883788
1254,629.0,67900.0,-8.656834602355957,0.6218938827514648,4.127603530883788
1255,630.0,68000.0,-8.644864082336426,0.6105214357376099,4.136581897735597
1256,631.0,68100.0,-8.644864082336426,0.6105214357376099,4.136581897735597
1257,632.0,68200.0,-8.675390243530272,0.6278793811798096,4.1371803283691415
1258,633.0,68300.0,-8.696338653564451,0.6123170852661133,4.111443042755127
1259,634.0,68400.0,-8.696338653564451,0.6123170852661133,4.111443042755127
1260,630.0,68000.0,-8.644864082336426,0.6105214357376099,4.136581897735597
1261,631.0,68100.0,-8.644864082336426,0.6105214357376099,4.136581897735597
1262,632.0,68200.0,-8.675390243530272,0.6278793811798096,4.1371803283691415
1263,633.0,68300.0,-8.696338653564451,0.6123170852661133,4.111443042755127
1264,634.0,68400.0,-8.696338653564451,0.6123170852661133,4.111443042755127
1265,635.0,68500.0,-8.649652481079103,0.6422445774078369,4.16112232208252
1266,636.0,68600.0,-8.649652481079103,0.6422445774078369,4.16112232208252
1267,637.0,68700.0,-8.687959671020508,0.6290764808654785,4.122815132141113
1268,638.0,68800.0,-8.687959671020508,0.6290764808654785,4.122815132141113
1269,639.0,68900.0,-8.628703117370605,0.6230909824371338,4.177882194519043
1270,635.0,68500.0,-8.649652481079103,0.6422445774078369,4.16112232208252
1271,636.0,68600.0,-8.649652481079103,0.6422445774078369,4.16112232208252
1272,637.0,68700.0,-8.687959671020508,0.6290764808654785,4.122815132141113
1273,638.0,68800.0,-8.687959671020508,0.6290764808654785,4.122815132141113
1274,639.0,68900.0,-8.628703117370605,0.6230909824371338,4.177882194519043
1275,640.0,69000.0,-8.628703117370605,0.6230909824371338,4.177882194519043
1276,641.0,69100.0,-8.67479133605957,0.629675030708313,4.159327030181885
1277,642.0,69200.0,-8.637681007385254,0.6147112846374512,4.173093795776366
1278,643.0,69300.0,-8.637681007385254,0.6147112846374512,4.173093795776366
1279,644.0,69400.0,-8.655038833618164,0.585382342338562,4.138976097106934
1280,640.0,69000.0,-8.628703117370605,0.6230909824371338,4.177882194519043
1281,641.0,69100.0,-8.67479133605957,0.629675030708313,4.159327030181885
1282,642.0,69200.0,-8.637681007385254,0.6147112846374512,4.173093795776366
1283,643.0,69300.0,-8.637681007385254,0.6147112846374512,4.173093795776366
1284,644.0,69400.0,-8.655038833618164,0.585382342338562,4.138976097106934
1285,645.0,69500.0,-8.655038833618164,0.585382342338562,4.138976097106934
1286,646.0,69600.0,-8.625710487365723,0.6206967830657959,4.1653122901916495
1287,647.0,69700.0,-8.625710487365723,0.6206967830657959,4.1653122901916495
1288,648.0,69800.0,-8.652645111083983,0.6033388376235962,4.1371803283691415
1289,649.0,69900.0,-8.652645111083983,0.6033388376235962,4.1371803283691415
1290,645.0,69500.0,-8.655038833618164,0.585382342338562,4.138976097106934
1291,646.0,69600.0,-8.625710487365723,0.6206967830657959,4.1653122901916495
1292,647.0,69700.0,-8.625710487365723,0.6206967830657959,4.1653122901916495
1293,648.0,69800.0,-8.652645111083983,0.6033388376235962,4.1371803283691415
1294,649.0,69900.0,-8.652645111083983,0.6033388376235962,4.1371803283691415
1295,650.0,70000.0,-8.649652481079103,0.5835866928100586,4.1629180908203125
1296,651.0,70100.0,-8.635885238647461,0.5656301379203796,4.146757125854491
1297,652.0,70200.0,-8.635885238647461,0.5656301379203796,4.146757125854491
1298,653.0,70300.0,-8.619126319885254,0.6266822814941406,4.176684856414795
1299,654.0,70400.0,-8.619126319885254,0.6266822814941406,4.176684856414795
1300,650.0,70000.0,-8.649652481079103,0.5835866928100586,4.1629180908203125
1301,651.0,70100.0,-8.635885238647461,0.5656301379203796,4.146757125854491
1302,652.0,70200.0,-8.635885238647461,0.5656301379203796,4.146757125854491
1303,653.0,70300.0,-8.619126319885254,0.6266822814941406,4.176684856414795
1304,654.0,70400.0,-8.619126319885254,0.6266822814941406,4.176684856414795
1305,655.0,70500.0,-8.670601844787598,0.5913678407669067,4.094683647155762
1306,656.0,70600.0,-8.670601844787598,0.5913678407669067,4.094683647155762
1307,657.0,70700.0,-8.610746383666992,0.618302583694458,4.192845821380615
1308,658.0,70800.0,-8.610746383666992,0.618302583694458,4.192845821380615
1309,659.0,70900.0,-8.686163902282715,0.5973533391952515,4.107851505279541
1310,655.0,70500.0,-8.670601844787598,0.5913678407669067,4.094683647155762
1311,656.0,70600.0,-8.670601844787598,0.5913678407669067,4.094683647155762
1312,657.0,70700.0,-8.610746383666992,0.618302583694458,4.192845821380615
1313,658.0,70800.0,-8.610746383666992,0.618302583694458,4.192845821380615
1314,659.0,70900.0,-8.686163902282715,0.5973533391952515,4.107851505279541
1315,660.0,71000.0,-8.650849342346191,0.606930136680603,4.169502258300781
1316,661.0,71100.0,-8.650849342346191,0.606930136680603,4.169502258300781
1317,662.0,71200.0,-8.64007568359375,0.6314706802368164,4.1395745277404785
1318,663.0,71300.0,-8.64007568359375,0.6314706802368164,4.1395745277404785
1319,664.0,71400.0,-8.627506256103517,0.6212953329086304,4.16112232208252
1320,660.0,71000.0,-8.650849342346191,0.606930136680603,4.169502258300781
1321,661.0,71100.0,-8.650849342346191,0.606930136680603,4.169502258300781
1322,662.0,71200.0,-8.64007568359375,0.6314706802368164,4.1395745277404785
1323,663.0,71300.0,-8.64007568359375,0.6314706802368164,4.1395745277404785
1324,664.0,71400.0,-8.627506256103517,0.6212953329086304,4.16112232208252
1325,665.0,71500.0,-8.627506256103517,0.6212953329086304,4.16112232208252
1326,666.0,71600.0,-8.655038833618164,0.6111199855804443,4.13179349899292
1327,667.0,71700.0,-8.655038833618164,0.6111199855804443,4.13179349899292
1328,668.0,71800.0,-8.65623664855957,0.6212953329086304,4.1641154289245605
1329,669.0,71900.0,-8.647856712341309,0.6117185354232788,4.138377666473389
1330,665.0,71500.0,-8.627506256103517,0.6212953329086304,4.16112232208252
1331,666.0,71600.0,-8.655038833618164,0.6111199855804443,4.13179349899292
1332,667.0,71700.0,-8.655038833618164,0.6111199855804443,4.13179349899292
1333,668.0,71800.0,-8.65623664855957,0.6212953329086304,4.1641154289245605
1334,669.0,71900.0,-8.647856712341309,0.6117185354232788,4.138377666473389
1335,670.0,72000.0,-8.647856712341309,0.6117185354232788,4.138377666473389
1336,671.0,72100.0,-8.647856712341309,0.5817909836769104,4.138377666473389
1337,672.0,72200.0,-8.647856712341309,0.5817909836769104,4.138377666473389
1338,673.0,72300.0,-8.662819862365723,0.5943605899810791,4.146757125854491
1339,674.0,72400.0,-8.662819862365723,0.5943605899810791,4.146757125854491
1340,670.0,72000.0,-8.647856712341309,0.6117185354232788,4.138377666473389
1341,671.0,72100.0,-8.647856712341309,0.5817909836769104,4.138377666473389
1342,672.0,72200.0,-8.647856712341309,0.5817909836769104,4.138377666473389
1343,673.0,72300.0,-8.662819862365723,0.5943605899810791,4.146757125854491
1344,674.0,72400.0,-8.662819862365723,0.5943605899810791,4.146757125854491
1345,675.0,72500.0,-8.646659851074219,0.6177040338516235,4.1371803283691415
1346,676.0,72600.0,-8.646659851074219,0.6177040338516235,4.1371803283691415
1347,677.0,72700.0,-8.649652481079103,0.5943605899810791,4.158728122711182
1348,678.0,72800.0,-8.655637741088867,0.5883750915527344,4.1437644958496085
1349,679.0,72900.0,-8.655637741088867,0.5883750915527344,4.1437644958496085
1350,675.0,72500.0,-8.646659851074219,0.6177040338516235,4.1371803283691415
1351,676.0,72600.0,-8.646659851074219,0.6177040338516235,4.1371803283691415
1352,677.0,72700.0,-8.649652481079103,0.5943605899810791,4.158728122711182
1353,678.0,72800.0,-8.655637741088867,0.5883750915527344,4.1437644958496085
1354,679.0,72900.0,-8.655637741088867,0.5883750915527344,4.1437644958496085
1355,680.0,73000.0,-8.661025047302246,0.6224924325942993,4.113238334655762
1356,681.0,73100.0,-8.661025047302246,0.6224924325942993,4.113238334655762
1357,682.0,73200.0,-8.680178642272951,0.6440402865409851,4.147356033325194
1358,683.0,73300.0,-8.680178642272951,0.6440402865409851,4.147356033325194
1359,684.0,73400.0,-8.65863037109375,0.6260837316513062,4.137779235839844
1360,680.0,73000.0,-8.661025047302246,0.6224924325942993,4.113238334655762
1361,681.0,73100.0,-8.661025047302246,0.6224924325942993,4.113238334655762
1362,682.0,73200.0,-8.680178642272951,0.6440402865409851,4.147356033325194
1363,683.0,73300.0,-8.680178642272951,0.6440402865409851,4.147356033325194
1364,684.0,73400.0,-8.65863037109375,0.6260837316513062,4.137779235839844
1365,685.0,73500.0,-8.65863037109375,0.6260837316513062,4.137779235839844
1366,686.0,73600.0,-8.668207168579103,0.6159083843231201,4.147356033325194
1367,687.0,73700.0,-8.666411399841309,0.6314706802368164,4.158129692077637
1368,688.0,73800.0,-8.666411399841309,0.6314706802368164,4.158129692077637
1369,689.0,73900.0,-8.628703117370605,0.6153098344802856,4.1629180908203125
1370,685.0,73500.0,-8.65863037109375,0.6260837316513062,4.137779235839844
1371,686.0,73600.0,-8.668207168579103,0.6159083843231201,4.147356033325194
1372,687.0,73700.0,-8.666411399841309,0.6314706802368164,4.158129692077637
1373,688.0,73800.0,-8.666411399841309,0.6314706802368164,4.158129692077637
1374,689.0,73900.0,-8.628703117370605,0.6153098344802856,4.1629180908203125
1375,690.0,74000.0,-8.628703117370605,0.6153098344802856,4.1629180908203125
1376,691.0,74100.0,-8.641871452331543,0.6332663297653198,4.1156325340271005
1377,692.0,74200.0,-8.641871452331543,0.6332663297653198,4.1156325340271005
1378,693.0,74300.0,-8.613141059875487,0.6171054840087891,4.181473255157472
1379,694.0,74400.0,-8.613141059875487,0.6171054840087891,4.181473255157472
1380,690.0,74000.0,-8.628703117370605,0.6153098344802856,4.1629180908203125
1381,691.0,74100.0,-8.641871452331543,0.6332663297653198,4.1156325340271005
1382,692.0,74200.0,-8.641871452331543,0.6332663297653198,4.1156325340271005
1383,693.0,74300.0,-8.613141059875487,0.6171054840087891,4.181473255157472
1384,694.0,74400.0,-8.613141059875487,0.6171054840087891,4.181473255157472
1385,695.0,74500.0,-8.653841972351074,0.5997475385665894,4.124012470245361
1386,696.0,74600.0,-8.653841972351074,0.5997475385665894,4.124012470245361
1387,697.0,74700.0,-8.654440879821777,0.6141127347946167,4.1629180908203125
1388,698.0,74800.0,-8.652645111083983,0.6278793811798096,4.156932830810547
1389,699.0,74900.0,-8.652645111083983,0.6278793811798096,4.156932830810547
1390,695.0,74500.0,-8.653841972351074,0.5997475385665894,4.124012470245361
1391,696.0,74600.0,-8.653841972351074,0.5997475385665894,4.124012470245361
1392,697.0,74700.0,-8.654440879821777,0.6141127347946167,4.1629180908203125
1393,698.0,74800.0,-8.652645111083983,0.6278793811798096,4.156932830810547
1394,699.0,74900.0,-8.652645111083983,0.6278793811798096,4.156932830810547
1395,700.0,75000.0,-8.637681007385254,0.6242880821228027,4.157531261444092
1396,701.0,75100.0,-8.637681007385254,0.6242880821228027,4.157531261444092
1397,702.0,75200.0,-8.665214538574219,0.6248866319656372,4.1395745277404785
1398,703.0,75300.0,-8.665214538574219,0.6248866319656372,4.1395745277404785
1399,704.0,75400.0,-8.649053573608397,0.6362590789794922,4.14795446395874
1400,700.0,75000.0,-8.637681007385254,0.6242880821228027,4.157531261444092
1401,701.0,75100.0,-8.637681007385254,0.6242880821228027,4.157531261444092
1402,702.0,75200.0,-8.665214538574219,0.6248866319656372,4.1395745277404785
1403,703.0,75300.0,-8.665214538574219,0.6248866319656372,4.1395745277404785
1404,704.0,75400.0,-8.649053573608397,0.6362590789794922,4.14795446395874
1405,705.0,75500.0,-8.654440879821777,0.6392518281936646,4.149750232696533
1406,706.0,75600.0,-8.654440879821777,0.6392518281936646,4.149750232696533
1407,707.0,75700.0,-8.653243064880371,0.5506663918495178,4.127603530883788
1408,708.0,75800.0,-8.653243064880371,0.5506663918495178,4.127603530883788
1409,709.0,75900.0,-8.652046203613281,0.585382342338562,4.152144432067871
1410,705.0,75500.0,-8.654440879821777,0.6392518281936646,4.149750232696533
1411,706.0,75600.0,-8.654440879821777,0.6392518281936646,4.149750232696533
1412,707.0,75700.0,-8.653243064880371,0.5506663918495178,4.127603530883788
1413,708.0,75800.0,-8.653243064880371,0.5506663918495178,4.127603530883788
1414,709.0,75900.0,-8.652046203613281,0.585382342338562,4.152144432067871
1415,710.0,76000.0,-8.652046203613281,0.585382342338562,4.152144432067871
1416,711.0,76100.0,-8.638279914855957,0.6141127347946167,4.122216701507568
1417,712.0,76200.0,-8.638279914855957,0.6141127347946167,4.122216701507568
1418,713.0,76300.0,-8.65863037109375,0.6230909824371338,4.129399299621582
1419,714.0,76400.0,-8.662221908569336,0.6272808313369751,4.157531261444092
1420,710.0,76000.0,-8.652046203613281,0.585382342338562,4.152144432067871
1421,711.0,76100.0,-8.638279914855957,0.6141127347946167,4.122216701507568
1422,712.0,76200.0,-8.638279914855957,0.6141127347946167,4.122216701507568
1423,713.0,76300.0,-8.65863037109375,0.6230909824371338,4.129399299621582
1424,714.0,76400.0,-8.662221908569336,0.6272808313369751,4.157531261444092
1425,715.0,76500.0,-8.662221908569336,0.6272808313369751,4.157531261444092
1426,716.0,76600.0,-8.664615631103517,0.608127236366272,4.111443042755127
1427,717.0,76700.0,-8.664615631103517,0.608127236366272,4.111443042755127
1428,718.0,76800.0,-8.661623001098633,0.5793967843055725,4.1210198402404785
1429,719.0,76900.0,-8.661623001098633,0.5793967843055725,4.1210198402404785
1430,715.0,76500.0,-8.662221908569336,0.6272808313369751,4.157531261444092
1431,716.0,76600.0,-8.664615631103517,0.608127236366272,4.111443042755127
1432,717.0,76700.0,-8.664615631103517,0.608127236366272,4.111443042755127
1433,718.0,76800.0,-8.661623001098633,0.5793967843055725,4.1210198402404785
1434,719.0,76900.0,-8.661623001098633,0.5793967843055725,4.1210198402404785
1435,720.0,77000.0,-8.655637741088867,0.6218938827514648,4.138976097106934
1436,721.0,77100.0,-8.655637741088867,0.6218938827514648,4.138976097106934
1437,722.0,77200.0,-8.670002937316895,0.6386532783508301,4.13179349899292
1438,723.0,77300.0,-8.643068313598633,0.6368576288223267,4.174290657043457
1439,724.0,77400.0,-8.643068313598633,0.6368576288223267,4.174290657043457
1440,720.0,77000.0,-8.655637741088867,0.6218938827514648,4.138976097106934
1441,721.0,77100.0,-8.655637741088867,0.6218938827514648,4.138976097106934
1442,722.0,77200.0,-8.670002937316895,0.6386532783508301,4.13179349899292
1443,723.0,77300.0,-8.643068313598633,0.6368576288223267,4.174290657043457
1444,724.0,77400.0,-8.643068313598633,0.6368576288223267,4.174290657043457
1445,725.0,77500.0,-8.604162216186522,0.6440402865409851,4.1862616539001465
1446,726.0,77600.0,-8.604162216186522,0.6440402865409851,4.1862616539001465
1447,727.0,77700.0,-8.653841972351074,0.5596446394920349,4.128800868988037
1448,728.0,77800.0,-8.653841972351074,0.5596446394920349,4.128800868988037
1449,729.0,77900.0,-8.626907348632812,0.6470330357551575,4.180276393890382
1450,725.0,77500.0,-8.604162216186522,0.6440402865409851,4.1862616539001465
1451,726.0,77600.0,-8.604162216186522,0.6440402865409851,4.1862616539001465
1452,727.0,77700.0,-8.653841972351074,0.5596446394920349,4.128800868988037
1453,728.0,77800.0,-8.653841972351074,0.5596446394920349,4.128800868988037
1454,729.0,77900.0,-8.626907348632812,0.6470330357551575,4.180276393890382
1455,730.0,78000.0,-8.626907348632812,0.6470330357551575,4.180276393890382
1456,731.0,78100.0,-8.651448249816895,0.6823474764823914,4.141968727111816
1457,732.0,78200.0,-8.649652481079103,0.6039373874664307,4.156932830810547
1458,733.0,78300.0,-8.649652481079103,0.6039373874664307,4.156932830810547
1459,734.0,78400.0,-8.656834602355957,0.5758054852485657,4.144362926483153
1460,730.0,78000.0,-8.626907348632812,0.6470330357551575,4.180276393890382
1461,731.0,78100.0,-8.651448249816895,0.6823474764823914,4.141968727111816
1462,732.0,78200.0,-8.649652481079103,0.6039373874664307,4.156932830810547
1463,733.0,78300.0,-8.649652481079103,0.6039373874664307,4.156932830810547
1464,734.0,78400.0,-8.656834602355957,0.5758054852485657,4.144362926483153
1465,735.0,78500.0,-8.656834602355957,0.5758054852485657,4.144362926483153
1466,736.0,78600.0,-8.641871452331543,0.5907692909240723,4.170100688934326
1467,737.0,78700.0,-8.641871452331543,0.5907692909240723,4.170100688934326
1468,738.0,78800.0,-8.67359447479248,0.6242880821228027,4.1449618339538565
1469,739.0,78900.0,-8.67359447479248,0.6242880821228027,4.1449618339538565
1470,735.0,78500.0,-8.656834602355957,0.5758054852485657,4.144362926483153
1471,736.0,78600.0,-8.641871452331543,0.5907692909240723,4.170100688934326
1472,737.0,78700.0,-8.641871452331543,0.5907692909240723,4.170100688934326
1473,738.0,78800.0,-8.67359447479248,0.6242880821228027,4.1449618339538565
1474,739.0,78900.0,-8.67359447479248,0.6242880821228027,4.1449618339538565
1475,740.0,79000.0,-8.614337921142576,0.6218938827514648,4.14256763458252
1476,741.0,79100.0,-8.655038833618164,0.6332663297653198,4.113238334655762
1477,742.0,79200.0,-8.655038833618164,0.6332663297653198,4.113238334655762
1478,743.0,79300.0,-8.656834602355957,0.6039373874664307,4.1395745277404785
1479,744.0,79400.0,-8.656834602355957,0.6039373874664307,4.1395745277404785
1480,740.0,79000.0,-8.614337921142576,0.6218938827514648,4.14256763458252
1481,741.0,79100.0,-8.655038833618164,0.6332663297653198,4.113238334655762
1482,742.0,79200.0,-8.655038833618164,0.6332663297653198,4.113238334655762
1483,743.0,79300.0,-8.656834602355957,0.6039373874664307,4.1395745277404785
1484,744.0,79400.0,-8.656834602355957,0.6039373874664307,4.1395745277404785
1485,745.0,79500.0,-8.652046203613281,0.6218938827514648,4.170699596405028
1486,746.0,79600.0,-8.652046203613281,0.6218938827514648,4.170699596405028
1487,747.0,79700.0,-8.634688377380371,0.596754789352417,4.158129692077637
1488,748.0,79800.0,-8.634688377380371,0.596754789352417,4.158129692077637
1489,749.0,79900.0,-8.640673637390138,0.6009446382522583,4.1174283027648935
1490,745.0,79500.0,-8.652046203613281,0.6218938827514648,4.170699596405028
1491,746.0,79600.0,-8.652046203613281,0.6218938827514648,4.170699596405028
1492,747.0,79700.0,-8.634688377380371,0.596754789352417,4.158129692077637
1493,748.0,79800.0,-8.634688377380371,0.596754789352417,4.158129692077637
1494,749.0,79900.0,-8.640673637390138,0.6009446382522583,4.1174283027648935
1495,750.0,80000.0,-8.675390243530272,0.6206967830657959,4.1449618339538565
1496,751.0,80100.0,-8.675390243530272,0.6206967830657959,4.1449618339538565
1497,752.0,80200.0,-8.644265174865723,0.6021417379379272,4.151545524597168
1498,753.0,80300.0,-8.644265174865723,0.6021417379379272,4.151545524597168
1499,754.0,80400.0,-8.661025047302246,0.585382342338562,4.169502258300781
1500,750.0,80000.0,-8.675390243530272,0.6206967830657959,4.1449618339538565
1501,751.0,80100.0,-8.675390243530272,0.6206967830657959,4.1449618339538565
1502,752.0,80200.0,-8.644265174865723,0.6021417379379272,4.151545524597168
1503,753.0,80300.0,-8.644265174865723,0.6021417379379272,4.151545524597168
1504,754.0,80400.0,-8.661025047302246,0.585382342338562,4.169502258300781
1505,755.0,80500.0,-8.661025047302246,0.585382342338562,4.169502258300781
1506,756.0,80600.0,-8.651448249816895,0.6147112846374512,4.161721229553224
1507,757.0,80700.0,-8.651448249816895,0.6147112846374512,4.161721229553224
1508,758.0,80800.0,-8.64007568359375,0.6177040338516235,4.180874824523927
1509,759.0,80900.0,-8.64007568359375,0.6177040338516235,4.180874824523927
1510,755.0,80500.0,-8.661025047302246,0.585382342338562,4.169502258300781
1511,756.0,80600.0,-8.651448249816895,0.6147112846374512,4.161721229553224
1512,757.0,80700.0,-8.651448249816895,0.6147112846374512,4.161721229553224
1513,758.0,80800.0,-8.64007568359375,0.6177040338516235,4.180874824523927
1514,759.0,80900.0,-8.64007568359375,0.6177040338516235,4.180874824523927
1515,760.0,81000.0,-8.651448249816895,0.6045359373092651,4.124610900878906
1516,761.0,81100.0,-8.644864082336426,0.6123170852661133,4.155735492706299
1517,762.0,81200.0,-8.644864082336426,0.6123170852661133,4.155735492706299
1518,763.0,81300.0,-8.65743350982666,0.6045359373092651,4.1449618339538565
1519,764.0,81400.0,-8.65743350982666,0.6045359373092651,4.1449618339538565
1520,760.0,81000.0,-8.651448249816895,0.6045359373092651,4.124610900878906
1521,761.0,81100.0,-8.644864082336426,0.6123170852661133,4.155735492706299
1522,762.0,81200.0,-8.644864082336426,0.6123170852661133,4.155735492706299
1523,763.0,81300.0,-8.65743350982666,0.6045359373092651,4.1449618339538565
1524,764.0,81400.0,-8.65743350982666,0.6045359373092651,4.1449618339538565
1525,765.0,81500.0,-8.624512672424316,0.6218938827514648,4.1641154289245605
1526,766.0,81600.0,-8.624512672424316,0.6218938827514648,4.1641154289245605
1527,767.0,81700.0,-8.637681007385254,0.6326677799224854,4.1641154289245605
1528,768.0,81800.0,-8.644864082336426,0.628477931022644,4.14256763458252
1529,769.0,81900.0,-8.644864082336426,0.628477931022644,4.14256763458252
1530,765.0,81500.0,-8.624512672424316,0.6218938827514648,4.1641154289245605
1531,766.0,81600.0,-8.624512672424316,0.6218938827514648,4.1641154289245605
1532,767.0,81700.0,-8.637681007385254,0.6326677799224854,4.1641154289245605
1533,768.0,81800.0,-8.644864082336426,0.628477931022644,4.14256763458252
1534,769.0,81900.0,-8.644864082336426,0.628477931022644,4.14256763458252
1535,770.0,82000.0,-8.644864082336426,0.628477931022644,4.14256763458252
1536,771.0,82100.0,-8.649053573608397,0.6236895322799683,4.135385036468507
1537,772.0,82200.0,-8.65982723236084,0.618302583694458,4.152144432067871
1538,773.0,82300.0,-8.65982723236084,0.618302583694458,4.152144432067871
1539,774.0,82400.0,-8.653841972351074,0.5835866928100586,4.131195068359375
1540,770.0,82000.0,-8.644864082336426,0.628477931022644,4.14256763458252
1541,771.0,82100.0,-8.649053573608397,0.6236895322799683,4.135385036468507
1542,772.0,82200.0,-8.65982723236084,0.618302583694458,4.152144432067871
1543,773.0,82300.0,-8.65982723236084,0.618302583694458,4.152144432067871
1544,774.0,82400.0,-8.653841972351074,0.5835866928100586,4.131195068359375
1545,775.0,82500.0,-8.653841972351074,0.5835866928100586,4.131195068359375
1546,776.0,82600.0,-8.644265174865723,0.5847837924957275,4.1395745277404785
1547,777.0,82700.0,-8.635885238647461,0.6087257862091064,4.140173435211182
1548,778.0,82800.0,-8.635885238647461,0.6087257862091064,4.140173435211182
1549,779.0,82900.0,-8.659229278564451,0.6326677799224854,4.132990837097168
1550,775.0,82500.0,-8.653841972351074,0.5835866928100586,4.131195068359375
1551,776.0,82600.0,-8.644265174865723,0.5847837924957275,4.1395745277404785
1552,777.0,82700.0,-8.635885238647461,0.6087257862091064,4.140173435211182
1553,778.0,82800.0,-8.635885238647461,0.6087257862091064,4.140173435211182
1554,779.0,82900.0,-8.659229278564451,0.6326677799224854,4.132990837097168
1555,780.0,83000.0,-8.659229278564451,0.6326677799224854,4.132990837097168
1556,781.0,83100.0,-8.652046203613281,0.6344634294509888,4.161721229553224
1557,782.0,83200.0,-8.652046203613281,0.6344634294509888,4.161721229553224
1558,783.0,83300.0,-8.635287284851074,0.6308721303939819,4.125209331512451
1559,784.0,83400.0,-8.635287284851074,0.6308721303939819,4.125209331512451
1560,780.0,83000.0,-8.659229278564451,0.6326677799224854,4.132990837097168
1561,781.0,83100.0,-8.652046203613281,0.6344634294509888,4.161721229553224
1562,782.0,83200.0,-8.652046203613281,0.6344634294509888,4.161721229553224
1563,783.0,83300.0,-8.635287284851074,0.6308721303939819,4.125209331512451
1564,784.0,83400.0,-8.635287284851074,0.6308721303939819,4.125209331512451
1565,785.0,83500.0,-8.650849342346191,0.6212953329086304,4.128202438354491
1566,786.0,83600.0,-8.646659851074219,0.6021417379379272,4.14256763458252
1567,787.0,83700.0,-8.646659851074219,0.6021417379379272,4.14256763458252
1568,788.0,83800.0,-8.664017677307129,0.5979518890380859,4.133589267730713
1569,789.0,83900.0,-8.664017677307129,0.5979518890380859,4.133589267730713
1570,785.0,83500.0,-8.650849342346191,0.6212953329086304,4.128202438354491
1571,786.0,83600.0,-8.646659851074219,0.6021417379379272,4.14256763458252
1572,787.0,83700.0,-8.646659851074219,0.6021417379379272,4.14256763458252
1573,788.0,83800.0,-8.664017677307129,0.5979518890380859,4.133589267730713
1574,789.0,83900.0,-8.664017677307129,0.5979518890380859,4.133589267730713
1575,790.0,84000.0,-8.638877868652344,0.5620388388633728,4.158728122711182
1576,791.0,84100.0,-8.638877868652344,0.5620388388633728,4.158728122711182
1577,792.0,84200.0,-8.638279914855957,0.6015431880950928,4.146158695220946
1578,793.0,84300.0,-8.638279914855957,0.6015431880950928,4.146158695220946
1579,794.0,84400.0,-8.615534782409668,0.5787982344627379,4.172494888305663
1580,790.0,84000.0,-8.638877868652344,0.5620388388633728,4.158728122711182
1581,791.0,84100.0,-8.638877868652344,0.5620388388633728,4.158728122711182
1582,792.0,84200.0,-8.638279914855957,0.6015431880950928,4.146158695220946
1583,793.0,84300.0,-8.638279914855957,0.6015431880950928,4.146158695220946
1584,794.0,84400.0,-8.615534782409668,0.5787982344627379,4.172494888305663
1585,795.0,84500.0,-8.615534782409668,0.5787982344627379,4.172494888305663
1586,796.0,84600.0,-8.69214916229248,0.5710170865058899,4.094683647155762
1587,797.0,84700.0,-8.81664752960205,0.5351040959358215,4.109048843383788
1588,798.0,84800.0,-8.81664752960205,0.5351040959358215,4.109048843383788
1589,799.0,84900.0,-8.62391471862793,0.4722562730312347,4.189254283905028
1590,795.0,84500.0,-8.615534782409668,0.5787982344627379,4.172494888305663
1591,796.0,84600.0,-8.69214916229248,0.5710170865058899,4.094683647155762
1592,797.0,84700.0,-8.81664752960205,0.5351040959358215,4.109048843383788
1593,798.0,84800.0,-8.81664752960205,0.5351040959358215,4.109048843383788
1594,799.0,84900.0,-8.62391471862793,0.4722562730312347,4.189254283905028
1595,800.0,85000.0,-8.62391471862793,0.4722562730312347,4.189254283905028
1596,801.0,85100.0,-8.772953987121582,0.5680243372917175,3.9827544689178467
1597,802.0,85200.0,-8.772953987121582,0.5680243372917175,3.9827544689178467
1598,803.0,85300.0,-8.942941665649414,0.6703764796257019,4.037821292877196
1599,804.0,85400.0,-8.942941665649414,0.6703764796257019,4.037821292877196
1600,800.0,85000.0,-8.62391471862793,0.4722562730312347,4.189254283905028
1601,801.0,85100.0,-8.772953987121582,0.5680243372917175,3.9827544689178467
1602,802.0,85200.0,-8.772953987121582,0.5680243372917175,3.9827544689178467
1603,803.0,85300.0,-8.942941665649414,0.6703764796257019,4.037821292877196
1604,804.0,85400.0,-8.942941665649414,0.6703764796257019,4.037821292877196
1605,805.0,85500.0,-8.702324867248535,0.5003881454467773,4.095282077789307
1606,806.0,85600.0,-8.650849342346191,0.6272808313369751,4.146158695220946
1607,807.0,85700.0,-8.650849342346191,0.6272808313369751,4.146158695220946
1608,808.0,85800.0,-8.687360763549805,0.5907692909240723,4.094084739685059
1609,809.0,85900.0,-8.687360763549805,0.5907692909240723,4.094084739685059
1610,805.0,85500.0,-8.702324867248535,0.5003881454467773,4.095282077789307
1611,806.0,85600.0,-8.650849342346191,0.6272808313369751,4.146158695220946
1612,807.0,85700.0,-8.650849342346191,0.6272808313369751,4.146158695220946
1613,808.0,85800.0,-8.687360763549805,0.5907692909240723,4.094084739685059
1614,809.0,85900.0,-8.687360763549805,0.5907692909240723,4.094084739685059
1615,810.0,86000.0,-8.65623664855957,0.5949591398239136,4.115034103393556
1616,811.0,86100.0,-8.65623664855957,0.5949591398239136,4.115034103393556
1617,812.0,86200.0,-8.668806076049805,0.5889736413955688,4.127603530883788
1618,813.0,86300.0,-8.668806076049805,0.5889736413955688,4.127603530883788
