,timestamp,ax,ay,az
0,7000.0,2.579463005065918,2.4957141876220703,-8.934800148010254
1,7100.0,2.579463005065918,2.4957141876220703,-8.934800148010254
2,7200.0,2.579463005065918,2.4957141876220703,-8.934800148010254
3,7300.0,2.579463005065918,2.4957141876220703,-8.934800148010254
4,7400.0,2.4646072387695312,2.5052852630615234,-9.087940216064453
5,7500.0,2.4646072387695312,2.5052852630615234,-9.087940216064453
6,7600.0,2.4646072387695312,2.5052852630615234,-9.087940216064453
7,7700.0,2.5555346012115483,2.244467735290528,-8.951549530029297
8,7800.0,2.5555346012115483,2.244467735290528,-8.951549530029297
9,7900.0,2.8043880462646484,2.1942183971405034,-8.997013092041016
10,8000.0,2.8043880462646484,2.1942183971405034,-8.997013092041016
11,8100.0,2.565105676651001,2.4981069564819336,-8.958727836608887
12,8200.0,2.565105676651001,2.4981069564819336,-8.958727836608887
13,8300.0,2.4741785526275635,2.4813570976257324,-8.903693199157715
14,8400.0,2.4741785526275635,2.4813570976257324,-8.903693199157715
15,8500.0,2.4741785526275635,2.4813570976257324,-8.903693199157715
16,8600.0,2.746960401535034,2.4646072387695312,-8.989834785461426
17,8700.0,2.746960401535034,2.4646072387695312,-8.989834785461426
18,8800.0,2.416750907897949,2.493321180343628,-9.020941734313963
19,8900.0,2.416750907897949,2.493321180343628,-9.020941734313963
20,9000.0,2.416750907897949,2.493321180343628,-9.020941734313963
21,9100.0,2.6799612045288086,2.177468776702881,-9.145368576049805
22,9200.0,2.6799612045288086,2.177468776702881,-9.145368576049805
23,9300.0,2.569891452789306,2.565105676651001,-8.731410026550293
24,9400.0,2.569891452789306,2.565105676651001,-8.731410026550293
25,9500.0,2.7661027908325195,2.4981069564819336,-9.049654960632324
26,9600.0,2.7661027908325195,2.4981069564819336,-9.049654960632324
27,9700.0,2.7661027908325195,2.4981069564819336,-9.049654960632324
28,9800.0,2.617748022079468,2.3856441974639893,-8.920442581176758
29,9900.0,2.617748022079468,2.3856441974639893,-8.920442581176758
30,8500.0,2.4741785526275635,2.4813570976257324,-8.903693199157715
31,8600.0,2.746960401535034,2.4646072387695312,-8.989834785461426
32,8700.0,2.746960401535034,2.4646072387695312,-8.989834785461426
33,8800.0,2.416750907897949,2.493321180343628,-9.020941734313963
34,8900.0,2.416750907897949,2.493321180343628,-9.020941734313963
35,9000.0,2.416750907897949,2.493321180343628,-9.020941734313963
36,9100.0,2.6799612045288086,2.177468776702881,-9.145368576049805
37,9200.0,2.6799612045288086,2.177468776702881,-9.145368576049805
38,9300.0,2.569891452789306,2.565105676651001,-8.731410026550293
39,9400.0,2.569891452789306,2.565105676651001,-8.731410026550293
40,9500.0,2.7661027908325195,2.4981069564819336,-9.049654960632324
41,9600.0,2.7661027908325195,2.4981069564819336,-9.049654960632324
42,9700.0,2.7661027908325195,2.4981069564819336,-9.049654960632324
43,9800.0,2.617748022079468,2.3856441974639893,-8.920442581176758
44,9900.0,2.617748022079468,2.3856441974639893,-8.920442581176758
45,10000.0,2.579463005065918,2.687139749526977,-8.949156761169434
46,10100.0,2.579463005065918,2.687139749526977,-8.949156761169434
47,10200.0,2.5938196182250977,2.6560330390930176,-9.054441452026367
48,10300.0,2.5938196182250977,2.6560330390930176,-9.054441452026367
49,10400.0,2.4885356426239014,2.7349963188171387,-8.86780071258545
50,10500.0,2.4885356426239014,2.7349963188171387,-8.86780071258545
51,10600.0,2.4885356426239014,2.7349963188171387,-8.86780071258545
52,10700.0,2.531606435775757,2.6799612045288086,-8.956335067749023
53,10800.0,2.531606435775757,2.6799612045288086,-8.956335067749023
54,10900.0,2.4741785526275635,2.53399920463562,-9.018548011779783
55,11000.0,2.4741785526275635,2.53399920463562,-9.018548011779783
56,11100.0,2.5986053943634038,2.53399920463562,-8.973085403442383
57,11200.0,2.5986053943634038,2.53399920463562,-8.973085403442383
58,11300.0,2.5842485427856445,2.4430718421936035,-9.023333549499512
59,11400.0,2.5842485427856445,2.4430718421936035,-9.023333549499512
60,10000.0,2.579463005065918,2.687139749526977,-8.949156761169434
61,10100.0,2.579463005065918,2.687139749526977,-8.949156761169434
62,10200.0,2.5938196182250977,2.6560330390930176,-9.054441452026367
63,10300.0,2.5938196182250977,2.6560330390930176,-9.054441452026367
64,10400.0,2.4885356426239014,2.7349963188171387,-8.86780071258545
65,10500.0,2.4885356426239014,2.7349963188171387,-8.86780071258545
66,10600.0,2.4885356426239014,2.7349963188171387,-8.86780071258545
67,10700.0,2.531606435775757,2.6799612045288086,-8.956335067749023
68,10800.0,2.531606435775757,2.6799612045288086,-8.956335067749023
69,10900.0,2.4741785526275635,2.53399920463562,-9.018548011779783
70,11000.0,2.4741785526275635,2.53399920463562,-9.018548011779783
71,11100.0,2.5986053943634038,2.53399920463562,-8.973085403442383
72,11200.0,2.5986053943634038,2.53399920463562,-8.973085403442383
73,11300.0,2.5842485427856445,2.4430718421936035,-9.023333549499512
74,11400.0,2.5842485427856445,2.4430718421936035,-9.023333549499512
75,11500.0,2.5842485427856445,2.4430718421936035,-9.023333549499512
76,11600.0,2.5555346012115483,2.4287149906158447,-9.006584167480469
77,11700.0,2.5555346012115483,2.4287149906158447,-9.006584167480469
78,11800.0,2.589033842086792,2.4885356426239014,-8.97787094116211
79,11900.0,2.589033842086792,2.4885356426239014,-8.97787094116211
80,12000.0,2.541177749633789,2.4909284114837646,-8.965906143188477
81,12100.0,2.541177749633789,2.4909284114837646,-8.965906143188477
82,12200.0,2.541177749633789,2.4909284114837646,-8.965906143188477
83,12300.0,2.5986053943634038,2.414358139038086,-9.025726318359377
84,12400.0,2.5986053943634038,2.414358139038086,-9.025726318359377
85,12500.0,2.541177749633789,2.4191436767578125,-8.980262756347656
86,12600.0,2.541177749633789,2.4191436767578125,-8.980262756347656
87,12700.0,2.541177749633789,2.4191436767578125,-8.980262756347656
88,12800.0,2.612962245941162,2.4717857837677,-9.018548011779783
89,12900.0,2.612962245941162,2.4717857837677,-9.018548011779783
90,11500.0,2.5842485427856445,2.4430718421936035,-9.023333549499512
91,11600.0,2.5555346012115483,2.4287149906158447,-9.006584167480469
92,11700.0,2.5555346012115483,2.4287149906158447,-9.006584167480469
93,11800.0,2.589033842086792,2.4885356426239014,-8.97787094116211
94,11900.0,2.589033842086792,2.4885356426239014,-8.97787094116211
95,12000.0,2.541177749633789,2.4909284114837646,-8.965906143188477
96,12100.0,2.541177749633789,2.4909284114837646,-8.965906143188477
97,12200.0,2.541177749633789,2.4909284114837646,-8.965906143188477
98,12300.0,2.5986053943634038,2.414358139038086,-9.025726318359377
99,12400.0,2.5986053943634038,2.414358139038086,-9.025726318359377
100,12500.0,2.541177749633789,2.4191436767578125,-8.980262756347656
101,12600.0,2.541177749633789,2.4191436767578125,-8.980262756347656
102,12700.0,2.541177749633789,2.4191436767578125,-8.980262756347656
103,12800.0,2.612962245941162,2.4717857837677,-9.018548011779783
104,12900.0,2.612962245941162,2.4717857837677,-9.018548011779783
105,13000.0,2.5986053943634038,2.411965131759644,-9.047262191772461
106,13100.0,2.5986053943634038,2.411965131759644,-9.047262191772461
107,13200.0,2.569891452789306,2.4023938179016118,-9.016156196594238
108,13300.0,2.569891452789306,2.4023938179016118,-9.016156196594238
109,13400.0,2.569891452789306,2.4023938179016118,-9.016156196594238
110,13500.0,2.627319574356079,2.3545374870300293,-8.975478172302246
111,13600.0,2.627319574356079,2.3545374870300293,-8.975478172302246
112,13700.0,2.636890411376953,2.383251428604126,-8.975478172302246
113,13800.0,2.636890411376953,2.383251428604126,-8.975478172302246
114,13900.0,2.636890411376953,2.383251428604126,-8.975478172302246
115,14000.0,2.5986053943634038,2.4717857837677,-8.968299865722656
116,14100.0,2.5986053943634038,2.4717857837677,-8.968299865722656
117,14200.0,2.627319574356079,2.4885356426239014,-9.03290557861328
118,14300.0,2.627319574356079,2.4885356426239014,-9.03290557861328
119,14400.0,2.6416761875152592,2.4646072387695312,-9.040083885192873
120,13000.0,2.5986053943634038,2.411965131759644,-9.047262191772461
121,13100.0,2.5986053943634038,2.411965131759644,-9.047262191772461
122,13200.0,2.569891452789306,2.4023938179016118,-9.016156196594238
123,13300.0,2.569891452789306,2.4023938179016118,-9.016156196594238
124,13400.0,2.569891452789306,2.4023938179016118,-9.016156196594238
125,13500.0,2.627319574356079,2.3545374870300293,-8.975478172302246
126,13600.0,2.627319574356079,2.3545374870300293,-8.975478172302246
127,13700.0,2.636890411376953,2.383251428604126,-8.975478172302246
128,13800.0,2.636890411376953,2.383251428604126,-8.975478172302246
129,13900.0,2.636890411376953,2.383251428604126,-8.975478172302246
130,14000.0,2.5986053943634038,2.4717857837677,-8.968299865722656
131,14100.0,2.5986053943634038,2.4717857837677,-8.968299865722656
132,14200.0,2.627319574356079,2.4885356426239014,-9.03290557861328
133,14300.0,2.627319574356079,2.4885356426239014,-9.03290557861328
134,14400.0,2.6416761875152592,2.4646072387695312,-9.040083885192873
135,14500.0,2.6416761875152592,2.4646072387695312,-9.040083885192873
136,14600.0,2.622533798217773,2.4023938179016118,-9.020941734313963
137,14700.0,2.622533798217773,2.4023938179016118,-9.020941734313963
138,14800.0,2.636890411376953,2.4646072387695312,-9.099905014038086
139,14900.0,2.636890411376953,2.4646072387695312,-9.099905014038086
140,15000.0,2.636890411376953,2.4646072387695312,-9.099905014038086
141,15100.0,2.636890411376953,2.4693927764892583,-9.023333549499512
142,15200.0,2.636890411376953,2.4693927764892583,-9.023333549499512
143,15300.0,2.6081764698028564,2.538784980773926,-8.975478172302246
144,15400.0,2.6081764698028564,2.538784980773926,-8.975478172302246
145,15500.0,2.6081764698028564,2.538784980773926,-8.975478172302246
146,15600.0,2.5507488250732417,2.562713146209717,-8.987441062927246
147,15700.0,2.5507488250732417,2.562713146209717,-8.987441062927246
148,15800.0,2.636890411376953,2.5507488250732417,-8.992227554321289
149,15900.0,2.636890411376953,2.5507488250732417,-8.992227554321289
150,14500.0,2.6416761875152592,2.4646072387695312,-9.040083885192873
151,14600.0,2.622533798217773,2.4023938179016118,-9.020941734313963
152,14700.0,2.622533798217773,2.4023938179016118,-9.020941734313963
153,14800.0,2.636890411376953,2.4646072387695312,-9.099905014038086
154,14900.0,2.636890411376953,2.4646072387695312,-9.099905014038086
155,15000.0,2.636890411376953,2.4646072387695312,-9.099905014038086
156,15100.0,2.636890411376953,2.4693927764892583,-9.023333549499512
157,15200.0,2.636890411376953,2.4693927764892583,-9.023333549499512
158,15300.0,2.6081764698028564,2.538784980773926,-8.975478172302246
159,15400.0,2.6081764698028564,2.538784980773926,-8.975478172302246
160,15500.0,2.6081764698028564,2.538784980773926,-8.975478172302246
161,15600.0,2.5507488250732417,2.562713146209717,-8.987441062927246
162,15700.0,2.5507488250732417,2.562713146209717,-8.987441062927246
163,15800.0,2.636890411376953,2.5507488250732417,-8.992227554321289
164,15900.0,2.636890411376953,2.5507488250732417,-8.992227554321289
165,16000.0,2.617748022079468,2.483749866485596,-8.973085403442383
166,16100.0,2.617748022079468,2.483749866485596,-8.973085403442383
167,16200.0,2.5363922119140625,2.44067907333374,-8.9371919631958
168,16300.0,2.5363922119140625,2.44067907333374,-8.9371919631958
169,16400.0,2.5363922119140625,2.44067907333374,-8.9371919631958
170,16500.0,2.4502503871917725,2.581855773925781,-8.872586250305176
171,16600.0,2.4502503871917725,2.581855773925781,-8.872586250305176
172,16700.0,2.636890411376953,2.5052852630615234,-8.97787094116211
173,16800.0,2.636890411376953,2.5052852630615234,-8.97787094116211
174,16900.0,2.636890411376953,2.5052852630615234,-8.97787094116211
175,17000.0,2.6464619636535645,2.617748022079468,-8.965906143188477
176,17100.0,2.6464619636535645,2.617748022079468,-8.965906143188477
177,17200.0,2.723031997680664,2.53399920463562,-9.006584167480469
178,17300.0,2.723031997680664,2.53399920463562,-9.006584167480469
179,17400.0,2.636890411376953,2.5459630489349365,-8.963513374328613
180,16000.0,2.617748022079468,2.483749866485596,-8.973085403442383
181,16100.0,2.617748022079468,2.483749866485596,-8.973085403442383
182,16200.0,2.5363922119140625,2.44067907333374,-8.9371919631958
183,16300.0,2.5363922119140625,2.44067907333374,-8.9371919631958
184,16400.0,2.5363922119140625,2.44067907333374,-8.9371919631958
185,16500.0,2.4502503871917725,2.581855773925781,-8.872586250305176
186,16600.0,2.4502503871917725,2.581855773925781,-8.872586250305176
187,16700.0,2.636890411376953,2.5052852630615234,-8.97787094116211
188,16800.0,2.636890411376953,2.5052852630615234,-8.97787094116211
189,16900.0,2.636890411376953,2.5052852630615234,-8.97787094116211
190,17000.0,2.6464619636535645,2.617748022079468,-8.965906143188477
191,17100.0,2.6464619636535645,2.617748022079468,-8.965906143188477
192,17200.0,2.723031997680664,2.53399920463562,-9.006584167480469
193,17300.0,2.723031997680664,2.53399920463562,-9.006584167480469
194,17400.0,2.636890411376953,2.5459630489349365,-8.963513374328613
195,17500.0,2.636890411376953,2.5459630489349365,-8.963513374328613
196,17600.0,2.636890411376953,2.5459630489349365,-8.963513374328613
197,17700.0,2.6608188152313232,2.541177749633789,-9.011369705200195
198,17800.0,2.6608188152313232,2.541177749633789,-9.011369705200195
199,17900.0,2.6799612045288086,2.53399920463562,-8.927621841430664
200,18000.0,2.6799612045288086,2.53399920463562,-8.927621841430664
201,18100.0,2.68953275680542,2.4909284114837646,-8.997013092041016
202,18200.0,2.68953275680542,2.4909284114837646,-8.997013092041016
203,18300.0,2.68953275680542,2.4909284114837646,-8.997013092041016
204,18400.0,2.6608188152313232,2.4741785526275635,-8.96112060546875
205,18500.0,2.6608188152313232,2.4741785526275635,-8.96112060546875
206,18600.0,2.6464619636535645,2.538784980773926,-8.970691680908203
207,18700.0,2.6464619636535645,2.538784980773926,-8.970691680908203
208,18800.0,2.6464619636535645,2.538784980773926,-8.970691680908203
209,18900.0,2.627319574356079,2.514856576919556,-8.93240737915039
210,17500.0,2.636890411376953,2.5459630489349365,-8.963513374328613
211,17600.0,2.636890411376953,2.5459630489349365,-8.963513374328613
212,17700.0,2.6608188152313232,2.541177749633789,-9.011369705200195
213,17800.0,2.6608188152313232,2.541177749633789,-9.011369705200195
214,17900.0,2.6799612045288086,2.53399920463562,-8.927621841430664
215,18000.0,2.6799612045288086,2.53399920463562,-8.927621841430664
216,18100.0,2.68953275680542,2.4909284114837646,-8.997013092041016
217,18200.0,2.68953275680542,2.4909284114837646,-8.997013092041016
218,18300.0,2.68953275680542,2.4909284114837646,-8.997013092041016
219,18400.0,2.6608188152313232,2.4741785526275635,-8.96112060546875
220,18500.0,2.6608188152313232,2.4741785526275635,-8.96112060546875
221,18600.0,2.6464619636535645,2.538784980773926,-8.970691680908203
222,18700.0,2.6464619636535645,2.538784980773926,-8.970691680908203
223,18800.0,2.6464619636535645,2.538784980773926,-8.970691680908203
224,18900.0,2.627319574356079,2.514856576919556,-8.93240737915039
225,19000.0,2.627319574356079,2.514856576919556,-8.93240737915039
226,19100.0,2.6703903675079346,2.483749866485596,-8.927621841430664
227,19200.0,2.6703903675079346,2.483749866485596,-8.927621841430664
228,19300.0,2.68953275680542,2.4670000076293945,-8.9850492477417
229,19400.0,2.68953275680542,2.4670000076293945,-8.9850492477417
230,19500.0,2.636890411376953,2.47896409034729,-8.944371223449707
231,19600.0,2.636890411376953,2.47896409034729,-8.944371223449707
232,19700.0,2.651247262954712,2.4693927764892583,-9.004191398620605
233,19800.0,2.651247262954712,2.4693927764892583,-9.004191398620605
234,19900.0,2.651247262954712,2.4693927764892583,-9.004191398620605
235,20000.0,2.636890411376953,2.548356056213379,-8.9371919631958
236,20100.0,2.636890411376953,2.548356056213379,-8.9371919631958
237,20200.0,2.6416761875152592,2.5507488250732417,-8.997013092041016
238,20300.0,2.6416761875152592,2.5507488250732417,-8.997013092041016
239,20400.0,2.6464619636535645,2.5938196182250977,-8.968299865722656
240,19000.0,2.627319574356079,2.514856576919556,-8.93240737915039
241,19100.0,2.6703903675079346,2.483749866485596,-8.927621841430664
242,19200.0,2.6703903675079346,2.483749866485596,-8.927621841430664
243,19300.0,2.68953275680542,2.4670000076293945,-8.9850492477417
244,19400.0,2.68953275680542,2.4670000076293945,-8.9850492477417
245,19500.0,2.636890411376953,2.47896409034729,-8.944371223449707
246,19600.0,2.636890411376953,2.47896409034729,-8.944371223449707
247,19700.0,2.651247262954712,2.4693927764892583,-9.004191398620605
248,19800.0,2.651247262954712,2.4693927764892583,-9.004191398620605
249,19900.0,2.651247262954712,2.4693927764892583,-9.004191398620605
250,20000.0,2.636890411376953,2.548356056213379,-8.9371919631958
251,20100.0,2.636890411376953,2.548356056213379,-8.9371919631958
252,20200.0,2.6416761875152592,2.5507488250732417,-8.997013092041016
253,20300.0,2.6416761875152592,2.5507488250732417,-8.997013092041016
254,20400.0,2.6464619636535645,2.5938196182250977,-8.968299865722656
255,20500.0,2.6464619636535645,2.5938196182250977,-8.968299865722656
256,20600.0,2.6464619636535645,2.5938196182250977,-8.968299865722656
257,20700.0,2.6608188152313232,2.5196423530578613,-8.97787094116211
258,20800.0,2.6608188152313232,2.5196423530578613,-8.97787094116211
259,20900.0,2.6416761875152592,2.4813570976257324,-8.934800148010254
260,21000.0,2.6416761875152592,2.4813570976257324,-8.934800148010254
261,21100.0,2.636890411376953,2.526820659637451,-8.994620323181152
262,21200.0,2.636890411376953,2.526820659637451,-8.994620323181152
263,21300.0,2.622533798217773,2.541177749633789,-8.934800148010254
264,21400.0,2.622533798217773,2.541177749633789,-8.934800148010254
265,21500.0,2.622533798217773,2.541177749633789,-8.934800148010254
266,21600.0,2.6416761875152592,2.51007080078125,-8.975478172302246
267,21700.0,2.6416761875152592,2.51007080078125,-8.975478172302246
268,21800.0,2.6416761875152592,2.455036163330078,-8.97787094116211
269,21900.0,2.6416761875152592,2.455036163330078,-8.97787094116211
270,20500.0,2.6464619636535645,2.5938196182250977,-8.968299865722656
271,20600.0,2.6464619636535645,2.5938196182250977,-8.968299865722656
272,20700.0,2.6608188152313232,2.5196423530578613,-8.97787094116211
273,20800.0,2.6608188152313232,2.5196423530578613,-8.97787094116211
274,20900.0,2.6416761875152592,2.4813570976257324,-8.934800148010254
275,21000.0,2.6416761875152592,2.4813570976257324,-8.934800148010254
276,21100.0,2.636890411376953,2.526820659637451,-8.994620323181152
277,21200.0,2.636890411376953,2.526820659637451,-8.994620323181152
278,21300.0,2.622533798217773,2.541177749633789,-8.934800148010254
279,21400.0,2.622533798217773,2.541177749633789,-8.934800148010254
280,21500.0,2.622533798217773,2.541177749633789,-8.934800148010254
281,21600.0,2.6416761875152592,2.51007080078125,-8.975478172302246
282,21700.0,2.6416761875152592,2.51007080078125,-8.975478172302246
283,21800.0,2.6416761875152592,2.455036163330078,-8.97787094116211
284,21900.0,2.6416761875152592,2.455036163330078,-8.97787094116211
285,22000.0,2.6416761875152592,2.455036163330078,-8.97787094116211
286,22100.0,2.6560330390930176,2.548356056213379,-8.958727836608887
287,22200.0,2.6560330390930176,2.548356056213379,-8.958727836608887
288,22300.0,2.627319574356079,2.522034883499145,-8.920442581176758
289,22400.0,2.627319574356079,2.522034883499145,-8.920442581176758
290,22500.0,2.6416761875152592,2.5363922119140625,-8.98265552520752
291,22600.0,2.6416761875152592,2.5363922119140625,-8.98265552520752
292,22700.0,2.6416761875152592,2.5363922119140625,-8.98265552520752
293,22800.0,2.675175428390503,2.53399920463562,-8.941977500915527
294,22900.0,2.675175428390503,2.53399920463562,-8.941977500915527
295,23000.0,2.6321046352386475,2.541177749633789,-9.040083885192873
296,23100.0,2.6321046352386475,2.541177749633789,-9.040083885192873
297,23200.0,2.651247262954712,2.5004994869232178,-8.999405860900879
298,23300.0,2.651247262954712,2.5004994869232178,-8.999405860900879
299,23400.0,2.651247262954712,2.538784980773926,-8.956335067749023
300,22000.0,2.6416761875152592,2.455036163330078,-8.97787094116211
301,22100.0,2.6560330390930176,2.548356056213379,-8.958727836608887
302,22200.0,2.6560330390930176,2.548356056213379,-8.958727836608887
303,22300.0,2.627319574356079,2.522034883499145,-8.920442581176758
304,22400.0,2.627319574356079,2.522034883499145,-8.920442581176758
305,22500.0,2.6416761875152592,2.5363922119140625,-8.98265552520752
306,22600.0,2.6416761875152592,2.5363922119140625,-8.98265552520752
307,22700.0,2.6416761875152592,2.5363922119140625,-8.98265552520752
308,22800.0,2.675175428390503,2.53399920463562,-8.941977500915527
309,22900.0,2.675175428390503,2.53399920463562,-8.941977500915527
310,23000.0,2.6321046352386475,2.541177749633789,-9.040083885192873
311,23100.0,2.6321046352386475,2.541177749633789,-9.040083885192873
312,23200.0,2.651247262954712,2.5004994869232178,-8.999405860900879
313,23300.0,2.651247262954712,2.5004994869232178,-8.999405860900879
314,23400.0,2.651247262954712,2.538784980773926,-8.956335067749023
315,23500.0,2.651247262954712,2.538784980773926,-8.956335067749023
316,23600.0,2.651247262954712,2.538784980773926,-8.956335067749023
317,23700.0,2.636890411376953,2.531606435775757,-8.95394229888916
318,23800.0,2.636890411376953,2.531606435775757,-8.95394229888916
319,23900.0,2.651247262954712,2.5866410732269287,-9.025726318359377
320,24000.0,2.651247262954712,2.5866410732269287,-9.025726318359377
321,24100.0,2.6321046352386475,2.526820659637451,-8.9850492477417
322,24200.0,2.6321046352386475,2.526820659637451,-8.9850492477417
323,24300.0,2.6321046352386475,2.526820659637451,-8.9850492477417
324,24400.0,2.6847469806671143,2.502892255783081,-8.987441062927246
325,24500.0,2.6847469806671143,2.502892255783081,-8.987441062927246
326,24600.0,2.6703903675079346,2.51007080078125,-8.980262756347656
327,24700.0,2.6703903675079346,2.51007080078125,-8.980262756347656
328,24800.0,2.627319574356079,2.4717857837677,-8.951549530029297
329,24900.0,2.627319574356079,2.4717857837677,-8.951549530029297
330,23500.0,2.651247262954712,2.538784980773926,-8.956335067749023
331,23600.0,2.651247262954712,2.538784980773926,-8.956335067749023
332,23700.0,2.636890411376953,2.531606435775757,-8.95394229888916
333,23800.0,2.636890411376953,2.531606435775757,-8.95394229888916
334,23900.0,2.651247262954712,2.5866410732269287,-9.025726318359377
335,24000.0,2.651247262954712,2.5866410732269287,-9.025726318359377
336,24100.0,2.6321046352386475,2.526820659637451,-8.9850492477417
337,24200.0,2.6321046352386475,2.526820659637451,-8.9850492477417
338,24300.0,2.6321046352386475,2.526820659637451,-8.9850492477417
339,24400.0,2.6847469806671143,2.502892255783081,-8.987441062927246
340,24500.0,2.6847469806671143,2.502892255783081,-8.987441062927246
341,24600.0,2.6703903675079346,2.51007080078125,-8.980262756347656
342,24700.0,2.6703903675079346,2.51007080078125,-8.980262756347656
343,24800.0,2.627319574356079,2.4717857837677,-8.951549530029297
344,24900.0,2.627319574356079,2.4717857837677,-8.951549530029297
345,25000.0,2.627319574356079,2.4717857837677,-8.951549530029297
346,25100.0,2.6799612045288086,2.543570280075073,-8.970691680908203
347,25200.0,2.6799612045288086,2.543570280075073,-8.970691680908203
348,25300.0,2.6321046352386475,2.5076780319213867,-8.9371919631958
349,25400.0,2.6321046352386475,2.5076780319213867,-8.9371919631958
350,25500.0,2.6560330390930176,2.4646072387695312,-8.934800148010254
351,25600.0,2.6560330390930176,2.4646072387695312,-8.934800148010254
352,25700.0,2.6560330390930176,2.4646072387695312,-8.934800148010254
353,25800.0,2.71346116065979,2.421536445617676,-8.968299865722656
354,25900.0,2.71346116065979,2.421536445617676,-8.968299865722656
355,26000.0,2.636890411376953,2.4693927764892583,-8.994620323181152
356,26100.0,2.636890411376953,2.4693927764892583,-8.994620323181152
357,26200.0,2.6703903675079346,2.5124638080596924,-9.018548011779783
358,26300.0,2.6703903675079346,2.5124638080596924,-9.018548011779783
359,26400.0,2.6703903675079346,2.5124638080596924,-9.018548011779783
360,25000.0,2.627319574356079,2.4717857837677,-8.951549530029297
361,25100.0,2.6799612045288086,2.543570280075073,-8.970691680908203
362,25200.0,2.6799612045288086,2.543570280075073,-8.970691680908203
363,25300.0,2.6321046352386475,2.5076780319213867,-8.9371919631958
364,25400.0,2.6321046352386475,2.5076780319213867,-8.9371919631958
365,25500.0,2.6560330390930176,2.4646072387695312,-8.934800148010254
366,25600.0,2.6560330390930176,2.4646072387695312,-8.934800148010254
367,25700.0,2.6560330390930176,2.4646072387695312,-8.934800148010254
368,25800.0,2.71346116065979,2.421536445617676,-8.968299865722656
369,25900.0,2.71346116065979,2.421536445617676,-8.968299865722656
370,26000.0,2.636890411376953,2.4693927764892583,-8.994620323181152
371,26100.0,2.636890411376953,2.4693927764892583,-8.994620323181152
372,26200.0,2.6703903675079346,2.5124638080596924,-9.018548011779783
373,26300.0,2.6703903675079346,2.5124638080596924,-9.018548011779783
374,26400.0,2.6703903675079346,2.5124638080596924,-9.018548011779783
375,26500.0,2.6703903675079346,2.5052852630615234,-8.96112060546875
376,26600.0,2.6703903675079346,2.5052852630615234,-8.96112060546875
377,26700.0,2.6943180561065674,2.524427890777588,-9.006584167480469
378,26800.0,2.6943180561065674,2.524427890777588,-9.006584167480469
379,26900.0,2.6943180561065674,2.524427890777588,-9.006584167480469
380,27000.0,2.651247262954712,2.4957141876220703,-8.934800148010254
381,27100.0,2.651247262954712,2.4957141876220703,-8.934800148010254
382,27200.0,2.6416761875152592,2.486142873764038,-9.013763427734377
383,27300.0,2.6416761875152592,2.486142873764038,-9.013763427734377
384,27400.0,2.636890411376953,2.514856576919556,-8.994620323181152
385,27500.0,2.636890411376953,2.514856576919556,-8.994620323181152
386,27600.0,2.6703903675079346,2.476571559906006,-9.025726318359377
387,27700.0,2.6703903675079346,2.476571559906006,-9.025726318359377
388,27800.0,2.6703903675079346,2.476571559906006,-9.025726318359377
389,27900.0,2.6560330390930176,2.486142873764038,-8.963513374328613
390,26500.0,2.6703903675079346,2.5052852630615234,-8.96112060546875
391,26600.0,2.6703903675079346,2.5052852630615234,-8.96112060546875
392,26700.0,2.6943180561065674,2.524427890777588,-9.006584167480469
393,26800.0,2.6943180561065674,2.524427890777588,-9.006584167480469
394,26900.0,2.6943180561065674,2.524427890777588,-9.006584167480469
395,27000.0,2.651247262954712,2.4957141876220703,-8.934800148010254
396,27100.0,2.651247262954712,2.4957141876220703,-8.934800148010254
397,27200.0,2.6416761875152592,2.486142873764038,-9.013763427734377
398,27300.0,2.6416761875152592,2.486142873764038,-9.013763427734377
399,27400.0,2.636890411376953,2.514856576919556,-8.994620323181152
400,27500.0,2.636890411376953,2.514856576919556,-8.994620323181152
401,27600.0,2.6703903675079346,2.476571559906006,-9.025726318359377
402,27700.0,2.6703903675079346,2.476571559906006,-9.025726318359377
403,27800.0,2.6703903675079346,2.476571559906006,-9.025726318359377
404,27900.0,2.6560330390930176,2.486142873764038,-8.963513374328613
405,28000.0,2.6560330390930176,2.486142873764038,-8.963513374328613
406,28100.0,2.6703903675079346,2.4885356426239014,-8.973085403442383
407,28200.0,2.6703903675079346,2.4885356426239014,-8.973085403442383
408,28300.0,2.6416761875152592,2.560320377349853,-8.958727836608887
409,28400.0,2.6416761875152592,2.560320377349853,-8.958727836608887
410,28500.0,2.6560330390930176,2.5052852630615234,-8.965906143188477
411,28600.0,2.6560330390930176,2.5052852630615234,-8.965906143188477
412,28700.0,2.6560330390930176,2.5052852630615234,-8.965906143188477
413,28800.0,2.675175428390503,2.493321180343628,-8.989834785461426
414,28900.0,2.675175428390503,2.493321180343628,-8.989834785461426
415,29000.0,2.7182462215423584,2.483749866485596,-8.973085403442383
416,29100.0,2.7182462215423584,2.483749866485596,-8.973085403442383
417,29200.0,2.6847469806671143,2.502892255783081,-8.987441062927246
418,29300.0,2.6847469806671143,2.502892255783081,-8.987441062927246
419,29400.0,2.6321046352386475,2.447857618331909,-8.939584732055664
420,28000.0,2.6560330390930176,2.486142873764038,-8.963513374328613
421,28100.0,2.6703903675079346,2.4885356426239014,-8.973085403442383
422,28200.0,2.6703903675079346,2.4885356426239014,-8.973085403442383
423,28300.0,2.6416761875152592,2.560320377349853,-8.958727836608887
424,28400.0,2.6416761875152592,2.560320377349853,-8.958727836608887
425,28500.0,2.6560330390930176,2.5052852630615234,-8.965906143188477
426,28600.0,2.6560330390930176,2.5052852630615234,-8.965906143188477
427,28700.0,2.6560330390930176,2.5052852630615234,-8.965906143188477
428,28800.0,2.675175428390503,2.493321180343628,-8.989834785461426
429,28900.0,2.675175428390503,2.493321180343628,-8.989834785461426
430,29000.0,2.7182462215423584,2.483749866485596,-8.973085403442383
431,29100.0,2.7182462215423584,2.483749866485596,-8.973085403442383
432,29200.0,2.6847469806671143,2.502892255783081,-8.987441062927246
433,29300.0,2.6847469806671143,2.502892255783081,-8.987441062927246
434,29400.0,2.6321046352386475,2.447857618331909,-8.939584732055664
435,29500.0,2.6321046352386475,2.447857618331909,-8.939584732055664
436,29600.0,2.6799612045288086,2.4574286937713623,-8.941977500915527
437,29700.0,2.6799612045288086,2.4574286937713623,-8.941977500915527
438,29800.0,2.665604591369629,2.3784656524658203,-8.973085403442383
439,29900.0,2.665604591369629,2.3784656524658203,-8.973085403442383
440,30000.0,2.665604591369629,2.3784656524658203,-8.973085403442383
441,30100.0,2.737389087677002,2.3976082801818848,-9.016156196594238
442,30200.0,2.737389087677002,2.3976082801818848,-9.016156196594238
443,30300.0,2.6608188152313232,2.4909284114837646,-8.901299476623535
444,30400.0,2.6608188152313232,2.4909284114837646,-8.901299476623535
445,30500.0,2.6943180561065674,2.4598214626312256,-8.980262756347656
446,30600.0,2.6943180561065674,2.4598214626312256,-8.980262756347656
447,30700.0,2.6943180561065674,2.4598214626312256,-8.980262756347656
448,30800.0,2.68953275680542,2.4813570976257324,-8.999405860900879
449,30900.0,2.68953275680542,2.4813570976257324,-8.999405860900879
450,29500.0,2.6321046352386475,2.447857618331909,-8.939584732055664
451,29600.0,2.6799612045288086,2.4574286937713623,-8.941977500915527
452,29700.0,2.6799612045288086,2.4574286937713623,-8.941977500915527
453,29800.0,2.665604591369629,2.3784656524658203,-8.973085403442383
454,29900.0,2.665604591369629,2.3784656524658203,-8.973085403442383
455,30000.0,2.665604591369629,2.3784656524658203,-8.973085403442383
456,30100.0,2.737389087677002,2.3976082801818848,-9.016156196594238
457,30200.0,2.737389087677002,2.3976082801818848,-9.016156196594238
458,30300.0,2.6608188152313232,2.4909284114837646,-8.901299476623535
459,30400.0,2.6608188152313232,2.4909284114837646,-8.901299476623535
460,30500.0,2.6943180561065674,2.4598214626312256,-8.980262756347656
461,30600.0,2.6943180561065674,2.4598214626312256,-8.980262756347656
462,30700.0,2.6943180561065674,2.4598214626312256,-8.980262756347656
463,30800.0,2.68953275680542,2.4813570976257324,-8.999405860900879
464,30900.0,2.68953275680542,2.4813570976257324,-8.999405860900879
465,31000.0,2.665604591369629,2.5004994869232178,-8.999405860900879
466,31100.0,2.665604591369629,2.5004994869232178,-8.999405860900879
467,31200.0,2.6560330390930176,2.4574286937713623,-8.968299865722656
468,31300.0,2.6560330390930176,2.4574286937713623,-8.968299865722656
469,31400.0,2.6560330390930176,2.4574286937713623,-8.968299865722656
470,31500.0,2.6943180561065674,2.5076780319213867,-8.9371919631958
471,31600.0,2.6943180561065674,2.5076780319213867,-8.9371919631958
472,31700.0,2.617748022079468,2.5292134284973145,-9.020941734313963
473,31800.0,2.617748022079468,2.5292134284973145,-9.020941734313963
474,31900.0,2.617748022079468,2.5292134284973145,-9.020941734313963
475,32000.0,2.636890411376953,2.53399920463562,-9.018548011779783
476,32100.0,2.636890411376953,2.53399920463562,-9.018548011779783
477,32200.0,2.68953275680542,2.447857618331909,-8.970691680908203
478,32300.0,2.68953275680542,2.447857618331909,-8.970691680908203
479,32400.0,2.6847469806671143,2.476571559906006,-8.956335067749023
480,31000.0,2.665604591369629,2.5004994869232178,-8.999405860900879
481,31100.0,2.665604591369629,2.5004994869232178,-8.999405860900879
482,31200.0,2.6560330390930176,2.4574286937713623,-8.968299865722656
483,31300.0,2.6560330390930176,2.4574286937713623,-8.968299865722656
484,31400.0,2.6560330390930176,2.4574286937713623,-8.968299865722656
485,31500.0,2.6943180561065674,2.5076780319213867,-8.9371919631958
486,31600.0,2.6943180561065674,2.5076780319213867,-8.9371919631958
487,31700.0,2.617748022079468,2.5292134284973145,-9.020941734313963
488,31800.0,2.617748022079468,2.5292134284973145,-9.020941734313963
489,31900.0,2.617748022079468,2.5292134284973145,-9.020941734313963
490,32000.0,2.636890411376953,2.53399920463562,-9.018548011779783
491,32100.0,2.636890411376953,2.53399920463562,-9.018548011779783
492,32200.0,2.68953275680542,2.447857618331909,-8.970691680908203
493,32300.0,2.68953275680542,2.447857618331909,-8.970691680908203
494,32400.0,2.6847469806671143,2.476571559906006,-8.956335067749023
495,32500.0,2.6847469806671143,2.476571559906006,-8.956335067749023
496,32600.0,2.6608188152313232,2.493321180343628,-9.001798629760742
497,32700.0,2.6608188152313232,2.493321180343628,-9.001798629760742
498,32800.0,2.6608188152313232,2.493321180343628,-9.001798629760742
499,32900.0,2.6799612045288086,2.452643394470215,-8.9850492477417
500,33000.0,2.6799612045288086,2.452643394470215,-8.9850492477417
501,33100.0,2.627319574356079,2.5196423530578613,-8.97787094116211
502,33200.0,2.627319574356079,2.5196423530578613,-8.97787094116211
503,33300.0,2.68953275680542,2.4957141876220703,-8.980262756347656
504,33400.0,2.68953275680542,2.4957141876220703,-8.980262756347656
505,33500.0,2.665604591369629,2.517249345779419,-8.891729354858398
506,33600.0,2.665604591369629,2.517249345779419,-8.891729354858398
507,33700.0,2.665604591369629,2.447857618331909,-9.006584167480469
508,33800.0,2.665604591369629,2.447857618331909,-9.006584167480469
509,33900.0,2.665604591369629,2.447857618331909,-9.006584167480469
510,32500.0,2.6847469806671143,2.476571559906006,-8.956335067749023
511,32600.0,2.6608188152313232,2.493321180343628,-9.001798629760742
512,32700.0,2.6608188152313232,2.493321180343628,-9.001798629760742
513,32800.0,2.6608188152313232,2.493321180343628,-9.001798629760742
514,32900.0,2.6799612045288086,2.452643394470215,-8.9850492477417
515,33000.0,2.6799612045288086,2.452643394470215,-8.9850492477417
516,33100.0,2.627319574356079,2.5196423530578613,-8.97787094116211
517,33200.0,2.627319574356079,2.5196423530578613,-8.97787094116211
518,33300.0,2.68953275680542,2.4957141876220703,-8.980262756347656
519,33400.0,2.68953275680542,2.4957141876220703,-8.980262756347656
520,33500.0,2.665604591369629,2.517249345779419,-8.891729354858398
521,33600.0,2.665604591369629,2.517249345779419,-8.891729354858398
522,33700.0,2.665604591369629,2.447857618331909,-9.006584167480469
523,33800.0,2.665604591369629,2.447857618331909,-9.006584167480469
524,33900.0,2.665604591369629,2.447857618331909,-9.006584167480469
525,34000.0,2.6703903675079346,2.493321180343628,-9.020941734313963
526,34100.0,2.6703903675079346,2.493321180343628,-9.020941734313963
527,34200.0,2.675175428390503,2.462214469909668,-8.939584732055664
528,34300.0,2.675175428390503,2.462214469909668,-8.939584732055664
529,34400.0,2.675175428390503,2.462214469909668,-8.939584732055664
530,34500.0,2.7038896083831787,2.5196423530578613,-8.96112060546875
531,34600.0,2.7038896083831787,2.5196423530578613,-8.96112060546875
532,34700.0,2.665604591369629,2.514856576919556,-8.973085403442383
533,34800.0,2.665604591369629,2.514856576919556,-8.973085403442383
534,34900.0,2.699103832244873,2.538784980773926,-9.001798629760742
535,35000.0,2.699103832244873,2.538784980773926,-9.001798629760742
536,35100.0,2.665604591369629,2.4981069564819336,-8.973085403442383
537,35200.0,2.665604591369629,2.4981069564819336,-8.973085403442383
538,35300.0,2.665604591369629,2.4981069564819336,-8.973085403442383
539,35400.0,2.651247262954712,2.5363922119140625,-8.997013092041016
540,34000.0,2.6703903675079346,2.493321180343628,-9.020941734313963
541,34100.0,2.6703903675079346,2.493321180343628,-9.020941734313963
542,34200.0,2.675175428390503,2.462214469909668,-8.939584732055664
543,34300.0,2.675175428390503,2.462214469909668,-8.939584732055664
544,34400.0,2.675175428390503,2.462214469909668,-8.939584732055664
545,34500.0,2.7038896083831787,2.5196423530578613,-8.96112060546875
546,34600.0,2.7038896083831787,2.5196423530578613,-8.96112060546875
547,34700.0,2.665604591369629,2.514856576919556,-8.973085403442383
548,34800.0,2.665604591369629,2.514856576919556,-8.973085403442383
549,34900.0,2.699103832244873,2.538784980773926,-9.001798629760742
550,35000.0,2.699103832244873,2.538784980773926,-9.001798629760742
551,35100.0,2.665604591369629,2.4981069564819336,-8.973085403442383
552,35200.0,2.665604591369629,2.4981069564819336,-8.973085403442383
553,35300.0,2.665604591369629,2.4981069564819336,-8.973085403442383
554,35400.0,2.651247262954712,2.5363922119140625,-8.997013092041016
555,35500.0,2.651247262954712,2.5363922119140625,-8.997013092041016
556,35600.0,2.6464619636535645,2.4981069564819336,-8.958727836608887
557,35700.0,2.6464619636535645,2.4981069564819336,-8.958727836608887
558,35800.0,2.6464619636535645,2.4981069564819336,-8.958727836608887
559,35900.0,2.6560330390930176,2.53399920463562,-8.927621841430664
560,36000.0,2.6560330390930176,2.53399920463562,-8.927621841430664
561,36100.0,2.622533798217773,2.5842485427856445,-8.975478172302246
562,36200.0,2.622533798217773,2.5842485427856445,-8.975478172302246
563,36300.0,2.627319574356079,2.4885356426239014,-8.973085403442383
564,36400.0,2.627319574356079,2.4885356426239014,-8.973085403442383
565,36500.0,2.627319574356079,2.4885356426239014,-8.973085403442383
566,36600.0,2.6943180561065674,2.5124638080596924,-8.858229637145996
567,36700.0,2.6943180561065674,2.5124638080596924,-8.858229637145996
568,36800.0,2.746960401535034,2.4358932971954346,-8.963513374328613
569,36900.0,2.746960401535034,2.4358932971954346,-8.963513374328613
570,35500.0,2.651247262954712,2.5363922119140625,-8.997013092041016
571,35600.0,2.6464619636535645,2.4981069564819336,-8.958727836608887
572,35700.0,2.6464619636535645,2.4981069564819336,-8.958727836608887
573,35800.0,2.6464619636535645,2.4981069564819336,-8.958727836608887
574,35900.0,2.6560330390930176,2.53399920463562,-8.927621841430664
575,36000.0,2.6560330390930176,2.53399920463562,-8.927621841430664
576,36100.0,2.622533798217773,2.5842485427856445,-8.975478172302246
577,36200.0,2.622533798217773,2.5842485427856445,-8.975478172302246
578,36300.0,2.627319574356079,2.4885356426239014,-8.973085403442383
579,36400.0,2.627319574356079,2.4885356426239014,-8.973085403442383
580,36500.0,2.627319574356079,2.4885356426239014,-8.973085403442383
581,36600.0,2.6943180561065674,2.5124638080596924,-8.858229637145996
582,36700.0,2.6943180561065674,2.5124638080596924,-8.858229637145996
583,36800.0,2.746960401535034,2.4358932971954346,-8.963513374328613
584,36900.0,2.746960401535034,2.4358932971954346,-8.963513374328613
585,37000.0,2.746960401535034,2.4358932971954346,-8.963513374328613
586,37100.0,2.7038896083831787,2.531606435775757,-8.949156761169434
587,37200.0,2.7038896083831787,2.531606435775757,-8.949156761169434
588,37300.0,2.7038896083831787,2.4717857837677,-9.013763427734377
589,37400.0,2.7038896083831787,2.4717857837677,-9.013763427734377
590,37500.0,2.7038896083831787,2.4717857837677,-9.013763427734377
591,37600.0,2.636890411376953,2.557927370071411,-8.95394229888916
592,37700.0,2.636890411376953,2.557927370071411,-8.95394229888916
593,37800.0,2.6847469806671143,2.5507488250732417,-8.93240737915039
594,37900.0,2.6847469806671143,2.5507488250732417,-8.93240737915039
595,38000.0,2.565105676651001,2.63449764251709,-8.848658561706543
596,38100.0,2.565105676651001,2.63449764251709,-8.848658561706543
597,38200.0,2.6799612045288086,2.71346116065979,-8.970691680908203
598,38300.0,2.6799612045288086,2.71346116065979,-8.970691680908203
599,38400.0,2.6799612045288086,2.71346116065979,-8.970691680908203
600,37000.0,2.746960401535034,2.4358932971954346,-8.963513374328613
601,37100.0,2.7038896083831787,2.531606435775757,-8.949156761169434
602,37200.0,2.7038896083831787,2.531606435775757,-8.949156761169434
603,37300.0,2.7038896083831787,2.4717857837677,-9.013763427734377
604,37400.0,2.7038896083831787,2.4717857837677,-9.013763427734377
605,37500.0,2.7038896083831787,2.4717857837677,-9.013763427734377
606,37600.0,2.636890411376953,2.557927370071411,-8.95394229888916
607,37700.0,2.636890411376953,2.557927370071411,-8.95394229888916
608,37800.0,2.6847469806671143,2.5507488250732417,-8.93240737915039
609,37900.0,2.6847469806671143,2.5507488250732417,-8.93240737915039
610,38000.0,2.565105676651001,2.63449764251709,-8.848658561706543
611,38100.0,2.565105676651001,2.63449764251709,-8.848658561706543
612,38200.0,2.6799612045288086,2.71346116065979,-8.970691680908203
613,38300.0,2.6799612045288086,2.71346116065979,-8.970691680908203
614,38400.0,2.6799612045288086,2.71346116065979,-8.970691680908203
615,38500.0,2.775674343109131,2.531606435775757,-9.028119087219238
616,38600.0,2.775674343109131,2.531606435775757,-9.028119087219238
617,38700.0,2.665604591369629,2.5076780319213867,-8.987441062927246
618,38800.0,2.665604591369629,2.5076780319213867,-8.987441062927246
619,38900.0,2.665604591369629,2.5076780319213867,-8.987441062927246
620,39000.0,2.71346116065979,2.3018953800201416,-9.03290557861328
621,39100.0,2.71346116065979,2.3018953800201416,-9.03290557861328
622,39200.0,3.1489543914794917,2.414358139038086,-8.96112060546875
623,39300.0,3.1489543914794917,2.414358139038086,-8.96112060546875
624,39400.0,2.809173583984375,2.541177749633789,-8.858229637145996
625,39500.0,2.809173583984375,2.541177749633789,-8.858229637145996
626,39600.0,2.9383859634399414,2.411965131759644,-8.910871505737305
627,39700.0,2.9383859634399414,2.411965131759644,-8.910871505737305
628,39800.0,2.933600425720215,2.1966111660003658,-8.774479866027832
629,39900.0,2.933600425720215,2.1966111660003658,-8.774479866027832
630,38500.0,2.775674343109131,2.531606435775757,-9.028119087219238
631,38600.0,2.775674343109131,2.531606435775757,-9.028119087219238
632,38700.0,2.665604591369629,2.5076780319213867,-8.987441062927246
633,38800.0,2.665604591369629,2.5076780319213867,-8.987441062927246
634,38900.0,2.665604591369629,2.5076780319213867,-8.987441062927246
635,39000.0,2.71346116065979,2.3018953800201416,-9.03290557861328
636,39100.0,2.71346116065979,2.3018953800201416,-9.03290557861328
637,39200.0,3.1489543914794917,2.414358139038086,-8.96112060546875
638,39300.0,3.1489543914794917,2.414358139038086,-8.96112060546875
639,39400.0,2.809173583984375,2.541177749633789,-8.858229637145996
640,39500.0,2.809173583984375,2.541177749633789,-8.858229637145996
641,39600.0,2.9383859634399414,2.411965131759644,-8.910871505737305
642,39700.0,2.9383859634399414,2.411965131759644,-8.910871505737305
643,39800.0,2.933600425720215,2.1966111660003658,-8.774479866027832
644,39900.0,2.933600425720215,2.1966111660003658,-8.774479866027832
645,40000.0,2.933600425720215,2.1966111660003658,-8.774479866027832
646,40100.0,3.053241729736328,2.4574286937713623,-8.781659126281737
647,40200.0,3.053241729736328,2.4574286937713623,-8.781659126281737
648,40300.0,3.335594892501831,2.2253248691558842,-8.781659126281737
649,40400.0,3.335594892501831,2.2253248691558842,-8.781659126281737
650,40500.0,2.8713872432708736,2.629711866378784,-8.650053977966309
651,40600.0,2.8713872432708736,2.629711866378784,-8.650053977966309
652,40700.0,2.775674343109131,2.5459630489349365,-8.671588897705076
653,40800.0,2.775674343109131,2.5459630489349365,-8.671588897705076
654,40900.0,3.2159535884857178,2.950350284576416,-8.987441062927246
655,41000.0,3.2159535884857178,2.950350284576416,-8.987441062927246
656,41100.0,3.2159535884857178,2.950350284576416,-8.987441062927246
657,41200.0,2.8666017055511475,3.2757742404937744,-8.812766075134277
658,41300.0,2.8666017055511475,3.2757742404937744,-8.812766075134277
659,41400.0,3.0963122844696045,2.5052852630615234,-8.841480255126953
660,40000.0,2.933600425720215,2.1966111660003658,-8.774479866027832
661,40100.0,3.053241729736328,2.4574286937713623,-8.781659126281737
662,40200.0,3.053241729736328,2.4574286937713623,-8.781659126281737
663,40300.0,3.335594892501831,2.2253248691558842,-8.781659126281737
664,40400.0,3.335594892501831,2.2253248691558842,-8.781659126281737
665,40500.0,2.8713872432708736,2.629711866378784,-8.650053977966309
666,40600.0,2.8713872432708736,2.629711866378784,-8.650053977966309
667,40700.0,2.775674343109131,2.5459630489349365,-8.671588897705076
668,40800.0,2.775674343109131,2.5459630489349365,-8.671588897705076
669,40900.0,3.2159535884857178,2.950350284576416,-8.987441062927246
670,41000.0,3.2159535884857178,2.950350284576416,-8.987441062927246
671,41100.0,3.2159535884857178,2.950350284576416,-8.987441062927246
672,41200.0,2.8666017055511475,3.2757742404937744,-8.812766075134277
673,41300.0,2.8666017055511475,3.2757742404937744,-8.812766075134277
674,41400.0,3.0963122844696045,2.5052852630615234,-8.841480255126953
675,41500.0,3.0963122844696045,2.5052852630615234,-8.841480255126953
676,41600.0,3.0963122844696045,2.5052852630615234,-8.841480255126953
677,41700.0,3.1202406883239746,2.706282377243042,-8.97787094116211
678,41800.0,3.1202406883239746,2.706282377243042,-8.97787094116211
679,41900.0,3.273381233215332,2.4909284114837646,-8.70508861541748
680,42000.0,3.273381233215332,2.4909284114837646,-8.70508861541748
681,42100.0,3.3308091163635254,2.6608188152313232,-8.805586814880371
682,42200.0,3.3308091163635254,2.6608188152313232,-8.805586814880371
683,42300.0,3.3308091163635254,2.6608188152313232,-8.805586814880371
684,42400.0,2.857030153274536,2.8546373844146733,-8.520841598510742
685,42500.0,2.857030153274536,2.8546373844146733,-8.520841598510742
686,42600.0,3.5509488582611084,2.622533798217773,-9.059226989746094
687,42700.0,3.5509488582611084,2.622533798217773,-9.059226989746094
688,42800.0,2.909672498703003,2.5292134284973145,-8.188239097595215
689,42900.0,2.909672498703003,2.5292134284973145,-8.188239097595215
690,41500.0,3.0963122844696045,2.5052852630615234,-8.841480255126953
691,41600.0,3.0963122844696045,2.5052852630615234,-8.841480255126953
692,41700.0,3.1202406883239746,2.706282377243042,-8.97787094116211
693,41800.0,3.1202406883239746,2.706282377243042,-8.97787094116211
694,41900.0,3.273381233215332,2.4909284114837646,-8.70508861541748
695,42000.0,3.273381233215332,2.4909284114837646,-8.70508861541748
696,42100.0,3.3308091163635254,2.6608188152313232,-8.805586814880371
697,42200.0,3.3308091163635254,2.6608188152313232,-8.805586814880371
698,42300.0,3.3308091163635254,2.6608188152313232,-8.805586814880371
699,42400.0,2.857030153274536,2.8546373844146733,-8.520841598510742
700,42500.0,2.857030153274536,2.8546373844146733,-8.520841598510742
701,42600.0,3.5509488582611084,2.622533798217773,-9.059226989746094
702,42700.0,3.5509488582611084,2.622533798217773,-9.059226989746094
703,42800.0,2.909672498703003,2.5292134284973145,-8.188239097595215
704,42900.0,2.909672498703003,2.5292134284973145,-8.188239097595215
705,43000.0,3.16331148147583,2.89052963256836,-8.786444664001465
706,43100.0,3.16331148147583,2.89052963256836,-8.786444664001465
707,43200.0,3.2446675300598145,2.7421746253967285,-8.405985832214355
708,43300.0,3.2446675300598145,2.7421746253967285,-8.405985832214355
709,43400.0,3.2446675300598145,2.7421746253967285,-8.405985832214355
710,43500.0,2.9527432918548584,2.8929224014282227,-8.810372352600098
711,43600.0,2.9527432918548584,2.8929224014282227,-8.810372352600098
712,43700.0,3.13938307762146,2.857030153274536,-8.685946464538574
713,43800.0,3.13938307762146,2.857030153274536,-8.685946464538574
714,43900.0,3.13938307762146,2.857030153274536,-8.685946464538574
715,44000.0,2.9766712188720703,2.7948169708251958,-8.73619556427002
716,44100.0,2.9766712188720703,2.7948169708251958,-8.73619556427002
717,44200.0,2.9288151264190674,2.9479575157165527,-8.748159408569336
718,44300.0,2.9288151264190674,2.9479575157165527,-8.748159408569336
719,44400.0,3.0436704158782963,3.060420036315918,-8.685946464538574
720,43000.0,3.16331148147583,2.89052963256836,-8.786444664001465
721,43100.0,3.16331148147583,2.89052963256836,-8.786444664001465
722,43200.0,3.2446675300598145,2.7421746253967285,-8.405985832214355
723,43300.0,3.2446675300598145,2.7421746253967285,-8.405985832214355
724,43400.0,3.2446675300598145,2.7421746253967285,-8.405985832214355
725,43500.0,2.9527432918548584,2.8929224014282227,-8.810372352600098
726,43600.0,2.9527432918548584,2.8929224014282227,-8.810372352600098
727,43700.0,3.13938307762146,2.857030153274536,-8.685946464538574
728,43800.0,3.13938307762146,2.857030153274536,-8.685946464538574
729,43900.0,3.13938307762146,2.857030153274536,-8.685946464538574
730,44000.0,2.9766712188720703,2.7948169708251958,-8.73619556427002
731,44100.0,2.9766712188720703,2.7948169708251958,-8.73619556427002
732,44200.0,2.9288151264190674,2.9479575157165527,-8.748159408569336
733,44300.0,2.9288151264190674,2.9479575157165527,-8.748159408569336
734,44400.0,3.0436704158782963,3.060420036315918,-8.685946464538574
735,44500.0,3.0436704158782963,3.060420036315918,-8.685946464538574
736,44600.0,3.0436704158782963,3.060420036315918,-8.685946464538574
737,44700.0,3.0388848781585693,2.9048867225646973,-8.812766075134277
738,44800.0,3.0388848781585693,2.9048867225646973,-8.812766075134277
739,44900.0,2.9718859195709233,2.8929224014282227,-8.733802795410156
740,45000.0,2.9718859195709233,2.8929224014282227,-8.733802795410156
741,45100.0,2.9718859195709233,2.8929224014282227,-8.733802795410156
742,45200.0,2.957528829574585,2.959921598434448,-8.748159408569336
743,45300.0,2.957528829574585,2.959921598434448,-8.748159408569336
744,45400.0,2.9479575157165527,2.9862425327301025,-8.769694328308105
745,45500.0,2.9479575157165527,2.9862425327301025,-8.769694328308105
746,45600.0,2.9718859195709233,2.9479575157165527,-8.762516975402832
747,45700.0,2.9718859195709233,2.9479575157165527,-8.762516975402832
748,45800.0,2.9718859195709233,2.9479575157165527,-8.762516975402832
749,45900.0,2.9623143672943115,2.8737800121307373,-8.731410026550293
750,44500.0,3.0436704158782963,3.060420036315918,-8.685946464538574
751,44600.0,3.0436704158782963,3.060420036315918,-8.685946464538574
752,44700.0,3.0388848781585693,2.9048867225646973,-8.812766075134277
753,44800.0,3.0388848781585693,2.9048867225646973,-8.812766075134277
754,44900.0,2.9718859195709233,2.8929224014282227,-8.733802795410156
755,45000.0,2.9718859195709233,2.8929224014282227,-8.733802795410156
756,45100.0,2.9718859195709233,2.8929224014282227,-8.733802795410156
757,45200.0,2.957528829574585,2.959921598434448,-8.748159408569336
758,45300.0,2.957528829574585,2.959921598434448,-8.748159408569336
759,45400.0,2.9479575157165527,2.9862425327301025,-8.769694328308105
760,45500.0,2.9479575157165527,2.9862425327301025,-8.769694328308105
761,45600.0,2.9718859195709233,2.9479575157165527,-8.762516975402832
762,45700.0,2.9718859195709233,2.9479575157165527,-8.762516975402832
763,45800.0,2.9718859195709233,2.9479575157165527,-8.762516975402832
764,45900.0,2.9623143672943115,2.8737800121307373,-8.731410026550293
765,46000.0,2.9623143672943115,2.8737800121307373,-8.731410026550293
766,46100.0,2.9479575157165527,2.8522443771362305,-8.748159408569336
767,46200.0,2.9479575157165527,2.8522443771362305,-8.748159408569336
768,46300.0,2.9479575157165527,2.8522443771362305,-8.748159408569336
769,46400.0,3.0149567127227783,2.9240293502807617,-8.764908790588379
770,46500.0,3.0149567127227783,2.9240293502807617,-8.764908790588379
771,46600.0,2.9048867225646973,2.995814085006714,-8.721837997436522
772,46700.0,2.9048867225646973,2.995814085006714,-8.721837997436522
773,46800.0,2.943171739578247,2.857030153274536,-8.717053413391112
774,46900.0,2.943171739578247,2.857030153274536,-8.717053413391112
775,47000.0,2.943171739578247,2.857030153274536,-8.717053413391112
776,47100.0,2.9527432918548584,2.9527432918548584,-8.71466064453125
777,47200.0,2.9527432918548584,2.9527432918548584,-8.71466064453125
778,47300.0,2.900100946426392,2.964707374572754,-8.767301559448242
779,47400.0,2.900100946426392,2.964707374572754,-8.767301559448242
780,46000.0,2.9623143672943115,2.8737800121307373,-8.731410026550293
781,46100.0,2.9479575157165527,2.8522443771362305,-8.748159408569336
782,46200.0,2.9479575157165527,2.8522443771362305,-8.748159408569336
783,46300.0,2.9479575157165527,2.8522443771362305,-8.748159408569336
784,46400.0,3.0149567127227783,2.9240293502807617,-8.764908790588379
785,46500.0,3.0149567127227783,2.9240293502807617,-8.764908790588379
786,46600.0,2.9048867225646973,2.995814085006714,-8.721837997436522
787,46700.0,2.9048867225646973,2.995814085006714,-8.721837997436522
788,46800.0,2.943171739578247,2.857030153274536,-8.717053413391112
789,46900.0,2.943171739578247,2.857030153274536,-8.717053413391112
790,47000.0,2.943171739578247,2.857030153274536,-8.717053413391112
791,47100.0,2.9527432918548584,2.9527432918548584,-8.71466064453125
792,47200.0,2.9527432918548584,2.9527432918548584,-8.71466064453125
793,47300.0,2.900100946426392,2.964707374572754,-8.767301559448242
794,47400.0,2.900100946426392,2.964707374572754,-8.767301559448242
795,47500.0,2.900100946426392,2.964707374572754,-8.767301559448242
796,47600.0,2.957528829574585,3.0245277881622314,-8.762516975402832
797,47700.0,2.957528829574585,3.0245277881622314,-8.762516975402832
798,47800.0,2.9527432918548584,2.931207656860352,-8.743373870849611
799,47900.0,2.9527432918548584,2.931207656860352,-8.743373870849611
800,48000.0,2.914458036422729,2.9671001434326167,-8.731410026550293
801,48100.0,2.914458036422729,2.9671001434326167,-8.731410026550293
802,48200.0,2.914458036422729,2.9671001434326167,-8.731410026550293
803,48300.0,2.943171739578247,2.902493953704834,-8.71226692199707
804,48400.0,2.943171739578247,2.902493953704834,-8.71226692199707
805,48500.0,2.8761727809906006,3.072384119033813,-8.707481384277344
806,48600.0,2.8761727809906006,3.072384119033813,-8.707481384277344
807,48700.0,2.8761727809906006,3.072384119033813,-8.707481384277344
808,48800.0,2.9288151264190674,3.086741209030152,-8.738588333129883
809,48900.0,2.9288151264190674,3.086741209030152,-8.738588333129883
810,47500.0,2.900100946426392,2.964707374572754,-8.767301559448242
811,47600.0,2.957528829574585,3.0245277881622314,-8.762516975402832
812,47700.0,2.957528829574585,3.0245277881622314,-8.762516975402832
813,47800.0,2.9527432918548584,2.931207656860352,-8.743373870849611
814,47900.0,2.9527432918548584,2.931207656860352,-8.743373870849611
815,48000.0,2.914458036422729,2.9671001434326167,-8.731410026550293
816,48100.0,2.914458036422729,2.9671001434326167,-8.731410026550293
817,48200.0,2.914458036422729,2.9671001434326167,-8.731410026550293
818,48300.0,2.943171739578247,2.902493953704834,-8.71226692199707
819,48400.0,2.943171739578247,2.902493953704834,-8.71226692199707
820,48500.0,2.8761727809906006,3.072384119033813,-8.707481384277344
821,48600.0,2.8761727809906006,3.072384119033813,-8.707481384277344
822,48700.0,2.8761727809906006,3.072384119033813,-8.707481384277344
823,48800.0,2.9288151264190674,3.086741209030152,-8.738588333129883
824,48900.0,2.9288151264190674,3.086741209030152,-8.738588333129883
825,49000.0,2.9240293502807617,3.13220477104187,-8.757731437683105
826,49100.0,2.9240293502807617,3.13220477104187,-8.757731437683105
827,49200.0,2.8953151702880864,3.084348201751709,-8.717053413391112
828,49300.0,2.8953151702880864,3.084348201751709,-8.717053413391112
829,49400.0,2.8953151702880864,3.084348201751709,-8.717053413391112
830,49500.0,2.909672498703003,3.13220477104187,-8.772088050842285
831,49600.0,2.909672498703003,3.13220477104187,-8.772088050842285
832,49700.0,2.957528829574585,3.2159535884857178,-8.563912391662598
833,49800.0,2.957528829574585,3.2159535884857178,-8.563912391662598
834,49900.0,2.957528829574585,3.2159535884857178,-8.563912391662598
835,50000.0,2.957528829574585,2.9551358222961426,-8.709875106811522
836,50100.0,2.957528829574585,2.9551358222961426,-8.709875106811522
837,50200.0,2.9048867225646973,3.0197420120239262,-8.688338279724121
838,50300.0,2.9048867225646973,3.0197420120239262,-8.688338279724121
839,50400.0,2.9383859634399414,2.9671001434326167,-8.776873588562013
840,49000.0,2.9240293502807617,3.13220477104187,-8.757731437683105
841,49100.0,2.9240293502807617,3.13220477104187,-8.757731437683105
842,49200.0,2.8953151702880864,3.084348201751709,-8.717053413391112
843,49300.0,2.8953151702880864,3.084348201751709,-8.717053413391112
844,49400.0,2.8953151702880864,3.084348201751709,-8.717053413391112
845,49500.0,2.909672498703003,3.13220477104187,-8.772088050842285
846,49600.0,2.909672498703003,3.13220477104187,-8.772088050842285
847,49700.0,2.957528829574585,3.2159535884857178,-8.563912391662598
848,49800.0,2.957528829574585,3.2159535884857178,-8.563912391662598
849,49900.0,2.957528829574585,3.2159535884857178,-8.563912391662598
850,50000.0,2.957528829574585,2.9551358222961426,-8.709875106811522
851,50100.0,2.957528829574585,2.9551358222961426,-8.709875106811522
852,50200.0,2.9048867225646973,3.0197420120239262,-8.688338279724121
853,50300.0,2.9048867225646973,3.0197420120239262,-8.688338279724121
854,50400.0,2.9383859634399414,2.9671001434326167,-8.776873588562013
855,50500.0,2.9383859634399414,2.9671001434326167,-8.776873588562013
856,50600.0,2.957528829574585,2.9383859634399414,-8.700303077697754
857,50700.0,2.957528829574585,2.9383859634399414,-8.700303077697754
858,50800.0,2.9862425327301025,2.96949315071106,-8.73619556427002
859,50900.0,2.9862425327301025,2.96949315071106,-8.73619556427002
860,51000.0,2.9862425327301025,2.96949315071106,-8.73619556427002
861,51100.0,2.943171739578247,3.1274189949035645,-8.645268440246582
862,51200.0,2.943171739578247,3.1274189949035645,-8.645268440246582
863,51300.0,2.9048867225646973,3.0747771263122563,-8.721837997436522
864,51400.0,2.9048867225646973,3.0747771263122563,-8.721837997436522
865,51500.0,3.072384119033813,3.0173492431640625,-8.729016304016112
866,51600.0,3.072384119033813,3.0173492431640625,-8.729016304016112
867,51700.0,3.072384119033813,3.0173492431640625,-8.729016304016112
868,51800.0,2.957528829574585,3.103491306304932,-8.697910308837889
869,51900.0,2.957528829574585,3.103491306304932,-8.697910308837889
870,50500.0,2.9383859634399414,2.9671001434326167,-8.776873588562013
871,50600.0,2.957528829574585,2.9383859634399414,-8.700303077697754
872,50700.0,2.957528829574585,2.9383859634399414,-8.700303077697754
873,50800.0,2.9862425327301025,2.96949315071106,-8.73619556427002
874,50900.0,2.9862425327301025,2.96949315071106,-8.73619556427002
875,51000.0,2.9862425327301025,2.96949315071106,-8.73619556427002
876,51100.0,2.943171739578247,3.1274189949035645,-8.645268440246582
877,51200.0,2.943171739578247,3.1274189949035645,-8.645268440246582
878,51300.0,2.9048867225646973,3.0747771263122563,-8.721837997436522
879,51400.0,2.9048867225646973,3.0747771263122563,-8.721837997436522
880,51500.0,3.072384119033813,3.0173492431640625,-8.729016304016112
881,51600.0,3.072384119033813,3.0173492431640625,-8.729016304016112
882,51700.0,3.072384119033813,3.0173492431640625,-8.729016304016112
883,51800.0,2.957528829574585,3.103491306304932,-8.697910308837889
884,51900.0,2.957528829574585,3.103491306304932,-8.697910308837889
885,52000.0,2.943171739578247,3.1178479194641118,-8.697910308837889
886,52100.0,2.943171739578247,3.1178479194641118,-8.697910308837889
887,52200.0,2.9383859634399414,3.086741209030152,-8.752944946289062
888,52300.0,2.9383859634399414,3.086741209030152,-8.752944946289062
889,52400.0,2.9814569950103764,3.084348201751709,-8.669197082519531
890,52500.0,2.9814569950103764,3.084348201751709,-8.669197082519531
891,52600.0,2.919243574142456,3.0005996227264404,-8.673982620239258
892,52700.0,2.919243574142456,3.0005996227264404,-8.673982620239258
893,52800.0,2.919243574142456,3.0005996227264404,-8.673982620239258
894,52900.0,2.9383859634399414,3.510270833969116,-8.664410591125487
895,53000.0,2.9383859634399414,3.510270833969116,-8.664410591125487
896,53100.0,3.0197420120239262,3.1178479194641118,-8.606983184814451
897,53200.0,3.0197420120239262,3.1178479194641118,-8.606983184814451
898,53300.0,3.0388848781585693,3.845265865325928,-8.784051895141603
899,53400.0,3.0388848781585693,3.845265865325928,-8.784051895141603
900,52000.0,2.943171739578247,3.1178479194641118,-8.697910308837889
901,52100.0,2.943171739578247,3.1178479194641118,-8.697910308837889
902,52200.0,2.9383859634399414,3.086741209030152,-8.752944946289062
903,52300.0,2.9383859634399414,3.086741209030152,-8.752944946289062
904,52400.0,2.9814569950103764,3.084348201751709,-8.669197082519531
905,52500.0,2.9814569950103764,3.084348201751709,-8.669197082519531
906,52600.0,2.919243574142456,3.0005996227264404,-8.673982620239258
907,52700.0,2.919243574142456,3.0005996227264404,-8.673982620239258
908,52800.0,2.919243574142456,3.0005996227264404,-8.673982620239258
909,52900.0,2.9383859634399414,3.510270833969116,-8.664410591125487
910,53000.0,2.9383859634399414,3.510270833969116,-8.664410591125487
911,53100.0,3.0197420120239262,3.1178479194641118,-8.606983184814451
912,53200.0,3.0197420120239262,3.1178479194641118,-8.606983184814451
913,53300.0,3.0388848781585693,3.845265865325928,-8.784051895141603
914,53400.0,3.0388848781585693,3.845265865325928,-8.784051895141603
915,53500.0,3.469593048095703,2.8809585571289062,-8.200202941894531
916,53600.0,3.469593048095703,2.8809585571289062,-8.200202941894531
917,53700.0,3.469593048095703,2.8809585571289062,-8.200202941894531
918,53800.0,3.3786656856536865,2.8043880462646484,-8.336593627929688
919,53900.0,3.3786656856536865,2.8043880462646484,-8.336593627929688
920,54000.0,3.263810157775879,3.28773832321167,-8.642874717712402
921,54100.0,3.263810157775879,3.28773832321167,-8.642874717712402
922,54200.0,3.5605196952819824,2.7900311946868896,-8.446663856506348
923,54300.0,3.5605196952819824,2.7900311946868896,-8.446663856506348
924,54400.0,3.541377305984497,2.6943180561065674,-8.60219669342041
925,54500.0,3.541377305984497,2.6943180561065674,-8.60219669342041
926,54600.0,3.541377305984497,2.6943180561065674,-8.60219669342041
927,54700.0,3.684947013854981,2.885744333267212,-8.461020469665527
928,54800.0,3.684947013854981,2.885744333267212,-8.461020469665527
929,54900.0,3.2973096370697017,3.115455150604248,-8.425127983093263
930,53500.0,3.469593048095703,2.8809585571289062,-8.200202941894531
931,53600.0,3.469593048095703,2.8809585571289062,-8.200202941894531
932,53700.0,3.469593048095703,2.8809585571289062,-8.200202941894531
933,53800.0,3.3786656856536865,2.8043880462646484,-8.336593627929688
934,53900.0,3.3786656856536865,2.8043880462646484,-8.336593627929688
935,54000.0,3.263810157775879,3.28773832321167,-8.642874717712402
936,54100.0,3.263810157775879,3.28773832321167,-8.642874717712402
937,54200.0,3.5605196952819824,2.7900311946868896,-8.446663856506348
938,54300.0,3.5605196952819824,2.7900311946868896,-8.446663856506348
939,54400.0,3.541377305984497,2.6943180561065674,-8.60219669342041
940,54500.0,3.541377305984497,2.6943180561065674,-8.60219669342041
941,54600.0,3.541377305984497,2.6943180561065674,-8.60219669342041
942,54700.0,3.684947013854981,2.885744333267212,-8.461020469665527
943,54800.0,3.684947013854981,2.885744333267212,-8.461020469665527
944,54900.0,3.2973096370697017,3.115455150604248,-8.425127983093263
945,55000.0,3.2973096370697017,3.115455150604248,-8.425127983093263
946,55100.0,3.2973096370697017,3.115455150604248,-8.425127983093263
947,55200.0,3.4121649265289307,3.2781667709350586,-8.413164138793945
948,55300.0,3.4121649265289307,3.2781667709350586,-8.413164138793945
949,55400.0,3.479164123535156,3.129812002182007,-8.427520751953125
950,55500.0,3.479164123535156,3.129812002182007,-8.427520751953125
951,55600.0,3.2973096370697017,3.2973096370697017,-8.537590980529785
952,55700.0,3.2973096370697017,3.2973096370697017,-8.537590980529785
953,55800.0,3.2973096370697017,3.2973096370697017,-8.537590980529785
954,55900.0,3.445664882659912,3.177668571472168,-8.537590980529785
955,56000.0,3.445664882659912,3.177668571472168,-8.537590980529785
956,56100.0,3.4025940895080566,3.2159535884857178,-8.47298526763916
957,56200.0,3.4025940895080566,3.2159535884857178,-8.47298526763916
958,56300.0,3.1824538707733154,3.13938307762146,-8.575876235961914
959,56400.0,3.1824538707733154,3.13938307762146,-8.575876235961914
960,55000.0,3.2973096370697017,3.115455150604248,-8.425127983093263
961,55100.0,3.2973096370697017,3.115455150604248,-8.425127983093263
962,55200.0,3.4121649265289307,3.2781667709350586,-8.413164138793945
963,55300.0,3.4121649265289307,3.2781667709350586,-8.413164138793945
964,55400.0,3.479164123535156,3.129812002182007,-8.427520751953125
965,55500.0,3.479164123535156,3.129812002182007,-8.427520751953125
966,55600.0,3.2973096370697017,3.2973096370697017,-8.537590980529785
967,55700.0,3.2973096370697017,3.2973096370697017,-8.537590980529785
968,55800.0,3.2973096370697017,3.2973096370697017,-8.537590980529785
969,55900.0,3.445664882659912,3.177668571472168,-8.537590980529785
970,56000.0,3.445664882659912,3.177668571472168,-8.537590980529785
971,56100.0,3.4025940895080566,3.2159535884857178,-8.47298526763916
972,56200.0,3.4025940895080566,3.2159535884857178,-8.47298526763916
973,56300.0,3.1824538707733154,3.13938307762146,-8.575876235961914
974,56400.0,3.1824538707733154,3.13938307762146,-8.575876235961914
975,56500.0,3.1824538707733154,3.13938307762146,-8.575876235961914
976,56600.0,3.431307554244995,3.089133977890014,-8.360522270202638
977,56700.0,3.431307554244995,3.089133977890014,-8.360522270202638
978,56800.0,3.1489543914794917,3.4241292476654053,-8.556733131408691
979,56900.0,3.1489543914794917,3.4241292476654053,-8.556733131408691
980,57000.0,3.1489543914794917,3.4241292476654053,-8.556733131408691
981,57100.0,3.273381233215332,3.38823676109314,-8.398807525634767
982,57200.0,3.273381233215332,3.38823676109314,-8.398807525634767
983,57300.0,3.206382274627685,3.31884503364563,-8.415557861328125
984,57400.0,3.206382274627685,3.31884503364563,-8.415557861328125
985,57500.0,3.0771698951721187,3.464807271957397,-8.590232849121094
986,57600.0,3.0771698951721187,3.464807271957397,-8.590232849121094
987,57700.0,3.0771698951721187,3.464807271957397,-8.590232849121094
988,57800.0,3.273381233215332,3.13220477104187,-8.525627136230469
989,57900.0,3.273381233215332,3.13220477104187,-8.525627136230469
990,56500.0,3.1824538707733154,3.13938307762146,-8.575876235961914
991,56600.0,3.431307554244995,3.089133977890014,-8.360522270202638
992,56700.0,3.431307554244995,3.089133977890014,-8.360522270202638
993,56800.0,3.1489543914794917,3.4241292476654053,-8.556733131408691
994,56900.0,3.1489543914794917,3.4241292476654053,-8.556733131408691
995,57000.0,3.1489543914794917,3.4241292476654053,-8.556733131408691
996,57100.0,3.273381233215332,3.38823676109314,-8.398807525634767
997,57200.0,3.273381233215332,3.38823676109314,-8.398807525634767
998,57300.0,3.206382274627685,3.31884503364563,-8.415557861328125
999,57400.0,3.206382274627685,3.31884503364563,-8.415557861328125
1000,57500.0,3.0771698951721187,3.464807271957397,-8.590232849121094
1001,57600.0,3.0771698951721187,3.464807271957397,-8.590232849121094
1002,57700.0,3.0771698951721187,3.464807271957397,-8.590232849121094
1003,57800.0,3.273381233215332,3.13220477104187,-8.525627136230469
1004,57900.0,3.273381233215332,3.13220477104187,-8.525627136230469
1005,58000.0,3.3451659679412837,3.115455150604248,-8.382057189941406
1006,58100.0,3.3451659679412837,3.115455150604248,-8.382057189941406
1007,58200.0,3.187239646911621,3.438485860824585,-8.551947593688965
1008,58300.0,3.187239646911621,3.438485860824585,-8.551947593688965
1009,58400.0,3.187239646911621,3.438485860824585,-8.551947593688965
1010,58500.0,3.1250264644622803,3.273381233215332,-8.446663856506348
1011,58600.0,3.1250264644622803,3.273381233215332,-8.446663856506348
1012,58700.0,3.3643085956573486,3.383451223373413,-8.525627136230469
1013,58800.0,3.3643085956573486,3.383451223373413,-8.525627136230469
1014,58900.0,3.3403804302215576,3.479164123535156,-8.508876800537111
1015,59000.0,3.3403804302215576,3.479164123535156,-8.508876800537111
1016,59100.0,3.187239646911621,3.5461630821228027,-8.60459041595459
1017,59200.0,3.187239646911621,3.5461630821228027,-8.60459041595459
1018,59300.0,3.187239646911621,3.5461630821228027,-8.60459041595459
1019,59400.0,3.249453067779541,3.3619158267974854,-8.547162055969237
1020,58000.0,3.3451659679412837,3.115455150604248,-8.382057189941406
1021,58100.0,3.3451659679412837,3.115455150604248,-8.382057189941406
1022,58200.0,3.187239646911621,3.438485860824585,-8.551947593688965
1023,58300.0,3.187239646911621,3.438485860824585,-8.551947593688965
1024,58400.0,3.187239646911621,3.438485860824585,-8.551947593688965
1025,58500.0,3.1250264644622803,3.273381233215332,-8.446663856506348
1026,58600.0,3.1250264644622803,3.273381233215332,-8.446663856506348
1027,58700.0,3.3643085956573486,3.383451223373413,-8.525627136230469
1028,58800.0,3.3643085956573486,3.383451223373413,-8.525627136230469
1029,58900.0,3.3403804302215576,3.479164123535156,-8.508876800537111
1030,59000.0,3.3403804302215576,3.479164123535156,-8.508876800537111
1031,59100.0,3.187239646911621,3.5461630821228027,-8.60459041595459
1032,59200.0,3.187239646911621,3.5461630821228027,-8.60459041595459
1033,59300.0,3.187239646911621,3.5461630821228027,-8.60459041595459
1034,59400.0,3.249453067779541,3.3619158267974854,-8.547162055969237
1035,59500.0,3.249453067779541,3.3619158267974854,-8.547162055969237
1036,59600.0,3.062812805175781,3.548555850982666,-8.566305160522461
1037,59700.0,3.062812805175781,3.548555850982666,-8.566305160522461
1038,59800.0,3.086741209030152,3.3475589752197266,-8.475377082824707
1039,59900.0,3.086741209030152,3.3475589752197266,-8.475377082824707
1040,60000.0,3.086741209030152,3.3475589752197266,-8.475377082824707
1041,60100.0,3.192025184631348,3.4528429508209233,-8.58305549621582
1042,60200.0,3.192025184631348,3.4528429508209233,-8.58305549621582
1043,60300.0,3.2255251407623287,3.4193434715271,-8.45862865447998
1044,60400.0,3.2255251407623287,3.4193434715271,-8.45862865447998
1045,60500.0,3.2255251407623287,3.4193434715271,-8.45862865447998
1046,60600.0,3.239881753921509,3.3643085956573486,-8.571090698242188
1047,60700.0,3.239881753921509,3.3643085956573486,-8.571090698242188
1048,60800.0,3.249453067779541,3.268595933914185,-8.542377471923826
1049,60900.0,3.249453067779541,3.268595933914185,-8.542377471923826
1050,59500.0,3.249453067779541,3.3619158267974854,-8.547162055969237
1051,59600.0,3.062812805175781,3.548555850982666,-8.566305160522461
1052,59700.0,3.062812805175781,3.548555850982666,-8.566305160522461
1053,59800.0,3.086741209030152,3.3475589752197266,-8.475377082824707
1054,59900.0,3.086741209030152,3.3475589752197266,-8.475377082824707
1055,60000.0,3.086741209030152,3.3475589752197266,-8.475377082824707
1056,60100.0,3.192025184631348,3.4528429508209233,-8.58305549621582
1057,60200.0,3.192025184631348,3.4528429508209233,-8.58305549621582
1058,60300.0,3.2255251407623287,3.4193434715271,-8.45862865447998
1059,60400.0,3.2255251407623287,3.4193434715271,-8.45862865447998
1060,60500.0,3.2255251407623287,3.4193434715271,-8.45862865447998
1061,60600.0,3.239881753921509,3.3643085956573486,-8.571090698242188
1062,60700.0,3.239881753921509,3.3643085956573486,-8.571090698242188
1063,60800.0,3.249453067779541,3.268595933914185,-8.542377471923826
1064,60900.0,3.249453067779541,3.268595933914185,-8.542377471923826
1065,61000.0,3.206382274627685,3.290131092071533,-8.666803359985353
1066,61100.0,3.206382274627685,3.290131092071533,-8.666803359985353
1067,61200.0,3.206382274627685,3.290131092071533,-8.666803359985353
1068,61300.0,3.211168050765991,3.3451659679412837,-8.559126853942871
1069,61400.0,3.211168050765991,3.3451659679412837,-8.559126853942871
1070,61500.0,3.259024381637573,3.290131092071533,-8.484949111938478
1071,61600.0,3.259024381637573,3.290131092071533,-8.484949111938478
1072,61700.0,3.259024381637573,3.290131092071533,-8.484949111938478
1073,61800.0,3.3212375640869136,3.268595933914185,-8.537590980529785
1074,61900.0,3.3212375640869136,3.268595933914185,-8.537590980529785
1075,62000.0,3.239881753921509,3.369094133377075,-8.489734649658201
1076,62100.0,3.239881753921509,3.369094133377075,-8.489734649658201
1077,62200.0,3.2207393646240234,3.3978083133697514,-8.551947593688965
1078,62300.0,3.2207393646240234,3.3978083133697514,-8.551947593688965
1079,62400.0,3.2207393646240234,3.3978083133697514,-8.551947593688965
1080,61000.0,3.206382274627685,3.290131092071533,-8.666803359985353
1081,61100.0,3.206382274627685,3.290131092071533,-8.666803359985353
1082,61200.0,3.206382274627685,3.290131092071533,-8.666803359985353
1083,61300.0,3.211168050765991,3.3451659679412837,-8.559126853942871
1084,61400.0,3.211168050765991,3.3451659679412837,-8.559126853942871
1085,61500.0,3.259024381637573,3.290131092071533,-8.484949111938478
1086,61600.0,3.259024381637573,3.290131092071533,-8.484949111938478
1087,61700.0,3.259024381637573,3.290131092071533,-8.484949111938478
1088,61800.0,3.3212375640869136,3.268595933914185,-8.537590980529785
1089,61900.0,3.3212375640869136,3.268595933914185,-8.537590980529785
1090,62000.0,3.239881753921509,3.369094133377075,-8.489734649658201
1091,62100.0,3.239881753921509,3.369094133377075,-8.489734649658201
1092,62200.0,3.2207393646240234,3.3978083133697514,-8.551947593688965
1093,62300.0,3.2207393646240234,3.3978083133697514,-8.551947593688965
1094,62400.0,3.2207393646240234,3.3978083133697514,-8.551947593688965
1095,62500.0,3.206382274627685,3.4408791065216064,-8.528019905090332
1096,62600.0,3.206382274627685,3.4408791065216064,-8.528019905090332
1097,62700.0,3.1824538707733154,3.4073793888092037,-8.48734188079834
1098,62800.0,3.1824538707733154,3.4073793888092037,-8.48734188079834
1099,62900.0,3.1250264644622803,3.366701364517212,-8.484949111938478
1100,63000.0,3.1250264644622803,3.366701364517212,-8.484949111938478
1101,63100.0,3.187239646911621,3.431307554244995,-8.47059154510498
1102,63200.0,3.187239646911621,3.431307554244995,-8.47059154510498
1103,63300.0,3.187239646911621,3.431307554244995,-8.47059154510498
1104,63400.0,3.2207393646240234,3.3858442306518555,-8.544770240783691
1105,63500.0,3.2207393646240234,3.3858442306518555,-8.544770240783691
1106,63600.0,3.259024381637573,3.438485860824585,-8.48734188079834
1107,63700.0,3.259024381637573,3.438485860824585,-8.48734188079834
1108,63800.0,3.1824538707733154,3.32602334022522,-8.532805442810059
1109,63900.0,3.1824538707733154,3.32602334022522,-8.532805442810059
1110,62500.0,3.206382274627685,3.4408791065216064,-8.528019905090332
1111,62600.0,3.206382274627685,3.4408791065216064,-8.528019905090332
1112,62700.0,3.1824538707733154,3.4073793888092037,-8.48734188079834
1113,62800.0,3.1824538707733154,3.4073793888092037,-8.48734188079834
1114,62900.0,3.1250264644622803,3.366701364517212,-8.484949111938478
1115,63000.0,3.1250264644622803,3.366701364517212,-8.484949111938478
1116,63100.0,3.187239646911621,3.431307554244995,-8.47059154510498
1117,63200.0,3.187239646911621,3.431307554244995,-8.47059154510498
1118,63300.0,3.187239646911621,3.431307554244995,-8.47059154510498
1119,63400.0,3.2207393646240234,3.3858442306518555,-8.544770240783691
1120,63500.0,3.2207393646240234,3.3858442306518555,-8.544770240783691
1121,63600.0,3.259024381637573,3.438485860824585,-8.48734188079834
1122,63700.0,3.259024381637573,3.438485860824585,-8.48734188079834
1123,63800.0,3.1824538707733154,3.32602334022522,-8.532805442810059
1124,63900.0,3.1824538707733154,3.32602334022522,-8.532805442810059
1125,64000.0,3.1824538707733154,3.32602334022522,-8.532805442810059
1126,64100.0,3.292524099349976,3.2805597782135014,-8.559126853942871
1127,64200.0,3.292524099349976,3.2805597782135014,-8.559126853942871
1128,64300.0,3.239881753921509,3.2973096370697017,-8.523234367370605
1129,64400.0,3.239881753921509,3.2973096370697017,-8.523234367370605
1130,64500.0,3.201596736907959,3.2781667709350586,-8.614161491394043
1131,64600.0,3.201596736907959,3.2781667709350586,-8.614161491394043
1132,64700.0,3.249453067779541,3.141776323318481,-8.549554824829103
1133,64800.0,3.249453067779541,3.141776323318481,-8.549554824829103
1134,64900.0,3.268595933914185,3.2039895057678223,-8.49452018737793
1135,65000.0,3.268595933914185,3.2039895057678223,-8.49452018737793
1136,65100.0,3.2829525470733643,3.3762726783752437,-8.437092781066895
1137,65200.0,3.2829525470733643,3.3762726783752437,-8.437092781066895
1138,65300.0,3.2829525470733643,3.3762726783752437,-8.437092781066895
1139,65400.0,3.3068809509277344,3.369094133377075,-8.449056625366211
1140,64000.0,3.1824538707733154,3.32602334022522,-8.532805442810059
1141,64100.0,3.292524099349976,3.2805597782135014,-8.559126853942871
1142,64200.0,3.292524099349976,3.2805597782135014,-8.559126853942871
1143,64300.0,3.239881753921509,3.2973096370697017,-8.523234367370605
1144,64400.0,3.239881753921509,3.2973096370697017,-8.523234367370605
1145,64500.0,3.201596736907959,3.2781667709350586,-8.614161491394043
1146,64600.0,3.201596736907959,3.2781667709350586,-8.614161491394043
1147,64700.0,3.249453067779541,3.141776323318481,-8.549554824829103
1148,64800.0,3.249453067779541,3.141776323318481,-8.549554824829103
1149,64900.0,3.268595933914185,3.2039895057678223,-8.49452018737793
1150,65000.0,3.268595933914185,3.2039895057678223,-8.49452018737793
1151,65100.0,3.2829525470733643,3.3762726783752437,-8.437092781066895
1152,65200.0,3.2829525470733643,3.3762726783752437,-8.437092781066895
1153,65300.0,3.2829525470733643,3.3762726783752437,-8.437092781066895
1154,65400.0,3.3068809509277344,3.369094133377075,-8.449056625366211
1155,65500.0,3.3068809509277344,3.369094133377075,-8.449056625366211
1156,65600.0,3.259024381637573,3.3092737197875977,-8.585447311401367
1157,65700.0,3.259024381637573,3.3092737197875977,-8.585447311401367
1158,65800.0,3.2973096370697017,3.2805597782135014,-8.573483467102049
1159,65900.0,3.2973096370697017,3.2805597782135014,-8.573483467102049
1160,66000.0,3.206382274627685,3.500699520111084,-8.482556343078612
1161,66100.0,3.206382274627685,3.500699520111084,-8.482556343078612
1162,66200.0,3.206382274627685,3.500699520111084,-8.482556343078612
1163,66300.0,3.2207393646240234,3.32602334022522,-8.518448829650879
1164,66400.0,3.2207393646240234,3.32602334022522,-8.518448829650879
1165,66500.0,3.263810157775879,3.38105845451355,-8.496913909912111
1166,66600.0,3.263810157775879,3.38105845451355,-8.496913909912111
1167,66700.0,3.211168050765991,3.4121649265289307,-8.657232284545897
1168,66800.0,3.211168050765991,3.4121649265289307,-8.657232284545897
1169,66900.0,3.211168050765991,3.4121649265289307,-8.657232284545897
1170,65500.0,3.3068809509277344,3.369094133377075,-8.449056625366211
1171,65600.0,3.259024381637573,3.3092737197875977,-8.585447311401367
1172,65700.0,3.259024381637573,3.3092737197875977,-8.585447311401367
1173,65800.0,3.2973096370697017,3.2805597782135014,-8.573483467102049
1174,65900.0,3.2973096370697017,3.2805597782135014,-8.573483467102049
1175,66000.0,3.206382274627685,3.500699520111084,-8.482556343078612
1176,66100.0,3.206382274627685,3.500699520111084,-8.482556343078612
1177,66200.0,3.206382274627685,3.500699520111084,-8.482556343078612
1178,66300.0,3.2207393646240234,3.32602334022522,-8.518448829650879
1179,66400.0,3.2207393646240234,3.32602334022522,-8.518448829650879
1180,66500.0,3.263810157775879,3.38105845451355,-8.496913909912111
1181,66600.0,3.263810157775879,3.38105845451355,-8.496913909912111
1182,66700.0,3.211168050765991,3.4121649265289307,-8.657232284545897
1183,66800.0,3.211168050765991,3.4121649265289307,-8.657232284545897
1184,66900.0,3.211168050765991,3.4121649265289307,-8.657232284545897
1185,67000.0,3.249453067779541,3.4097721576690674,-8.482556343078612
1186,67100.0,3.249453067779541,3.4097721576690674,-8.482556343078612
1187,67200.0,3.211168050765991,3.2973096370697017,-8.537590980529785
1188,67300.0,3.211168050765991,3.2973096370697017,-8.537590980529785
1189,67400.0,3.211168050765991,3.2973096370697017,-8.537590980529785
1190,67500.0,3.230310440063477,3.3164520263671875,-8.451449394226074
1191,67600.0,3.230310440063477,3.3164520263671875,-8.451449394226074
1192,67700.0,3.211168050765991,3.38105845451355,-8.451449394226074
1193,67800.0,3.211168050765991,3.38105845451355,-8.451449394226074
1194,67900.0,3.273381233215332,3.421736478805542,-8.638089179992676
1195,68000.0,3.273381233215332,3.421736478805542,-8.638089179992676
1196,68100.0,3.1585259437561035,3.3020951747894287,-8.506484031677246
1197,68200.0,3.1585259437561035,3.3020951747894287,-8.506484031677246
1198,68300.0,3.1585259437561035,3.3020951747894287,-8.506484031677246
1199,68400.0,3.2207393646240234,3.32602334022522,-8.559126853942871
1200,67000.0,3.249453067779541,3.4097721576690674,-8.482556343078612
1201,67100.0,3.249453067779541,3.4097721576690674,-8.482556343078612
1202,67200.0,3.211168050765991,3.2973096370697017,-8.537590980529785
1203,67300.0,3.211168050765991,3.2973096370697017,-8.537590980529785
1204,67400.0,3.211168050765991,3.2973096370697017,-8.537590980529785
1205,67500.0,3.230310440063477,3.3164520263671875,-8.451449394226074
1206,67600.0,3.230310440063477,3.3164520263671875,-8.451449394226074
1207,67700.0,3.211168050765991,3.38105845451355,-8.451449394226074
1208,67800.0,3.211168050765991,3.38105845451355,-8.451449394226074
1209,67900.0,3.273381233215332,3.421736478805542,-8.638089179992676
1210,68000.0,3.273381233215332,3.421736478805542,-8.638089179992676
1211,68100.0,3.1585259437561035,3.3020951747894287,-8.506484031677246
1212,68200.0,3.1585259437561035,3.3020951747894287,-8.506484031677246
1213,68300.0,3.1585259437561035,3.3020951747894287,-8.506484031677246
1214,68400.0,3.2207393646240234,3.32602334022522,-8.559126853942871
1215,68500.0,3.2207393646240234,3.32602334022522,-8.559126853942871
1216,68600.0,3.062812805175781,3.395415067672729,-8.542377471923826
1217,68700.0,3.062812805175781,3.395415067672729,-8.542377471923826
1218,68800.0,3.16331148147583,3.38823676109314,-8.49452018737793
1219,68900.0,3.16331148147583,3.38823676109314,-8.49452018737793
1220,69000.0,3.1058835983276367,3.3858442306518555,-8.590232849121094
1221,69100.0,3.1058835983276367,3.3858442306518555,-8.590232849121094
1222,69200.0,3.1058835983276367,3.3858442306518555,-8.590232849121094
1223,69300.0,3.1202406883239746,3.290131092071533,-8.544770240783691
1224,69400.0,3.1202406883239746,3.290131092071533,-8.544770240783691
1225,69500.0,2.847458839416504,3.208775281906128,-8.638089179992676
1226,69600.0,2.847458839416504,3.208775281906128,-8.638089179992676
1227,69700.0,2.847458839416504,3.208775281906128,-8.638089179992676
1228,69800.0,3.1058835983276367,3.3786656856536865,-8.61176872253418
1229,69900.0,3.1058835983276367,3.3786656856536865,-8.61176872253418
1230,68500.0,3.2207393646240234,3.32602334022522,-8.559126853942871
1231,68600.0,3.062812805175781,3.395415067672729,-8.542377471923826
1232,68700.0,3.062812805175781,3.395415067672729,-8.542377471923826
1233,68800.0,3.16331148147583,3.38823676109314,-8.49452018737793
1234,68900.0,3.16331148147583,3.38823676109314,-8.49452018737793
1235,69000.0,3.1058835983276367,3.3858442306518555,-8.590232849121094
1236,69100.0,3.1058835983276367,3.3858442306518555,-8.590232849121094
1237,69200.0,3.1058835983276367,3.3858442306518555,-8.590232849121094
1238,69300.0,3.1202406883239746,3.290131092071533,-8.544770240783691
1239,69400.0,3.1202406883239746,3.290131092071533,-8.544770240783691
1240,69500.0,2.847458839416504,3.208775281906128,-8.638089179992676
1241,69600.0,2.847458839416504,3.208775281906128,-8.638089179992676
1242,69700.0,2.847458839416504,3.208775281906128,-8.638089179992676
1243,69800.0,3.1058835983276367,3.3786656856536865,-8.61176872253418
1244,69900.0,3.1058835983276367,3.3786656856536865,-8.61176872253418
1245,70000.0,3.0484561920166016,3.464807271957397,-8.49452018737793
1246,70100.0,3.0484561920166016,3.464807271957397,-8.49452018737793
1247,70200.0,3.1489543914794917,3.5030922889709477,-8.48734188079834
1248,70300.0,3.1489543914794917,3.5030922889709477,-8.48734188079834
1249,70400.0,3.1489543914794917,3.5030922889709477,-8.48734188079834
1250,70500.0,3.235095977783203,3.012563943862915,-8.772088050842285
1251,70600.0,3.235095977783203,3.012563943862915,-8.772088050842285
1252,70700.0,3.201596736907959,3.617947816848755,-8.484949111938478
1253,70800.0,3.201596736907959,3.617947816848755,-8.484949111938478
1254,70900.0,3.058027505874634,3.2973096370697017,-8.58305549621582
1255,71000.0,3.058027505874634,3.2973096370697017,-8.58305549621582
1256,71100.0,3.058027505874634,3.2973096370697017,-8.58305549621582
1257,71200.0,3.029313325881958,3.5700912475585938,-8.38444995880127
1258,71300.0,3.029313325881958,3.5700912475585938,-8.38444995880127
1259,71400.0,3.1537401676177983,3.2039895057678223,-8.60459041595459
1260,70000.0,3.0484561920166016,3.464807271957397,-8.49452018737793
1261,70100.0,3.0484561920166016,3.464807271957397,-8.49452018737793
1262,70200.0,3.1489543914794917,3.5030922889709477,-8.48734188079834
1263,70300.0,3.1489543914794917,3.5030922889709477,-8.48734188079834
1264,70400.0,3.1489543914794917,3.5030922889709477,-8.48734188079834
1265,70500.0,3.235095977783203,3.012563943862915,-8.772088050842285
1266,70600.0,3.235095977783203,3.012563943862915,-8.772088050842285
1267,70700.0,3.201596736907959,3.617947816848755,-8.484949111938478
1268,70800.0,3.201596736907959,3.617947816848755,-8.484949111938478
1269,70900.0,3.058027505874634,3.2973096370697017,-8.58305549621582
1270,71000.0,3.058027505874634,3.2973096370697017,-8.58305549621582
1271,71100.0,3.058027505874634,3.2973096370697017,-8.58305549621582
1272,71200.0,3.029313325881958,3.5700912475585938,-8.38444995880127
1273,71300.0,3.029313325881958,3.5700912475585938,-8.38444995880127
1274,71400.0,3.1537401676177983,3.2039895057678223,-8.60459041595459
1275,71500.0,3.1537401676177983,3.2039895057678223,-8.60459041595459
1276,71600.0,3.081955671310425,3.541377305984497,-8.590232849121094
1277,71700.0,3.081955671310425,3.541377305984497,-8.590232849121094
1278,71800.0,3.177668571472168,3.2207393646240234,-8.456235885620117
1279,71900.0,3.177668571472168,3.2207393646240234,-8.456235885620117
1280,72000.0,3.177668571472168,3.2207393646240234,-8.456235885620117
1281,72100.0,3.1441688537597656,3.156132936477661,-8.47298526763916
1282,72200.0,3.1441688537597656,3.156132936477661,-8.47298526763916
1283,72300.0,3.2255251407623287,3.31166672706604,-8.518448829650879
1284,72400.0,3.2255251407623287,3.31166672706604,-8.518448829650879
1285,72500.0,3.2255251407623287,3.31166672706604,-8.518448829650879
1286,72600.0,3.1585259437561035,3.2805597782135014,-8.504091262817383
1287,72700.0,3.1585259437561035,3.2805597782135014,-8.504091262817383
1288,72800.0,3.1585259437561035,3.4289150238037114,-8.630911827087402
1289,72900.0,3.1585259437561035,3.4289150238037114,-8.630911827087402
1290,71500.0,3.1537401676177983,3.2039895057678223,-8.60459041595459
1291,71600.0,3.081955671310425,3.541377305984497,-8.590232849121094
1292,71700.0,3.081955671310425,3.541377305984497,-8.590232849121094
1293,71800.0,3.177668571472168,3.2207393646240234,-8.456235885620117
1294,71900.0,3.177668571472168,3.2207393646240234,-8.456235885620117
1295,72000.0,3.177668571472168,3.2207393646240234,-8.456235885620117
1296,72100.0,3.1441688537597656,3.156132936477661,-8.47298526763916
1297,72200.0,3.1441688537597656,3.156132936477661,-8.47298526763916
1298,72300.0,3.2255251407623287,3.31166672706604,-8.518448829650879
1299,72400.0,3.2255251407623287,3.31166672706604,-8.518448829650879
1300,72500.0,3.2255251407623287,3.31166672706604,-8.518448829650879
1301,72600.0,3.1585259437561035,3.2805597782135014,-8.504091262817383
1302,72700.0,3.1585259437561035,3.2805597782135014,-8.504091262817383
1303,72800.0,3.1585259437561035,3.4289150238037114,-8.630911827087402
1304,72900.0,3.1585259437561035,3.4289150238037114,-8.630911827087402
1305,73000.0,3.2207393646240234,3.44327163696289,-8.551947593688965
1306,73100.0,3.2207393646240234,3.44327163696289,-8.551947593688965
1307,73200.0,3.2207393646240234,3.44327163696289,-8.551947593688965
1308,73300.0,3.230310440063477,3.431307554244995,-8.516055107116701
1309,73400.0,3.230310440063477,3.431307554244995,-8.516055107116701
1310,73500.0,3.067598581314087,3.464807271957397,-8.60459041595459
1311,73600.0,3.067598581314087,3.464807271957397,-8.60459041595459
1312,73700.0,3.1537401676177983,3.239881753921509,-8.621339797973633
1313,73800.0,3.1537401676177983,3.239881753921509,-8.621339797973633
1314,73900.0,2.89052963256836,3.239881753921509,-8.496913909912111
1315,74000.0,2.89052963256836,3.239881753921509,-8.496913909912111
1316,74100.0,2.89052963256836,3.239881753921509,-8.496913909912111
1317,74200.0,3.0101709365844727,3.830909013748169,-8.461020469665527
1318,74300.0,3.0101709365844727,3.830909013748169,-8.461020469665527
1319,74400.0,2.991028308868408,3.6011981964111333,-8.389235496520996
1320,73000.0,3.2207393646240234,3.44327163696289,-8.551947593688965
1321,73100.0,3.2207393646240234,3.44327163696289,-8.551947593688965
1322,73200.0,3.2207393646240234,3.44327163696289,-8.551947593688965
1323,73300.0,3.230310440063477,3.431307554244995,-8.516055107116701
1324,73400.0,3.230310440063477,3.431307554244995,-8.516055107116701
1325,73500.0,3.067598581314087,3.464807271957397,-8.60459041595459
1326,73600.0,3.067598581314087,3.464807271957397,-8.60459041595459
1327,73700.0,3.1537401676177983,3.239881753921509,-8.621339797973633
1328,73800.0,3.1537401676177983,3.239881753921509,-8.621339797973633
1329,73900.0,2.89052963256836,3.239881753921509,-8.496913909912111
1330,74000.0,2.89052963256836,3.239881753921509,-8.496913909912111
1331,74100.0,2.89052963256836,3.239881753921509,-8.496913909912111
1332,74200.0,3.0101709365844727,3.830909013748169,-8.461020469665527
1333,74300.0,3.0101709365844727,3.830909013748169,-8.461020469665527
1334,74400.0,2.991028308868408,3.6011981964111333,-8.389235496520996
1335,74500.0,2.991028308868408,3.6011981964111333,-8.389235496520996
1336,74600.0,3.029313325881958,3.4672000408172607,-8.441878318786621
1337,74700.0,3.029313325881958,3.4672000408172607,-8.441878318786621
1338,74800.0,3.029313325881958,3.4672000408172607,-8.441878318786621
1339,74900.0,3.129812002182007,3.438485860824585,-8.532805442810059
1340,75000.0,3.129812002182007,3.438485860824585,-8.532805442810059
1341,75100.0,3.0197420120239262,3.589233875274658,-8.535198211669924
1342,75200.0,3.0197420120239262,3.589233875274658,-8.535198211669924
1343,75300.0,3.1250264644622803,3.294916868209839,-8.528019905090332
1344,75400.0,3.1250264644622803,3.294916868209839,-8.528019905090332
1345,75500.0,3.1250264644622803,3.294916868209839,-8.528019905090332
1346,75600.0,3.0005996227264404,3.4169507026672363,-8.535198211669924
1347,75700.0,3.0005996227264404,3.4169507026672363,-8.535198211669924
1348,75800.0,3.1106693744659424,3.483949899673462,-8.492127418518066
1349,75900.0,3.1106693744659424,3.483949899673462,-8.492127418518066
1350,74500.0,2.991028308868408,3.6011981964111333,-8.389235496520996
1351,74600.0,3.029313325881958,3.4672000408172607,-8.441878318786621
1352,74700.0,3.029313325881958,3.4672000408172607,-8.441878318786621
1353,74800.0,3.029313325881958,3.4672000408172607,-8.441878318786621
1354,74900.0,3.129812002182007,3.438485860824585,-8.532805442810059
1355,75000.0,3.129812002182007,3.438485860824585,-8.532805442810059
1356,75100.0,3.0197420120239262,3.589233875274658,-8.535198211669924
1357,75200.0,3.0197420120239262,3.589233875274658,-8.535198211669924
1358,75300.0,3.1250264644622803,3.294916868209839,-8.528019905090332
1359,75400.0,3.1250264644622803,3.294916868209839,-8.528019905090332
1360,75500.0,3.1250264644622803,3.294916868209839,-8.528019905090332
1361,75600.0,3.0005996227264404,3.4169507026672363,-8.535198211669924
1362,75700.0,3.0005996227264404,3.4169507026672363,-8.535198211669924
1363,75800.0,3.1106693744659424,3.483949899673462,-8.492127418518066
1364,75900.0,3.1106693744659424,3.483949899673462,-8.492127418518066
1365,76000.0,3.1106693744659424,3.483949899673462,-8.492127418518066
1366,76100.0,3.067598581314087,3.4169507026672363,-8.518448829650879
1367,76200.0,3.067598581314087,3.4169507026672363,-8.518448829650879
1368,76300.0,3.0245277881622314,3.4815566539764404,-8.513663291931152
1369,76400.0,3.0245277881622314,3.4815566539764404,-8.513663291931152
1370,76500.0,2.900100946426392,3.5700912475585938,-8.444271087646483
1371,76600.0,2.900100946426392,3.5700912475585938,-8.444271087646483
1372,76700.0,2.900100946426392,3.5700912475585938,-8.444271087646483
1373,76800.0,3.067598581314087,3.4576287269592285,-8.506484031677246
1374,76900.0,3.067598581314087,3.4576287269592285,-8.506484031677246
1375,77000.0,3.0149567127227783,3.45045018196106,-8.477770805358888
1376,77100.0,3.0149567127227783,3.45045018196106,-8.477770805358888
1377,77200.0,3.0149567127227783,3.45045018196106,-8.477770805358888
1378,77300.0,2.995814085006714,3.5270204544067383,-8.499305725097656
1379,77400.0,2.995814085006714,3.5270204544067383,-8.499305725097656
1380,76000.0,3.1106693744659424,3.483949899673462,-8.492127418518066
1381,76100.0,3.067598581314087,3.4169507026672363,-8.518448829650879
1382,76200.0,3.067598581314087,3.4169507026672363,-8.518448829650879
1383,76300.0,3.0245277881622314,3.4815566539764404,-8.513663291931152
1384,76400.0,3.0245277881622314,3.4815566539764404,-8.513663291931152
1385,76500.0,2.900100946426392,3.5700912475585938,-8.444271087646483
1386,76600.0,2.900100946426392,3.5700912475585938,-8.444271087646483
1387,76700.0,2.900100946426392,3.5700912475585938,-8.444271087646483
1388,76800.0,3.067598581314087,3.4576287269592285,-8.506484031677246
1389,76900.0,3.067598581314087,3.4576287269592285,-8.506484031677246
1390,77000.0,3.0149567127227783,3.45045018196106,-8.477770805358888
1391,77100.0,3.0149567127227783,3.45045018196106,-8.477770805358888
1392,77200.0,3.0149567127227783,3.45045018196106,-8.477770805358888
1393,77300.0,2.995814085006714,3.5270204544067383,-8.499305725097656
1394,77400.0,2.995814085006714,3.5270204544067383,-8.499305725097656
1395,77500.0,2.9766712188720703,3.6370904445648193,-8.422735214233397
1396,77600.0,2.9766712188720703,3.6370904445648193,-8.422735214233397
1397,77700.0,3.0101709365844727,3.603590488433838,-8.484949111938478
1398,77800.0,3.0101709365844727,3.603590488433838,-8.484949111938478
1399,77900.0,3.0388848781585693,3.5509488582611084,-8.48016357421875
1400,78000.0,3.0388848781585693,3.5509488582611084,-8.48016357421875
1401,78100.0,3.067598581314087,3.366701364517212,-8.702695846557617
1402,78200.0,3.067598581314087,3.366701364517212,-8.702695846557617
1403,78300.0,3.067598581314087,3.366701364517212,-8.702695846557617
1404,78400.0,2.9814569950103764,3.414557933807373,-8.60459041595459
1405,78500.0,2.9814569950103764,3.414557933807373,-8.60459041595459
1406,78600.0,2.9814569950103764,3.5461630821228027,-8.542377471923826
1407,78700.0,2.9814569950103764,3.5461630821228027,-8.542377471923826
1408,78800.0,3.0101709365844727,3.6370904445648193,-8.513663291931152
1409,78900.0,3.0101709365844727,3.6370904445648193,-8.513663291931152
1410,77500.0,2.9766712188720703,3.6370904445648193,-8.422735214233397
1411,77600.0,2.9766712188720703,3.6370904445648193,-8.422735214233397
1412,77700.0,3.0101709365844727,3.603590488433838,-8.484949111938478
1413,77800.0,3.0101709365844727,3.603590488433838,-8.484949111938478
1414,77900.0,3.0388848781585693,3.5509488582611084,-8.48016357421875
1415,78000.0,3.0388848781585693,3.5509488582611084,-8.48016357421875
1416,78100.0,3.067598581314087,3.366701364517212,-8.702695846557617
1417,78200.0,3.067598581314087,3.366701364517212,-8.702695846557617
1418,78300.0,3.067598581314087,3.366701364517212,-8.702695846557617
1419,78400.0,2.9814569950103764,3.414557933807373,-8.60459041595459
1420,78500.0,2.9814569950103764,3.414557933807373,-8.60459041595459
1421,78600.0,2.9814569950103764,3.5461630821228027,-8.542377471923826
1422,78700.0,2.9814569950103764,3.5461630821228027,-8.542377471923826
1423,78800.0,3.0101709365844727,3.6370904445648193,-8.513663291931152
1424,78900.0,3.0101709365844727,3.6370904445648193,-8.513663291931152
1425,79000.0,3.0101709365844727,3.6370904445648193,-8.513663291931152
1426,79100.0,2.991028308868408,3.486342430114746,-8.451449394226074
1427,79200.0,2.991028308868408,3.486342430114746,-8.451449394226074
1428,79300.0,3.034099102020264,3.5365920066833496,-8.465806007385254
1429,79400.0,3.034099102020264,3.5365920066833496,-8.465806007385254
1430,79500.0,3.029313325881958,3.5461630821228027,-8.528019905090332
1431,79600.0,3.029313325881958,3.5461630821228027,-8.528019905090332
1432,79700.0,3.029313325881958,3.5461630821228027,-8.528019905090332
1433,79800.0,3.0005996227264404,3.5126638412475586,-8.549554824829103
1434,79900.0,3.0005996227264404,3.5126638412475586,-8.549554824829103
1435,80000.0,3.0388848781585693,3.479164123535156,-8.520841598510742
1436,80100.0,3.0388848781585693,3.479164123535156,-8.520841598510742
1437,80200.0,3.0436704158782963,3.531806230545044,-8.513663291931152
1438,80300.0,3.0436704158782963,3.531806230545044,-8.513663291931152
1439,80400.0,3.0436704158782963,3.531806230545044,-8.513663291931152
1440,79000.0,3.0101709365844727,3.6370904445648193,-8.513663291931152
1441,79100.0,2.991028308868408,3.486342430114746,-8.451449394226074
1442,79200.0,2.991028308868408,3.486342430114746,-8.451449394226074
1443,79300.0,3.034099102020264,3.5365920066833496,-8.465806007385254
1444,79400.0,3.034099102020264,3.5365920066833496,-8.465806007385254
1445,79500.0,3.029313325881958,3.5461630821228027,-8.528019905090332
1446,79600.0,3.029313325881958,3.5461630821228027,-8.528019905090332
1447,79700.0,3.029313325881958,3.5461630821228027,-8.528019905090332
1448,79800.0,3.0005996227264404,3.5126638412475586,-8.549554824829103
1449,79900.0,3.0005996227264404,3.5126638412475586,-8.549554824829103
1450,80000.0,3.0388848781585693,3.479164123535156,-8.520841598510742
1451,80100.0,3.0388848781585693,3.479164123535156,-8.520841598510742
1452,80200.0,3.0436704158782963,3.531806230545044,-8.513663291931152
1453,80300.0,3.0436704158782963,3.531806230545044,-8.513663291931152
1454,80400.0,3.0436704158782963,3.531806230545044,-8.513663291931152
1455,80500.0,2.995814085006714,3.5461630821228027,-8.492127418518066
1456,80600.0,2.995814085006714,3.5461630821228027,-8.492127418518066
1457,80700.0,2.995814085006714,3.586841106414795,-8.499305725097656
1458,80800.0,2.995814085006714,3.586841106414795,-8.499305725097656
1459,80900.0,3.062812805175781,3.5676987171173096,-8.547162055969237
1460,81000.0,3.062812805175781,3.5676987171173096,-8.547162055969237
1461,81100.0,3.0101709365844727,3.572484016418457,-8.559126853942871
1462,81200.0,3.0101709365844727,3.572484016418457,-8.559126853942871
1463,81300.0,3.0101709365844727,3.572484016418457,-8.559126853942871
1464,81400.0,3.201596736907959,2.9934213161468506,-8.315058708190918
1465,81500.0,3.201596736907959,2.9934213161468506,-8.315058708190918
1466,81600.0,3.053241729736328,3.873979806900024,-8.310273170471191
1467,81700.0,3.053241729736328,3.873979806900024,-8.310273170471191
1468,81800.0,3.053241729736328,3.873979806900024,-8.310273170471191
1469,81900.0,2.9527432918548584,3.328416109085083,-8.664410591125487
1470,80500.0,2.995814085006714,3.5461630821228027,-8.492127418518066
1471,80600.0,2.995814085006714,3.5461630821228027,-8.492127418518066
1472,80700.0,2.995814085006714,3.586841106414795,-8.499305725097656
1473,80800.0,2.995814085006714,3.586841106414795,-8.499305725097656
1474,80900.0,3.062812805175781,3.5676987171173096,-8.547162055969237
1475,81000.0,3.062812805175781,3.5676987171173096,-8.547162055969237
1476,81100.0,3.0101709365844727,3.572484016418457,-8.559126853942871
1477,81200.0,3.0101709365844727,3.572484016418457,-8.559126853942871
1478,81300.0,3.0101709365844727,3.572484016418457,-8.559126853942871
1479,81400.0,3.201596736907959,2.9934213161468506,-8.315058708190918
1480,81500.0,3.201596736907959,2.9934213161468506,-8.315058708190918
1481,81600.0,3.053241729736328,3.873979806900024,-8.310273170471191
1482,81700.0,3.053241729736328,3.873979806900024,-8.310273170471191
1483,81800.0,3.053241729736328,3.873979806900024,-8.310273170471191
1484,81900.0,2.9527432918548584,3.328416109085083,-8.664410591125487
1485,82000.0,2.9527432918548584,3.328416109085083,-8.664410591125487
1486,82100.0,3.1441688537597656,3.3379876613616943,-8.525627136230469
1487,82200.0,3.1441688537597656,3.3379876613616943,-8.525627136230469
1488,82300.0,3.0484561920166016,3.208775281906128,-8.511269569396973
1489,82400.0,3.0484561920166016,3.208775281906128,-8.511269569396973
1490,82500.0,3.1489543914794917,3.2255251407623287,-8.580661773681639
1491,82600.0,3.1489543914794917,3.2255251407623287,-8.580661773681639
1492,82700.0,3.091526985168457,3.2853453159332275,-8.48734188079834
1493,82800.0,3.091526985168457,3.2853453159332275,-8.48734188079834
1494,82900.0,3.091526985168457,3.2853453159332275,-8.48734188079834
1495,83000.0,3.0771698951721187,3.359522819519043,-8.528019905090332
1496,83100.0,3.0771698951721187,3.359522819519043,-8.528019905090332
1497,83200.0,3.1537401676177983,3.38823676109314,-8.504091262817383
1498,83300.0,3.1537401676177983,3.38823676109314,-8.504091262817383
1499,83400.0,3.0771698951721187,3.3332018852233887,-8.616554260253906
1500,82000.0,2.9527432918548584,3.328416109085083,-8.664410591125487
1501,82100.0,3.1441688537597656,3.3379876613616943,-8.525627136230469
1502,82200.0,3.1441688537597656,3.3379876613616943,-8.525627136230469
1503,82300.0,3.0484561920166016,3.208775281906128,-8.511269569396973
1504,82400.0,3.0484561920166016,3.208775281906128,-8.511269569396973
1505,82500.0,3.1489543914794917,3.2255251407623287,-8.580661773681639
1506,82600.0,3.1489543914794917,3.2255251407623287,-8.580661773681639
1507,82700.0,3.091526985168457,3.2853453159332275,-8.48734188079834
1508,82800.0,3.091526985168457,3.2853453159332275,-8.48734188079834
1509,82900.0,3.091526985168457,3.2853453159332275,-8.48734188079834
1510,83000.0,3.0771698951721187,3.359522819519043,-8.528019905090332
1511,83100.0,3.0771698951721187,3.359522819519043,-8.528019905090332
1512,83200.0,3.1537401676177983,3.38823676109314,-8.504091262817383
1513,83300.0,3.1537401676177983,3.38823676109314,-8.504091262817383
1514,83400.0,3.0771698951721187,3.3332018852233887,-8.616554260253906
1515,83500.0,3.0771698951721187,3.3332018852233887,-8.616554260253906
1516,83600.0,3.0771698951721187,3.3332018852233887,-8.616554260253906
1517,83700.0,3.1345977783203125,3.369094133377075,-8.461020469665527
1518,83800.0,3.1345977783203125,3.369094133377075,-8.461020469665527
1519,83900.0,3.115455150604248,3.4193434715271,-8.449056625366211
1520,84000.0,3.115455150604248,3.4193434715271,-8.449056625366211
1521,84100.0,3.1537401676177983,3.3738799095153813,-8.45862865447998
1522,84200.0,3.1537401676177983,3.3738799095153813,-8.45862865447998
1523,84300.0,3.1537401676177983,3.3738799095153813,-8.45862865447998
1524,84400.0,3.1824538707733154,3.3547375202178955,-8.544770240783691
1525,84500.0,3.1824538707733154,3.3547375202178955,-8.544770240783691
1526,84600.0,3.1728827953338623,3.5341989994049072,-8.642874717712402
1527,84700.0,3.1728827953338623,3.5341989994049072,-8.642874717712402
1528,84800.0,3.1728827953338623,3.5341989994049072,-8.642874717712402
1529,84900.0,3.129812002182007,3.438485860824585,-8.47298526763916
1530,83500.0,3.0771698951721187,3.3332018852233887,-8.616554260253906
1531,83600.0,3.0771698951721187,3.3332018852233887,-8.616554260253906
1532,83700.0,3.1345977783203125,3.369094133377075,-8.461020469665527
1533,83800.0,3.1345977783203125,3.369094133377075,-8.461020469665527
1534,83900.0,3.115455150604248,3.4193434715271,-8.449056625366211
1535,84000.0,3.115455150604248,3.4193434715271,-8.449056625366211
1536,84100.0,3.1537401676177983,3.3738799095153813,-8.45862865447998
1537,84200.0,3.1537401676177983,3.3738799095153813,-8.45862865447998
1538,84300.0,3.1537401676177983,3.3738799095153813,-8.45862865447998
1539,84400.0,3.1824538707733154,3.3547375202178955,-8.544770240783691
1540,84500.0,3.1824538707733154,3.3547375202178955,-8.544770240783691
1541,84600.0,3.1728827953338623,3.5341989994049072,-8.642874717712402
1542,84700.0,3.1728827953338623,3.5341989994049072,-8.642874717712402
1543,84800.0,3.1728827953338623,3.5341989994049072,-8.642874717712402
1544,84900.0,3.129812002182007,3.438485860824585,-8.47298526763916
1545,85000.0,3.129812002182007,3.438485860824585,-8.47298526763916
1546,85100.0,3.081955671310425,3.5437703132629395,-8.382057189941406
1547,85200.0,3.081955671310425,3.5437703132629395,-8.382057189941406
1548,85300.0,3.1202406883239746,3.553341627120972,-8.520841598510742
1549,85400.0,3.1202406883239746,3.553341627120972,-8.520841598510742
1550,85500.0,3.1202406883239746,3.4719858169555664,-8.465806007385254
1551,85600.0,3.1202406883239746,3.4719858169555664,-8.465806007385254
1552,85700.0,3.1202406883239746,3.4719858169555664,-8.465806007385254
1553,85800.0,3.1058835983276367,3.3930225372314453,-8.58305549621582
1554,85900.0,3.1058835983276367,3.3930225372314453,-8.58305549621582
1555,86000.0,3.1058835983276367,3.38823676109314,-8.444271087646483
1556,86100.0,3.1058835983276367,3.38823676109314,-8.444271087646483
1557,86200.0,3.1537401676177983,3.445664882659912,-8.556733131408691
1558,86300.0,3.1537401676177983,3.445664882659912,-8.556733131408691
1559,86400.0,3.091526985168457,3.4097721576690674,-8.511269569396973
1560,85000.0,3.129812002182007,3.438485860824585,-8.47298526763916
1561,85100.0,3.081955671310425,3.5437703132629395,-8.382057189941406
1562,85200.0,3.081955671310425,3.5437703132629395,-8.382057189941406
1563,85300.0,3.1202406883239746,3.553341627120972,-8.520841598510742
1564,85400.0,3.1202406883239746,3.553341627120972,-8.520841598510742
1565,85500.0,3.1202406883239746,3.4719858169555664,-8.465806007385254
1566,85600.0,3.1202406883239746,3.4719858169555664,-8.465806007385254
1567,85700.0,3.1202406883239746,3.4719858169555664,-8.465806007385254
1568,85800.0,3.1058835983276367,3.3930225372314453,-8.58305549621582
1569,85900.0,3.1058835983276367,3.3930225372314453,-8.58305549621582
1570,86000.0,3.1058835983276367,3.38823676109314,-8.444271087646483
1571,86100.0,3.1058835983276367,3.38823676109314,-8.444271087646483
1572,86200.0,3.1537401676177983,3.445664882659912,-8.556733131408691
1573,86300.0,3.1537401676177983,3.445664882659912,-8.556733131408691
1574,86400.0,3.091526985168457,3.4097721576690674,-8.511269569396973
1575,86500.0,3.091526985168457,3.4097721576690674,-8.511269569396973
1576,86600.0,3.1968109607696533,3.438485860824585,-8.501699447631836
1577,86700.0,3.1968109607696533,3.438485860824585,-8.501699447631836
1578,86800.0,3.1968109607696533,3.438485860824585,-8.501699447631836
1579,86900.0,3.335594892501831,3.168097257614136,-8.575876235961914
1580,87000.0,3.335594892501831,3.168097257614136,-8.575876235961914
1581,87100.0,3.0484561920166016,3.3547375202178955,-8.559126853942871
1582,87200.0,3.0484561920166016,3.3547375202178955,-8.559126853942871
1583,87300.0,3.0245277881622314,3.421736478805542,-8.499305725097656
1584,87400.0,3.0245277881622314,3.421736478805542,-8.499305725097656
1585,87500.0,3.2542388439178467,3.3786656856536865,-8.58305549621582
1586,87600.0,3.2542388439178467,3.3786656856536865,-8.58305549621582
1587,87700.0,3.2542388439178467,3.3786656856536865,-8.58305549621582
1588,87800.0,3.177668571472168,3.2374887466430664,-8.647661209106445
1589,87900.0,3.177668571472168,3.2374887466430664,-8.647661209106445
1590,86500.0,3.091526985168457,3.4097721576690674,-8.511269569396973
1591,86600.0,3.1968109607696533,3.438485860824585,-8.501699447631836
1592,86700.0,3.1968109607696533,3.438485860824585,-8.501699447631836
1593,86800.0,3.1968109607696533,3.438485860824585,-8.501699447631836
1594,86900.0,3.335594892501831,3.168097257614136,-8.575876235961914
1595,87000.0,3.335594892501831,3.168097257614136,-8.575876235961914
1596,87100.0,3.0484561920166016,3.3547375202178955,-8.559126853942871
1597,87200.0,3.0484561920166016,3.3547375202178955,-8.559126853942871
1598,87300.0,3.0245277881622314,3.421736478805542,-8.499305725097656
1599,87400.0,3.0245277881622314,3.421736478805542,-8.499305725097656
1600,87500.0,3.2542388439178467,3.3786656856536865,-8.58305549621582
1601,87600.0,3.2542388439178467,3.3786656856536865,-8.58305549621582
1602,87700.0,3.2542388439178467,3.3786656856536865,-8.58305549621582
1603,87800.0,3.177668571472168,3.2374887466430664,-8.647661209106445
1604,87900.0,3.177668571472168,3.2374887466430664,-8.647661209106445
1605,88000.0,3.3020951747894287,3.1704900264739986,-8.59501838684082
1606,88100.0,3.3020951747894287,3.1704900264739986,-8.59501838684082
1607,88200.0,3.34995174407959,2.995814085006714,-8.539983749389647
1608,88300.0,3.34995174407959,2.995814085006714,-8.539983749389647
1609,88400.0,3.4743783473968506,3.3858442306518555,-8.394021987915039
1610,88500.0,3.4743783473968506,3.3858442306518555,-8.394021987915039
1611,88600.0,3.6131620407104488,2.8211379051208496,-8.60219669342041
1612,88700.0,3.6131620407104488,2.8211379051208496,-8.60219669342041
1613,88800.0,3.6131620407104488,2.8211379051208496,-8.60219669342041
1614,88900.0,3.4408791065216064,3.0556347370147705,-8.506484031677246
1615,89000.0,3.4408791065216064,3.0556347370147705,-8.506484031677246
1616,89100.0,3.2542388439178467,3.192025184631348,-8.492127418518066
1617,89200.0,3.2542388439178467,3.192025184631348,-8.492127418518066
1618,89300.0,3.3308091163635254,3.1345977783203125,-8.575876235961914
1619,89400.0,3.3308091163635254,3.1345977783203125,-8.575876235961914
1620,88000.0,3.3020951747894287,3.1704900264739986,-8.59501838684082
1621,88100.0,3.3020951747894287,3.1704900264739986,-8.59501838684082
1622,88200.0,3.34995174407959,2.995814085006714,-8.539983749389647
1623,88300.0,3.34995174407959,2.995814085006714,-8.539983749389647
1624,88400.0,3.4743783473968506,3.3858442306518555,-8.394021987915039
1625,88500.0,3.4743783473968506,3.3858442306518555,-8.394021987915039
1626,88600.0,3.6131620407104488,2.8211379051208496,-8.60219669342041
1627,88700.0,3.6131620407104488,2.8211379051208496,-8.60219669342041
1628,88800.0,3.6131620407104488,2.8211379051208496,-8.60219669342041
1629,88900.0,3.4408791065216064,3.0556347370147705,-8.506484031677246
1630,89000.0,3.4408791065216064,3.0556347370147705,-8.506484031677246
1631,89100.0,3.2542388439178467,3.192025184631348,-8.492127418518066
1632,89200.0,3.2542388439178467,3.192025184631348,-8.492127418518066
1633,89300.0,3.3308091163635254,3.1345977783203125,-8.575876235961914
1634,89400.0,3.3308091163635254,3.1345977783203125,-8.575876235961914
1635,89500.0,3.3308091163635254,3.1345977783203125,-8.575876235961914
1636,89600.0,3.4121649265289307,3.2470602989196777,-8.504091262817383
1637,89700.0,3.4121649265289307,3.2470602989196777,-8.504091262817383
1638,89800.0,3.206382274627685,3.259024381637573,-8.49452018737793
1639,89900.0,3.206382274627685,3.259024381637573,-8.49452018737793
1640,90000.0,3.206382274627685,3.259024381637573,-8.49452018737793
1641,90100.0,3.2973096370697017,3.206382274627685,-8.427520751953125
1642,90200.0,3.2973096370697017,3.206382274627685,-8.427520751953125
1643,90300.0,3.383451223373413,3.211168050765991,-8.561518669128418
1644,90400.0,3.383451223373413,3.211168050765991,-8.561518669128418
1645,90500.0,3.383451223373413,3.1082763671875,-8.559126853942871
1646,90600.0,3.383451223373413,3.1082763671875,-8.559126853942871
1647,90700.0,3.3403804302215576,3.2614171504974365,-8.499305725097656
1648,90800.0,3.3403804302215576,3.2614171504974365,-8.499305725097656
1649,90900.0,3.3308091163635254,3.268595933914185,-8.511269569396973
1650,89500.0,3.3308091163635254,3.1345977783203125,-8.575876235961914
1651,89600.0,3.4121649265289307,3.2470602989196777,-8.504091262817383
1652,89700.0,3.4121649265289307,3.2470602989196777,-8.504091262817383
1653,89800.0,3.206382274627685,3.259024381637573,-8.49452018737793
1654,89900.0,3.206382274627685,3.259024381637573,-8.49452018737793
1655,90000.0,3.206382274627685,3.259024381637573,-8.49452018737793
1656,90100.0,3.2973096370697017,3.206382274627685,-8.427520751953125
1657,90200.0,3.2973096370697017,3.206382274627685,-8.427520751953125
1658,90300.0,3.383451223373413,3.211168050765991,-8.561518669128418
1659,90400.0,3.383451223373413,3.211168050765991,-8.561518669128418
1660,90500.0,3.383451223373413,3.1082763671875,-8.559126853942871
1661,90600.0,3.383451223373413,3.1082763671875,-8.559126853942871
1662,90700.0,3.3403804302215576,3.2614171504974365,-8.499305725097656
1663,90800.0,3.3403804302215576,3.2614171504974365,-8.499305725097656
1664,90900.0,3.3308091163635254,3.268595933914185,-8.511269569396973
1665,91000.0,3.3308091163635254,3.268595933914185,-8.511269569396973
1666,91100.0,3.3308091163635254,3.268595933914185,-8.511269569396973
1667,91200.0,3.3451659679412837,3.208775281906128,-8.496913909912111
1668,91300.0,3.3451659679412837,3.208775281906128,-8.496913909912111
1669,91400.0,3.3068809509277344,3.3308091163635254,-8.528019905090332
1670,91500.0,3.3068809509277344,3.3308091163635254,-8.528019905090332
1671,91600.0,3.2973096370697017,3.268595933914185,-8.482556343078612
1672,91700.0,3.2973096370697017,3.268595933914185,-8.482556343078612
1673,91800.0,3.2973096370697017,3.268595933914185,-8.482556343078612
1674,91900.0,3.3068809509277344,3.249453067779541,-8.544770240783691
1675,92000.0,3.3068809509277344,3.249453067779541,-8.544770240783691
1676,92100.0,3.263810157775879,3.2159535884857178,-8.549554824829103
1677,92200.0,3.263810157775879,3.2159535884857178,-8.549554824829103
1678,92300.0,3.239881753921509,3.3164520263671875,-8.566305160522461
1679,92400.0,3.239881753921509,3.3164520263671875,-8.566305160522461
1680,91000.0,3.3308091163635254,3.268595933914185,-8.511269569396973
1681,91100.0,3.3308091163635254,3.268595933914185,-8.511269569396973
1682,91200.0,3.3451659679412837,3.208775281906128,-8.496913909912111
1683,91300.0,3.3451659679412837,3.208775281906128,-8.496913909912111
1684,91400.0,3.3068809509277344,3.3308091163635254,-8.528019905090332
1685,91500.0,3.3068809509277344,3.3308091163635254,-8.528019905090332
1686,91600.0,3.2973096370697017,3.268595933914185,-8.482556343078612
1687,91700.0,3.2973096370697017,3.268595933914185,-8.482556343078612
1688,91800.0,3.2973096370697017,3.268595933914185,-8.482556343078612
1689,91900.0,3.3068809509277344,3.249453067779541,-8.544770240783691
1690,92000.0,3.3068809509277344,3.249453067779541,-8.544770240783691
1691,92100.0,3.263810157775879,3.2159535884857178,-8.549554824829103
1692,92200.0,3.263810157775879,3.2159535884857178,-8.549554824829103
1693,92300.0,3.239881753921509,3.3164520263671875,-8.566305160522461
1694,92400.0,3.239881753921509,3.3164520263671875,-8.566305160522461
1695,92500.0,3.239881753921509,3.3164520263671875,-8.566305160522461
1696,92600.0,3.2542388439178467,3.235095977783203,-8.513663291931152
1697,92700.0,3.2542388439178467,3.235095977783203,-8.513663291931152
1698,92800.0,3.2829525470733643,3.2662029266357417,-8.482556343078612
1699,92900.0,3.2829525470733643,3.2662029266357417,-8.482556343078612
1700,93000.0,3.249453067779541,3.2231321334838867,-8.542377471923826
1701,93100.0,3.249453067779541,3.2231321334838867,-8.542377471923826
1702,93200.0,3.31166672706604,3.211168050765991,-8.566305160522461
1703,93300.0,3.31166672706604,3.211168050765991,-8.566305160522461
1704,93400.0,3.31166672706604,3.211168050765991,-8.566305160522461
1705,93500.0,3.239881753921509,3.2662029266357417,-8.518448829650879
1706,93600.0,3.239881753921509,3.2662029266357417,-8.518448829650879
1707,93700.0,3.2542388439178467,3.239881753921509,-8.496913909912111
1708,93800.0,3.2542388439178467,3.239881753921509,-8.496913909912111
1709,93900.0,3.259024381637573,3.2829525470733643,-8.568697929382324
1710,92500.0,3.239881753921509,3.3164520263671875,-8.566305160522461
1711,92600.0,3.2542388439178467,3.235095977783203,-8.513663291931152
1712,92700.0,3.2542388439178467,3.235095977783203,-8.513663291931152
1713,92800.0,3.2829525470733643,3.2662029266357417,-8.482556343078612
1714,92900.0,3.2829525470733643,3.2662029266357417,-8.482556343078612
1715,93000.0,3.249453067779541,3.2231321334838867,-8.542377471923826
1716,93100.0,3.249453067779541,3.2231321334838867,-8.542377471923826
1717,93200.0,3.31166672706604,3.211168050765991,-8.566305160522461
1718,93300.0,3.31166672706604,3.211168050765991,-8.566305160522461
1719,93400.0,3.31166672706604,3.211168050765991,-8.566305160522461
1720,93500.0,3.239881753921509,3.2662029266357417,-8.518448829650879
1721,93600.0,3.239881753921509,3.2662029266357417,-8.518448829650879
1722,93700.0,3.2542388439178467,3.239881753921509,-8.496913909912111
1723,93800.0,3.2542388439178467,3.239881753921509,-8.496913909912111
1724,93900.0,3.259024381637573,3.2829525470733643,-8.568697929382324
1725,94000.0,3.259024381637573,3.2829525470733643,-8.568697929382324
1726,94100.0,3.259024381637573,3.2853453159332275,-8.48734188079834
1727,94200.0,3.259024381637573,3.2853453159332275,-8.48734188079834
1728,94300.0,3.259024381637573,3.2853453159332275,-8.48734188079834
1729,94400.0,3.31166672706604,3.259024381637573,-8.606983184814451
1730,94500.0,3.31166672706604,3.259024381637573,-8.606983184814451
1731,94600.0,3.335594892501831,3.2997026443481445,-8.496913909912111
1732,94700.0,3.335594892501831,3.2997026443481445,-8.496913909912111
1733,94800.0,3.335594892501831,3.2997026443481445,-8.496913909912111
1734,94900.0,3.273381233215332,3.2542388439178467,-8.528019905090332
1735,95000.0,3.273381233215332,3.2542388439178467,-8.528019905090332
1736,95100.0,3.2159535884857178,3.25663161277771,-8.551947593688965
1737,95200.0,3.2159535884857178,3.25663161277771,-8.551947593688965
1738,95300.0,3.239881753921509,3.2853453159332275,-8.496913909912111
1739,95400.0,3.239881753921509,3.2853453159332275,-8.496913909912111
1740,94000.0,3.259024381637573,3.2829525470733643,-8.568697929382324
1741,94100.0,3.259024381637573,3.2853453159332275,-8.48734188079834
1742,94200.0,3.259024381637573,3.2853453159332275,-8.48734188079834
1743,94300.0,3.259024381637573,3.2853453159332275,-8.48734188079834
1744,94400.0,3.31166672706604,3.259024381637573,-8.606983184814451
1745,94500.0,3.31166672706604,3.259024381637573,-8.606983184814451
1746,94600.0,3.335594892501831,3.2997026443481445,-8.496913909912111
1747,94700.0,3.335594892501831,3.2997026443481445,-8.496913909912111
1748,94800.0,3.335594892501831,3.2997026443481445,-8.496913909912111
1749,94900.0,3.273381233215332,3.2542388439178467,-8.528019905090332
1750,95000.0,3.273381233215332,3.2542388439178467,-8.528019905090332
1751,95100.0,3.2159535884857178,3.25663161277771,-8.551947593688965
1752,95200.0,3.2159535884857178,3.25663161277771,-8.551947593688965
1753,95300.0,3.239881753921509,3.2853453159332275,-8.496913909912111
1754,95400.0,3.239881753921509,3.2853453159332275,-8.496913909912111
1755,95500.0,3.32602334022522,3.32602334022522,-8.518448829650879
1756,95600.0,3.32602334022522,3.32602334022522,-8.518448829650879
1757,95700.0,3.235095977783203,3.201596736907959,-8.504091262817383
1758,95800.0,3.235095977783203,3.201596736907959,-8.504091262817383
1759,95900.0,3.235095977783203,3.201596736907959,-8.504091262817383
1760,96000.0,3.268595933914185,3.3236305713653564,-8.554340362548826
1761,96100.0,3.268595933914185,3.3236305713653564,-8.554340362548826
1762,96200.0,3.13938307762146,3.3714869022369385,-8.499305725097656
