,timestamp,ax,ay,az
0,7000.0,1.2825528383255005,4.25922441482544,-8.659625053405763
1,7100.0,1.2825528383255005,4.25922441482544,-8.659625053405763
2,7200.0,1.2825528383255005,4.25922441482544,-8.659625053405763
3,7300.0,1.2825528383255005,4.25922441482544,-8.659625053405763
4,7400.0,1.2969098091125488,4.1563329696655265,-8.717053413391112
5,7500.0,1.2969098091125488,4.1563329696655265,-8.717053413391112
6,7600.0,1.2969098091125488,4.1563329696655265,-8.717053413391112
7,7700.0,1.2634103298187256,4.175475597381592,-8.681159973144531
8,7800.0,1.2634103298187256,4.175475597381592,-8.681159973144531
9,7900.0,1.3543376922607422,4.019941806793213,-8.695517539978027
10,8000.0,1.3543376922607422,4.019941806793213,-8.695517539978027
11,8100.0,1.3543376922607422,4.321437358856201,-8.743373870849611
12,8200.0,1.3543376922607422,4.321437358856201,-8.743373870849611
13,8300.0,1.3543376922607422,4.321437358856201,-8.743373870849611
14,8400.0,1.2299107313156128,4.321437358856201,-8.573483467102049
15,8500.0,1.2299107313156128,4.321437358856201,-8.573483467102049
16,8600.0,1.34476637840271,4.060619831085205,-8.733802795410156
17,8700.0,1.34476637840271,4.060619831085205,-8.733802795410156
18,8800.0,1.3399806022644043,4.130012035369873,-8.669197082519531
19,8900.0,1.3399806022644043,4.130012035369873,-8.669197082519531
20,9000.0,1.3399806022644043,4.130012035369873,-8.669197082519531
21,9100.0,1.2969098091125488,4.0175490379333505,-8.848658561706543
22,9200.0,1.2969098091125488,4.0175490379333505,-8.848658561706543
23,9300.0,1.2921242713928225,3.94097900390625,-8.767301559448242
24,9400.0,1.2921242713928225,3.94097900390625,-8.767301559448242
25,9500.0,1.239482045173645,3.8213374614715576,-8.815157890319824
26,9600.0,1.239482045173645,3.8213374614715576,-8.815157890319824
27,9700.0,1.105484127998352,4.216153621673584,-8.774479866027832
28,9800.0,1.105484127998352,4.216153621673584,-8.774479866027832
29,9900.0,1.105484127998352,4.216153621673584,-8.774479866027832
30,8500.0,1.2299107313156128,4.321437358856201,-8.573483467102049
31,8600.0,1.34476637840271,4.060619831085205,-8.733802795410156
32,8700.0,1.34476637840271,4.060619831085205,-8.733802795410156
33,8800.0,1.3399806022644043,4.130012035369873,-8.669197082519531
34,8900.0,1.3399806022644043,4.130012035369873,-8.669197082519531
35,9000.0,1.3399806022644043,4.130012035369873,-8.669197082519531
36,9100.0,1.2969098091125488,4.0175490379333505,-8.848658561706543
37,9200.0,1.2969098091125488,4.0175490379333505,-8.848658561706543
38,9300.0,1.2921242713928225,3.94097900390625,-8.767301559448242
39,9400.0,1.2921242713928225,3.94097900390625,-8.767301559448242
40,9500.0,1.239482045173645,3.8213374614715576,-8.815157890319824
41,9600.0,1.239482045173645,3.8213374614715576,-8.815157890319824
42,9700.0,1.105484127998352,4.216153621673584,-8.774479866027832
43,9800.0,1.105484127998352,4.216153621673584,-8.774479866027832
44,9900.0,1.105484127998352,4.216153621673584,-8.774479866027832
45,10000.0,1.1724830865859983,4.1419763565063485,-8.752944946289062
46,10100.0,1.1724830865859983,4.1419763565063485,-8.752944946289062
47,10200.0,1.0911270380020142,4.455435752868652,-8.599804878234862
48,10300.0,1.0911270380020142,4.455435752868652,-8.599804878234862
49,10400.0,1.0671988725662231,4.321437358856201,-8.669197082519531
50,10500.0,1.0671988725662231,4.321437358856201,-8.669197082519531
51,10600.0,1.1868400573730469,4.175475597381592,-8.681159973144531
52,10700.0,1.1868400573730469,4.175475597381592,-8.681159973144531
53,10800.0,1.1676974296569824,4.247260093688965,-8.657232284545897
54,10900.0,1.1676974296569824,4.247260093688965,-8.657232284545897
55,11000.0,1.1676974296569824,4.247260093688965,-8.657232284545897
56,11100.0,1.1485549211502075,4.3238306045532235,-8.61176872253418
57,11200.0,1.1485549211502075,4.3238306045532235,-8.61176872253418
58,11300.0,1.1485549211502075,4.3860440254211435,-8.616554260253906
59,11400.0,1.1485549211502075,4.3860440254211435,-8.616554260253906
60,10000.0,1.1724830865859983,4.1419763565063485,-8.752944946289062
61,10100.0,1.1724830865859983,4.1419763565063485,-8.752944946289062
62,10200.0,1.0911270380020142,4.455435752868652,-8.599804878234862
63,10300.0,1.0911270380020142,4.455435752868652,-8.599804878234862
64,10400.0,1.0671988725662231,4.321437358856201,-8.669197082519531
65,10500.0,1.0671988725662231,4.321437358856201,-8.669197082519531
66,10600.0,1.1868400573730469,4.175475597381592,-8.681159973144531
67,10700.0,1.1868400573730469,4.175475597381592,-8.681159973144531
68,10800.0,1.1676974296569824,4.247260093688965,-8.657232284545897
69,10900.0,1.1676974296569824,4.247260093688965,-8.657232284545897
70,11000.0,1.1676974296569824,4.247260093688965,-8.657232284545897
71,11100.0,1.1485549211502075,4.3238306045532235,-8.61176872253418
72,11200.0,1.1485549211502075,4.3238306045532235,-8.61176872253418
73,11300.0,1.1485549211502075,4.3860440254211435,-8.616554260253906
74,11400.0,1.1485549211502075,4.3860440254211435,-8.616554260253906
75,11500.0,1.1485549211502075,4.3860440254211435,-8.616554260253906
76,11600.0,1.1341978311538696,4.304687976837158,-8.614161491394043
77,11700.0,1.1341978311538696,4.304687976837158,-8.614161491394043
78,11800.0,1.210768222808838,4.405186176300049,-8.616554260253906
79,11900.0,1.210768222808838,4.405186176300049,-8.616554260253906
80,12000.0,1.1389836072921753,4.3405799865722665,-8.652446746826174
81,12100.0,1.1389836072921753,4.3405799865722665,-8.652446746826174
82,12200.0,1.1437692642211914,4.773681163787842,-8.48016357421875
83,12300.0,1.1437692642211914,4.773681163787842,-8.48016357421875
84,12400.0,1.1437692642211914,4.773681163787842,-8.48016357421875
85,12500.0,1.2490534782409668,4.479363918304443,-8.551947593688965
86,12600.0,1.2490534782409668,4.479363918304443,-8.551947593688965
87,12700.0,1.1629117727279663,4.481756687164307,-8.585447311401367
88,12800.0,1.1629117727279663,4.481756687164307,-8.585447311401367
89,12900.0,1.1772687435150146,4.541577339172363,-8.520841598510742
90,11500.0,1.1485549211502075,4.3860440254211435,-8.616554260253906
91,11600.0,1.1341978311538696,4.304687976837158,-8.614161491394043
92,11700.0,1.1341978311538696,4.304687976837158,-8.614161491394043
93,11800.0,1.210768222808838,4.405186176300049,-8.616554260253906
94,11900.0,1.210768222808838,4.405186176300049,-8.616554260253906
95,12000.0,1.1389836072921753,4.3405799865722665,-8.652446746826174
96,12100.0,1.1389836072921753,4.3405799865722665,-8.652446746826174
97,12200.0,1.1437692642211914,4.773681163787842,-8.48016357421875
98,12300.0,1.1437692642211914,4.773681163787842,-8.48016357421875
99,12400.0,1.1437692642211914,4.773681163787842,-8.48016357421875
100,12500.0,1.2490534782409668,4.479363918304443,-8.551947593688965
101,12600.0,1.2490534782409668,4.479363918304443,-8.551947593688965
102,12700.0,1.1629117727279663,4.481756687164307,-8.585447311401367
103,12800.0,1.1629117727279663,4.481756687164307,-8.585447311401367
104,12900.0,1.1772687435150146,4.541577339172363,-8.520841598510742
105,13000.0,1.1772687435150146,4.541577339172363,-8.520841598510742
106,13100.0,1.1772687435150146,4.541577339172363,-8.520841598510742
107,13200.0,1.1389836072921753,4.620540142059326,-8.429913520812987
108,13300.0,1.1389836072921753,4.620540142059326,-8.429913520812987
109,13400.0,1.1437692642211914,4.615755081176758,-8.461020469665527
110,13500.0,1.1437692642211914,4.615755081176758,-8.461020469665527
111,13600.0,1.062413215637207,4.826323509216309,-8.47298526763916
112,13700.0,1.062413215637207,4.826323509216309,-8.47298526763916
113,13800.0,1.105484127998352,4.582255363464356,-8.528019905090332
114,13900.0,1.105484127998352,4.582255363464356,-8.528019905090332
115,14000.0,1.105484127998352,4.582255363464356,-8.528019905090332
116,14100.0,1.1629117727279663,4.520041942596436,-8.58305549621582
117,14200.0,1.1629117727279663,4.520041942596436,-8.58305549621582
118,14300.0,1.124626636505127,4.445864677429199,-8.58305549621582
119,14400.0,1.124626636505127,4.445864677429199,-8.58305549621582
120,13000.0,1.1772687435150146,4.541577339172363,-8.520841598510742
121,13100.0,1.1772687435150146,4.541577339172363,-8.520841598510742
122,13200.0,1.1389836072921753,4.620540142059326,-8.429913520812987
123,13300.0,1.1389836072921753,4.620540142059326,-8.429913520812987
124,13400.0,1.1437692642211914,4.615755081176758,-8.461020469665527
125,13500.0,1.1437692642211914,4.615755081176758,-8.461020469665527
126,13600.0,1.062413215637207,4.826323509216309,-8.47298526763916
127,13700.0,1.062413215637207,4.826323509216309,-8.47298526763916
128,13800.0,1.105484127998352,4.582255363464356,-8.528019905090332
129,13900.0,1.105484127998352,4.582255363464356,-8.528019905090332
130,14000.0,1.105484127998352,4.582255363464356,-8.528019905090332
131,14100.0,1.1629117727279663,4.520041942596436,-8.58305549621582
132,14200.0,1.1629117727279663,4.520041942596436,-8.58305549621582
133,14300.0,1.124626636505127,4.445864677429199,-8.58305549621582
134,14400.0,1.124626636505127,4.445864677429199,-8.58305549621582
135,14500.0,1.1485549211502075,4.441079139709473,-8.599804878234862
136,14600.0,1.1485549211502075,4.441079139709473,-8.599804878234862
137,14700.0,1.1485549211502075,4.441079139709473,-8.599804878234862
138,14800.0,1.1341978311538696,4.49132776260376,-8.568697929382324
139,14900.0,1.1341978311538696,4.49132776260376,-8.568697929382324
140,15000.0,1.1581261157989502,4.4961137771606445,-8.58305549621582
141,15100.0,1.1581261157989502,4.4961137771606445,-8.58305549621582
142,15200.0,1.1437692642211914,4.508078098297119,-8.542377471923826
143,15300.0,1.1437692642211914,4.508078098297119,-8.542377471923826
144,15400.0,1.1437692642211914,4.508078098297119,-8.542377471923826
145,15500.0,1.0959126949310305,4.591826438903809,-8.48016357421875
146,15600.0,1.0959126949310305,4.591826438903809,-8.48016357421875
147,15700.0,1.191625714302063,4.465007305145264,-8.551947593688965
148,15800.0,1.191625714302063,4.465007305145264,-8.551947593688965
149,15900.0,1.0241280794143677,4.687539577484131,-8.403593063354492
150,14500.0,1.1485549211502075,4.441079139709473,-8.599804878234862
151,14600.0,1.1485549211502075,4.441079139709473,-8.599804878234862
152,14700.0,1.1485549211502075,4.441079139709473,-8.599804878234862
153,14800.0,1.1341978311538696,4.49132776260376,-8.568697929382324
154,14900.0,1.1341978311538696,4.49132776260376,-8.568697929382324
155,15000.0,1.1581261157989502,4.4961137771606445,-8.58305549621582
156,15100.0,1.1581261157989502,4.4961137771606445,-8.58305549621582
157,15200.0,1.1437692642211914,4.508078098297119,-8.542377471923826
158,15300.0,1.1437692642211914,4.508078098297119,-8.542377471923826
159,15400.0,1.1437692642211914,4.508078098297119,-8.542377471923826
160,15500.0,1.0959126949310305,4.591826438903809,-8.48016357421875
161,15600.0,1.0959126949310305,4.591826438903809,-8.48016357421875
162,15700.0,1.191625714302063,4.465007305145264,-8.551947593688965
163,15800.0,1.191625714302063,4.465007305145264,-8.551947593688965
164,15900.0,1.0241280794143677,4.687539577484131,-8.403593063354492
165,16000.0,1.0241280794143677,4.687539577484131,-8.403593063354492
166,16100.0,1.0241280794143677,4.687539577484131,-8.403593063354492
167,16200.0,1.0911270380020142,4.752145767211914,-8.427520751953125
168,16300.0,1.0911270380020142,4.752145767211914,-8.427520751953125
169,16400.0,1.1485549211502075,4.584648132324219,-8.47298526763916
170,16500.0,1.1485549211502075,4.584648132324219,-8.47298526763916
171,16600.0,1.1533405780792236,4.589433670043945,-8.439485549926758
172,16700.0,1.1533405780792236,4.589433670043945,-8.439485549926758
173,16800.0,1.1341978311538696,4.534398555755615,-8.441878318786621
174,16900.0,1.1341978311538696,4.534398555755615,-8.441878318786621
175,17000.0,1.1341978311538696,4.534398555755615,-8.441878318786621
176,17100.0,1.1485549211502075,4.529613494873047,-8.544770240783691
177,17200.0,1.1485549211502075,4.529613494873047,-8.544770240783691
178,17300.0,1.1629117727279663,4.565505504608153,-8.523234367370605
179,17400.0,1.1629117727279663,4.565505504608153,-8.523234367370605
180,16000.0,1.0241280794143677,4.687539577484131,-8.403593063354492
181,16100.0,1.0241280794143677,4.687539577484131,-8.403593063354492
182,16200.0,1.0911270380020142,4.752145767211914,-8.427520751953125
183,16300.0,1.0911270380020142,4.752145767211914,-8.427520751953125
184,16400.0,1.1485549211502075,4.584648132324219,-8.47298526763916
185,16500.0,1.1485549211502075,4.584648132324219,-8.47298526763916
186,16600.0,1.1533405780792236,4.589433670043945,-8.439485549926758
187,16700.0,1.1533405780792236,4.589433670043945,-8.439485549926758
188,16800.0,1.1341978311538696,4.534398555755615,-8.441878318786621
189,16900.0,1.1341978311538696,4.534398555755615,-8.441878318786621
190,17000.0,1.1341978311538696,4.534398555755615,-8.441878318786621
191,17100.0,1.1485549211502075,4.529613494873047,-8.544770240783691
192,17200.0,1.1485549211502075,4.529613494873047,-8.544770240783691
193,17300.0,1.1629117727279663,4.565505504608153,-8.523234367370605
194,17400.0,1.1629117727279663,4.565505504608153,-8.523234367370605
195,17500.0,1.1629117727279663,4.565505504608153,-8.523234367370605
196,17600.0,1.1485549211502075,4.625326156616211,-8.535198211669924
197,17700.0,1.1485549211502075,4.625326156616211,-8.535198211669924
198,17800.0,1.1533405780792236,4.534398555755615,-8.549554824829103
199,17900.0,1.1533405780792236,4.534398555755615,-8.549554824829103
200,18000.0,1.124626636505127,4.541577339172363,-8.551947593688965
201,18100.0,1.124626636505127,4.541577339172363,-8.551947593688965
202,18200.0,1.1150553226470947,4.591826438903809,-8.48016357421875
203,18300.0,1.1150553226470947,4.591826438903809,-8.48016357421875
204,18400.0,1.1150553226470947,4.591826438903809,-8.48016357421875
205,18500.0,1.129412293434143,4.639683246612549,-8.530412673950195
206,18600.0,1.129412293434143,4.639683246612549,-8.530412673950195
207,18700.0,1.0863415002822876,4.625326156616211,-8.47298526763916
208,18800.0,1.0863415002822876,4.625326156616211,-8.47298526763916
209,18900.0,1.0863415002822876,4.625326156616211,-8.47298526763916
210,17500.0,1.1629117727279663,4.565505504608153,-8.523234367370605
211,17600.0,1.1485549211502075,4.625326156616211,-8.535198211669924
212,17700.0,1.1485549211502075,4.625326156616211,-8.535198211669924
213,17800.0,1.1533405780792236,4.534398555755615,-8.549554824829103
214,17900.0,1.1533405780792236,4.534398555755615,-8.549554824829103
215,18000.0,1.124626636505127,4.541577339172363,-8.551947593688965
216,18100.0,1.124626636505127,4.541577339172363,-8.551947593688965
217,18200.0,1.1150553226470947,4.591826438903809,-8.48016357421875
218,18300.0,1.1150553226470947,4.591826438903809,-8.48016357421875
219,18400.0,1.1150553226470947,4.591826438903809,-8.48016357421875
220,18500.0,1.129412293434143,4.639683246612549,-8.530412673950195
221,18600.0,1.129412293434143,4.639683246612549,-8.530412673950195
222,18700.0,1.0863415002822876,4.625326156616211,-8.47298526763916
223,18800.0,1.0863415002822876,4.625326156616211,-8.47298526763916
224,18900.0,1.0863415002822876,4.625326156616211,-8.47298526763916
225,19000.0,1.1341978311538696,4.589433670043945,-8.484949111938478
226,19100.0,1.1341978311538696,4.589433670043945,-8.484949111938478
227,19200.0,1.1724830865859983,4.515256404876709,-8.439485549926758
228,19300.0,1.1724830865859983,4.515256404876709,-8.439485549926758
229,19400.0,1.1629117727279663,4.53200626373291,-8.539983749389647
230,19500.0,1.1629117727279663,4.53200626373291,-8.539983749389647
231,19600.0,1.1772687435150146,4.481756687164307,-8.575876235961914
232,19700.0,1.1772687435150146,4.481756687164307,-8.575876235961914
233,19800.0,1.1772687435150146,4.481756687164307,-8.575876235961914
234,19900.0,1.1485549211502075,4.536791324615479,-8.573483467102049
235,20000.0,1.1485549211502075,4.536791324615479,-8.573483467102049
236,20100.0,1.1150553226470947,4.661218643188477,-8.48734188079834
237,20200.0,1.1150553226470947,4.661218643188477,-8.48734188079834
238,20300.0,1.1150553226470947,4.661218643188477,-8.48734188079834
239,20400.0,1.1437692642211914,4.541577339172363,-8.496913909912111
240,19000.0,1.1341978311538696,4.589433670043945,-8.484949111938478
241,19100.0,1.1341978311538696,4.589433670043945,-8.484949111938478
242,19200.0,1.1724830865859983,4.515256404876709,-8.439485549926758
243,19300.0,1.1724830865859983,4.515256404876709,-8.439485549926758
244,19400.0,1.1629117727279663,4.53200626373291,-8.539983749389647
245,19500.0,1.1629117727279663,4.53200626373291,-8.539983749389647
246,19600.0,1.1772687435150146,4.481756687164307,-8.575876235961914
247,19700.0,1.1772687435150146,4.481756687164307,-8.575876235961914
248,19800.0,1.1772687435150146,4.481756687164307,-8.575876235961914
249,19900.0,1.1485549211502075,4.536791324615479,-8.573483467102049
250,20000.0,1.1485549211502075,4.536791324615479,-8.573483467102049
251,20100.0,1.1150553226470947,4.661218643188477,-8.48734188079834
252,20200.0,1.1150553226470947,4.661218643188477,-8.48734188079834
253,20300.0,1.1150553226470947,4.661218643188477,-8.48734188079834
254,20400.0,1.1437692642211914,4.541577339172363,-8.496913909912111
255,20500.0,1.1437692642211914,4.541577339172363,-8.496913909912111
256,20600.0,1.2011969089508057,4.443471908569336,-8.563912391662598
257,20700.0,1.2011969089508057,4.443471908569336,-8.563912391662598
258,20800.0,1.1533405780792236,4.4721856117248535,-8.544770240783691
259,20900.0,1.1533405780792236,4.4721856117248535,-8.544770240783691
260,21000.0,1.22033953666687,4.4004011154174805,-8.571090698242188
261,21100.0,1.22033953666687,4.4004011154174805,-8.571090698242188
262,21200.0,1.1341978311538696,4.369294166564941,-8.688338279724121
263,21300.0,1.1341978311538696,4.369294166564941,-8.688338279724121
264,21400.0,1.1341978311538696,4.369294166564941,-8.688338279724121
265,21500.0,1.1533405780792236,4.342973232269287,-8.621339797973633
266,21600.0,1.1533405780792236,4.342973232269287,-8.621339797973633
267,21700.0,1.1629117727279663,4.376472473144531,-8.571090698242188
268,21800.0,1.1629117727279663,4.376472473144531,-8.571090698242188
269,21900.0,1.1102697849273682,4.419543266296387,-8.626125335693361
270,20500.0,1.1437692642211914,4.541577339172363,-8.496913909912111
271,20600.0,1.2011969089508057,4.443471908569336,-8.563912391662598
272,20700.0,1.2011969089508057,4.443471908569336,-8.563912391662598
273,20800.0,1.1533405780792236,4.4721856117248535,-8.544770240783691
274,20900.0,1.1533405780792236,4.4721856117248535,-8.544770240783691
275,21000.0,1.22033953666687,4.4004011154174805,-8.571090698242188
276,21100.0,1.22033953666687,4.4004011154174805,-8.571090698242188
277,21200.0,1.1341978311538696,4.369294166564941,-8.688338279724121
278,21300.0,1.1341978311538696,4.369294166564941,-8.688338279724121
279,21400.0,1.1341978311538696,4.369294166564941,-8.688338279724121
280,21500.0,1.1533405780792236,4.342973232269287,-8.621339797973633
281,21600.0,1.1533405780792236,4.342973232269287,-8.621339797973633
282,21700.0,1.1629117727279663,4.376472473144531,-8.571090698242188
283,21800.0,1.1629117727279663,4.376472473144531,-8.571090698242188
284,21900.0,1.1102697849273682,4.419543266296387,-8.626125335693361
285,22000.0,1.1102697849273682,4.419543266296387,-8.626125335693361
286,22100.0,1.1485549211502075,4.350151538848877,-8.664410591125487
287,22200.0,1.1485549211502075,4.350151538848877,-8.664410591125487
288,22300.0,1.1485549211502075,4.350151538848877,-8.664410591125487
289,22400.0,1.1820544004440308,4.467400074005127,-8.511269569396973
290,22500.0,1.1820544004440308,4.467400074005127,-8.511269569396973
291,22600.0,1.2299107313156128,4.378865718841554,-8.59501838684082
292,22700.0,1.2299107313156128,4.378865718841554,-8.59501838684082
293,22800.0,1.1533405780792236,4.462614059448242,-8.532805442810059
294,22900.0,1.1533405780792236,4.462614059448242,-8.532805442810059
295,23000.0,1.105484127998352,4.632504463195801,-8.496913909912111
296,23100.0,1.105484127998352,4.632504463195801,-8.496913909912111
297,23200.0,1.105484127998352,4.632504463195801,-8.496913909912111
298,23300.0,1.2490534782409668,4.508078098297119,-8.511269569396973
299,23400.0,1.2490534782409668,4.508078098297119,-8.511269569396973
300,22000.0,1.1102697849273682,4.419543266296387,-8.626125335693361
301,22100.0,1.1485549211502075,4.350151538848877,-8.664410591125487
302,22200.0,1.1485549211502075,4.350151538848877,-8.664410591125487
303,22300.0,1.1485549211502075,4.350151538848877,-8.664410591125487
304,22400.0,1.1820544004440308,4.467400074005127,-8.511269569396973
305,22500.0,1.1820544004440308,4.467400074005127,-8.511269569396973
306,22600.0,1.2299107313156128,4.378865718841554,-8.59501838684082
307,22700.0,1.2299107313156128,4.378865718841554,-8.59501838684082
308,22800.0,1.1533405780792236,4.462614059448242,-8.532805442810059
309,22900.0,1.1533405780792236,4.462614059448242,-8.532805442810059
310,23000.0,1.105484127998352,4.632504463195801,-8.496913909912111
311,23100.0,1.105484127998352,4.632504463195801,-8.496913909912111
312,23200.0,1.105484127998352,4.632504463195801,-8.496913909912111
313,23300.0,1.2490534782409668,4.508078098297119,-8.511269569396973
314,23400.0,1.2490534782409668,4.508078098297119,-8.511269569396973
315,23500.0,1.1533405780792236,4.555934429168701,-8.571090698242188
316,23600.0,1.1533405780792236,4.555934429168701,-8.571090698242188
317,23700.0,1.196411371231079,4.4506497383117685,-8.539983749389647
318,23800.0,1.196411371231079,4.4506497383117685,-8.539983749389647
319,23900.0,1.196411371231079,4.4506497383117685,-8.539983749389647
320,24000.0,1.1437692642211914,4.479363918304443,-8.535198211669924
321,24100.0,1.1437692642211914,4.479363918304443,-8.535198211669924
322,24200.0,1.1389836072921753,4.577469348907472,-8.525627136230469
323,24300.0,1.1389836072921753,4.577469348907472,-8.525627136230469
324,24400.0,1.1150553226470947,4.649254322052002,-8.501699447631836
325,24500.0,1.1150553226470947,4.649254322052002,-8.501699447631836
326,24600.0,1.1150553226470947,4.649254322052002,-8.501699447631836
327,24700.0,1.0767701864242554,4.577469348907472,-8.49452018737793
328,24800.0,1.0767701864242554,4.577469348907472,-8.49452018737793
329,24900.0,1.1485549211502075,4.610969543457031,-8.539983749389647
330,23500.0,1.1533405780792236,4.555934429168701,-8.571090698242188
331,23600.0,1.1533405780792236,4.555934429168701,-8.571090698242188
332,23700.0,1.196411371231079,4.4506497383117685,-8.539983749389647
333,23800.0,1.196411371231079,4.4506497383117685,-8.539983749389647
334,23900.0,1.196411371231079,4.4506497383117685,-8.539983749389647
335,24000.0,1.1437692642211914,4.479363918304443,-8.535198211669924
336,24100.0,1.1437692642211914,4.479363918304443,-8.535198211669924
337,24200.0,1.1389836072921753,4.577469348907472,-8.525627136230469
338,24300.0,1.1389836072921753,4.577469348907472,-8.525627136230469
339,24400.0,1.1150553226470947,4.649254322052002,-8.501699447631836
340,24500.0,1.1150553226470947,4.649254322052002,-8.501699447631836
341,24600.0,1.1150553226470947,4.649254322052002,-8.501699447631836
342,24700.0,1.0767701864242554,4.577469348907472,-8.49452018737793
343,24800.0,1.0767701864242554,4.577469348907472,-8.49452018737793
344,24900.0,1.1485549211502075,4.610969543457031,-8.539983749389647
345,25000.0,1.1485549211502075,4.610969543457031,-8.539983749389647
346,25100.0,1.0911270380020142,4.620540142059326,-8.456235885620117
347,25200.0,1.0911270380020142,4.620540142059326,-8.456235885620117
348,25300.0,1.0911270380020142,4.620540142059326,-8.456235885620117
349,25400.0,1.0671988725662231,4.644468784332275,-8.48734188079834
350,25500.0,1.0671988725662231,4.644468784332275,-8.48734188079834
351,25600.0,1.1341978311538696,4.59421968460083,-8.575876235961914
352,25700.0,1.1341978311538696,4.59421968460083,-8.575876235961914
353,25800.0,1.1437692642211914,4.654040336608887,-8.47059154510498
354,25900.0,1.1437692642211914,4.654040336608887,-8.47059154510498
355,26000.0,1.1437692642211914,4.654040336608887,-8.47059154510498
356,26100.0,1.105484127998352,4.603790760040283,-8.516055107116701
357,26200.0,1.105484127998352,4.603790760040283,-8.516055107116701
358,26300.0,1.1150553226470947,4.618147850036621,-8.482556343078612
359,26400.0,1.1150553226470947,4.618147850036621,-8.482556343078612
360,25000.0,1.1485549211502075,4.610969543457031,-8.539983749389647
361,25100.0,1.0911270380020142,4.620540142059326,-8.456235885620117
362,25200.0,1.0911270380020142,4.620540142059326,-8.456235885620117
363,25300.0,1.0911270380020142,4.620540142059326,-8.456235885620117
364,25400.0,1.0671988725662231,4.644468784332275,-8.48734188079834
365,25500.0,1.0671988725662231,4.644468784332275,-8.48734188079834
366,25600.0,1.1341978311538696,4.59421968460083,-8.575876235961914
367,25700.0,1.1341978311538696,4.59421968460083,-8.575876235961914
368,25800.0,1.1437692642211914,4.654040336608887,-8.47059154510498
369,25900.0,1.1437692642211914,4.654040336608887,-8.47059154510498
370,26000.0,1.1437692642211914,4.654040336608887,-8.47059154510498
371,26100.0,1.105484127998352,4.603790760040283,-8.516055107116701
372,26200.0,1.105484127998352,4.603790760040283,-8.516055107116701
373,26300.0,1.1150553226470947,4.618147850036621,-8.482556343078612
374,26400.0,1.1150553226470947,4.618147850036621,-8.482556343078612
375,26500.0,1.0145567655563354,4.843072891235352,-8.417949676513674
376,26600.0,1.0145567655563354,4.843072891235352,-8.417949676513674
377,26700.0,1.0289137363433838,4.898108005523682,-8.396414756774902
378,26800.0,1.0289137363433838,4.898108005523682,-8.396414756774902
379,26900.0,1.057627558708191,4.634897232055664,-8.575876235961914
380,27000.0,1.057627558708191,4.634897232055664,-8.575876235961914
381,27100.0,1.057627558708191,4.634897232055664,-8.575876235961914
382,27200.0,1.0289137363433838,4.785645484924316,-8.441878318786621
383,27300.0,1.0289137363433838,4.785645484924316,-8.441878318786621
384,27400.0,1.1150553226470947,4.800002098083496,-8.405985832214355
385,27500.0,1.1150553226470947,4.800002098083496,-8.405985832214355
386,27600.0,1.1150553226470947,4.800002098083496,-8.405985832214355
387,27700.0,1.0815558433532717,4.7234320640563965,-8.482556343078612
388,27800.0,1.0815558433532717,4.7234320640563965,-8.482556343078612
389,27900.0,1.1006983518600464,4.7234320640563965,-8.463413238525389
390,26500.0,1.0145567655563354,4.843072891235352,-8.417949676513674
391,26600.0,1.0145567655563354,4.843072891235352,-8.417949676513674
392,26700.0,1.0289137363433838,4.898108005523682,-8.396414756774902
393,26800.0,1.0289137363433838,4.898108005523682,-8.396414756774902
394,26900.0,1.057627558708191,4.634897232055664,-8.575876235961914
395,27000.0,1.057627558708191,4.634897232055664,-8.575876235961914
396,27100.0,1.057627558708191,4.634897232055664,-8.575876235961914
397,27200.0,1.0289137363433838,4.785645484924316,-8.441878318786621
398,27300.0,1.0289137363433838,4.785645484924316,-8.441878318786621
399,27400.0,1.1150553226470947,4.800002098083496,-8.405985832214355
400,27500.0,1.1150553226470947,4.800002098083496,-8.405985832214355
401,27600.0,1.1150553226470947,4.800002098083496,-8.405985832214355
402,27700.0,1.0815558433532717,4.7234320640563965,-8.482556343078612
403,27800.0,1.0815558433532717,4.7234320640563965,-8.482556343078612
404,27900.0,1.1006983518600464,4.7234320640563965,-8.463413238525389
405,28000.0,1.1006983518600464,4.7234320640563965,-8.463413238525389
406,28100.0,1.0528419017791748,4.804787635803223,-8.405985832214355
407,28200.0,1.0528419017791748,4.804787635803223,-8.405985832214355
408,28300.0,1.0671988725662231,4.783252716064453,-8.372486114501951
409,28400.0,1.0671988725662231,4.783252716064453,-8.372486114501951
410,28500.0,1.043270707130432,4.867001533508301,-8.334200859069824
411,28600.0,1.043270707130432,4.867001533508301,-8.334200859069824
412,28700.0,1.043270707130432,4.867001533508301,-8.334200859069824
413,28800.0,1.043270707130432,4.790431022644043,-8.389235496520996
414,28900.0,1.043270707130432,4.790431022644043,-8.389235496520996
415,29000.0,1.0671988725662231,4.780859470367432,-8.3629150390625
416,29100.0,1.0671988725662231,4.780859470367432,-8.3629150390625
417,29200.0,1.0815558433532717,4.821537494659424,-8.410772323608397
418,29300.0,1.0815558433532717,4.821537494659424,-8.410772323608397
419,29400.0,1.0815558433532717,4.821537494659424,-8.410772323608397
420,28000.0,1.1006983518600464,4.7234320640563965,-8.463413238525389
421,28100.0,1.0528419017791748,4.804787635803223,-8.405985832214355
422,28200.0,1.0528419017791748,4.804787635803223,-8.405985832214355
423,28300.0,1.0671988725662231,4.783252716064453,-8.372486114501951
424,28400.0,1.0671988725662231,4.783252716064453,-8.372486114501951
425,28500.0,1.043270707130432,4.867001533508301,-8.334200859069824
426,28600.0,1.043270707130432,4.867001533508301,-8.334200859069824
427,28700.0,1.043270707130432,4.867001533508301,-8.334200859069824
428,28800.0,1.043270707130432,4.790431022644043,-8.389235496520996
429,28900.0,1.043270707130432,4.790431022644043,-8.389235496520996
430,29000.0,1.0671988725662231,4.780859470367432,-8.3629150390625
431,29100.0,1.0671988725662231,4.780859470367432,-8.3629150390625
432,29200.0,1.0815558433532717,4.821537494659424,-8.410772323608397
433,29300.0,1.0815558433532717,4.821537494659424,-8.410772323608397
434,29400.0,1.0815558433532717,4.821537494659424,-8.410772323608397
435,29500.0,1.0815558433532717,4.838287353515625,-8.38444995880127
436,29600.0,1.0815558433532717,4.838287353515625,-8.38444995880127
437,29700.0,1.0863415002822876,4.754538536071777,-8.482556343078612
438,29800.0,1.0863415002822876,4.754538536071777,-8.482556343078612
439,29900.0,1.043270707130432,4.800002098083496,-8.468198776245117
440,30000.0,1.043270707130432,4.800002098083496,-8.468198776245117
441,30100.0,1.1102697849273682,4.7497525215148935,-8.417949676513674
442,30200.0,1.1102697849273682,4.7497525215148935,-8.417949676513674
443,30300.0,1.1150553226470947,4.773681163787842,-8.405985832214355
444,30400.0,1.1150553226470947,4.773681163787842,-8.405985832214355
445,30500.0,1.1150553226470947,4.773681163787842,-8.405985832214355
446,30600.0,1.0815558433532717,4.7712883949279785,-8.48734188079834
447,30700.0,1.0815558433532717,4.7712883949279785,-8.48734188079834
448,30800.0,1.0336993932724001,4.912464618682861,-8.379664421081543
449,30900.0,1.0336993932724001,4.912464618682861,-8.379664421081543
450,29500.0,1.0815558433532717,4.838287353515625,-8.38444995880127
451,29600.0,1.0815558433532717,4.838287353515625,-8.38444995880127
452,29700.0,1.0863415002822876,4.754538536071777,-8.482556343078612
453,29800.0,1.0863415002822876,4.754538536071777,-8.482556343078612
454,29900.0,1.043270707130432,4.800002098083496,-8.468198776245117
455,30000.0,1.043270707130432,4.800002098083496,-8.468198776245117
456,30100.0,1.1102697849273682,4.7497525215148935,-8.417949676513674
457,30200.0,1.1102697849273682,4.7497525215148935,-8.417949676513674
458,30300.0,1.1150553226470947,4.773681163787842,-8.405985832214355
459,30400.0,1.1150553226470947,4.773681163787842,-8.405985832214355
460,30500.0,1.1150553226470947,4.773681163787842,-8.405985832214355
461,30600.0,1.0815558433532717,4.7712883949279785,-8.48734188079834
462,30700.0,1.0815558433532717,4.7712883949279785,-8.48734188079834
463,30800.0,1.0336993932724001,4.912464618682861,-8.379664421081543
464,30900.0,1.0336993932724001,4.912464618682861,-8.379664421081543
465,31000.0,1.062413215637207,4.8502516746521,-8.391629219055176
466,31100.0,1.062413215637207,4.8502516746521,-8.391629219055176
467,31200.0,1.062413215637207,4.8502516746521,-8.391629219055176
468,31300.0,1.0480562448501587,4.823930263519287,-8.444271087646483
469,31400.0,1.0480562448501587,4.823930263519287,-8.444271087646483
470,31500.0,1.0815558433532717,4.7569313049316415,-8.396414756774902
471,31600.0,1.0815558433532717,4.7569313049316415,-8.396414756774902
472,31700.0,1.0528419017791748,4.792823314666748,-8.38444995880127
473,31800.0,1.0528419017791748,4.792823314666748,-8.38444995880127
474,31900.0,1.0528419017791748,4.792823314666748,-8.38444995880127
475,32000.0,1.057627558708191,4.689932346343994,-8.391629219055176
476,32100.0,1.057627558708191,4.689932346343994,-8.391629219055176
477,32200.0,1.0719845294952393,4.759324073791504,-8.405985832214355
478,32300.0,1.0719845294952393,4.759324073791504,-8.405985832214355
479,32400.0,1.057627558708191,4.754538536071777,-8.468198776245117
480,31000.0,1.062413215637207,4.8502516746521,-8.391629219055176
481,31100.0,1.062413215637207,4.8502516746521,-8.391629219055176
482,31200.0,1.062413215637207,4.8502516746521,-8.391629219055176
483,31300.0,1.0480562448501587,4.823930263519287,-8.444271087646483
484,31400.0,1.0480562448501587,4.823930263519287,-8.444271087646483
485,31500.0,1.0815558433532717,4.7569313049316415,-8.396414756774902
486,31600.0,1.0815558433532717,4.7569313049316415,-8.396414756774902
487,31700.0,1.0528419017791748,4.792823314666748,-8.38444995880127
488,31800.0,1.0528419017791748,4.792823314666748,-8.38444995880127
489,31900.0,1.0528419017791748,4.792823314666748,-8.38444995880127
490,32000.0,1.057627558708191,4.689932346343994,-8.391629219055176
491,32100.0,1.057627558708191,4.689932346343994,-8.391629219055176
492,32200.0,1.0719845294952393,4.759324073791504,-8.405985832214355
493,32300.0,1.0719845294952393,4.759324073791504,-8.405985832214355
494,32400.0,1.057627558708191,4.754538536071777,-8.468198776245117
495,32500.0,1.057627558708191,4.754538536071777,-8.468198776245117
496,32600.0,1.057627558708191,4.754538536071777,-8.468198776245117
497,32700.0,1.0384850502014158,4.835894107818604,-8.425127983093263
498,32800.0,1.0384850502014158,4.835894107818604,-8.425127983093263
499,32900.0,1.0336993932724001,4.778466701507568,-8.444271087646483
500,33000.0,1.0336993932724001,4.778466701507568,-8.444271087646483
501,33100.0,1.057627558708191,4.764110088348389,-8.403593063354492
502,33200.0,1.057627558708191,4.764110088348389,-8.403593063354492
503,33300.0,1.057627558708191,4.764110088348389,-8.403593063354492
504,33400.0,1.0719845294952393,4.7569313049316415,-8.401200294494629
505,33500.0,1.0719845294952393,4.7569313049316415,-8.401200294494629
506,33600.0,1.0384850502014158,4.807180881500244,-8.410772323608397
507,33700.0,1.0384850502014158,4.807180881500244,-8.410772323608397
508,33800.0,1.0241280794143677,4.780859470367432,-8.444271087646483
509,33900.0,1.0241280794143677,4.780859470367432,-8.444271087646483
510,32500.0,1.057627558708191,4.754538536071777,-8.468198776245117
511,32600.0,1.057627558708191,4.754538536071777,-8.468198776245117
512,32700.0,1.0384850502014158,4.835894107818604,-8.425127983093263
513,32800.0,1.0384850502014158,4.835894107818604,-8.425127983093263
514,32900.0,1.0336993932724001,4.778466701507568,-8.444271087646483
515,33000.0,1.0336993932724001,4.778466701507568,-8.444271087646483
516,33100.0,1.057627558708191,4.764110088348389,-8.403593063354492
517,33200.0,1.057627558708191,4.764110088348389,-8.403593063354492
518,33300.0,1.057627558708191,4.764110088348389,-8.403593063354492
519,33400.0,1.0719845294952393,4.7569313049316415,-8.401200294494629
520,33500.0,1.0719845294952393,4.7569313049316415,-8.401200294494629
521,33600.0,1.0384850502014158,4.807180881500244,-8.410772323608397
522,33700.0,1.0384850502014158,4.807180881500244,-8.410772323608397
523,33800.0,1.0241280794143677,4.780859470367432,-8.444271087646483
524,33900.0,1.0241280794143677,4.780859470367432,-8.444271087646483
525,34000.0,1.0241280794143677,4.780859470367432,-8.444271087646483
526,34100.0,0.9954141974449158,4.855037212371826,-8.374878883361816
527,34200.0,0.9954141974449158,4.855037212371826,-8.374878883361816
528,34300.0,1.0911270380020142,5.240281581878662,-8.102097511291504
529,34400.0,1.0911270380020142,5.240281581878662,-8.102097511291504
530,34500.0,1.0528419017791748,5.1637115478515625,-8.12841796875
531,34600.0,1.0528419017791748,5.1637115478515625,-8.12841796875
532,34700.0,1.0528419017791748,5.1637115478515625,-8.12841796875
533,34800.0,0.8518448472023009,4.177868366241455,-8.161917686462402
534,34900.0,0.8518448472023009,4.177868366241455,-8.161917686462402
535,35000.0,1.0959126949310305,4.445864677429199,-8.477770805358888
536,35100.0,1.0959126949310305,4.445864677429199,-8.477770805358888
537,35200.0,1.0959126949310305,4.445864677429199,-8.477770805358888
538,35300.0,1.0863415002822876,4.773681163787842,-8.401200294494629
539,35400.0,1.0863415002822876,4.773681163787842,-8.401200294494629
540,34000.0,1.0241280794143677,4.780859470367432,-8.444271087646483
541,34100.0,0.9954141974449158,4.855037212371826,-8.374878883361816
542,34200.0,0.9954141974449158,4.855037212371826,-8.374878883361816
543,34300.0,1.0911270380020142,5.240281581878662,-8.102097511291504
544,34400.0,1.0911270380020142,5.240281581878662,-8.102097511291504
545,34500.0,1.0528419017791748,5.1637115478515625,-8.12841796875
546,34600.0,1.0528419017791748,5.1637115478515625,-8.12841796875
547,34700.0,1.0528419017791748,5.1637115478515625,-8.12841796875
548,34800.0,0.8518448472023009,4.177868366241455,-8.161917686462402
549,34900.0,0.8518448472023009,4.177868366241455,-8.161917686462402
550,35000.0,1.0959126949310305,4.445864677429199,-8.477770805358888
551,35100.0,1.0959126949310305,4.445864677429199,-8.477770805358888
552,35200.0,1.0959126949310305,4.445864677429199,-8.477770805358888
553,35300.0,1.0863415002822876,4.773681163787842,-8.401200294494629
554,35400.0,1.0863415002822876,4.773681163787842,-8.401200294494629
555,35500.0,1.1006983518600464,4.807180881500244,-8.415557861328125
556,35600.0,1.1006983518600464,4.807180881500244,-8.415557861328125
557,35700.0,1.1006983518600464,4.764110088348389,-8.343771934509277
558,35800.0,1.1006983518600464,4.764110088348389,-8.343771934509277
559,35900.0,1.1389836072921753,4.883750915527344,-8.350951194763184
560,36000.0,1.1389836072921753,4.883750915527344,-8.350951194763184
561,36100.0,1.1389836072921753,4.883750915527344,-8.350951194763184
562,36200.0,1.1485549211502075,4.859822750091553,-8.307880401611326
563,36300.0,1.1485549211502075,4.859822750091553,-8.307880401611326
564,36400.0,1.1389836072921753,4.855037212371826,-8.434700012207031
565,36500.0,1.1389836072921753,4.855037212371826,-8.434700012207031
566,36600.0,1.0959126949310305,4.8502516746521,-8.35573673248291
567,36700.0,1.0959126949310305,4.8502516746521,-8.35573673248291
568,36800.0,1.1389836072921753,4.828716278076172,-8.353343963623049
569,36900.0,1.1389836072921753,4.828716278076172,-8.353343963623049
570,35500.0,1.1006983518600464,4.807180881500244,-8.415557861328125
571,35600.0,1.1006983518600464,4.807180881500244,-8.415557861328125
572,35700.0,1.1006983518600464,4.764110088348389,-8.343771934509277
573,35800.0,1.1006983518600464,4.764110088348389,-8.343771934509277
574,35900.0,1.1389836072921753,4.883750915527344,-8.350951194763184
575,36000.0,1.1389836072921753,4.883750915527344,-8.350951194763184
576,36100.0,1.1389836072921753,4.883750915527344,-8.350951194763184
577,36200.0,1.1485549211502075,4.859822750091553,-8.307880401611326
578,36300.0,1.1485549211502075,4.859822750091553,-8.307880401611326
579,36400.0,1.1389836072921753,4.855037212371826,-8.434700012207031
580,36500.0,1.1389836072921753,4.855037212371826,-8.434700012207031
581,36600.0,1.0959126949310305,4.8502516746521,-8.35573673248291
582,36700.0,1.0959126949310305,4.8502516746521,-8.35573673248291
583,36800.0,1.1389836072921753,4.828716278076172,-8.353343963623049
584,36900.0,1.1389836072921753,4.828716278076172,-8.353343963623049
585,37000.0,1.1485549211502075,4.8502516746521,-8.310273170471191
586,37100.0,1.1485549211502075,4.8502516746521,-8.310273170471191
587,37200.0,1.1485549211502075,4.8502516746521,-8.310273170471191
588,37300.0,1.1485549211502075,4.898108005523682,-8.288737297058105
589,37400.0,1.1485549211502075,4.898108005523682,-8.288737297058105
590,37500.0,1.1485549211502075,4.867001533508301,-8.329416275024414
591,37600.0,1.1485549211502075,4.867001533508301,-8.329416275024414
592,37700.0,1.1485549211502075,4.867001533508301,-8.329416275024414
593,37800.0,1.1341978311538696,4.840680122375488,-8.34855842590332
594,37900.0,1.1341978311538696,4.840680122375488,-8.34855842590332
595,38000.0,1.0959126949310305,4.878964900970459,-8.367700576782228
596,38100.0,1.0959126949310305,4.878964900970459,-8.367700576782228
597,38200.0,1.1485549211502075,4.883750915527344,-8.324630737304688
598,38300.0,1.1485549211502075,4.883750915527344,-8.324630737304688
599,38400.0,1.1437692642211914,4.945964336395264,-8.283952713012695
600,37000.0,1.1485549211502075,4.8502516746521,-8.310273170471191
601,37100.0,1.1485549211502075,4.8502516746521,-8.310273170471191
602,37200.0,1.1485549211502075,4.8502516746521,-8.310273170471191
603,37300.0,1.1485549211502075,4.898108005523682,-8.288737297058105
604,37400.0,1.1485549211502075,4.898108005523682,-8.288737297058105
605,37500.0,1.1485549211502075,4.867001533508301,-8.329416275024414
606,37600.0,1.1485549211502075,4.867001533508301,-8.329416275024414
607,37700.0,1.1485549211502075,4.867001533508301,-8.329416275024414
608,37800.0,1.1341978311538696,4.840680122375488,-8.34855842590332
609,37900.0,1.1341978311538696,4.840680122375488,-8.34855842590332
610,38000.0,1.0959126949310305,4.878964900970459,-8.367700576782228
611,38100.0,1.0959126949310305,4.878964900970459,-8.367700576782228
612,38200.0,1.1485549211502075,4.883750915527344,-8.324630737304688
613,38300.0,1.1485549211502075,4.883750915527344,-8.324630737304688
614,38400.0,1.1437692642211914,4.945964336395264,-8.283952713012695
615,38500.0,1.1437692642211914,4.945964336395264,-8.283952713012695
616,38600.0,1.129412293434143,4.929214477539063,-8.35573673248291
617,38700.0,1.129412293434143,4.929214477539063,-8.35573673248291
618,38800.0,1.129412293434143,4.929214477539063,-8.35573673248291
619,38900.0,1.129412293434143,4.917250633239746,-8.303093910217285
620,39000.0,1.129412293434143,4.917250633239746,-8.303093910217285
621,39100.0,1.2059825658798218,4.912464618682861,-8.274380683898926
622,39200.0,1.2059825658798218,4.912464618682861,-8.274380683898926
623,39300.0,1.2059825658798218,4.912464618682861,-8.274380683898926
624,39400.0,1.1341978311538696,4.950750350952148,-8.281558990478517
625,39500.0,1.1341978311538696,4.950750350952148,-8.281558990478517
626,39600.0,1.1102697849273682,4.972285747528076,-8.240880966186522
627,39700.0,1.1102697849273682,4.972285747528076,-8.240880966186522
628,39800.0,1.0767701864242554,4.953143119812012,-8.317451477050781
629,39900.0,1.0767701864242554,4.953143119812012,-8.317451477050781
630,38500.0,1.1437692642211914,4.945964336395264,-8.283952713012695
631,38600.0,1.129412293434143,4.929214477539063,-8.35573673248291
632,38700.0,1.129412293434143,4.929214477539063,-8.35573673248291
633,38800.0,1.129412293434143,4.929214477539063,-8.35573673248291
634,38900.0,1.129412293434143,4.917250633239746,-8.303093910217285
635,39000.0,1.129412293434143,4.917250633239746,-8.303093910217285
636,39100.0,1.2059825658798218,4.912464618682861,-8.274380683898926
637,39200.0,1.2059825658798218,4.912464618682861,-8.274380683898926
638,39300.0,1.2059825658798218,4.912464618682861,-8.274380683898926
639,39400.0,1.1341978311538696,4.950750350952148,-8.281558990478517
640,39500.0,1.1341978311538696,4.950750350952148,-8.281558990478517
641,39600.0,1.1102697849273682,4.972285747528076,-8.240880966186522
642,39700.0,1.1102697849273682,4.972285747528076,-8.240880966186522
643,39800.0,1.0767701864242554,4.953143119812012,-8.317451477050781
644,39900.0,1.0767701864242554,4.953143119812012,-8.317451477050781
645,40000.0,1.1389836072921753,4.953143119812012,-8.317451477050781
646,40100.0,1.1389836072921753,4.953143119812012,-8.317451477050781
647,40200.0,1.1389836072921753,4.924428939819336,-8.372486114501951
648,40300.0,1.1389836072921753,4.924428939819336,-8.372486114501951
649,40400.0,1.1389836072921753,4.924428939819336,-8.372486114501951
650,40500.0,1.124626636505127,4.981856822967528,-8.327022552490233
651,40600.0,1.124626636505127,4.981856822967528,-8.327022552490233
652,40700.0,1.0911270380020142,5.048855781555176,-8.305487632751465
653,40800.0,1.0911270380020142,5.048855781555176,-8.305487632751465
654,40900.0,1.1198409795761108,4.9914283752441415,-8.295915603637695
655,41000.0,1.1198409795761108,4.9914283752441415,-8.295915603637695
656,41100.0,1.1198409795761108,4.9914283752441415,-8.295915603637695
657,41200.0,1.1629117727279663,5.024927616119385,-8.274380683898926
658,41300.0,1.1629117727279663,5.024927616119385,-8.274380683898926
659,41400.0,1.1102697849273682,4.981856822967528,-8.331808090209961
660,40000.0,1.1389836072921753,4.953143119812012,-8.317451477050781
661,40100.0,1.1389836072921753,4.953143119812012,-8.317451477050781
662,40200.0,1.1389836072921753,4.924428939819336,-8.372486114501951
663,40300.0,1.1389836072921753,4.924428939819336,-8.372486114501951
664,40400.0,1.1389836072921753,4.924428939819336,-8.372486114501951
665,40500.0,1.124626636505127,4.981856822967528,-8.327022552490233
666,40600.0,1.124626636505127,4.981856822967528,-8.327022552490233
667,40700.0,1.0911270380020142,5.048855781555176,-8.305487632751465
668,40800.0,1.0911270380020142,5.048855781555176,-8.305487632751465
669,40900.0,1.1198409795761108,4.9914283752441415,-8.295915603637695
670,41000.0,1.1198409795761108,4.9914283752441415,-8.295915603637695
671,41100.0,1.1198409795761108,4.9914283752441415,-8.295915603637695
672,41200.0,1.1629117727279663,5.024927616119385,-8.274380683898926
673,41300.0,1.1629117727279663,5.024927616119385,-8.274380683898926
674,41400.0,1.1102697849273682,4.981856822967528,-8.331808090209961
675,41500.0,1.1102697849273682,4.981856822967528,-8.331808090209961
676,41600.0,1.1437692642211914,4.924428939819336,-8.305487632751465
677,41700.0,1.1437692642211914,4.924428939819336,-8.305487632751465
678,41800.0,1.1389836072921753,5.008177757263184,-8.288737297058105
679,41900.0,1.1389836072921753,5.008177757263184,-8.288737297058105
680,42000.0,1.129412293434143,4.950750350952148,-8.312665939331055
681,42100.0,1.129412293434143,4.950750350952148,-8.312665939331055
682,42200.0,1.129412293434143,4.950750350952148,-8.312665939331055
683,42300.0,1.1437692642211914,4.996213912963867,-8.343771934509277
684,42400.0,1.1437692642211914,4.996213912963867,-8.343771934509277
685,42500.0,1.124626636505127,5.044069766998291,-8.288737297058105
686,42600.0,1.124626636505127,5.044069766998291,-8.288737297058105
687,42700.0,1.124626636505127,5.044069766998291,-8.288737297058105
688,42800.0,1.105484127998352,4.9914283752441415,-8.315058708190918
689,42900.0,1.105484127998352,4.9914283752441415,-8.315058708190918
690,41500.0,1.1102697849273682,4.981856822967528,-8.331808090209961
691,41600.0,1.1437692642211914,4.924428939819336,-8.305487632751465
692,41700.0,1.1437692642211914,4.924428939819336,-8.305487632751465
693,41800.0,1.1389836072921753,5.008177757263184,-8.288737297058105
694,41900.0,1.1389836072921753,5.008177757263184,-8.288737297058105
695,42000.0,1.129412293434143,4.950750350952148,-8.312665939331055
696,42100.0,1.129412293434143,4.950750350952148,-8.312665939331055
697,42200.0,1.129412293434143,4.950750350952148,-8.312665939331055
698,42300.0,1.1437692642211914,4.996213912963867,-8.343771934509277
699,42400.0,1.1437692642211914,4.996213912963867,-8.343771934509277
700,42500.0,1.124626636505127,5.044069766998291,-8.288737297058105
701,42600.0,1.124626636505127,5.044069766998291,-8.288737297058105
702,42700.0,1.124626636505127,5.044069766998291,-8.288737297058105
703,42800.0,1.105484127998352,4.9914283752441415,-8.315058708190918
704,42900.0,1.105484127998352,4.9914283752441415,-8.315058708190918
705,43000.0,1.1006983518600464,5.015356063842773,-8.291130065917969
706,43100.0,1.1006983518600464,5.015356063842773,-8.291130065917969
707,43200.0,1.1150553226470947,5.091926097869873,-8.236095428466799
708,43300.0,1.1150553226470947,5.091926097869873,-8.236095428466799
709,43400.0,1.1150553226470947,5.091926097869873,-8.236095428466799
710,43500.0,1.1581261157989502,5.115854740142822,-8.260024070739746
711,43600.0,1.1581261157989502,5.115854740142822,-8.260024070739746
712,43700.0,1.191625714302063,4.9363932609558105,-8.317451477050781
713,43800.0,1.191625714302063,4.9363932609558105,-8.317451477050781
714,43900.0,1.1006983518600464,5.099104881286621,-8.22413158416748
715,44000.0,1.1006983518600464,5.099104881286621,-8.22413158416748
716,44100.0,1.1006983518600464,5.099104881286621,-8.22413158416748
717,44200.0,1.1581261157989502,5.106283187866211,-8.298308372497559
718,44300.0,1.1581261157989502,5.106283187866211,-8.298308372497559
719,44400.0,1.105484127998352,4.9387855529785165,-8.240880966186522
720,43000.0,1.1006983518600464,5.015356063842773,-8.291130065917969
721,43100.0,1.1006983518600464,5.015356063842773,-8.291130065917969
722,43200.0,1.1150553226470947,5.091926097869873,-8.236095428466799
723,43300.0,1.1150553226470947,5.091926097869873,-8.236095428466799
724,43400.0,1.1150553226470947,5.091926097869873,-8.236095428466799
725,43500.0,1.1581261157989502,5.115854740142822,-8.260024070739746
726,43600.0,1.1581261157989502,5.115854740142822,-8.260024070739746
727,43700.0,1.191625714302063,4.9363932609558105,-8.317451477050781
728,43800.0,1.191625714302063,4.9363932609558105,-8.317451477050781
729,43900.0,1.1006983518600464,5.099104881286621,-8.22413158416748
730,44000.0,1.1006983518600464,5.099104881286621,-8.22413158416748
731,44100.0,1.1006983518600464,5.099104881286621,-8.22413158416748
732,44200.0,1.1581261157989502,5.106283187866211,-8.298308372497559
733,44300.0,1.1581261157989502,5.106283187866211,-8.298308372497559
734,44400.0,1.105484127998352,4.9387855529785165,-8.240880966186522
735,44500.0,1.105484127998352,4.9387855529785165,-8.240880966186522
736,44600.0,1.1102697849273682,4.883750915527344,-8.319844245910645
737,44700.0,1.1102697849273682,4.883750915527344,-8.319844245910645
738,44800.0,1.1102697849273682,4.883750915527344,-8.319844245910645
739,44900.0,1.1198409795761108,5.1086764335632315,-8.271987915039062
740,45000.0,1.1198409795761108,5.1086764335632315,-8.271987915039062
741,45100.0,1.1772687435150146,5.065605640411377,-8.276773452758789
742,45200.0,1.1772687435150146,5.065605640411377,-8.276773452758789
743,45300.0,1.1150553226470947,5.1014976501464835,-8.269595146179201
744,45400.0,1.1150553226470947,5.1014976501464835,-8.269595146179201
745,45500.0,1.1150553226470947,5.1014976501464835,-8.269595146179201
746,45600.0,1.1868400573730469,5.127819538116455,-8.209774017333983
747,45700.0,1.1868400573730469,5.127819538116455,-8.209774017333983
748,45800.0,1.1772687435150146,5.0201416015625,-8.250452041625978
749,45900.0,1.1772687435150146,5.0201416015625,-8.250452041625978
750,44500.0,1.105484127998352,4.9387855529785165,-8.240880966186522
751,44600.0,1.1102697849273682,4.883750915527344,-8.319844245910645
752,44700.0,1.1102697849273682,4.883750915527344,-8.319844245910645
753,44800.0,1.1102697849273682,4.883750915527344,-8.319844245910645
754,44900.0,1.1198409795761108,5.1086764335632315,-8.271987915039062
755,45000.0,1.1198409795761108,5.1086764335632315,-8.271987915039062
756,45100.0,1.1772687435150146,5.065605640411377,-8.276773452758789
757,45200.0,1.1772687435150146,5.065605640411377,-8.276773452758789
758,45300.0,1.1150553226470947,5.1014976501464835,-8.269595146179201
759,45400.0,1.1150553226470947,5.1014976501464835,-8.269595146179201
760,45500.0,1.1150553226470947,5.1014976501464835,-8.269595146179201
761,45600.0,1.1868400573730469,5.127819538116455,-8.209774017333983
762,45700.0,1.1868400573730469,5.127819538116455,-8.209774017333983
763,45800.0,1.1772687435150146,5.0201416015625,-8.250452041625978
764,45900.0,1.1772687435150146,5.0201416015625,-8.250452041625978
765,46000.0,1.1389836072921753,5.0225348472595215,-8.209774017333983
766,46100.0,1.1389836072921753,5.0225348472595215,-8.209774017333983
767,46200.0,1.1102697849273682,5.048855781555176,-8.195417404174805
768,46300.0,1.1102697849273682,5.048855781555176,-8.195417404174805
769,46400.0,1.1102697849273682,5.048855781555176,-8.195417404174805
770,46500.0,1.1724830865859983,5.082355499267578,-8.250452041625978
771,46600.0,1.1724830865859983,5.082355499267578,-8.250452041625978
772,46700.0,1.1389836072921753,5.103890895843506,-8.257630348205566
773,46800.0,1.1389836072921753,5.103890895843506,-8.257630348205566
774,46900.0,1.124626636505127,5.257031440734863,-8.092526435852049
775,47000.0,1.124626636505127,5.257031440734863,-8.092526435852049
776,47100.0,1.124626636505127,5.257031440734863,-8.092526435852049
777,47200.0,1.1150553226470947,4.977071285247803,-8.283952713012695
778,47300.0,1.1150553226470947,4.977071285247803,-8.283952713012695
779,47400.0,1.1389836072921753,5.132604122161865,-8.157133102416992
780,46000.0,1.1389836072921753,5.0225348472595215,-8.209774017333983
781,46100.0,1.1389836072921753,5.0225348472595215,-8.209774017333983
782,46200.0,1.1102697849273682,5.048855781555176,-8.195417404174805
783,46300.0,1.1102697849273682,5.048855781555176,-8.195417404174805
784,46400.0,1.1102697849273682,5.048855781555176,-8.195417404174805
785,46500.0,1.1724830865859983,5.082355499267578,-8.250452041625978
786,46600.0,1.1724830865859983,5.082355499267578,-8.250452041625978
787,46700.0,1.1389836072921753,5.103890895843506,-8.257630348205566
788,46800.0,1.1389836072921753,5.103890895843506,-8.257630348205566
789,46900.0,1.124626636505127,5.257031440734863,-8.092526435852049
790,47000.0,1.124626636505127,5.257031440734863,-8.092526435852049
791,47100.0,1.124626636505127,5.257031440734863,-8.092526435852049
792,47200.0,1.1150553226470947,4.977071285247803,-8.283952713012695
793,47300.0,1.1150553226470947,4.977071285247803,-8.283952713012695
794,47400.0,1.1389836072921753,5.132604122161865,-8.157133102416992
795,47500.0,1.1389836072921753,5.132604122161865,-8.157133102416992
796,47600.0,1.1772687435150146,5.103890895843506,-8.212166786193848
797,47700.0,1.1772687435150146,5.103890895843506,-8.212166786193848
798,47800.0,1.1772687435150146,5.103890895843506,-8.212166786193848
799,47900.0,1.2299107313156128,5.084747791290283,-8.228917121887207
800,48000.0,1.2299107313156128,5.084747791290283,-8.228917121887207
801,48100.0,1.1389836072921753,5.146961212158203,-8.188239097595215
802,48200.0,1.1389836072921753,5.146961212158203,-8.188239097595215
803,48300.0,1.1676974296569824,5.0560340881347665,-8.188239097595215
804,48400.0,1.1676974296569824,5.0560340881347665,-8.188239097595215
805,48500.0,1.1676974296569824,5.0560340881347665,-8.188239097595215
806,48600.0,1.1485549211502075,5.142175674438477,-8.204988479614258
807,48700.0,1.1485549211502075,5.142175674438477,-8.204988479614258
808,48800.0,1.1006983518600464,5.149354457855225,-8.228917121887207
809,48900.0,1.1006983518600464,5.149354457855225,-8.228917121887207
810,47500.0,1.1389836072921753,5.132604122161865,-8.157133102416992
811,47600.0,1.1772687435150146,5.103890895843506,-8.212166786193848
812,47700.0,1.1772687435150146,5.103890895843506,-8.212166786193848
813,47800.0,1.1772687435150146,5.103890895843506,-8.212166786193848
814,47900.0,1.2299107313156128,5.084747791290283,-8.228917121887207
815,48000.0,1.2299107313156128,5.084747791290283,-8.228917121887207
816,48100.0,1.1389836072921753,5.146961212158203,-8.188239097595215
817,48200.0,1.1389836072921753,5.146961212158203,-8.188239097595215
818,48300.0,1.1676974296569824,5.0560340881347665,-8.188239097595215
819,48400.0,1.1676974296569824,5.0560340881347665,-8.188239097595215
820,48500.0,1.1676974296569824,5.0560340881347665,-8.188239097595215
821,48600.0,1.1485549211502075,5.142175674438477,-8.204988479614258
822,48700.0,1.1485549211502075,5.142175674438477,-8.204988479614258
823,48800.0,1.1006983518600464,5.149354457855225,-8.228917121887207
824,48900.0,1.1006983518600464,5.149354457855225,-8.228917121887207
825,49000.0,1.1389836072921753,5.099104881286621,-8.255237579345701
826,49100.0,1.1389836072921753,5.099104881286621,-8.255237579345701
827,49200.0,1.1389836072921753,5.132604122161865,-8.097311973571777
828,49300.0,1.1389836072921753,5.132604122161865,-8.097311973571777
829,49400.0,1.1389836072921753,5.132604122161865,-8.097311973571777
830,49500.0,1.2490534782409668,5.024927616119385,-8.214560508728027
831,49600.0,1.2490534782409668,5.024927616119385,-8.214560508728027
832,49700.0,1.1102697849273682,5.240281581878662,-8.073383331298826
833,49800.0,1.1102697849273682,5.240281581878662,-8.073383331298826
834,49900.0,1.2346963882446291,5.027320384979248,-8.221738815307617
835,50000.0,1.2346963882446291,5.027320384979248,-8.221738815307617
836,50100.0,1.2346963882446291,5.027320384979248,-8.221738815307617
837,50200.0,1.1676974296569824,5.417350769042969,-8.030312538146973
838,50300.0,1.1676974296569824,5.417350769042969,-8.030312538146973
839,50400.0,1.1820544004440308,5.156532764434815,-8.204988479614258
840,49000.0,1.1389836072921753,5.099104881286621,-8.255237579345701
841,49100.0,1.1389836072921753,5.099104881286621,-8.255237579345701
842,49200.0,1.1389836072921753,5.132604122161865,-8.097311973571777
843,49300.0,1.1389836072921753,5.132604122161865,-8.097311973571777
844,49400.0,1.1389836072921753,5.132604122161865,-8.097311973571777
845,49500.0,1.2490534782409668,5.024927616119385,-8.214560508728027
846,49600.0,1.2490534782409668,5.024927616119385,-8.214560508728027
847,49700.0,1.1102697849273682,5.240281581878662,-8.073383331298826
848,49800.0,1.1102697849273682,5.240281581878662,-8.073383331298826
849,49900.0,1.2346963882446291,5.027320384979248,-8.221738815307617
850,50000.0,1.2346963882446291,5.027320384979248,-8.221738815307617
851,50100.0,1.2346963882446291,5.027320384979248,-8.221738815307617
852,50200.0,1.1676974296569824,5.417350769042969,-8.030312538146973
853,50300.0,1.1676974296569824,5.417350769042969,-8.030312538146973
854,50400.0,1.1820544004440308,5.156532764434815,-8.204988479614258
855,50500.0,1.1820544004440308,5.156532764434815,-8.204988479614258
856,50600.0,1.1341978311538696,5.278566360473633,-8.145168304443361
857,50700.0,1.1341978311538696,5.278566360473633,-8.145168304443361
858,50800.0,1.0480562448501587,5.170889854431152,-8.171488761901855
859,50900.0,1.0480562448501587,5.170889854431152,-8.171488761901855
860,51000.0,1.0241280794143677,5.405385971069336,-8.130810737609862
861,51100.0,1.0241280794143677,5.405385971069336,-8.130810737609862
862,51200.0,1.0384850502014158,5.319244384765625,-8.161917686462402
863,51300.0,1.0384850502014158,5.319244384765625,-8.161917686462402
864,51400.0,0.9092726111412048,5.565705299377441,-7.932207107543945
865,51500.0,0.9092726111412048,5.565705299377441,-7.932207107543945
866,51600.0,1.0145567655563354,5.465207099914551,-7.9585280418396
867,51700.0,1.0145567655563354,5.465207099914551,-7.9585280418396
868,51800.0,1.0145567655563354,5.465207099914551,-7.9585280418396
869,51900.0,1.043270707130432,5.359922409057617,-8.039883613586426
870,50500.0,1.1820544004440308,5.156532764434815,-8.204988479614258
871,50600.0,1.1341978311538696,5.278566360473633,-8.145168304443361
872,50700.0,1.1341978311538696,5.278566360473633,-8.145168304443361
873,50800.0,1.0480562448501587,5.170889854431152,-8.171488761901855
874,50900.0,1.0480562448501587,5.170889854431152,-8.171488761901855
875,51000.0,1.0241280794143677,5.405385971069336,-8.130810737609862
876,51100.0,1.0241280794143677,5.405385971069336,-8.130810737609862
877,51200.0,1.0384850502014158,5.319244384765625,-8.161917686462402
878,51300.0,1.0384850502014158,5.319244384765625,-8.161917686462402
879,51400.0,0.9092726111412048,5.565705299377441,-7.932207107543945
880,51500.0,0.9092726111412048,5.565705299377441,-7.932207107543945
881,51600.0,1.0145567655563354,5.465207099914551,-7.9585280418396
882,51700.0,1.0145567655563354,5.465207099914551,-7.9585280418396
883,51800.0,1.0145567655563354,5.465207099914551,-7.9585280418396
884,51900.0,1.043270707130432,5.359922409057617,-8.039883613586426
885,52000.0,1.043270707130432,5.359922409057617,-8.039883613586426
886,52100.0,1.0671988725662231,5.43170690536499,-8.135597229003906
887,52200.0,1.0671988725662231,5.43170690536499,-8.135597229003906
888,52300.0,1.0671988725662231,5.43170690536499,-8.135597229003906
889,52400.0,0.9619146585464478,5.3551368713378915,-8.039883613586426
890,52500.0,0.9619146585464478,5.3551368713378915,-8.039883613586426
891,52600.0,1.0336993932724001,5.405385971069336,-8.039883613586426
892,52700.0,1.0336993932724001,5.405385971069336,-8.039883613586426
893,52800.0,0.9762716889381408,5.5824551582336435,-7.8867435455322275
894,52900.0,0.9762716889381408,5.5824551582336435,-7.8867435455322275
895,53000.0,0.9044869542121888,5.386244297027588,-7.869993209838867
896,53100.0,0.9044869542121888,5.386244297027588,-7.869993209838867
897,53200.0,0.9044869542121888,5.386244297027588,-7.869993209838867
898,53300.0,0.9906285405158995,5.769095420837402,-7.915457248687744
899,53400.0,0.9906285405158995,5.769095420837402,-7.915457248687744
900,52000.0,1.043270707130432,5.359922409057617,-8.039883613586426
901,52100.0,1.0671988725662231,5.43170690536499,-8.135597229003906
902,52200.0,1.0671988725662231,5.43170690536499,-8.135597229003906
903,52300.0,1.0671988725662231,5.43170690536499,-8.135597229003906
904,52400.0,0.9619146585464478,5.3551368713378915,-8.039883613586426
905,52500.0,0.9619146585464478,5.3551368713378915,-8.039883613586426
906,52600.0,1.0336993932724001,5.405385971069336,-8.039883613586426
907,52700.0,1.0336993932724001,5.405385971069336,-8.039883613586426
908,52800.0,0.9762716889381408,5.5824551582336435,-7.8867435455322275
909,52900.0,0.9762716889381408,5.5824551582336435,-7.8867435455322275
910,53000.0,0.9044869542121888,5.386244297027588,-7.869993209838867
911,53100.0,0.9044869542121888,5.386244297027588,-7.869993209838867
912,53200.0,0.9044869542121888,5.386244297027588,-7.869993209838867
913,53300.0,0.9906285405158995,5.769095420837402,-7.915457248687744
914,53400.0,0.9906285405158995,5.769095420837402,-7.915457248687744
915,53500.0,0.9332008361816406,5.328815937042236,-8.173882484436035
916,53600.0,0.9332008361816406,5.328815937042236,-8.173882484436035
917,53700.0,0.9332008361816406,5.328815937042236,-8.173882484436035
918,53800.0,0.9523434042930604,5.460421085357666,-8.02074146270752
919,53900.0,0.9523434042930604,5.460421085357666,-8.02074146270752
920,54000.0,0.6508477926254272,4.3932223320007315,-8.066205024719237
921,54100.0,0.6508477926254272,4.3932223320007315,-8.066205024719237
922,54200.0,0.9667003750801086,4.883750915527344,-8.214560508728027
923,54300.0,0.9667003750801086,4.883750915527344,-8.214560508728027
924,54400.0,1.0671988725662231,5.190032482147217,-8.200202941894531
925,54500.0,1.0671988725662231,5.190032482147217,-8.200202941894531
926,54600.0,1.0671988725662231,5.190032482147217,-8.200202941894531
927,54700.0,0.9571290016174316,5.383851051330566,-8.02074146270752
928,54800.0,0.9571290016174316,5.383851051330566,-8.02074146270752
929,54900.0,0.9236294627189636,5.800201892852782,-7.810173511505128
930,53500.0,0.9332008361816406,5.328815937042236,-8.173882484436035
931,53600.0,0.9332008361816406,5.328815937042236,-8.173882484436035
932,53700.0,0.9332008361816406,5.328815937042236,-8.173882484436035
933,53800.0,0.9523434042930604,5.460421085357666,-8.02074146270752
934,53900.0,0.9523434042930604,5.460421085357666,-8.02074146270752
935,54000.0,0.6508477926254272,4.3932223320007315,-8.066205024719237
936,54100.0,0.6508477926254272,4.3932223320007315,-8.066205024719237
937,54200.0,0.9667003750801086,4.883750915527344,-8.214560508728027
938,54300.0,0.9667003750801086,4.883750915527344,-8.214560508728027
939,54400.0,1.0671988725662231,5.190032482147217,-8.200202941894531
940,54500.0,1.0671988725662231,5.190032482147217,-8.200202941894531
941,54600.0,1.0671988725662231,5.190032482147217,-8.200202941894531
942,54700.0,0.9571290016174316,5.383851051330566,-8.02074146270752
943,54800.0,0.9571290016174316,5.383851051330566,-8.02074146270752
944,54900.0,0.9236294627189636,5.800201892852782,-7.810173511505128
945,55000.0,0.9236294627189636,5.800201892852782,-7.810173511505128
946,55100.0,0.9236294627189636,5.800201892852782,-7.810173511505128
947,55200.0,0.8757730722427368,5.7954163551330575,-7.735995292663574
948,55300.0,0.8757730722427368,5.7954163551330575,-7.735995292663574
949,55400.0,0.9619146585464478,5.620740413665772,-7.898707389831543
950,55500.0,0.9619146585464478,5.620740413665772,-7.898707389831543
951,55600.0,0.9762716889381408,5.682953834533691,-7.838886737823486
952,55700.0,0.9762716889381408,5.682953834533691,-7.838886737823486
953,55800.0,1.5026925802230835,4.704289436340332,-8.3629150390625
954,55900.0,1.5026925802230835,4.704289436340332,-8.3629150390625
955,56000.0,1.9094725847244265,4.4506497383117685,-8.293522834777832
956,56100.0,1.9094725847244265,4.4506497383117685,-8.293522834777832
957,56200.0,1.9094725847244265,4.4506497383117685,-8.293522834777832
958,56300.0,1.7467604875564575,4.632504463195801,-8.24566650390625
959,56400.0,1.7467604875564575,4.632504463195801,-8.24566650390625
960,55000.0,0.9236294627189636,5.800201892852782,-7.810173511505128
961,55100.0,0.9236294627189636,5.800201892852782,-7.810173511505128
962,55200.0,0.8757730722427368,5.7954163551330575,-7.735995292663574
963,55300.0,0.8757730722427368,5.7954163551330575,-7.735995292663574
964,55400.0,0.9619146585464478,5.620740413665772,-7.898707389831543
965,55500.0,0.9619146585464478,5.620740413665772,-7.898707389831543
966,55600.0,0.9762716889381408,5.682953834533691,-7.838886737823486
967,55700.0,0.9762716889381408,5.682953834533691,-7.838886737823486
968,55800.0,1.5026925802230835,4.704289436340332,-8.3629150390625
969,55900.0,1.5026925802230835,4.704289436340332,-8.3629150390625
970,56000.0,1.9094725847244265,4.4506497383117685,-8.293522834777832
971,56100.0,1.9094725847244265,4.4506497383117685,-8.293522834777832
972,56200.0,1.9094725847244265,4.4506497383117685,-8.293522834777832
973,56300.0,1.7467604875564575,4.632504463195801,-8.24566650390625
974,56400.0,1.7467604875564575,4.632504463195801,-8.24566650390625
975,56500.0,1.6893328428268433,4.3238306045532235,-8.707481384277344
976,56600.0,1.6893328428268433,4.3238306045532235,-8.707481384277344
977,56700.0,1.550549030303955,4.364508152008057,-8.614161491394043
978,56800.0,1.550549030303955,4.364508152008057,-8.614161491394043
979,56900.0,1.550549030303955,4.364508152008057,-8.614161491394043
980,57000.0,1.4213367700576782,4.469792366027832,-8.554340362548826
981,57100.0,1.4213367700576782,4.469792366027832,-8.554340362548826
982,57200.0,1.497907042503357,3.768695831298828,-8.82233715057373
983,57300.0,1.497907042503357,3.768695831298828,-8.82233715057373
984,57400.0,1.7084753513336182,4.3238306045532235,-9.619147300720217
985,57500.0,1.7084753513336182,4.3238306045532235,-9.619147300720217
986,57600.0,1.7084753513336182,4.3238306045532235,-9.619147300720217
987,57700.0,1.4356936216354368,4.216153621673584,-8.697910308837889
988,57800.0,1.4356936216354368,4.216153621673584,-8.697910308837889
989,57900.0,1.4165509939193726,4.051048755645752,-8.717053413391112
990,56500.0,1.6893328428268433,4.3238306045532235,-8.707481384277344
991,56600.0,1.6893328428268433,4.3238306045532235,-8.707481384277344
992,56700.0,1.550549030303955,4.364508152008057,-8.614161491394043
993,56800.0,1.550549030303955,4.364508152008057,-8.614161491394043
994,56900.0,1.550549030303955,4.364508152008057,-8.614161491394043
995,57000.0,1.4213367700576782,4.469792366027832,-8.554340362548826
996,57100.0,1.4213367700576782,4.469792366027832,-8.554340362548826
997,57200.0,1.497907042503357,3.768695831298828,-8.82233715057373
998,57300.0,1.497907042503357,3.768695831298828,-8.82233715057373
999,57400.0,1.7084753513336182,4.3238306045532235,-9.619147300720217
1000,57500.0,1.7084753513336182,4.3238306045532235,-9.619147300720217
1001,57600.0,1.7084753513336182,4.3238306045532235,-9.619147300720217
1002,57700.0,1.4356936216354368,4.216153621673584,-8.697910308837889
1003,57800.0,1.4356936216354368,4.216153621673584,-8.697910308837889
1004,57900.0,1.4165509939193726,4.051048755645752,-8.717053413391112
1005,58000.0,1.4165509939193726,4.051048755645752,-8.717053413391112
1006,58100.0,1.3830513954162598,4.371686935424806,-8.556733131408691
1007,58200.0,1.3830513954162598,4.371686935424806,-8.556733131408691
1008,58300.0,1.3830513954162598,4.371686935424806,-8.556733131408691
1009,58400.0,1.2059825658798218,4.484149932861328,-8.516055107116701
1010,58500.0,1.2059825658798218,4.484149932861328,-8.516055107116701
1011,58600.0,1.2251251935958862,4.735395908355713,-8.422735214233397
1012,58700.0,1.2251251935958862,4.735395908355713,-8.422735214233397
1013,58800.0,1.3112668991088867,4.618147850036621,-8.446663856506348
1014,58900.0,1.3112668991088867,4.618147850036621,-8.446663856506348
1015,59000.0,1.3112668991088867,4.618147850036621,-8.446663856506348
1016,59100.0,1.3399806022644043,4.658825397491455,-8.358129501342772
1017,59200.0,1.3399806022644043,4.658825397491455,-8.358129501342772
1018,59300.0,1.325623631477356,4.632504463195801,-8.401200294494629
1019,59400.0,1.325623631477356,4.632504463195801,-8.401200294494629
1020,58000.0,1.4165509939193726,4.051048755645752,-8.717053413391112
1021,58100.0,1.3830513954162598,4.371686935424806,-8.556733131408691
1022,58200.0,1.3830513954162598,4.371686935424806,-8.556733131408691
1023,58300.0,1.3830513954162598,4.371686935424806,-8.556733131408691
1024,58400.0,1.2059825658798218,4.484149932861328,-8.516055107116701
1025,58500.0,1.2059825658798218,4.484149932861328,-8.516055107116701
1026,58600.0,1.2251251935958862,4.735395908355713,-8.422735214233397
1027,58700.0,1.2251251935958862,4.735395908355713,-8.422735214233397
1028,58800.0,1.3112668991088867,4.618147850036621,-8.446663856506348
1029,58900.0,1.3112668991088867,4.618147850036621,-8.446663856506348
1030,59000.0,1.3112668991088867,4.618147850036621,-8.446663856506348
1031,59100.0,1.3399806022644043,4.658825397491455,-8.358129501342772
1032,59200.0,1.3399806022644043,4.658825397491455,-8.358129501342772
1033,59300.0,1.325623631477356,4.632504463195801,-8.401200294494629
1034,59400.0,1.325623631477356,4.632504463195801,-8.401200294494629
1035,59500.0,1.3112668991088867,4.67078971862793,-8.439485549926758
1036,59600.0,1.3112668991088867,4.67078971862793,-8.439485549926758
1037,59700.0,1.3112668991088867,4.67078971862793,-8.439485549926758
1038,59800.0,1.2825528383255005,4.728217601776123,-8.429913520812987
1039,59900.0,1.2825528383255005,4.728217601776123,-8.429913520812987
1040,60000.0,1.3016955852508545,4.6851468086242685,-8.358129501342772
1041,60100.0,1.3016955852508545,4.6851468086242685,-8.358129501342772
1042,60200.0,1.2873386144638062,4.67078971862793,-8.425127983093263
1043,60300.0,1.2873386144638062,4.67078971862793,-8.425127983093263
1044,60400.0,1.2873386144638062,4.67078971862793,-8.425127983093263
1045,60500.0,1.306481122970581,4.677968502044678,-8.432307243347168
1046,60600.0,1.306481122970581,4.677968502044678,-8.432307243347168
1047,60700.0,1.306481122970581,4.754538536071777,-8.391629219055176
1048,60800.0,1.306481122970581,4.754538536071777,-8.391629219055176
1049,60900.0,1.3160523176193235,4.831109046936035,-8.37727165222168
1050,59500.0,1.3112668991088867,4.67078971862793,-8.439485549926758
1051,59600.0,1.3112668991088867,4.67078971862793,-8.439485549926758
1052,59700.0,1.3112668991088867,4.67078971862793,-8.439485549926758
1053,59800.0,1.2825528383255005,4.728217601776123,-8.429913520812987
1054,59900.0,1.2825528383255005,4.728217601776123,-8.429913520812987
1055,60000.0,1.3016955852508545,4.6851468086242685,-8.358129501342772
1056,60100.0,1.3016955852508545,4.6851468086242685,-8.358129501342772
1057,60200.0,1.2873386144638062,4.67078971862793,-8.425127983093263
1058,60300.0,1.2873386144638062,4.67078971862793,-8.425127983093263
1059,60400.0,1.2873386144638062,4.67078971862793,-8.425127983093263
1060,60500.0,1.306481122970581,4.677968502044678,-8.432307243347168
1061,60600.0,1.306481122970581,4.677968502044678,-8.432307243347168
1062,60700.0,1.306481122970581,4.754538536071777,-8.391629219055176
1063,60800.0,1.306481122970581,4.754538536071777,-8.391629219055176
1064,60900.0,1.3160523176193235,4.831109046936035,-8.37727165222168
1065,61000.0,1.3160523176193235,4.831109046936035,-8.37727165222168
1066,61100.0,1.3016955852508545,4.792823314666748,-8.34855842590332
1067,61200.0,1.3016955852508545,4.792823314666748,-8.34855842590332
1068,61300.0,1.3016955852508545,4.792823314666748,-8.34855842590332
1069,61400.0,1.2490534782409668,4.838287353515625,-8.334200859069824
1070,61500.0,1.2490534782409668,4.838287353515625,-8.334200859069824
1071,61600.0,1.2586246728897097,4.838287353515625,-8.324630737304688
1072,61700.0,1.2586246728897097,4.838287353515625,-8.324630737304688
1073,61800.0,1.2586246728897097,4.838287353515625,-8.324630737304688
1074,61900.0,1.2777673006057741,4.807180881500244,-8.38444995880127
1075,62000.0,1.2777673006057741,4.807180881500244,-8.38444995880127
1076,62100.0,1.2538390159606934,4.9435715675354,-8.319844245910645
1077,62200.0,1.2538390159606934,4.9435715675354,-8.319844245910645
1078,62300.0,1.325623631477356,4.924428939819336,-8.310273170471191
1079,62400.0,1.325623631477356,4.924428939819336,-8.310273170471191
1080,61000.0,1.3160523176193235,4.831109046936035,-8.37727165222168
1081,61100.0,1.3016955852508545,4.792823314666748,-8.34855842590332
1082,61200.0,1.3016955852508545,4.792823314666748,-8.34855842590332
1083,61300.0,1.3016955852508545,4.792823314666748,-8.34855842590332
1084,61400.0,1.2490534782409668,4.838287353515625,-8.334200859069824
1085,61500.0,1.2490534782409668,4.838287353515625,-8.334200859069824
1086,61600.0,1.2586246728897097,4.838287353515625,-8.324630737304688
1087,61700.0,1.2586246728897097,4.838287353515625,-8.324630737304688
1088,61800.0,1.2586246728897097,4.838287353515625,-8.324630737304688
1089,61900.0,1.2777673006057741,4.807180881500244,-8.38444995880127
1090,62000.0,1.2777673006057741,4.807180881500244,-8.38444995880127
1091,62100.0,1.2538390159606934,4.9435715675354,-8.319844245910645
1092,62200.0,1.2538390159606934,4.9435715675354,-8.319844245910645
1093,62300.0,1.325623631477356,4.924428939819336,-8.310273170471191
1094,62400.0,1.325623631477356,4.924428939819336,-8.310273170471191
1095,62500.0,1.2299107313156128,4.847858428955078,-8.336593627929688
1096,62600.0,1.2299107313156128,4.847858428955078,-8.336593627929688
1097,62700.0,1.2299107313156128,4.847858428955078,-8.336593627929688
1098,62800.0,1.2490534782409668,4.948357105255127,-8.334200859069824
1099,62900.0,1.2490534782409668,4.948357105255127,-8.334200859069824
1100,63000.0,1.2490534782409668,4.902893543243408,-8.303093910217285
1101,63100.0,1.2490534782409668,4.902893543243408,-8.303093910217285
1102,63200.0,1.3591231107711792,4.768895626068115,-8.341379165649414
1103,63300.0,1.3591231107711792,4.768895626068115,-8.341379165649414
1104,63400.0,1.3591231107711792,4.768895626068115,-8.341379165649414
1105,63500.0,1.244267821311951,4.859822750091553,-8.307880401611326
1106,63600.0,1.244267821311951,4.859822750091553,-8.307880401611326
1107,63700.0,1.2586246728897097,4.871786594390869,-8.3629150390625
1108,63800.0,1.2586246728897097,4.871786594390869,-8.3629150390625
1109,63900.0,1.306481122970581,4.661218643188477,-8.3629150390625
1110,62500.0,1.2299107313156128,4.847858428955078,-8.336593627929688
1111,62600.0,1.2299107313156128,4.847858428955078,-8.336593627929688
1112,62700.0,1.2299107313156128,4.847858428955078,-8.336593627929688
1113,62800.0,1.2490534782409668,4.948357105255127,-8.334200859069824
1114,62900.0,1.2490534782409668,4.948357105255127,-8.334200859069824
1115,63000.0,1.2490534782409668,4.902893543243408,-8.303093910217285
1116,63100.0,1.2490534782409668,4.902893543243408,-8.303093910217285
1117,63200.0,1.3591231107711792,4.768895626068115,-8.341379165649414
1118,63300.0,1.3591231107711792,4.768895626068115,-8.341379165649414
1119,63400.0,1.3591231107711792,4.768895626068115,-8.341379165649414
1120,63500.0,1.244267821311951,4.859822750091553,-8.307880401611326
1121,63600.0,1.244267821311951,4.859822750091553,-8.307880401611326
1122,63700.0,1.2586246728897097,4.871786594390869,-8.3629150390625
1123,63800.0,1.2586246728897097,4.871786594390869,-8.3629150390625
1124,63900.0,1.306481122970581,4.661218643188477,-8.3629150390625
1125,64000.0,1.306481122970581,4.661218643188477,-8.3629150390625
1126,64100.0,1.3399806022644043,4.9435715675354,-8.305487632751465
1127,64200.0,1.3399806022644043,4.9435715675354,-8.305487632751465
1128,64300.0,1.3399806022644043,4.9435715675354,-8.305487632751465
1129,64400.0,1.2299107313156128,4.90528678894043,-8.293522834777832
1130,64500.0,1.2299107313156128,4.90528678894043,-8.293522834777832
1131,64600.0,1.2011969089508057,4.867001533508301,-8.329416275024414
1132,64700.0,1.2011969089508057,4.867001533508301,-8.329416275024414
1133,64800.0,1.210768222808838,4.9387855529785165,-8.307880401611326
1134,64900.0,1.210768222808838,4.9387855529785165,-8.307880401611326
1135,65000.0,1.210768222808838,4.9387855529785165,-8.307880401611326
1136,65100.0,1.2299107313156128,4.934000015258789,-8.233702659606934
1137,65200.0,1.2299107313156128,4.934000015258789,-8.233702659606934
1138,65300.0,1.2777673006057741,4.9363932609558105,-8.331808090209961
1139,65400.0,1.2777673006057741,4.9363932609558105,-8.331808090209961
1140,64000.0,1.306481122970581,4.661218643188477,-8.3629150390625
1141,64100.0,1.3399806022644043,4.9435715675354,-8.305487632751465
1142,64200.0,1.3399806022644043,4.9435715675354,-8.305487632751465
1143,64300.0,1.3399806022644043,4.9435715675354,-8.305487632751465
1144,64400.0,1.2299107313156128,4.90528678894043,-8.293522834777832
1145,64500.0,1.2299107313156128,4.90528678894043,-8.293522834777832
1146,64600.0,1.2011969089508057,4.867001533508301,-8.329416275024414
1147,64700.0,1.2011969089508057,4.867001533508301,-8.329416275024414
1148,64800.0,1.210768222808838,4.9387855529785165,-8.307880401611326
1149,64900.0,1.210768222808838,4.9387855529785165,-8.307880401611326
1150,65000.0,1.210768222808838,4.9387855529785165,-8.307880401611326
1151,65100.0,1.2299107313156128,4.934000015258789,-8.233702659606934
1152,65200.0,1.2299107313156128,4.934000015258789,-8.233702659606934
1153,65300.0,1.2777673006057741,4.9363932609558105,-8.331808090209961
1154,65400.0,1.2777673006057741,4.9363932609558105,-8.331808090209961
1155,65500.0,1.210768222808838,5.024927616119385,-8.243274688720701
1156,65600.0,1.210768222808838,5.024927616119385,-8.243274688720701
1157,65700.0,1.2059825658798218,4.914857387542725,-8.310273170471191
1158,65800.0,1.2059825658798218,4.914857387542725,-8.310273170471191
1159,65900.0,1.239482045173645,5.010570526123047,-8.233702659606934
1160,66000.0,1.239482045173645,5.010570526123047,-8.233702659606934
1161,66100.0,1.239482045173645,5.010570526123047,-8.233702659606934
1162,66200.0,1.2586246728897097,4.917250633239746,-8.317451477050781
1163,66300.0,1.2586246728897097,4.917250633239746,-8.317451477050781
1164,66400.0,1.215553879737854,4.962714195251465,-8.319844245910645
1165,66500.0,1.215553879737854,4.962714195251465,-8.319844245910645
1166,66600.0,1.239482045173645,5.017749309539795,-8.255237579345701
1167,66700.0,1.239482045173645,5.017749309539795,-8.255237579345701
1168,66800.0,1.239482045173645,5.017749309539795,-8.255237579345701
1169,66900.0,1.2634103298187256,5.000998973846436,-8.221738815307617
1170,65500.0,1.210768222808838,5.024927616119385,-8.243274688720701
1171,65600.0,1.210768222808838,5.024927616119385,-8.243274688720701
1172,65700.0,1.2059825658798218,4.914857387542725,-8.310273170471191
1173,65800.0,1.2059825658798218,4.914857387542725,-8.310273170471191
1174,65900.0,1.239482045173645,5.010570526123047,-8.233702659606934
1175,66000.0,1.239482045173645,5.010570526123047,-8.233702659606934
1176,66100.0,1.239482045173645,5.010570526123047,-8.233702659606934
1177,66200.0,1.2586246728897097,4.917250633239746,-8.317451477050781
1178,66300.0,1.2586246728897097,4.917250633239746,-8.317451477050781
1179,66400.0,1.215553879737854,4.962714195251465,-8.319844245910645
1180,66500.0,1.215553879737854,4.962714195251465,-8.319844245910645
1181,66600.0,1.239482045173645,5.017749309539795,-8.255237579345701
1182,66700.0,1.239482045173645,5.017749309539795,-8.255237579345701
1183,66800.0,1.239482045173645,5.017749309539795,-8.255237579345701
1184,66900.0,1.2634103298187256,5.000998973846436,-8.221738815307617
1185,67000.0,1.2634103298187256,5.000998973846436,-8.221738815307617
1186,67100.0,1.2729815244674685,4.948357105255127,-8.303093910217285
1187,67200.0,1.2729815244674685,4.948357105255127,-8.303093910217285
1188,67300.0,1.2586246728897097,4.931607723236084,-8.315058708190918
1189,67400.0,1.2586246728897097,4.931607723236084,-8.315058708190918
1190,67500.0,1.2729815244674685,4.88853645324707,-8.288737297058105
1191,67600.0,1.2729815244674685,4.88853645324707,-8.288737297058105
1192,67700.0,1.2729815244674685,4.88853645324707,-8.288737297058105
1193,67800.0,1.2251251935958862,4.979463577270508,-8.248059272766112
1194,67900.0,1.2251251935958862,4.979463577270508,-8.248059272766112
1195,68000.0,1.2490534782409668,4.948357105255127,-8.303093910217285
1196,68100.0,1.2490534782409668,4.948357105255127,-8.303093910217285
1197,68200.0,1.2490534782409668,4.948357105255127,-8.303093910217285
1198,68300.0,1.244267821311951,4.9914283752441415,-8.283952713012695
1199,68400.0,1.244267821311951,4.9914283752441415,-8.283952713012695
1200,67000.0,1.2634103298187256,5.000998973846436,-8.221738815307617
1201,67100.0,1.2729815244674685,4.948357105255127,-8.303093910217285
1202,67200.0,1.2729815244674685,4.948357105255127,-8.303093910217285
1203,67300.0,1.2586246728897097,4.931607723236084,-8.315058708190918
1204,67400.0,1.2586246728897097,4.931607723236084,-8.315058708190918
1205,67500.0,1.2729815244674685,4.88853645324707,-8.288737297058105
1206,67600.0,1.2729815244674685,4.88853645324707,-8.288737297058105
1207,67700.0,1.2729815244674685,4.88853645324707,-8.288737297058105
1208,67800.0,1.2251251935958862,4.979463577270508,-8.248059272766112
1209,67900.0,1.2251251935958862,4.979463577270508,-8.248059272766112
1210,68000.0,1.2490534782409668,4.948357105255127,-8.303093910217285
1211,68100.0,1.2490534782409668,4.948357105255127,-8.303093910217285
1212,68200.0,1.2490534782409668,4.948357105255127,-8.303093910217285
1213,68300.0,1.244267821311951,4.9914283752441415,-8.283952713012695
1214,68400.0,1.244267821311951,4.9914283752441415,-8.283952713012695
1215,68500.0,1.22033953666687,5.0225348472595215,-8.300702095031737
1216,68600.0,1.22033953666687,5.0225348472595215,-8.300702095031737
1217,68700.0,1.2011969089508057,4.974678039550781,-8.295915603637695
1218,68800.0,1.2011969089508057,4.974678039550781,-8.295915603637695
1219,68900.0,1.239482045173645,4.934000015258789,-8.248059272766112
1220,69000.0,1.239482045173645,4.934000015258789,-8.248059272766112
1221,69100.0,1.239482045173645,4.934000015258789,-8.248059272766112
1222,69200.0,1.2346963882446291,5.058426856994629,-8.257630348205566
1223,69300.0,1.2346963882446291,5.058426856994629,-8.257630348205566
1224,69400.0,1.2346963882446291,4.922036170959473,-8.303093910217285
1225,69500.0,1.2346963882446291,4.922036170959473,-8.303093910217285
1226,69600.0,1.244267821311951,5.044069766998291,-8.212166786193848
1227,69700.0,1.244267821311951,5.044069766998291,-8.212166786193848
1228,69800.0,1.244267821311951,5.044069766998291,-8.212166786193848
1229,69900.0,1.2634103298187256,5.010570526123047,-8.262415885925293
1230,68500.0,1.22033953666687,5.0225348472595215,-8.300702095031737
1231,68600.0,1.22033953666687,5.0225348472595215,-8.300702095031737
1232,68700.0,1.2011969089508057,4.974678039550781,-8.295915603637695
1233,68800.0,1.2011969089508057,4.974678039550781,-8.295915603637695
1234,68900.0,1.239482045173645,4.934000015258789,-8.248059272766112
1235,69000.0,1.239482045173645,4.934000015258789,-8.248059272766112
1236,69100.0,1.239482045173645,4.934000015258789,-8.248059272766112
1237,69200.0,1.2346963882446291,5.058426856994629,-8.257630348205566
1238,69300.0,1.2346963882446291,5.058426856994629,-8.257630348205566
1239,69400.0,1.2346963882446291,4.922036170959473,-8.303093910217285
1240,69500.0,1.2346963882446291,4.922036170959473,-8.303093910217285
1241,69600.0,1.244267821311951,5.044069766998291,-8.212166786193848
1242,69700.0,1.244267821311951,5.044069766998291,-8.212166786193848
1243,69800.0,1.244267821311951,5.044069766998291,-8.212166786193848
1244,69900.0,1.2634103298187256,5.010570526123047,-8.262415885925293
1245,70000.0,1.2634103298187256,5.010570526123047,-8.262415885925293
1246,70100.0,1.2011969089508057,4.95792818069458,-8.209774017333983
1247,70200.0,1.2011969089508057,4.95792818069458,-8.209774017333983
1248,70300.0,1.2634103298187256,5.058426856994629,-8.257630348205566
1249,70400.0,1.2634103298187256,5.058426856994629,-8.257630348205566
1250,70500.0,1.2729815244674685,5.051248073577881,-8.250452041625978
1251,70600.0,1.2729815244674685,5.051248073577881,-8.250452041625978
1252,70700.0,1.2825528383255005,5.099104881286621,-8.240880966186522
1253,70800.0,1.2825528383255005,5.099104881286621,-8.240880966186522
1254,70900.0,1.2825528383255005,5.099104881286621,-8.240880966186522
1255,71000.0,1.2346963882446291,5.0368919372558585,-8.233702659606934
1256,71100.0,1.2346963882446291,5.0368919372558585,-8.233702659606934
1257,71200.0,1.2490534782409668,5.096712112426758,-8.236095428466799
1258,71300.0,1.2490534782409668,5.096712112426758,-8.236095428466799
1259,71400.0,1.2059825658798218,5.070391178131104,-8.219346046447754
1260,70000.0,1.2634103298187256,5.010570526123047,-8.262415885925293
1261,70100.0,1.2011969089508057,4.95792818069458,-8.209774017333983
1262,70200.0,1.2011969089508057,4.95792818069458,-8.209774017333983
1263,70300.0,1.2634103298187256,5.058426856994629,-8.257630348205566
1264,70400.0,1.2634103298187256,5.058426856994629,-8.257630348205566
1265,70500.0,1.2729815244674685,5.051248073577881,-8.250452041625978
1266,70600.0,1.2729815244674685,5.051248073577881,-8.250452041625978
1267,70700.0,1.2825528383255005,5.099104881286621,-8.240880966186522
1268,70800.0,1.2825528383255005,5.099104881286621,-8.240880966186522
1269,70900.0,1.2825528383255005,5.099104881286621,-8.240880966186522
1270,71000.0,1.2346963882446291,5.0368919372558585,-8.233702659606934
1271,71100.0,1.2346963882446291,5.0368919372558585,-8.233702659606934
1272,71200.0,1.2490534782409668,5.096712112426758,-8.236095428466799
1273,71300.0,1.2490534782409668,5.096712112426758,-8.236095428466799
1274,71400.0,1.2059825658798218,5.070391178131104,-8.219346046447754
1275,71500.0,1.2059825658798218,5.070391178131104,-8.219346046447754
1276,71600.0,1.2586246728897097,5.017749309539795,-8.209774017333983
1277,71700.0,1.2586246728897097,5.017749309539795,-8.209774017333983
1278,71800.0,1.2586246728897097,5.017749309539795,-8.209774017333983
1279,71900.0,1.2346963882446291,5.010570526123047,-8.283952713012695
1280,72000.0,1.2346963882446291,5.010570526123047,-8.283952713012695
1281,72100.0,1.2059825658798218,4.9914283752441415,-8.269595146179201
1282,72200.0,1.2059825658798218,4.9914283752441415,-8.269595146179201
1283,72300.0,1.2059825658798218,5.08953332901001,-8.133204460144043
1284,72400.0,1.2059825658798218,5.08953332901001,-8.133204460144043
1285,72500.0,1.2059825658798218,5.08953332901001,-8.133204460144043
1286,72600.0,1.215553879737854,5.091926097869873,-8.190631866455076
1287,72700.0,1.215553879737854,5.091926097869873,-8.190631866455076
1288,72800.0,1.210768222808838,5.058426856994629,-8.207381248474121
1289,72900.0,1.210768222808838,5.058426856994629,-8.207381248474121
1290,71500.0,1.2059825658798218,5.070391178131104,-8.219346046447754
1291,71600.0,1.2586246728897097,5.017749309539795,-8.209774017333983
1292,71700.0,1.2586246728897097,5.017749309539795,-8.209774017333983
1293,71800.0,1.2586246728897097,5.017749309539795,-8.209774017333983
1294,71900.0,1.2346963882446291,5.010570526123047,-8.283952713012695
1295,72000.0,1.2346963882446291,5.010570526123047,-8.283952713012695
1296,72100.0,1.2059825658798218,4.9914283752441415,-8.269595146179201
1297,72200.0,1.2059825658798218,4.9914283752441415,-8.269595146179201
1298,72300.0,1.2059825658798218,5.08953332901001,-8.133204460144043
1299,72400.0,1.2059825658798218,5.08953332901001,-8.133204460144043
1300,72500.0,1.2059825658798218,5.08953332901001,-8.133204460144043
1301,72600.0,1.215553879737854,5.091926097869873,-8.190631866455076
1302,72700.0,1.215553879737854,5.091926097869873,-8.190631866455076
1303,72800.0,1.210768222808838,5.058426856994629,-8.207381248474121
1304,72900.0,1.210768222808838,5.058426856994629,-8.207381248474121
1305,73000.0,1.22033953666687,5.000998973846436,-8.221738815307617
1306,73100.0,1.22033953666687,5.000998973846436,-8.221738815307617
1307,73200.0,1.22033953666687,5.000998973846436,-8.221738815307617
1308,73300.0,1.2251251935958862,5.132604122161865,-8.22413158416748
1309,73400.0,1.2251251935958862,5.132604122161865,-8.22413158416748
1310,73500.0,1.2059825658798218,5.063212871551514,-8.190631866455076
1311,73600.0,1.2059825658798218,5.063212871551514,-8.190631866455076
1312,73700.0,1.1533405780792236,5.1014976501464835,-8.173882484436035
1313,73800.0,1.1533405780792236,5.1014976501464835,-8.173882484436035
1314,73900.0,1.1533405780792236,5.1014976501464835,-8.173882484436035
1315,74000.0,1.2251251935958862,5.091926097869873,-8.176274299621582
1316,74100.0,1.2251251935958862,5.091926097869873,-8.176274299621582
1317,74200.0,1.1772687435150146,5.01296329498291,-8.243274688720701
1318,74300.0,1.1772687435150146,5.01296329498291,-8.243274688720701
1319,74400.0,1.2011969089508057,5.1014976501464835,-8.157133102416992
1320,73000.0,1.22033953666687,5.000998973846436,-8.221738815307617
1321,73100.0,1.22033953666687,5.000998973846436,-8.221738815307617
1322,73200.0,1.22033953666687,5.000998973846436,-8.221738815307617
1323,73300.0,1.2251251935958862,5.132604122161865,-8.22413158416748
1324,73400.0,1.2251251935958862,5.132604122161865,-8.22413158416748
1325,73500.0,1.2059825658798218,5.063212871551514,-8.190631866455076
1326,73600.0,1.2059825658798218,5.063212871551514,-8.190631866455076
1327,73700.0,1.1533405780792236,5.1014976501464835,-8.173882484436035
1328,73800.0,1.1533405780792236,5.1014976501464835,-8.173882484436035
1329,73900.0,1.1533405780792236,5.1014976501464835,-8.173882484436035
1330,74000.0,1.2251251935958862,5.091926097869873,-8.176274299621582
1331,74100.0,1.2251251935958862,5.091926097869873,-8.176274299621582
1332,74200.0,1.1772687435150146,5.01296329498291,-8.243274688720701
1333,74300.0,1.1772687435150146,5.01296329498291,-8.243274688720701
1334,74400.0,1.2011969089508057,5.1014976501464835,-8.157133102416992
1335,74500.0,1.2011969089508057,5.1014976501464835,-8.157133102416992
1336,74600.0,1.2059825658798218,5.103890895843506,-8.23848819732666
1337,74700.0,1.2059825658798218,5.103890895843506,-8.23848819732666
1338,74800.0,1.2059825658798218,5.103890895843506,-8.23848819732666
1339,74900.0,1.191625714302063,5.032106399536133,-8.267202377319336
1340,75000.0,1.191625714302063,5.032106399536133,-8.267202377319336
1341,75100.0,1.1724830865859983,5.000998973846436,-8.236095428466799
1342,75200.0,1.1724830865859983,5.000998973846436,-8.236095428466799
1343,75300.0,1.1724830865859983,5.000998973846436,-8.236095428466799
1344,75400.0,1.2538390159606934,5.046462535858153,-8.23130989074707
1345,75500.0,1.2538390159606934,5.046462535858153,-8.23130989074707
1346,75600.0,1.239482045173645,5.084747791290283,-8.169095993041992
1347,75700.0,1.239482045173645,5.084747791290283,-8.169095993041992
1348,75800.0,1.2059825658798218,5.029713153839111,-8.23130989074707
1349,75900.0,1.2059825658798218,5.029713153839111,-8.23130989074707
1350,74500.0,1.2011969089508057,5.1014976501464835,-8.157133102416992
1351,74600.0,1.2059825658798218,5.103890895843506,-8.23848819732666
1352,74700.0,1.2059825658798218,5.103890895843506,-8.23848819732666
1353,74800.0,1.2059825658798218,5.103890895843506,-8.23848819732666
1354,74900.0,1.191625714302063,5.032106399536133,-8.267202377319336
1355,75000.0,1.191625714302063,5.032106399536133,-8.267202377319336
1356,75100.0,1.1724830865859983,5.000998973846436,-8.236095428466799
1357,75200.0,1.1724830865859983,5.000998973846436,-8.236095428466799
1358,75300.0,1.1724830865859983,5.000998973846436,-8.236095428466799
1359,75400.0,1.2538390159606934,5.046462535858153,-8.23130989074707
1360,75500.0,1.2538390159606934,5.046462535858153,-8.23130989074707
1361,75600.0,1.239482045173645,5.084747791290283,-8.169095993041992
1362,75700.0,1.239482045173645,5.084747791290283,-8.169095993041992
1363,75800.0,1.2059825658798218,5.029713153839111,-8.23130989074707
1364,75900.0,1.2059825658798218,5.029713153839111,-8.23130989074707
1365,76000.0,1.2538390159606934,5.0201416015625,-8.23130989074707
1366,76100.0,1.2538390159606934,5.0201416015625,-8.23130989074707
1367,76200.0,1.2538390159606934,5.0201416015625,-8.23130989074707
1368,76300.0,1.2251251935958862,5.125426292419434,-8.212166786193848
1369,76400.0,1.2251251935958862,5.125426292419434,-8.212166786193848
1370,76500.0,1.2538390159606934,5.161318302154541,-8.154739379882812
1371,76600.0,1.2538390159606934,5.161318302154541,-8.154739379882812
1372,76700.0,1.215553879737854,5.149354457855225,-8.152346611022951
1373,76800.0,1.215553879737854,5.149354457855225,-8.152346611022951
1374,76900.0,1.215553879737854,5.149354457855225,-8.152346611022951
1375,77000.0,1.2251251935958862,5.257031440734863,-8.169095993041992
1376,77100.0,1.2251251935958862,5.257031440734863,-8.169095993041992
1377,77200.0,1.215553879737854,5.225924491882324,-8.102097511291504
1378,77300.0,1.215553879737854,5.225924491882324,-8.102097511291504
1379,77400.0,1.2059825658798218,5.120640754699707,-8.202595710754395
1380,76000.0,1.2538390159606934,5.0201416015625,-8.23130989074707
1381,76100.0,1.2538390159606934,5.0201416015625,-8.23130989074707
1382,76200.0,1.2538390159606934,5.0201416015625,-8.23130989074707
1383,76300.0,1.2251251935958862,5.125426292419434,-8.212166786193848
1384,76400.0,1.2251251935958862,5.125426292419434,-8.212166786193848
1385,76500.0,1.2538390159606934,5.161318302154541,-8.154739379882812
1386,76600.0,1.2538390159606934,5.161318302154541,-8.154739379882812
1387,76700.0,1.215553879737854,5.149354457855225,-8.152346611022951
1388,76800.0,1.215553879737854,5.149354457855225,-8.152346611022951
1389,76900.0,1.215553879737854,5.149354457855225,-8.152346611022951
1390,77000.0,1.2251251935958862,5.257031440734863,-8.169095993041992
1391,77100.0,1.2251251935958862,5.257031440734863,-8.169095993041992
1392,77200.0,1.215553879737854,5.225924491882324,-8.102097511291504
1393,77300.0,1.215553879737854,5.225924491882324,-8.102097511291504
1394,77400.0,1.2059825658798218,5.120640754699707,-8.202595710754395
1395,77500.0,1.2059825658798218,5.120640754699707,-8.202595710754395
1396,77600.0,1.2059825658798218,5.182853698730469,-8.176274299621582
1397,77700.0,1.2059825658798218,5.182853698730469,-8.176274299621582
1398,77800.0,1.2059825658798218,5.182853698730469,-8.176274299621582
1399,77900.0,1.191625714302063,5.221138954162598,-8.135597229003906
1400,78000.0,1.191625714302063,5.221138954162598,-8.135597229003906
1401,78100.0,1.1533405780792236,5.225924491882324,-8.169095993041992
1402,78200.0,1.1533405780792236,5.225924491882324,-8.169095993041992
1403,78300.0,1.1820544004440308,5.190032482147217,-8.181060791015625
1404,78400.0,1.1820544004440308,5.190032482147217,-8.181060791015625
1405,78500.0,1.1820544004440308,5.190032482147217,-8.181060791015625
1406,78600.0,1.1485549211502075,5.209175109863281,-8.142775535583496
1407,78700.0,1.1485549211502075,5.209175109863281,-8.142775535583496
1408,78800.0,1.215553879737854,5.170889854431152,-8.109275817871094
1409,78900.0,1.215553879737854,5.170889854431152,-8.109275817871094
1410,77500.0,1.2059825658798218,5.120640754699707,-8.202595710754395
1411,77600.0,1.2059825658798218,5.182853698730469,-8.176274299621582
1412,77700.0,1.2059825658798218,5.182853698730469,-8.176274299621582
1413,77800.0,1.2059825658798218,5.182853698730469,-8.176274299621582
1414,77900.0,1.191625714302063,5.221138954162598,-8.135597229003906
1415,78000.0,1.191625714302063,5.221138954162598,-8.135597229003906
1416,78100.0,1.1533405780792236,5.225924491882324,-8.169095993041992
1417,78200.0,1.1533405780792236,5.225924491882324,-8.169095993041992
1418,78300.0,1.1820544004440308,5.190032482147217,-8.181060791015625
1419,78400.0,1.1820544004440308,5.190032482147217,-8.181060791015625
1420,78500.0,1.1820544004440308,5.190032482147217,-8.181060791015625
1421,78600.0,1.1485549211502075,5.209175109863281,-8.142775535583496
1422,78700.0,1.1485549211502075,5.209175109863281,-8.142775535583496
1423,78800.0,1.215553879737854,5.170889854431152,-8.109275817871094
1424,78900.0,1.215553879737854,5.170889854431152,-8.109275817871094
1425,79000.0,1.1676974296569824,5.178067684173584,-8.147561073303223
1426,79100.0,1.1676974296569824,5.178067684173584,-8.147561073303223
1427,79200.0,1.1676974296569824,5.178067684173584,-8.147561073303223
1428,79300.0,1.1437692642211914,5.254639148712158,-8.118846893310549
1429,79400.0,1.1437692642211914,5.254639148712158,-8.118846893310549
1430,79500.0,1.1868400573730469,5.166104316711426,-8.075776100158691
1431,79600.0,1.1868400573730469,5.166104316711426,-8.075776100158691
1432,79700.0,1.105484127998352,5.187639236450195,-8.154739379882812
1433,79800.0,1.105484127998352,5.187639236450195,-8.154739379882812
1434,79900.0,1.105484127998352,5.187639236450195,-8.154739379882812
1435,80000.0,1.1724830865859983,5.257031440734863,-8.10688304901123
1436,80100.0,1.1724830865859983,5.257031440734863,-8.10688304901123
1437,80200.0,1.1389836072921753,5.264209270477295,-8.02074146270752
1438,80300.0,1.1389836072921753,5.264209270477295,-8.02074146270752
1439,80400.0,1.1868400573730469,5.292923927307129,-8.157133102416992
1440,79000.0,1.1676974296569824,5.178067684173584,-8.147561073303223
1441,79100.0,1.1676974296569824,5.178067684173584,-8.147561073303223
1442,79200.0,1.1676974296569824,5.178067684173584,-8.147561073303223
1443,79300.0,1.1437692642211914,5.254639148712158,-8.118846893310549
1444,79400.0,1.1437692642211914,5.254639148712158,-8.118846893310549
1445,79500.0,1.1868400573730469,5.166104316711426,-8.075776100158691
1446,79600.0,1.1868400573730469,5.166104316711426,-8.075776100158691
1447,79700.0,1.105484127998352,5.187639236450195,-8.154739379882812
1448,79800.0,1.105484127998352,5.187639236450195,-8.154739379882812
1449,79900.0,1.105484127998352,5.187639236450195,-8.154739379882812
1450,80000.0,1.1724830865859983,5.257031440734863,-8.10688304901123
1451,80100.0,1.1724830865859983,5.257031440734863,-8.10688304901123
1452,80200.0,1.1389836072921753,5.264209270477295,-8.02074146270752
1453,80300.0,1.1389836072921753,5.264209270477295,-8.02074146270752
1454,80400.0,1.1868400573730469,5.292923927307129,-8.157133102416992
1455,80500.0,1.1868400573730469,5.292923927307129,-8.157133102416992
1456,80600.0,1.1868400573730469,5.292923927307129,-8.157133102416992
1457,80700.0,1.1581261157989502,5.14456844329834,-8.149953842163086
1458,80800.0,1.1581261157989502,5.14456844329834,-8.149953842163086
1459,80900.0,1.1437692642211914,5.151747226715088,-8.171488761901855
1460,81000.0,1.1437692642211914,5.151747226715088,-8.171488761901855
1461,81100.0,1.1629117727279663,5.12303352355957,-8.221738815307617
1462,81200.0,1.1629117727279663,5.12303352355957,-8.221738815307617
1463,81300.0,1.1676974296569824,5.182853698730469,-8.126025199890138
1464,81400.0,1.1676974296569824,5.182853698730469,-8.126025199890138
1465,81500.0,1.1676974296569824,5.182853698730469,-8.126025199890138
1466,81600.0,1.1868400573730469,5.1732821464538565,-8.178668022155763
1467,81700.0,1.1868400573730469,5.1732821464538565,-8.178668022155763
1468,81800.0,1.1820544004440308,5.115854740142822,-8.202595710754395
1469,81900.0,1.1820544004440308,5.115854740142822,-8.202595710754395
1470,80500.0,1.1868400573730469,5.292923927307129,-8.157133102416992
1471,80600.0,1.1868400573730469,5.292923927307129,-8.157133102416992
1472,80700.0,1.1581261157989502,5.14456844329834,-8.149953842163086
1473,80800.0,1.1581261157989502,5.14456844329834,-8.149953842163086
1474,80900.0,1.1437692642211914,5.151747226715088,-8.171488761901855
1475,81000.0,1.1437692642211914,5.151747226715088,-8.171488761901855
1476,81100.0,1.1629117727279663,5.12303352355957,-8.221738815307617
1477,81200.0,1.1629117727279663,5.12303352355957,-8.221738815307617
1478,81300.0,1.1676974296569824,5.182853698730469,-8.126025199890138
1479,81400.0,1.1676974296569824,5.182853698730469,-8.126025199890138
1480,81500.0,1.1676974296569824,5.182853698730469,-8.126025199890138
1481,81600.0,1.1868400573730469,5.1732821464538565,-8.178668022155763
1482,81700.0,1.1868400573730469,5.1732821464538565,-8.178668022155763
1483,81800.0,1.1820544004440308,5.115854740142822,-8.202595710754395
1484,81900.0,1.1820544004440308,5.115854740142822,-8.202595710754395
1485,82000.0,1.1724830865859983,5.115854740142822,-8.188239097595215
1486,82100.0,1.1724830865859983,5.115854740142822,-8.188239097595215
1487,82200.0,1.1676974296569824,5.130211353302002,-8.149953842163086
1488,82300.0,1.1676974296569824,5.130211353302002,-8.149953842163086
1489,82400.0,1.1676974296569824,5.130211353302002,-8.149953842163086
1490,82500.0,1.1629117727279663,5.154139995574951,-8.130810737609862
1491,82600.0,1.1629117727279663,5.154139995574951,-8.130810737609862
1492,82700.0,1.1676974296569824,5.1086764335632315,-8.190631866455076
1493,82800.0,1.1676974296569824,5.1086764335632315,-8.190631866455076
1494,82900.0,1.1676974296569824,5.151747226715088,-8.202595710754395
1495,83000.0,1.1676974296569824,5.151747226715088,-8.202595710754395
1496,83100.0,1.1676974296569824,5.151747226715088,-8.202595710754395
1497,83200.0,1.2059825658798218,5.178067684173584,-8.164310455322267
1498,83300.0,1.2059825658798218,5.178067684173584,-8.164310455322267
1499,83400.0,1.1724830865859983,5.221138954162598,-7.999206066131593
1500,82000.0,1.1724830865859983,5.115854740142822,-8.188239097595215
1501,82100.0,1.1724830865859983,5.115854740142822,-8.188239097595215
1502,82200.0,1.1676974296569824,5.130211353302002,-8.149953842163086
1503,82300.0,1.1676974296569824,5.130211353302002,-8.149953842163086
1504,82400.0,1.1676974296569824,5.130211353302002,-8.149953842163086
1505,82500.0,1.1629117727279663,5.154139995574951,-8.130810737609862
1506,82600.0,1.1629117727279663,5.154139995574951,-8.130810737609862
1507,82700.0,1.1676974296569824,5.1086764335632315,-8.190631866455076
1508,82800.0,1.1676974296569824,5.1086764335632315,-8.190631866455076
1509,82900.0,1.1676974296569824,5.151747226715088,-8.202595710754395
1510,83000.0,1.1676974296569824,5.151747226715088,-8.202595710754395
1511,83100.0,1.1676974296569824,5.151747226715088,-8.202595710754395
1512,83200.0,1.2059825658798218,5.178067684173584,-8.164310455322267
1513,83300.0,1.2059825658798218,5.178067684173584,-8.164310455322267
1514,83400.0,1.1724830865859983,5.221138954162598,-7.999206066131593
1515,83500.0,1.1724830865859983,5.221138954162598,-7.999206066131593
1516,83600.0,1.1485549211502075,5.000998973846436,-8.176274299621582
1517,83700.0,1.1485549211502075,5.000998973846436,-8.176274299621582
1518,83800.0,0.9810572862625122,5.041677951812744,-8.279166221618652
1519,83900.0,0.9810572862625122,5.041677951812744,-8.279166221618652
1520,84000.0,0.9810572862625122,5.041677951812744,-8.279166221618652
1521,84100.0,1.1581261157989502,5.235496044158936,-8.118846893310549
1522,84200.0,1.1581261157989502,5.235496044158936,-8.118846893310549
1523,84300.0,1.1629117727279663,5.130211353302002,-8.183453559875487
1524,84400.0,1.1629117727279663,5.130211353302002,-8.183453559875487
1525,84500.0,1.124626636505127,5.130211353302002,-8.200202941894531
1526,84600.0,1.124626636505127,5.130211353302002,-8.200202941894531
1527,84700.0,1.124626636505127,5.130211353302002,-8.200202941894531
1528,84800.0,1.1533405780792236,5.142175674438477,-8.130810737609862
1529,84900.0,1.1533405780792236,5.142175674438477,-8.130810737609862
1530,83500.0,1.1724830865859983,5.221138954162598,-7.999206066131593
1531,83600.0,1.1485549211502075,5.000998973846436,-8.176274299621582
1532,83700.0,1.1485549211502075,5.000998973846436,-8.176274299621582
1533,83800.0,0.9810572862625122,5.041677951812744,-8.279166221618652
1534,83900.0,0.9810572862625122,5.041677951812744,-8.279166221618652
1535,84000.0,0.9810572862625122,5.041677951812744,-8.279166221618652
1536,84100.0,1.1581261157989502,5.235496044158936,-8.118846893310549
1537,84200.0,1.1581261157989502,5.235496044158936,-8.118846893310549
1538,84300.0,1.1629117727279663,5.130211353302002,-8.183453559875487
1539,84400.0,1.1629117727279663,5.130211353302002,-8.183453559875487
1540,84500.0,1.124626636505127,5.130211353302002,-8.200202941894531
1541,84600.0,1.124626636505127,5.130211353302002,-8.200202941894531
1542,84700.0,1.124626636505127,5.130211353302002,-8.200202941894531
1543,84800.0,1.1533405780792236,5.142175674438477,-8.130810737609862
1544,84900.0,1.1533405780792236,5.142175674438477,-8.130810737609862
1545,85000.0,1.0959126949310305,5.14456844329834,-8.183453559875487
1546,85100.0,1.0959126949310305,5.14456844329834,-8.183453559875487
1547,85200.0,1.196411371231079,5.170889854431152,-8.154739379882812
1548,85300.0,1.196411371231079,5.170889854431152,-8.154739379882812
1549,85400.0,1.1485549211502075,5.1637115478515625,-8.193024635314941
1550,85500.0,1.1485549211502075,5.1637115478515625,-8.193024635314941
1551,85600.0,1.1485549211502075,5.1637115478515625,-8.193024635314941
1552,85700.0,1.129412293434143,5.206782341003418,-8.200202941894531
1553,85800.0,1.129412293434143,5.206782341003418,-8.200202941894531
1554,85900.0,1.1389836072921753,5.194818019866943,-8.166703224182129
1555,86000.0,1.1389836072921753,5.194818019866943,-8.166703224182129
1556,86100.0,1.1772687435150146,5.204389572143555,-8.11406135559082
1557,86200.0,1.1772687435150146,5.204389572143555,-8.11406135559082
1558,86300.0,1.1772687435150146,5.204389572143555,-8.11406135559082
1559,86400.0,1.0959126949310305,5.154139995574951,-8.145168304443361
1560,85000.0,1.0959126949310305,5.14456844329834,-8.183453559875487
1561,85100.0,1.0959126949310305,5.14456844329834,-8.183453559875487
1562,85200.0,1.196411371231079,5.170889854431152,-8.154739379882812
1563,85300.0,1.196411371231079,5.170889854431152,-8.154739379882812
1564,85400.0,1.1485549211502075,5.1637115478515625,-8.193024635314941
1565,85500.0,1.1485549211502075,5.1637115478515625,-8.193024635314941
1566,85600.0,1.1485549211502075,5.1637115478515625,-8.193024635314941
1567,85700.0,1.129412293434143,5.206782341003418,-8.200202941894531
1568,85800.0,1.129412293434143,5.206782341003418,-8.200202941894531
1569,85900.0,1.1389836072921753,5.194818019866943,-8.166703224182129
1570,86000.0,1.1389836072921753,5.194818019866943,-8.166703224182129
1571,86100.0,1.1772687435150146,5.204389572143555,-8.11406135559082
1572,86200.0,1.1772687435150146,5.204389572143555,-8.11406135559082
1573,86300.0,1.1772687435150146,5.204389572143555,-8.11406135559082
1574,86400.0,1.0959126949310305,5.154139995574951,-8.145168304443361
1575,86500.0,1.0959126949310305,5.154139995574951,-8.145168304443361
1576,86600.0,1.210768222808838,5.099104881286621,-8.183453559875487
1577,86700.0,1.210768222808838,5.099104881286621,-8.183453559875487
1578,86800.0,1.1724830865859983,5.225924491882324,-8.118846893310549
1579,86900.0,1.1724830865859983,5.225924491882324,-8.118846893310549
1580,87000.0,1.1629117727279663,5.077569961547852,-8.190631866455076
1581,87100.0,1.1629117727279663,5.077569961547852,-8.190631866455076
1582,87200.0,1.129412293434143,5.170889854431152,-8.166703224182129
1583,87300.0,1.129412293434143,5.170889854431152,-8.166703224182129
1584,87400.0,1.129412293434143,5.170889854431152,-8.166703224182129
1585,87500.0,1.215553879737854,5.204389572143555,-8.145168304443361
1586,87600.0,1.215553879737854,5.204389572143555,-8.145168304443361
1587,87700.0,1.1820544004440308,5.111069202423097,-8.185846328735353
1588,87800.0,1.1820544004440308,5.111069202423097,-8.185846328735353
1589,87900.0,1.2011969089508057,5.154139995574951,-8.212166786193848
1590,86500.0,1.0959126949310305,5.154139995574951,-8.145168304443361
1591,86600.0,1.210768222808838,5.099104881286621,-8.183453559875487
1592,86700.0,1.210768222808838,5.099104881286621,-8.183453559875487
1593,86800.0,1.1724830865859983,5.225924491882324,-8.118846893310549
1594,86900.0,1.1724830865859983,5.225924491882324,-8.118846893310549
1595,87000.0,1.1629117727279663,5.077569961547852,-8.190631866455076
1596,87100.0,1.1629117727279663,5.077569961547852,-8.190631866455076
1597,87200.0,1.129412293434143,5.170889854431152,-8.166703224182129
1598,87300.0,1.129412293434143,5.170889854431152,-8.166703224182129
1599,87400.0,1.129412293434143,5.170889854431152,-8.166703224182129
1600,87500.0,1.215553879737854,5.204389572143555,-8.145168304443361
1601,87600.0,1.215553879737854,5.204389572143555,-8.145168304443361
1602,87700.0,1.1820544004440308,5.111069202423097,-8.185846328735353
1603,87800.0,1.1820544004440308,5.111069202423097,-8.185846328735353
1604,87900.0,1.2011969089508057,5.154139995574951,-8.212166786193848
1605,88000.0,1.2011969089508057,5.154139995574951,-8.212166786193848
1606,88100.0,1.1437692642211914,5.178067684173584,-8.173882484436035
1607,88200.0,1.1437692642211914,5.178067684173584,-8.173882484436035
1608,88300.0,1.1868400573730469,5.170889854431152,-8.166703224182129
1609,88400.0,1.1868400573730469,5.170889854431152,-8.166703224182129
1610,88500.0,1.1868400573730469,5.170889854431152,-8.166703224182129
1611,88600.0,1.2251251935958862,5.134997367858887,-8.212166786193848
1612,88700.0,1.2251251935958862,5.134997367858887,-8.212166786193848
1613,88800.0,1.1581261157989502,5.209175109863281,-8.11406135559082
1614,88900.0,1.1581261157989502,5.209175109863281,-8.11406135559082
1615,89000.0,1.1581261157989502,5.209175109863281,-8.11406135559082
1616,89100.0,1.1772687435150146,5.206782341003418,-8.159524917602539
1617,89200.0,1.1772687435150146,5.206782341003418,-8.159524917602539
1618,89300.0,1.2059825658798218,5.158926010131836,-8.190631866455076
1619,89400.0,1.2059825658798218,5.158926010131836,-8.190631866455076
1620,88000.0,1.2011969089508057,5.154139995574951,-8.212166786193848
1621,88100.0,1.1437692642211914,5.178067684173584,-8.173882484436035
1622,88200.0,1.1437692642211914,5.178067684173584,-8.173882484436035
1623,88300.0,1.1868400573730469,5.170889854431152,-8.166703224182129
1624,88400.0,1.1868400573730469,5.170889854431152,-8.166703224182129
1625,88500.0,1.1868400573730469,5.170889854431152,-8.166703224182129
1626,88600.0,1.2251251935958862,5.134997367858887,-8.212166786193848
1627,88700.0,1.2251251935958862,5.134997367858887,-8.212166786193848
1628,88800.0,1.1581261157989502,5.209175109863281,-8.11406135559082
1629,88900.0,1.1581261157989502,5.209175109863281,-8.11406135559082
1630,89000.0,1.1581261157989502,5.209175109863281,-8.11406135559082
1631,89100.0,1.1772687435150146,5.206782341003418,-8.159524917602539
1632,89200.0,1.1772687435150146,5.206782341003418,-8.159524917602539
1633,89300.0,1.2059825658798218,5.158926010131836,-8.190631866455076
1634,89400.0,1.2059825658798218,5.158926010131836,-8.190631866455076
1635,89500.0,1.1868400573730469,5.223531246185303,-8.188239097595215
1636,89600.0,1.1868400573730469,5.223531246185303,-8.188239097595215
1637,89700.0,1.2011969089508057,5.187639236450195,-8.145168304443361
1638,89800.0,1.2011969089508057,5.187639236450195,-8.145168304443361
1639,89900.0,1.2011969089508057,5.187639236450195,-8.145168304443361
1640,90000.0,1.1772687435150146,5.2115678787231445,-8.142775535583496
1641,90100.0,1.1772687435150146,5.2115678787231445,-8.142775535583496
1642,90200.0,1.1820544004440308,5.2115678787231445,-8.169095993041992
1643,90300.0,1.1820544004440308,5.2115678787231445,-8.169095993041992
1644,90400.0,1.1820544004440308,5.2115678787231445,-8.169095993041992
1645,90500.0,1.1389836072921753,5.321637630462647,-8.202595710754395
1646,90600.0,1.1389836072921753,5.321637630462647,-8.202595710754395
1647,90700.0,1.0336993932724001,4.972285747528076,-8.396414756774902
1648,90800.0,1.0336993932724001,4.972285747528076,-8.396414756774902
1649,90900.0,1.0145567655563354,5.065605640411377,-8.341379165649414
1650,89500.0,1.1868400573730469,5.223531246185303,-8.188239097595215
1651,89600.0,1.1868400573730469,5.223531246185303,-8.188239097595215
1652,89700.0,1.2011969089508057,5.187639236450195,-8.145168304443361
1653,89800.0,1.2011969089508057,5.187639236450195,-8.145168304443361
1654,89900.0,1.2011969089508057,5.187639236450195,-8.145168304443361
1655,90000.0,1.1772687435150146,5.2115678787231445,-8.142775535583496
1656,90100.0,1.1772687435150146,5.2115678787231445,-8.142775535583496
1657,90200.0,1.1820544004440308,5.2115678787231445,-8.169095993041992
1658,90300.0,1.1820544004440308,5.2115678787231445,-8.169095993041992
1659,90400.0,1.1820544004440308,5.2115678787231445,-8.169095993041992
1660,90500.0,1.1389836072921753,5.321637630462647,-8.202595710754395
1661,90600.0,1.1389836072921753,5.321637630462647,-8.202595710754395
1662,90700.0,1.0336993932724001,4.972285747528076,-8.396414756774902
1663,90800.0,1.0336993932724001,4.972285747528076,-8.396414756774902
1664,90900.0,1.0145567655563354,5.065605640411377,-8.341379165649414
1665,91000.0,1.0145567655563354,5.065605640411377,-8.341379165649414
1666,91100.0,0.8901299238204956,5.094319343566895,-8.291130065917969
1667,91200.0,0.8901299238204956,5.094319343566895,-8.291130065917969
1668,91300.0,1.057627558708191,5.120640754699707,-8.248059272766112
1669,91400.0,1.057627558708191,5.120640754699707,-8.248059272766112
1670,91500.0,1.0815558433532717,5.206782341003418,-8.173882484436035
1671,91600.0,1.0815558433532717,5.206782341003418,-8.173882484436035
1672,91700.0,1.0815558433532717,5.206782341003418,-8.173882484436035
1673,91800.0,1.062413215637207,5.166104316711426,-8.157133102416992
1674,91900.0,1.062413215637207,5.166104316711426,-8.157133102416992
1675,92000.0,1.1006983518600464,5.166104316711426,-8.202595710754395
1676,92100.0,1.1006983518600464,5.166104316711426,-8.202595710754395
1677,92200.0,1.1437692642211914,5.26181697845459,-8.181060791015625
1678,92300.0,1.1437692642211914,5.26181697845459,-8.181060791015625
1679,92400.0,1.1437692642211914,5.26181697845459,-8.181060791015625
1680,91000.0,1.0145567655563354,5.065605640411377,-8.341379165649414
1681,91100.0,0.8901299238204956,5.094319343566895,-8.291130065917969
1682,91200.0,0.8901299238204956,5.094319343566895,-8.291130065917969
1683,91300.0,1.057627558708191,5.120640754699707,-8.248059272766112
1684,91400.0,1.057627558708191,5.120640754699707,-8.248059272766112
1685,91500.0,1.0815558433532717,5.206782341003418,-8.173882484436035
1686,91600.0,1.0815558433532717,5.206782341003418,-8.173882484436035
1687,91700.0,1.0815558433532717,5.206782341003418,-8.173882484436035
1688,91800.0,1.062413215637207,5.166104316711426,-8.157133102416992
1689,91900.0,1.062413215637207,5.166104316711426,-8.157133102416992
1690,92000.0,1.1006983518600464,5.166104316711426,-8.202595710754395
1691,92100.0,1.1006983518600464,5.166104316711426,-8.202595710754395
1692,92200.0,1.1437692642211914,5.26181697845459,-8.181060791015625
1693,92300.0,1.1437692642211914,5.26181697845459,-8.181060791015625
1694,92400.0,1.1437692642211914,5.26181697845459,-8.181060791015625
1695,92500.0,1.1581261157989502,5.154139995574951,-8.195417404174805
1696,92600.0,1.1581261157989502,5.154139995574951,-8.195417404174805
1697,92700.0,1.0767701864242554,5.218745708465576,-8.130810737609862
1698,92800.0,1.0767701864242554,5.218745708465576,-8.130810737609862
1699,92900.0,1.0719845294952393,5.216352939605713,-8.140382766723633
1700,93000.0,1.0719845294952393,5.216352939605713,-8.140382766723633
1701,93100.0,1.0719845294952393,5.216352939605713,-8.140382766723633
1702,93200.0,1.1006983518600464,5.197210788726807,-8.123632431030272
1703,93300.0,1.1006983518600464,5.197210788726807,-8.123632431030272
1704,93400.0,1.0959126949310305,5.2833523750305185,-8.094919204711914
1705,93500.0,1.0959126949310305,5.2833523750305185,-8.094919204711914
1706,93600.0,1.0719845294952393,5.333601474761963,-8.157133102416992
1707,93700.0,1.0719845294952393,5.333601474761963,-8.157133102416992
1708,93800.0,1.0719845294952393,5.333601474761963,-8.157133102416992
1709,93900.0,1.1198409795761108,5.235496044158936,-8.073383331298826
1710,92500.0,1.1581261157989502,5.154139995574951,-8.195417404174805
1711,92600.0,1.1581261157989502,5.154139995574951,-8.195417404174805
1712,92700.0,1.0767701864242554,5.218745708465576,-8.130810737609862
1713,92800.0,1.0767701864242554,5.218745708465576,-8.130810737609862
1714,92900.0,1.0719845294952393,5.216352939605713,-8.140382766723633
1715,93000.0,1.0719845294952393,5.216352939605713,-8.140382766723633
1716,93100.0,1.0719845294952393,5.216352939605713,-8.140382766723633
1717,93200.0,1.1006983518600464,5.197210788726807,-8.123632431030272
1718,93300.0,1.1006983518600464,5.197210788726807,-8.123632431030272
1719,93400.0,1.0959126949310305,5.2833523750305185,-8.094919204711914
1720,93500.0,1.0959126949310305,5.2833523750305185,-8.094919204711914
1721,93600.0,1.0719845294952393,5.333601474761963,-8.157133102416992
1722,93700.0,1.0719845294952393,5.333601474761963,-8.157133102416992
1723,93800.0,1.0719845294952393,5.333601474761963,-8.157133102416992
1724,93900.0,1.1198409795761108,5.235496044158936,-8.073383331298826
1725,94000.0,1.1198409795761108,5.235496044158936,-8.073383331298826
1726,94100.0,1.0767701864242554,5.31685209274292,-8.104490280151367
1727,94200.0,1.0767701864242554,5.31685209274292,-8.104490280151367
1728,94300.0,1.1006983518600464,5.314458847045898,-8.082954406738281
1729,94400.0,1.1006983518600464,5.314458847045898,-8.082954406738281
1730,94500.0,1.1437692642211914,5.312066078186035,-8.154739379882812
1731,94600.0,1.1437692642211914,5.312066078186035,-8.154739379882812
1732,94700.0,1.1437692642211914,5.312066078186035,-8.154739379882812
1733,94800.0,1.0671988725662231,5.242674350738525,-8.111669540405272
1734,94900.0,1.0671988725662231,5.242674350738525,-8.111669540405272
1735,95000.0,1.1341978311538696,5.158926010131836,-8.178668022155763
1736,95100.0,1.1341978311538696,5.158926010131836,-8.178668022155763
1737,95200.0,1.1341978311538696,5.228317260742188,-8.12841796875
1738,95300.0,1.1341978311538696,5.228317260742188,-8.12841796875
1739,95400.0,1.1341978311538696,5.228317260742188,-8.12841796875
1740,94000.0,1.1198409795761108,5.235496044158936,-8.073383331298826
1741,94100.0,1.0767701864242554,5.31685209274292,-8.104490280151367
1742,94200.0,1.0767701864242554,5.31685209274292,-8.104490280151367
1743,94300.0,1.1006983518600464,5.314458847045898,-8.082954406738281
1744,94400.0,1.1006983518600464,5.314458847045898,-8.082954406738281
1745,94500.0,1.1437692642211914,5.312066078186035,-8.154739379882812
1746,94600.0,1.1437692642211914,5.312066078186035,-8.154739379882812
1747,94700.0,1.1437692642211914,5.312066078186035,-8.154739379882812
1748,94800.0,1.0671988725662231,5.242674350738525,-8.111669540405272
1749,94900.0,1.0671988725662231,5.242674350738525,-8.111669540405272
1750,95000.0,1.1341978311538696,5.158926010131836,-8.178668022155763
1751,95100.0,1.1341978311538696,5.158926010131836,-8.178668022155763
1752,95200.0,1.1341978311538696,5.228317260742188,-8.12841796875
1753,95300.0,1.1341978311538696,5.228317260742188,-8.12841796875
1754,95400.0,1.1341978311538696,5.228317260742188,-8.12841796875
1755,95500.0,1.1629117727279663,5.228317260742188,-8.161917686462402
1756,95600.0,1.1629117727279663,5.228317260742188,-8.161917686462402
1757,95700.0,1.1006983518600464,5.259423732757568,-8.147561073303223
1758,95800.0,1.1006983518600464,5.259423732757568,-8.147561073303223
1759,95900.0,1.1198409795761108,5.2905311584472665,-8.056633949279785
1760,96000.0,1.1198409795761108,5.2905311584472665,-8.056633949279785
1761,96100.0,1.1198409795761108,5.2905311584472665,-8.056633949279785
1762,96200.0,1.1629117727279663,5.264209270477295,-8.116454124450684
