,timestamp,ax,ay,az
0,5000.0,9.121439933776855,1.4045867919921875,-3.426522016525269
1,5100.0,9.121439933776855,1.4045867919921875,-3.426522016525269
2,5200.0,9.121439933776855,1.4045867919921875,-3.426522016525269
3,5300.0,9.346364974975586,0.8997013568878174,-3.249453067779541
4,5400.0,9.346364974975586,0.8997013568878174,-3.249453067779541
5,5500.0,9.346364974975586,0.8997013568878174,-3.249453067779541
6,5600.0,9.087940216064453,1.215553879737854,-2.919243574142456
7,5700.0,9.087940216064453,1.215553879737854,-2.919243574142456
8,5800.0,9.198010444641113,1.043270707130432,-2.964707374572754
9,5900.0,9.198010444641113,1.043270707130432,-2.964707374572754
10,6000.0,9.198010444641113,1.043270707130432,-2.964707374572754
11,6100.0,9.193224906921387,1.0456634759902954,-2.96949315071106
12,6200.0,9.193224906921387,1.0456634759902954,-2.96949315071106
13,6300.0,9.28893756866455,1.2011969089508057,-2.801995038986206
14,6400.0,9.28893756866455,1.2011969089508057,-2.801995038986206
15,6500.0,9.17886734008789,0.9332008361816406,-2.7804601192474365
16,6600.0,9.17886734008789,0.9332008361816406,-2.7804601192474365
17,6700.0,9.073582649230957,1.0959126949310305,-2.768495798110962
18,6800.0,9.073582649230957,1.0959126949310305,-2.768495798110962
19,6900.0,9.4660062789917,1.155733346939087,-2.801995038986206
20,6000.0,9.198010444641113,1.043270707130432,-2.964707374572754
21,6100.0,9.193224906921387,1.0456634759902954,-2.96949315071106
22,6200.0,9.193224906921387,1.0456634759902954,-2.96949315071106
23,6300.0,9.28893756866455,1.2011969089508057,-2.801995038986206
24,6400.0,9.28893756866455,1.2011969089508057,-2.801995038986206
25,6500.0,9.17886734008789,0.9332008361816406,-2.7804601192474365
26,6600.0,9.17886734008789,0.9332008361816406,-2.7804601192474365
27,6700.0,9.073582649230957,1.0959126949310305,-2.768495798110962
28,6800.0,9.073582649230957,1.0959126949310305,-2.768495798110962
29,6900.0,9.4660062789917,1.155733346939087,-2.801995038986206
30,7000.0,9.4660062789917,1.155733346939087,-2.801995038986206
31,7100.0,9.4660062789917,1.155733346939087,-2.801995038986206
32,7200.0,9.284152030944824,0.9643075466156006,-2.768495798110962
33,7300.0,9.284152030944824,0.9643075466156006,-2.768495798110962
34,7400.0,9.135796546936037,1.0408778190612793,-2.84506630897522
35,7500.0,9.135796546936037,1.0408778190612793,-2.84506630897522
36,7600.0,9.135796546936037,1.0408778190612793,-2.84506630897522
37,7700.0,9.28893756866455,1.057627558708191,-3.050848960876465
38,7800.0,9.28893756866455,1.057627558708191,-3.050848960876465
39,7900.0,9.121439933776855,0.9858429431915284,-3.005385160446167
40,7000.0,9.4660062789917,1.155733346939087,-2.801995038986206
41,7100.0,9.4660062789917,1.155733346939087,-2.801995038986206
42,7200.0,9.284152030944824,0.9643075466156006,-2.768495798110962
43,7300.0,9.284152030944824,0.9643075466156006,-2.768495798110962
44,7400.0,9.135796546936037,1.0408778190612793,-2.84506630897522
45,7500.0,9.135796546936037,1.0408778190612793,-2.84506630897522
46,7600.0,9.135796546936037,1.0408778190612793,-2.84506630897522
47,7700.0,9.28893756866455,1.057627558708191,-3.050848960876465
48,7800.0,9.28893756866455,1.057627558708191,-3.050848960876465
49,7900.0,9.121439933776855,0.9858429431915284,-3.005385160446167
50,8000.0,9.121439933776855,0.9858429431915284,-3.005385160446167
51,8100.0,9.054441452026367,0.8374879360198975,-2.9216365814208984
52,8200.0,9.054441452026367,0.8374879360198975,-2.9216365814208984
53,8300.0,9.054441452026367,0.8374879360198975,-2.9216365814208984
54,8400.0,9.06401252746582,1.117448091506958,-3.192025184631348
55,8500.0,9.06401252746582,1.117448091506958,-3.192025184631348
56,8600.0,8.920442581176758,1.062413215637207,-2.71346116065979
57,8700.0,8.920442581176758,1.062413215637207,-2.71346116065979
58,8800.0,9.231510162353516,0.6364907622337341,-3.062812805175781
59,8900.0,9.231510162353516,0.6364907622337341,-3.062812805175781
60,8000.0,9.121439933776855,0.9858429431915284,-3.005385160446167
61,8100.0,9.054441452026367,0.8374879360198975,-2.9216365814208984
62,8200.0,9.054441452026367,0.8374879360198975,-2.9216365814208984
63,8300.0,9.054441452026367,0.8374879360198975,-2.9216365814208984
64,8400.0,9.06401252746582,1.117448091506958,-3.192025184631348
65,8500.0,9.06401252746582,1.117448091506958,-3.192025184631348
66,8600.0,8.920442581176758,1.062413215637207,-2.71346116065979
67,8700.0,8.920442581176758,1.062413215637207,-2.71346116065979
68,8800.0,9.231510162353516,0.6364907622337341,-3.062812805175781
69,8900.0,9.231510162353516,0.6364907622337341,-3.062812805175781
70,9000.0,9.231510162353516,0.6364907622337341,-3.062812805175781
71,9100.0,9.097511291503906,0.7106683850288391,-2.9168508052825928
72,9200.0,9.097511291503906,0.7106683850288391,-2.9168508052825928
73,9300.0,9.087940216064453,0.1052841916680336,-2.117647886276245
74,9400.0,9.087940216064453,0.1052841916680336,-2.117647886276245
75,9500.0,9.21715259552002,0.5766702890396118,-3.012563943862915
76,9600.0,9.21715259552002,0.5766702890396118,-3.012563943862915
77,9700.0,9.21715259552002,0.5766702890396118,-3.012563943862915
78,9800.0,9.31765079498291,0.7657032012939453,-2.945564746856689
79,9900.0,9.31765079498291,0.7657032012939453,-2.945564746856689
80,9000.0,9.231510162353516,0.6364907622337341,-3.062812805175781
81,9100.0,9.097511291503906,0.7106683850288391,-2.9168508052825928
82,9200.0,9.097511291503906,0.7106683850288391,-2.9168508052825928
83,9300.0,9.087940216064453,0.1052841916680336,-2.117647886276245
84,9400.0,9.087940216064453,0.1052841916680336,-2.117647886276245
85,9500.0,9.21715259552002,0.5766702890396118,-3.012563943862915
86,9600.0,9.21715259552002,0.5766702890396118,-3.012563943862915
87,9700.0,9.21715259552002,0.5766702890396118,-3.012563943862915
88,9800.0,9.31765079498291,0.7657032012939453,-2.945564746856689
89,9900.0,9.31765079498291,0.7657032012939453,-2.945564746856689
90,10000.0,9.260223388671877,0.4067798554897308,-3.0963122844696045
91,10100.0,9.260223388671877,0.4067798554897308,-3.0963122844696045
92,10200.0,9.18843936920166,0.4163511395454407,-2.943171739578247
93,10300.0,9.18843936920166,0.4163511395454407,-2.943171739578247
94,10400.0,9.18843936920166,0.4163511395454407,-2.943171739578247
95,10500.0,9.111868858337402,0.41156551241874695,-3.005385160446167
96,10600.0,9.111868858337402,0.41156551241874695,-3.005385160446167
97,10700.0,9.231510162353516,0.4091726541519165,-2.995814085006714
98,10800.0,9.231510162353516,0.4091726541519165,-2.995814085006714
99,10900.0,9.10229778289795,0.3852444589138031,-2.9527432918548584
100,10000.0,9.260223388671877,0.4067798554897308,-3.0963122844696045
101,10100.0,9.260223388671877,0.4067798554897308,-3.0963122844696045
102,10200.0,9.18843936920166,0.4163511395454407,-2.943171739578247
103,10300.0,9.18843936920166,0.4163511395454407,-2.943171739578247
104,10400.0,9.18843936920166,0.4163511395454407,-2.943171739578247
105,10500.0,9.111868858337402,0.41156551241874695,-3.005385160446167
106,10600.0,9.111868858337402,0.41156551241874695,-3.005385160446167
107,10700.0,9.231510162353516,0.4091726541519165,-2.995814085006714
108,10800.0,9.231510162353516,0.4091726541519165,-2.995814085006714
109,10900.0,9.10229778289795,0.3852444589138031,-2.9527432918548584
110,11000.0,9.10229778289795,0.3852444589138031,-2.9527432918548584
111,11100.0,9.360722541809082,0.6532405614852905,-2.8666017055511475
112,11200.0,9.360722541809082,0.6532405614852905,-2.8666017055511475
113,11300.0,9.360722541809082,0.6532405614852905,-2.8666017055511475
114,11400.0,9.097511291503906,0.6675975918769836,-2.7254250049591064
115,11500.0,9.097511291503906,0.6675975918769836,-2.7254250049591064
116,11600.0,9.035298347473145,0.3182453811168671,-2.7732813358306885
117,11700.0,9.035298347473145,0.3182453811168671,-2.7732813358306885
118,11800.0,9.207581520080566,0.5766702890396118,-2.7661027908325195
119,11900.0,9.207581520080566,0.5766702890396118,-2.7661027908325195
120,11000.0,9.10229778289795,0.3852444589138031,-2.9527432918548584
121,11100.0,9.360722541809082,0.6532405614852905,-2.8666017055511475
122,11200.0,9.360722541809082,0.6532405614852905,-2.8666017055511475
123,11300.0,9.360722541809082,0.6532405614852905,-2.8666017055511475
124,11400.0,9.097511291503906,0.6675975918769836,-2.7254250049591064
125,11500.0,9.097511291503906,0.6675975918769836,-2.7254250049591064
126,11600.0,9.035298347473145,0.3182453811168671,-2.7732813358306885
127,11700.0,9.035298347473145,0.3182453811168671,-2.7732813358306885
128,11800.0,9.207581520080566,0.5766702890396118,-2.7661027908325195
129,11900.0,9.207581520080566,0.5766702890396118,-2.7661027908325195
130,12000.0,9.226724624633787,0.5623133182525635,-2.8594231605529785
131,12100.0,9.226724624633787,0.5623133182525635,-2.8594231605529785
132,12200.0,9.226724624633787,0.5623133182525635,-2.8594231605529785
133,12300.0,9.31765079498291,0.5958128571510315,-2.687139749526977
134,12400.0,9.31765079498291,0.5958128571510315,-2.687139749526977
135,12500.0,9.250652313232422,0.5048855543136597,-2.778067111968994
136,12600.0,9.250652313232422,0.5048855543136597,-2.778067111968994
137,12700.0,9.18843936920166,0.6245267391204834,-2.730210542678833
138,12800.0,9.18843936920166,0.6245267391204834,-2.730210542678833
139,12900.0,9.18843936920166,0.6245267391204834,-2.730210542678833
140,12000.0,9.226724624633787,0.5623133182525635,-2.8594231605529785
141,12100.0,9.226724624633787,0.5623133182525635,-2.8594231605529785
142,12200.0,9.226724624633787,0.5623133182525635,-2.8594231605529785
143,12300.0,9.31765079498291,0.5958128571510315,-2.687139749526977
144,12400.0,9.31765079498291,0.5958128571510315,-2.687139749526977
145,12500.0,9.250652313232422,0.5048855543136597,-2.778067111968994
146,12600.0,9.250652313232422,0.5048855543136597,-2.778067111968994
147,12700.0,9.18843936920166,0.6245267391204834,-2.730210542678833
148,12800.0,9.18843936920166,0.6245267391204834,-2.730210542678833
149,12900.0,9.18843936920166,0.6245267391204834,-2.730210542678833
150,13000.0,9.375079154968262,0.6604190468788147,-2.900100946426392
151,13100.0,9.375079154968262,0.6604190468788147,-2.900100946426392
152,13200.0,9.164510726928713,0.6412764191627502,-2.749353408813477
153,13300.0,9.164510726928713,0.6412764191627502,-2.749353408813477
154,13400.0,9.111868858337402,0.662811815738678,-2.9527432918548584
155,13500.0,9.111868858337402,0.662811815738678,-2.9527432918548584
156,13600.0,9.145368576049805,0.794417142868042,-2.7732813358306885
157,13700.0,9.145368576049805,0.794417142868042,-2.7732813358306885
158,13800.0,9.145368576049805,0.794417142868042,-2.7732813358306885
159,13900.0,9.18843936920166,0.6699903011322021,-3.1178479194641118
160,13000.0,9.375079154968262,0.6604190468788147,-2.900100946426392
161,13100.0,9.375079154968262,0.6604190468788147,-2.900100946426392
162,13200.0,9.164510726928713,0.6412764191627502,-2.749353408813477
163,13300.0,9.164510726928713,0.6412764191627502,-2.749353408813477
164,13400.0,9.111868858337402,0.662811815738678,-2.9527432918548584
165,13500.0,9.111868858337402,0.662811815738678,-2.9527432918548584
166,13600.0,9.145368576049805,0.794417142868042,-2.7732813358306885
167,13700.0,9.145368576049805,0.794417142868042,-2.7732813358306885
168,13800.0,9.145368576049805,0.794417142868042,-2.7732813358306885
169,13900.0,9.18843936920166,0.6699903011322021,-3.1178479194641118
170,14000.0,9.18843936920166,0.6699903011322021,-3.1178479194641118
171,14100.0,9.485149383544922,0.7824530005455017,-2.964707374572754
172,14200.0,9.485149383544922,0.7824530005455017,-2.964707374572754
173,14300.0,9.485149383544922,0.7824530005455017,-2.964707374572754
174,14400.0,9.150154113769533,0.935593605041504,-2.945564746856689
175,14500.0,9.150154113769533,0.935593605041504,-2.945564746856689
176,14600.0,9.073582649230957,0.6508477926254272,-2.9527432918548584
177,14700.0,9.073582649230957,0.6508477926254272,-2.9527432918548584
178,14800.0,9.245866775512695,0.7896314859390259,-2.8929224014282227
179,14900.0,9.245866775512695,0.7896314859390259,-2.8929224014282227
180,14000.0,9.18843936920166,0.6699903011322021,-3.1178479194641118
181,14100.0,9.485149383544922,0.7824530005455017,-2.964707374572754
182,14200.0,9.485149383544922,0.7824530005455017,-2.964707374572754
183,14300.0,9.485149383544922,0.7824530005455017,-2.964707374572754
184,14400.0,9.150154113769533,0.935593605041504,-2.945564746856689
185,14500.0,9.150154113769533,0.935593605041504,-2.945564746856689
186,14600.0,9.073582649230957,0.6508477926254272,-2.9527432918548584
187,14700.0,9.073582649230957,0.6508477926254272,-2.9527432918548584
188,14800.0,9.245866775512695,0.7896314859390259,-2.8929224014282227
189,14900.0,9.245866775512695,0.7896314859390259,-2.8929224014282227
190,15000.0,9.17886734008789,1.0073783397674558,-2.8713872432708736
191,15100.0,9.17886734008789,1.0073783397674558,-2.8713872432708736
192,15200.0,9.17886734008789,1.0073783397674558,-2.8713872432708736
193,15300.0,9.231510162353516,0.8853443264961243,-2.9766712188720703
194,15400.0,9.231510162353516,0.8853443264961243,-2.9766712188720703
195,15500.0,9.269794464111328,0.7537391781806946,-2.7972097396850586
196,15600.0,9.269794464111328,0.7537391781806946,-2.7972097396850586
197,15700.0,9.269794464111328,0.7537391781806946,-2.7972097396850586
198,15800.0,9.207581520080566,0.818345308303833,-2.7876384258270264
199,15900.0,9.207581520080566,0.818345308303833,-2.7876384258270264
200,15000.0,9.17886734008789,1.0073783397674558,-2.8713872432708736
201,15100.0,9.17886734008789,1.0073783397674558,-2.8713872432708736
202,15200.0,9.17886734008789,1.0073783397674558,-2.8713872432708736
203,15300.0,9.231510162353516,0.8853443264961243,-2.9766712188720703
204,15400.0,9.231510162353516,0.8853443264961243,-2.9766712188720703
205,15500.0,9.269794464111328,0.7537391781806946,-2.7972097396850586
206,15600.0,9.269794464111328,0.7537391781806946,-2.7972097396850586
207,15700.0,9.269794464111328,0.7537391781806946,-2.7972097396850586
208,15800.0,9.207581520080566,0.818345308303833,-2.7876384258270264
209,15900.0,9.207581520080566,0.818345308303833,-2.7876384258270264
210,16000.0,9.231510162353516,0.8805587291717529,-2.861815929412842
211,16100.0,9.231510162353516,0.8805587291717529,-2.861815929412842
212,16200.0,9.207581520080566,0.916451096534729,-2.8713872432708736
213,16300.0,9.207581520080566,0.916451096534729,-2.8713872432708736
214,16400.0,9.193224906921387,0.902094066143036,-2.8713872432708736
215,16500.0,9.193224906921387,0.902094066143036,-2.8713872432708736
216,16600.0,9.193224906921387,0.902094066143036,-2.8713872432708736
217,16700.0,9.3128662109375,0.8446664214134216,-2.9862425327301025
218,16800.0,9.3128662109375,0.8446664214134216,-2.9862425327301025
219,16900.0,9.28893756866455,0.8901299238204956,-2.71346116065979
220,16000.0,9.231510162353516,0.8805587291717529,-2.861815929412842
221,16100.0,9.231510162353516,0.8805587291717529,-2.861815929412842
222,16200.0,9.207581520080566,0.916451096534729,-2.8713872432708736
223,16300.0,9.207581520080566,0.916451096534729,-2.8713872432708736
224,16400.0,9.193224906921387,0.902094066143036,-2.8713872432708736
225,16500.0,9.193224906921387,0.902094066143036,-2.8713872432708736
226,16600.0,9.193224906921387,0.902094066143036,-2.8713872432708736
227,16700.0,9.3128662109375,0.8446664214134216,-2.9862425327301025
228,16800.0,9.3128662109375,0.8446664214134216,-2.9862425327301025
229,16900.0,9.28893756866455,0.8901299238204956,-2.71346116065979
230,17000.0,9.28893756866455,0.8901299238204956,-2.71346116065979
231,17100.0,9.15493869781494,0.8757730722427368,-2.991028308868408
232,17200.0,9.15493869781494,0.8757730722427368,-2.991028308868408
233,17300.0,9.250652313232422,0.8446664214134216,-2.9862425327301025
234,17400.0,9.250652313232422,0.8446664214134216,-2.9862425327301025
235,17500.0,9.250652313232422,0.8446664214134216,-2.9862425327301025
236,17600.0,9.260223388671877,0.861416220664978,-2.8546373844146733
237,17700.0,9.260223388671877,0.861416220664978,-2.8546373844146733
238,17800.0,9.269794464111328,0.8733802437782288,-2.809173583984375
239,17900.0,9.269794464111328,0.8733802437782288,-2.809173583984375
240,17000.0,9.28893756866455,0.8901299238204956,-2.71346116065979
241,17100.0,9.15493869781494,0.8757730722427368,-2.991028308868408
242,17200.0,9.15493869781494,0.8757730722427368,-2.991028308868408
243,17300.0,9.250652313232422,0.8446664214134216,-2.9862425327301025
244,17400.0,9.250652313232422,0.8446664214134216,-2.9862425327301025
245,17500.0,9.250652313232422,0.8446664214134216,-2.9862425327301025
246,17600.0,9.260223388671877,0.861416220664978,-2.8546373844146733
247,17700.0,9.260223388671877,0.861416220664978,-2.8546373844146733
248,17800.0,9.269794464111328,0.8733802437782288,-2.809173583984375
249,17900.0,9.269794464111328,0.8733802437782288,-2.809173583984375
250,18000.0,9.17886734008789,0.8542376756668091,-2.816352128982544
251,18100.0,9.17886734008789,0.8542376756668091,-2.816352128982544
252,18200.0,9.078369140625,0.9882357716560364,-2.8378877639770512
253,18300.0,9.078369140625,0.9882357716560364,-2.8378877639770512
254,18400.0,9.078369140625,0.9882357716560364,-2.8378877639770512
255,18500.0,9.054441452026367,1.1509476900100708,-3.1058835983276367
256,18600.0,9.054441452026367,1.1509476900100708,-3.1058835983276367
257,18700.0,9.265008926391602,1.2634103298187256,-2.8498516082763667
258,18800.0,9.265008926391602,1.2634103298187256,-2.8498516082763667
259,18900.0,9.265008926391602,1.2634103298187256,-2.8498516082763667
260,18000.0,9.17886734008789,0.8542376756668091,-2.816352128982544
261,18100.0,9.17886734008789,0.8542376756668091,-2.816352128982544
262,18200.0,9.078369140625,0.9882357716560364,-2.8378877639770512
263,18300.0,9.078369140625,0.9882357716560364,-2.8378877639770512
264,18400.0,9.078369140625,0.9882357716560364,-2.8378877639770512
265,18500.0,9.054441452026367,1.1509476900100708,-3.1058835983276367
266,18600.0,9.054441452026367,1.1509476900100708,-3.1058835983276367
267,18700.0,9.265008926391602,1.2634103298187256,-2.8498516082763667
268,18800.0,9.265008926391602,1.2634103298187256,-2.8498516082763667
269,18900.0,9.265008926391602,1.2634103298187256,-2.8498516082763667
270,19000.0,9.193224906921387,1.4404792785644531,-2.885744333267212
271,19100.0,9.193224906921387,1.4404792785644531,-2.885744333267212
272,19200.0,9.040083885192873,1.5960125923156738,-2.7900311946868896
273,19300.0,9.040083885192873,1.5960125923156738,-2.7900311946868896
274,19400.0,9.15493869781494,1.6989041566848757,-2.833101987838745
275,19500.0,9.15493869781494,1.6989041566848757,-2.833101987838745
276,19600.0,9.011369705200195,1.8161523342132568,-2.5842485427856445
277,19700.0,9.011369705200195,1.8161523342132568,-2.5842485427856445
278,19800.0,9.011369705200195,1.8161523342132568,-2.5842485427856445
279,19900.0,9.31765079498291,1.6797614097595217,-2.878565788269043
280,19000.0,9.193224906921387,1.4404792785644531,-2.885744333267212
281,19100.0,9.193224906921387,1.4404792785644531,-2.885744333267212
282,19200.0,9.040083885192873,1.5960125923156738,-2.7900311946868896
283,19300.0,9.040083885192873,1.5960125923156738,-2.7900311946868896
284,19400.0,9.15493869781494,1.6989041566848757,-2.833101987838745
285,19500.0,9.15493869781494,1.6989041566848757,-2.833101987838745
286,19600.0,9.011369705200195,1.8161523342132568,-2.5842485427856445
287,19700.0,9.011369705200195,1.8161523342132568,-2.5842485427856445
288,19800.0,9.011369705200195,1.8161523342132568,-2.5842485427856445
289,19900.0,9.31765079498291,1.6797614097595217,-2.878565788269043
290,20000.0,9.31765079498291,1.6797614097595217,-2.878565788269043
291,20100.0,9.054441452026367,1.5098710060119631,-2.6679973602294917
292,20200.0,9.054441452026367,1.5098710060119631,-2.6679973602294917
293,20300.0,9.054441452026367,1.5098710060119631,-2.6679973602294917
294,20400.0,9.140583038330078,1.4931212663650513,-2.7182462215423584
295,20500.0,9.140583038330078,1.4931212663650513,-2.7182462215423584
296,20600.0,9.198010444641113,1.5457634925842283,-2.7421746253967285
297,20700.0,9.198010444641113,1.5457634925842283,-2.7421746253967285
298,20800.0,9.145368576049805,1.6247265338897705,-2.691925525665283
299,20900.0,9.145368576049805,1.6247265338897705,-2.691925525665283
300,20000.0,9.31765079498291,1.6797614097595217,-2.878565788269043
301,20100.0,9.054441452026367,1.5098710060119631,-2.6679973602294917
302,20200.0,9.054441452026367,1.5098710060119631,-2.6679973602294917
303,20300.0,9.054441452026367,1.5098710060119631,-2.6679973602294917
304,20400.0,9.140583038330078,1.4931212663650513,-2.7182462215423584
305,20500.0,9.140583038330078,1.4931212663650513,-2.7182462215423584
306,20600.0,9.198010444641113,1.5457634925842283,-2.7421746253967285
307,20700.0,9.198010444641113,1.5457634925842283,-2.7421746253967285
308,20800.0,9.145368576049805,1.6247265338897705,-2.691925525665283
309,20900.0,9.145368576049805,1.6247265338897705,-2.691925525665283
310,21000.0,9.236295700073242,1.5385849475860596,-2.644068956375122
311,21100.0,9.236295700073242,1.5385849475860596,-2.644068956375122
312,21200.0,9.236295700073242,1.5385849475860596,-2.644068956375122
313,21300.0,9.140583038330078,1.5242280960083008,-2.57228422164917
314,21400.0,9.140583038330078,1.5242280960083008,-2.57228422164917
315,21500.0,9.207581520080566,1.184447169303894,-2.8546373844146733
316,21600.0,9.207581520080566,1.184447169303894,-2.8546373844146733
317,21700.0,9.418149948120117,1.5744771957397459,-2.431107759475708
318,21800.0,9.418149948120117,1.5744771957397459,-2.431107759475708
319,21900.0,9.418149948120117,1.5744771957397459,-2.431107759475708
320,21000.0,9.236295700073242,1.5385849475860596,-2.644068956375122
321,21100.0,9.236295700073242,1.5385849475860596,-2.644068956375122
322,21200.0,9.236295700073242,1.5385849475860596,-2.644068956375122
323,21300.0,9.140583038330078,1.5242280960083008,-2.57228422164917
324,21400.0,9.140583038330078,1.5242280960083008,-2.57228422164917
325,21500.0,9.207581520080566,1.184447169303894,-2.8546373844146733
326,21600.0,9.207581520080566,1.184447169303894,-2.8546373844146733
327,21700.0,9.418149948120117,1.5744771957397459,-2.431107759475708
328,21800.0,9.418149948120117,1.5744771957397459,-2.431107759475708
329,21900.0,9.418149948120117,1.5744771957397459,-2.431107759475708
330,22000.0,9.15493869781494,1.3112668991088867,-2.723031997680664
331,22100.0,9.15493869781494,1.3112668991088867,-2.723031997680664
332,22200.0,9.226724624633787,1.3351951837539673,-2.543570280075073
333,22300.0,9.226724624633787,1.3351951837539673,-2.543570280075073
334,22400.0,9.150154113769533,1.2131611108779907,-2.730210542678833
335,22500.0,9.150154113769533,1.2131611108779907,-2.730210542678833
336,22600.0,9.150154113769533,1.2131611108779907,-2.730210542678833
337,22700.0,9.035298347473145,1.3328022956848145,-2.569891452789306
338,22800.0,9.035298347473145,1.3328022956848145,-2.569891452789306
339,22900.0,9.126225471496582,1.3902300596237185,-2.6703903675079346
340,22000.0,9.15493869781494,1.3112668991088867,-2.723031997680664
341,22100.0,9.15493869781494,1.3112668991088867,-2.723031997680664
342,22200.0,9.226724624633787,1.3351951837539673,-2.543570280075073
343,22300.0,9.226724624633787,1.3351951837539673,-2.543570280075073
344,22400.0,9.150154113769533,1.2131611108779907,-2.730210542678833
345,22500.0,9.150154113769533,1.2131611108779907,-2.730210542678833
346,22600.0,9.150154113769533,1.2131611108779907,-2.730210542678833
347,22700.0,9.035298347473145,1.3328022956848145,-2.569891452789306
348,22800.0,9.035298347473145,1.3328022956848145,-2.569891452789306
349,22900.0,9.126225471496582,1.3902300596237185,-2.6703903675079346
350,23000.0,9.126225471496582,1.3902300596237185,-2.6703903675079346
351,23100.0,9.207581520080566,1.2921242713928225,-2.723031997680664
352,23200.0,9.207581520080566,1.2921242713928225,-2.723031997680664
353,23300.0,9.226724624633787,1.289731502532959,-2.744567632675171
354,23400.0,9.226724624633787,1.289731502532959,-2.744567632675171
355,23500.0,9.226724624633787,1.289731502532959,-2.744567632675171
356,23600.0,9.016156196594238,1.2490534782409668,-2.636890411376953
357,23700.0,9.016156196594238,1.2490534782409668,-2.636890411376953
358,23800.0,9.145368576049805,1.37587308883667,-2.720639228820801
359,23900.0,9.145368576049805,1.37587308883667,-2.720639228820801
360,23000.0,9.126225471496582,1.3902300596237185,-2.6703903675079346
361,23100.0,9.207581520080566,1.2921242713928225,-2.723031997680664
362,23200.0,9.207581520080566,1.2921242713928225,-2.723031997680664
363,23300.0,9.226724624633787,1.289731502532959,-2.744567632675171
364,23400.0,9.226724624633787,1.289731502532959,-2.744567632675171
365,23500.0,9.226724624633787,1.289731502532959,-2.744567632675171
366,23600.0,9.016156196594238,1.2490534782409668,-2.636890411376953
367,23700.0,9.016156196594238,1.2490534782409668,-2.636890411376953
368,23800.0,9.145368576049805,1.37587308883667,-2.720639228820801
369,23900.0,9.145368576049805,1.37587308883667,-2.720639228820801
370,24000.0,9.145368576049805,1.37587308883667,-2.720639228820801
371,24100.0,9.150154113769533,1.3328022956848145,-2.6608188152313232
372,24200.0,9.150154113769533,1.3328022956848145,-2.6608188152313232
373,24300.0,9.284152030944824,1.3280165195465088,-2.6153552532196045
374,24400.0,9.284152030944824,1.3280165195465088,-2.6153552532196045
375,24500.0,8.958727836608887,1.2969098091125488,-2.6416761875152592
376,24600.0,8.958727836608887,1.2969098091125488,-2.6416761875152592
377,24700.0,8.958727836608887,1.2969098091125488,-2.6416761875152592
378,24800.0,9.164510726928713,1.191625714302063,-2.706282377243042
379,24900.0,9.164510726928713,1.191625714302063,-2.706282377243042
380,24000.0,9.145368576049805,1.37587308883667,-2.720639228820801
381,24100.0,9.150154113769533,1.3328022956848145,-2.6608188152313232
382,24200.0,9.150154113769533,1.3328022956848145,-2.6608188152313232
383,24300.0,9.284152030944824,1.3280165195465088,-2.6153552532196045
384,24400.0,9.284152030944824,1.3280165195465088,-2.6153552532196045
385,24500.0,8.958727836608887,1.2969098091125488,-2.6416761875152592
386,24600.0,8.958727836608887,1.2969098091125488,-2.6416761875152592
387,24700.0,8.958727836608887,1.2969098091125488,-2.6416761875152592
388,24800.0,9.164510726928713,1.191625714302063,-2.706282377243042
389,24900.0,9.164510726928713,1.191625714302063,-2.706282377243042
390,25000.0,9.336793899536133,1.2825528383255005,-2.723031997680664
391,25100.0,9.336793899536133,1.2825528383255005,-2.723031997680664
392,25200.0,9.336793899536133,1.2825528383255005,-2.723031997680664
393,25300.0,9.164510726928713,1.3854442834854126,-2.67278265953064
394,25400.0,9.164510726928713,1.3854442834854126,-2.67278265953064
395,25500.0,9.260223388671877,1.4620146751403809,-2.7038896083831787
396,25600.0,9.260223388671877,1.4620146751403809,-2.7038896083831787
397,25700.0,9.207581520080566,1.3160523176193235,-2.6416761875152592
398,25800.0,9.207581520080566,1.3160523176193235,-2.6416761875152592
399,25900.0,9.17886734008789,1.380658507347107,-2.6536402702331543
400,25000.0,9.336793899536133,1.2825528383255005,-2.723031997680664
401,25100.0,9.336793899536133,1.2825528383255005,-2.723031997680664
402,25200.0,9.336793899536133,1.2825528383255005,-2.723031997680664
403,25300.0,9.164510726928713,1.3854442834854126,-2.67278265953064
404,25400.0,9.164510726928713,1.3854442834854126,-2.67278265953064
405,25500.0,9.260223388671877,1.4620146751403809,-2.7038896083831787
406,25600.0,9.260223388671877,1.4620146751403809,-2.7038896083831787
407,25700.0,9.207581520080566,1.3160523176193235,-2.6416761875152592
408,25800.0,9.207581520080566,1.3160523176193235,-2.6416761875152592
409,25900.0,9.17886734008789,1.380658507347107,-2.6536402702331543
410,26000.0,9.17886734008789,1.380658507347107,-2.6536402702331543
411,26100.0,9.17886734008789,1.380658507347107,-2.6536402702331543
412,26200.0,9.284152030944824,1.3016955852508545,-2.7349963188171387
413,26300.0,9.284152030944824,1.3016955852508545,-2.7349963188171387
414,26400.0,9.38943576812744,1.3519448041915894,-2.612962245941162
415,26500.0,9.38943576812744,1.3519448041915894,-2.612962245941162
416,26600.0,9.087940216064453,1.3519448041915894,-2.502892255783081
417,26700.0,9.087940216064453,1.3519448041915894,-2.502892255783081
418,26800.0,9.087940216064453,1.3519448041915894,-2.502892255783081
419,26900.0,9.207581520080566,1.3328022956848145,-2.8809585571289062
420,26000.0,9.17886734008789,1.380658507347107,-2.6536402702331543
421,26100.0,9.17886734008789,1.380658507347107,-2.6536402702331543
422,26200.0,9.284152030944824,1.3016955852508545,-2.7349963188171387
423,26300.0,9.284152030944824,1.3016955852508545,-2.7349963188171387
424,26400.0,9.38943576812744,1.3519448041915894,-2.612962245941162
425,26500.0,9.38943576812744,1.3519448041915894,-2.612962245941162
426,26600.0,9.087940216064453,1.3519448041915894,-2.502892255783081
427,26700.0,9.087940216064453,1.3519448041915894,-2.502892255783081
428,26800.0,9.087940216064453,1.3519448041915894,-2.502892255783081
429,26900.0,9.207581520080566,1.3328022956848145,-2.8809585571289062
430,27000.0,9.207581520080566,1.3328022956848145,-2.8809585571289062
431,27100.0,9.221939086914062,1.380658507347107,-2.7900311946868896
432,27200.0,9.221939086914062,1.380658507347107,-2.7900311946868896
433,27300.0,9.174081802368164,1.2681961059570312,-2.6799612045288086
434,27400.0,9.174081802368164,1.2681961059570312,-2.6799612045288086
435,27500.0,9.174081802368164,1.2681961059570312,-2.6799612045288086
436,27600.0,9.159724235534668,1.2227323055267334,-2.7876384258270264
437,27700.0,9.159724235534668,1.2227323055267334,-2.7876384258270264
438,27800.0,9.198010444641113,1.2658032178878784,-2.746960401535034
439,27900.0,9.198010444641113,1.2658032178878784,-2.746960401535034
440,27000.0,9.207581520080566,1.3328022956848145,-2.8809585571289062
441,27100.0,9.221939086914062,1.380658507347107,-2.7900311946868896
442,27200.0,9.221939086914062,1.380658507347107,-2.7900311946868896
443,27300.0,9.174081802368164,1.2681961059570312,-2.6799612045288086
444,27400.0,9.174081802368164,1.2681961059570312,-2.6799612045288086
445,27500.0,9.174081802368164,1.2681961059570312,-2.6799612045288086
446,27600.0,9.159724235534668,1.2227323055267334,-2.7876384258270264
447,27700.0,9.159724235534668,1.2227323055267334,-2.7876384258270264
448,27800.0,9.198010444641113,1.2658032178878784,-2.746960401535034
449,27900.0,9.198010444641113,1.2658032178878784,-2.746960401535034
450,28000.0,9.17886734008789,1.3328022956848145,-2.770888566970825
451,28100.0,9.17886734008789,1.3328022956848145,-2.770888566970825
452,28200.0,9.260223388671877,1.3591231107711792,-2.7421746253967285
453,28300.0,9.260223388671877,1.3591231107711792,-2.7421746253967285
454,28400.0,9.260223388671877,1.3591231107711792,-2.7421746253967285
455,28500.0,9.265008926391602,1.2538390159606934,-2.746960401535034
456,28600.0,9.265008926391602,1.2538390159606934,-2.746960401535034
457,28700.0,9.269794464111328,1.3184452056884766,-2.6943180561065674
458,28800.0,9.269794464111328,1.3184452056884766,-2.6943180561065674
459,28900.0,9.207581520080566,1.3399806022644043,-2.7326035499572754
460,28000.0,9.17886734008789,1.3328022956848145,-2.770888566970825
461,28100.0,9.17886734008789,1.3328022956848145,-2.770888566970825
462,28200.0,9.260223388671877,1.3591231107711792,-2.7421746253967285
463,28300.0,9.260223388671877,1.3591231107711792,-2.7421746253967285
464,28400.0,9.260223388671877,1.3591231107711792,-2.7421746253967285
465,28500.0,9.265008926391602,1.2538390159606934,-2.746960401535034
466,28600.0,9.265008926391602,1.2538390159606934,-2.746960401535034
467,28700.0,9.269794464111328,1.3184452056884766,-2.6943180561065674
468,28800.0,9.269794464111328,1.3184452056884766,-2.6943180561065674
469,28900.0,9.207581520080566,1.3399806022644043,-2.7326035499572754
470,29000.0,9.207581520080566,1.3399806022644043,-2.7326035499572754
471,29100.0,9.28893756866455,1.2610174417495728,-2.691925525665283
472,29200.0,9.28893756866455,1.2610174417495728,-2.691925525665283
473,29300.0,9.260223388671877,1.3232309818267822,-2.7589242458343506
474,29400.0,9.260223388671877,1.3232309818267822,-2.7589242458343506
475,29500.0,9.260223388671877,1.3232309818267822,-2.7589242458343506
476,29600.0,9.207581520080566,1.3639088869094849,-2.715853452682495
477,29700.0,9.207581520080566,1.3639088869094849,-2.715853452682495
478,29800.0,9.17886734008789,1.1892328262329102,-2.7326035499572754
479,29900.0,9.17886734008789,1.1892328262329102,-2.7326035499572754
480,29000.0,9.207581520080566,1.3399806022644043,-2.7326035499572754
481,29100.0,9.28893756866455,1.2610174417495728,-2.691925525665283
482,29200.0,9.28893756866455,1.2610174417495728,-2.691925525665283
483,29300.0,9.260223388671877,1.3232309818267822,-2.7589242458343506
484,29400.0,9.260223388671877,1.3232309818267822,-2.7589242458343506
485,29500.0,9.260223388671877,1.3232309818267822,-2.7589242458343506
486,29600.0,9.207581520080566,1.3639088869094849,-2.715853452682495
487,29700.0,9.207581520080566,1.3639088869094849,-2.715853452682495
488,29800.0,9.17886734008789,1.1892328262329102,-2.7326035499572754
489,29900.0,9.17886734008789,1.1892328262329102,-2.7326035499572754
490,30000.0,9.245866775512695,1.4380863904953003,-2.7972097396850586
491,30100.0,9.245866775512695,1.4380863904953003,-2.7972097396850586
492,30200.0,9.245866775512695,1.4380863904953003,-2.7972097396850586
493,30300.0,9.164510726928713,1.2370892763137815,-2.737389087677002
494,30400.0,9.164510726928713,1.2370892763137815,-2.737389087677002
495,30500.0,9.059226989746094,1.380658507347107,-2.68953275680542
496,30600.0,9.059226989746094,1.380658507347107,-2.68953275680542
497,30700.0,9.265008926391602,1.246660590171814,-2.68953275680542
498,30800.0,9.265008926391602,1.246660590171814,-2.68953275680542
499,30900.0,9.265008926391602,1.246660590171814,-2.68953275680542
500,30000.0,9.245866775512695,1.4380863904953003,-2.7972097396850586
501,30100.0,9.245866775512695,1.4380863904953003,-2.7972097396850586
502,30200.0,9.245866775512695,1.4380863904953003,-2.7972097396850586
503,30300.0,9.164510726928713,1.2370892763137815,-2.737389087677002
504,30400.0,9.164510726928713,1.2370892763137815,-2.737389087677002
505,30500.0,9.059226989746094,1.380658507347107,-2.68953275680542
506,30600.0,9.059226989746094,1.380658507347107,-2.68953275680542
507,30700.0,9.265008926391602,1.246660590171814,-2.68953275680542
508,30800.0,9.265008926391602,1.246660590171814,-2.68953275680542
509,30900.0,9.265008926391602,1.246660590171814,-2.68953275680542
510,31000.0,9.198010444641113,1.3160523176193235,-2.6416761875152592
511,31100.0,9.198010444641113,1.3160523176193235,-2.6416761875152592
512,31200.0,9.207581520080566,1.3591231107711792,-2.5555346012115483
513,31300.0,9.207581520080566,1.3591231107711792,-2.5555346012115483
514,31400.0,9.145368576049805,1.2227323055267334,-2.6057839393615723
515,31500.0,9.145368576049805,1.2227323055267334,-2.6057839393615723
516,31600.0,9.231510162353516,1.184447169303894,-2.548356056213379
517,31700.0,9.231510162353516,1.184447169303894,-2.548356056213379
518,31800.0,9.231510162353516,1.184447169303894,-2.548356056213379
519,31900.0,9.245866775512695,1.5242280960083008,-2.8043880462646484
520,31000.0,9.198010444641113,1.3160523176193235,-2.6416761875152592
521,31100.0,9.198010444641113,1.3160523176193235,-2.6416761875152592
522,31200.0,9.207581520080566,1.3591231107711792,-2.5555346012115483
523,31300.0,9.207581520080566,1.3591231107711792,-2.5555346012115483
524,31400.0,9.145368576049805,1.2227323055267334,-2.6057839393615723
525,31500.0,9.145368576049805,1.2227323055267334,-2.6057839393615723
526,31600.0,9.231510162353516,1.184447169303894,-2.548356056213379
527,31700.0,9.231510162353516,1.184447169303894,-2.548356056213379
528,31800.0,9.231510162353516,1.184447169303894,-2.548356056213379
529,31900.0,9.245866775512695,1.5242280960083008,-2.8043880462646484
530,32000.0,9.245866775512695,1.5242280960083008,-2.8043880462646484
531,32100.0,9.164510726928713,1.497907042503357,-2.768495798110962
532,32200.0,9.164510726928713,1.497907042503357,-2.768495798110962
533,32300.0,9.30329418182373,1.2610174417495728,-2.723031997680664
534,32400.0,9.30329418182373,1.2610174417495728,-2.723031997680664
535,32500.0,9.212367057800293,1.196411371231079,-2.53399920463562
536,32600.0,9.212367057800293,1.196411371231079,-2.53399920463562
537,32700.0,9.126225471496582,1.3351951837539673,-2.7038896083831787
538,32800.0,9.126225471496582,1.3351951837539673,-2.7038896083831787
539,32900.0,9.126225471496582,1.3351951837539673,-2.7038896083831787
540,32000.0,9.245866775512695,1.5242280960083008,-2.8043880462646484
541,32100.0,9.164510726928713,1.497907042503357,-2.768495798110962
542,32200.0,9.164510726928713,1.497907042503357,-2.768495798110962
543,32300.0,9.30329418182373,1.2610174417495728,-2.723031997680664
544,32400.0,9.30329418182373,1.2610174417495728,-2.723031997680664
545,32500.0,9.212367057800293,1.196411371231079,-2.53399920463562
546,32600.0,9.212367057800293,1.196411371231079,-2.53399920463562
547,32700.0,9.126225471496582,1.3351951837539673,-2.7038896083831787
548,32800.0,9.126225471496582,1.3351951837539673,-2.7038896083831787
549,32900.0,9.126225471496582,1.3351951837539673,-2.7038896083831787
550,33000.0,9.260223388671877,1.5050854682922363,-2.8354949951171875
551,33100.0,9.260223388671877,1.5050854682922363,-2.8354949951171875
552,33200.0,9.21715259552002,1.4787644147872925,-2.7876384258270264
553,33300.0,9.21715259552002,1.4787644147872925,-2.7876384258270264
554,33400.0,9.21715259552002,1.4787644147872925,-2.7876384258270264
555,33500.0,9.221939086914062,1.2753744125366209,-2.627319574356079
556,33600.0,9.221939086914062,1.2753744125366209,-2.627319574356079
557,33700.0,9.159724235534668,1.3112668991088867,-2.596212387084961
558,33800.0,9.159724235534668,1.3112668991088867,-2.596212387084961
559,33900.0,9.226724624633787,1.4452648162841797,-2.699103832244873
560,33000.0,9.260223388671877,1.5050854682922363,-2.8354949951171875
561,33100.0,9.260223388671877,1.5050854682922363,-2.8354949951171875
562,33200.0,9.21715259552002,1.4787644147872925,-2.7876384258270264
563,33300.0,9.21715259552002,1.4787644147872925,-2.7876384258270264
564,33400.0,9.21715259552002,1.4787644147872925,-2.7876384258270264
565,33500.0,9.221939086914062,1.2753744125366209,-2.627319574356079
566,33600.0,9.221939086914062,1.2753744125366209,-2.627319574356079
567,33700.0,9.159724235534668,1.3112668991088867,-2.596212387084961
568,33800.0,9.159724235534668,1.3112668991088867,-2.596212387084961
569,33900.0,9.226724624633787,1.4452648162841797,-2.699103832244873
570,34000.0,9.226724624633787,1.4452648162841797,-2.699103832244873
571,34100.0,9.226724624633787,1.4452648162841797,-2.699103832244873
572,34200.0,9.21715259552002,1.4093725681304932,-2.6847469806671143
573,34300.0,9.21715259552002,1.4093725681304932,-2.6847469806671143
574,34400.0,9.15493869781494,1.428515076637268,-2.63449764251709
575,34500.0,9.15493869781494,1.428515076637268,-2.63449764251709
576,34600.0,9.193224906921387,1.3351951837539673,-2.715853452682495
577,34700.0,9.193224906921387,1.3351951837539673,-2.715853452682495
578,34800.0,9.193224906921387,1.3351951837539673,-2.715853452682495
579,34900.0,9.126225471496582,1.3040882349014282,-2.603391170501709
580,34000.0,9.226724624633787,1.4452648162841797,-2.699103832244873
581,34100.0,9.226724624633787,1.4452648162841797,-2.699103832244873
582,34200.0,9.21715259552002,1.4093725681304932,-2.6847469806671143
583,34300.0,9.21715259552002,1.4093725681304932,-2.6847469806671143
584,34400.0,9.15493869781494,1.428515076637268,-2.63449764251709
585,34500.0,9.15493869781494,1.428515076637268,-2.63449764251709
586,34600.0,9.193224906921387,1.3351951837539673,-2.715853452682495
587,34700.0,9.193224906921387,1.3351951837539673,-2.715853452682495
588,34800.0,9.193224906921387,1.3351951837539673,-2.715853452682495
589,34900.0,9.126225471496582,1.3040882349014282,-2.603391170501709
590,35000.0,9.126225471496582,1.3040882349014282,-2.603391170501709
591,35100.0,9.226724624633787,1.3639088869094849,-2.6943180561065674
592,35200.0,9.226724624633787,1.3639088869094849,-2.6943180561065674
593,35300.0,9.226724624633787,1.289731502532959,-2.744567632675171
594,35400.0,9.226724624633787,1.289731502532959,-2.744567632675171
595,35500.0,9.226724624633787,1.289731502532959,-2.744567632675171
596,35600.0,9.231510162353516,1.3878371715545654,-2.581855773925781
597,35700.0,9.231510162353516,1.3878371715545654,-2.581855773925781
598,35800.0,9.164510726928713,1.3136597871780396,-2.6009981632232666
599,35900.0,9.164510726928713,1.3136597871780396,-2.6009981632232666
600,35000.0,9.126225471496582,1.3040882349014282,-2.603391170501709
601,35100.0,9.226724624633787,1.3639088869094849,-2.6943180561065674
602,35200.0,9.226724624633787,1.3639088869094849,-2.6943180561065674
603,35300.0,9.226724624633787,1.289731502532959,-2.744567632675171
604,35400.0,9.226724624633787,1.289731502532959,-2.744567632675171
605,35500.0,9.226724624633787,1.289731502532959,-2.744567632675171
606,35600.0,9.231510162353516,1.3878371715545654,-2.581855773925781
607,35700.0,9.231510162353516,1.3878371715545654,-2.581855773925781
608,35800.0,9.164510726928713,1.3136597871780396,-2.6009981632232666
609,35900.0,9.164510726928713,1.3136597871780396,-2.6009981632232666
610,36000.0,9.34157943725586,1.289731502532959,-2.931207656860352
611,36100.0,9.34157943725586,1.289731502532959,-2.931207656860352
612,36200.0,9.241080284118652,1.3184452056884766,-2.744567632675171
613,36300.0,9.241080284118652,1.3184452056884766,-2.744567632675171
614,36400.0,9.241080284118652,1.3184452056884766,-2.744567632675171
615,36500.0,9.241080284118652,1.2921242713928225,-2.68953275680542
616,36600.0,9.241080284118652,1.2921242713928225,-2.68953275680542
617,36700.0,9.241080284118652,1.215553879737854,-2.935993194580078
618,36800.0,9.241080284118652,1.215553879737854,-2.935993194580078
619,36900.0,9.241080284118652,1.215553879737854,-2.935993194580078
620,36000.0,9.34157943725586,1.289731502532959,-2.931207656860352
621,36100.0,9.34157943725586,1.289731502532959,-2.931207656860352
622,36200.0,9.241080284118652,1.3184452056884766,-2.744567632675171
623,36300.0,9.241080284118652,1.3184452056884766,-2.744567632675171
624,36400.0,9.241080284118652,1.3184452056884766,-2.744567632675171
625,36500.0,9.241080284118652,1.2921242713928225,-2.68953275680542
626,36600.0,9.241080284118652,1.2921242713928225,-2.68953275680542
627,36700.0,9.241080284118652,1.215553879737854,-2.935993194580078
628,36800.0,9.241080284118652,1.215553879737854,-2.935993194580078
629,36900.0,9.241080284118652,1.215553879737854,-2.935993194580078
630,37000.0,9.255437850952148,1.2825528383255005,-2.816352128982544
631,37100.0,9.255437850952148,1.2825528383255005,-2.816352128982544
632,37200.0,9.10229778289795,1.2035897970199585,-2.806780815124512
633,37300.0,9.10229778289795,1.2035897970199585,-2.806780815124512
634,37400.0,9.09272575378418,1.2227323055267334,-2.7421746253967285
635,37500.0,9.09272575378418,1.2227323055267334,-2.7421746253967285
636,37600.0,9.260223388671877,1.1988041400909424,-2.914458036422729
637,37700.0,9.260223388671877,1.1988041400909424,-2.914458036422729
638,37800.0,9.260223388671877,1.1988041400909424,-2.914458036422729
639,37900.0,9.20279598236084,1.2059825658798218,-2.6416761875152592
640,37000.0,9.255437850952148,1.2825528383255005,-2.816352128982544
641,37100.0,9.255437850952148,1.2825528383255005,-2.816352128982544
642,37200.0,9.10229778289795,1.2035897970199585,-2.806780815124512
643,37300.0,9.10229778289795,1.2035897970199585,-2.806780815124512
644,37400.0,9.09272575378418,1.2227323055267334,-2.7421746253967285
645,37500.0,9.09272575378418,1.2227323055267334,-2.7421746253967285
646,37600.0,9.260223388671877,1.1988041400909424,-2.914458036422729
647,37700.0,9.260223388671877,1.1988041400909424,-2.914458036422729
648,37800.0,9.260223388671877,1.1988041400909424,-2.914458036422729
649,37900.0,9.20279598236084,1.2059825658798218,-2.6416761875152592
650,38000.0,9.20279598236084,1.2059825658798218,-2.6416761875152592
651,38100.0,9.274580955505373,1.4213367700576782,-2.792424201965332
652,38200.0,9.274580955505373,1.4213367700576782,-2.792424201965332
653,38300.0,9.274580955505373,1.4213367700576782,-2.792424201965332
654,38400.0,8.858229637145996,1.3112668991088867,-2.7326035499572754
655,38500.0,8.858229637145996,1.3112668991088867,-2.7326035499572754
656,38600.0,9.135796546936037,1.4021940231323242,-2.89052963256836
657,38700.0,9.135796546936037,1.4021940231323242,-2.89052963256836
658,38800.0,9.145368576049805,1.3519448041915894,-2.799602746963501
659,38900.0,9.145368576049805,1.3519448041915894,-2.799602746963501
660,38000.0,9.20279598236084,1.2059825658798218,-2.6416761875152592
661,38100.0,9.274580955505373,1.4213367700576782,-2.792424201965332
662,38200.0,9.274580955505373,1.4213367700576782,-2.792424201965332
663,38300.0,9.274580955505373,1.4213367700576782,-2.792424201965332
664,38400.0,8.858229637145996,1.3112668991088867,-2.7326035499572754
665,38500.0,8.858229637145996,1.3112668991088867,-2.7326035499572754
666,38600.0,9.135796546936037,1.4021940231323242,-2.89052963256836
667,38700.0,9.135796546936037,1.4021940231323242,-2.89052963256836
668,38800.0,9.145368576049805,1.3519448041915894,-2.799602746963501
669,38900.0,9.145368576049805,1.3519448041915894,-2.799602746963501
670,39000.0,9.17886734008789,1.4787644147872925,-2.9240293502807617
671,39100.0,9.17886734008789,1.4787644147872925,-2.9240293502807617
672,39200.0,9.17886734008789,1.4787644147872925,-2.9240293502807617
673,39300.0,9.131011009216307,1.2753744125366209,-2.9048867225646973
674,39400.0,9.131011009216307,1.2753744125366209,-2.9048867225646973
675,39500.0,9.135796546936037,1.4811571836471558,-2.868994235992432
676,39600.0,9.135796546936037,1.4811571836471558,-2.868994235992432
677,39700.0,9.135796546936037,1.4811571836471558,-2.868994235992432
678,39800.0,9.250652313232422,1.3280165195465088,-2.9240293502807617
679,39900.0,9.250652313232422,1.3280165195465088,-2.9240293502807617
680,39000.0,9.17886734008789,1.4787644147872925,-2.9240293502807617
681,39100.0,9.17886734008789,1.4787644147872925,-2.9240293502807617
682,39200.0,9.17886734008789,1.4787644147872925,-2.9240293502807617
683,39300.0,9.131011009216307,1.2753744125366209,-2.9048867225646973
684,39400.0,9.131011009216307,1.2753744125366209,-2.9048867225646973
685,39500.0,9.135796546936037,1.4811571836471558,-2.868994235992432
686,39600.0,9.135796546936037,1.4811571836471558,-2.868994235992432
687,39700.0,9.135796546936037,1.4811571836471558,-2.868994235992432
688,39800.0,9.250652313232422,1.3280165195465088,-2.9240293502807617
689,39900.0,9.250652313232422,1.3280165195465088,-2.9240293502807617
690,40000.0,8.939584732055664,1.3471590280532837,-2.861815929412842
691,40100.0,8.939584732055664,1.3471590280532837,-2.861815929412842
692,40200.0,9.370293617248537,1.6079767942428589,-2.9216365814208984
693,40300.0,9.370293617248537,1.6079767942428589,-2.9216365814208984
694,40400.0,9.370293617248537,1.6079767942428589,-2.9216365814208984
695,40500.0,9.078369140625,1.4620146751403809,-2.502892255783081
696,40600.0,9.078369140625,1.4620146751403809,-2.502892255783081
697,40700.0,8.997013092041016,1.2729815244674685,-2.8809585571289062
698,40800.0,8.997013092041016,1.2729815244674685,-2.8809585571289062
699,40900.0,9.016156196594238,1.3878371715545654,-3.0149567127227783
700,40000.0,8.939584732055664,1.3471590280532837,-2.861815929412842
701,40100.0,8.939584732055664,1.3471590280532837,-2.861815929412842
702,40200.0,9.370293617248537,1.6079767942428589,-2.9216365814208984
703,40300.0,9.370293617248537,1.6079767942428589,-2.9216365814208984
704,40400.0,9.370293617248537,1.6079767942428589,-2.9216365814208984
705,40500.0,9.078369140625,1.4620146751403809,-2.502892255783081
706,40600.0,9.078369140625,1.4620146751403809,-2.502892255783081
707,40700.0,8.997013092041016,1.2729815244674685,-2.8809585571289062
708,40800.0,8.997013092041016,1.2729815244674685,-2.8809585571289062
709,40900.0,9.016156196594238,1.3878371715545654,-3.0149567127227783
710,41000.0,9.016156196594238,1.3878371715545654,-3.0149567127227783
711,41100.0,9.016156196594238,1.3878371715545654,-3.0149567127227783
712,41200.0,8.925228118896484,1.4620146751403809,-2.9814569950103764
713,41300.0,8.925228118896484,1.4620146751403809,-2.9814569950103764
714,41400.0,8.671588897705076,1.519442439079285,-2.785245418548584
715,41500.0,8.671588897705076,1.519442439079285,-2.785245418548584
716,41600.0,9.145368576049805,1.0719845294952393,-3.072384119033813
717,41700.0,9.145368576049805,1.0719845294952393,-3.072384119033813
718,41800.0,9.456435203552246,1.423729419708252,-2.833101987838745
719,41900.0,9.456435203552246,1.423729419708252,-2.833101987838745
720,41000.0,9.016156196594238,1.3878371715545654,-3.0149567127227783
721,41100.0,9.016156196594238,1.3878371715545654,-3.0149567127227783
722,41200.0,8.925228118896484,1.4620146751403809,-2.9814569950103764
723,41300.0,8.925228118896484,1.4620146751403809,-2.9814569950103764
724,41400.0,8.671588897705076,1.519442439079285,-2.785245418548584
725,41500.0,8.671588897705076,1.519442439079285,-2.785245418548584
726,41600.0,9.145368576049805,1.0719845294952393,-3.072384119033813
727,41700.0,9.145368576049805,1.0719845294952393,-3.072384119033813
728,41800.0,9.456435203552246,1.423729419708252,-2.833101987838745
729,41900.0,9.456435203552246,1.423729419708252,-2.833101987838745
730,42000.0,9.456435203552246,1.423729419708252,-2.833101987838745
731,42100.0,9.226724624633787,1.3543376922607422,-2.864208698272705
732,42200.0,9.226724624633787,1.3543376922607422,-2.864208698272705
733,42300.0,9.145368576049805,1.2729815244674685,-2.8043880462646484
734,42400.0,9.145368576049805,1.2729815244674685,-2.8043880462646484
735,42500.0,9.212367057800293,1.294516921043396,-2.8737800121307373
736,42600.0,9.212367057800293,1.294516921043396,-2.8737800121307373
737,42700.0,9.212367057800293,1.294516921043396,-2.8737800121307373
738,42800.0,9.107083320617676,1.3471590280532837,-2.8115665912628174
739,42900.0,9.107083320617676,1.3471590280532837,-2.8115665912628174
740,42000.0,9.456435203552246,1.423729419708252,-2.833101987838745
741,42100.0,9.226724624633787,1.3543376922607422,-2.864208698272705
742,42200.0,9.226724624633787,1.3543376922607422,-2.864208698272705
743,42300.0,9.145368576049805,1.2729815244674685,-2.8043880462646484
744,42400.0,9.145368576049805,1.2729815244674685,-2.8043880462646484
745,42500.0,9.212367057800293,1.294516921043396,-2.8737800121307373
746,42600.0,9.212367057800293,1.294516921043396,-2.8737800121307373
747,42700.0,9.212367057800293,1.294516921043396,-2.8737800121307373
748,42800.0,9.107083320617676,1.3471590280532837,-2.8115665912628174
749,42900.0,9.107083320617676,1.3471590280532837,-2.8115665912628174
750,43000.0,9.131011009216307,1.325623631477356,-2.8594231605529785
751,43100.0,9.131011009216307,1.325623631477356,-2.8594231605529785
752,43200.0,9.164510726928713,1.3543376922607422,-2.763710021972656
753,43300.0,9.164510726928713,1.3543376922607422,-2.763710021972656
754,43400.0,9.044869422912598,1.4165509939193726,-2.778067111968994
755,43500.0,9.044869422912598,1.4165509939193726,-2.778067111968994
756,43600.0,9.044869422912598,1.4165509939193726,-2.778067111968994
757,43700.0,9.10229778289795,1.373480200767517,-2.864208698272705
758,43800.0,9.10229778289795,1.373480200767517,-2.864208698272705
759,43900.0,9.140583038330078,1.4763716459274292,-2.9168508052825928
760,43000.0,9.131011009216307,1.325623631477356,-2.8594231605529785
761,43100.0,9.131011009216307,1.325623631477356,-2.8594231605529785
762,43200.0,9.164510726928713,1.3543376922607422,-2.763710021972656
763,43300.0,9.164510726928713,1.3543376922607422,-2.763710021972656
764,43400.0,9.044869422912598,1.4165509939193726,-2.778067111968994
765,43500.0,9.044869422912598,1.4165509939193726,-2.778067111968994
766,43600.0,9.044869422912598,1.4165509939193726,-2.778067111968994
767,43700.0,9.10229778289795,1.373480200767517,-2.864208698272705
768,43800.0,9.10229778289795,1.373480200767517,-2.864208698272705
769,43900.0,9.140583038330078,1.4763716459274292,-2.9168508052825928
770,44000.0,9.140583038330078,1.4763716459274292,-2.9168508052825928
771,44100.0,9.379864692687988,1.5864413976669312,-2.885744333267212
772,44200.0,9.379864692687988,1.5864413976669312,-2.885744333267212
773,44300.0,9.379864692687988,1.5864413976669312,-2.885744333267212
774,44400.0,9.236295700073242,1.5984054803848269,-2.8115665912628174
775,44500.0,9.236295700073242,1.5984054803848269,-2.8115665912628174
776,44600.0,9.073582649230957,1.4165509939193726,-2.964707374572754
777,44700.0,9.073582649230957,1.4165509939193726,-2.964707374572754
778,44800.0,9.226724624633787,1.56969153881073,-2.991028308868408
779,44900.0,9.226724624633787,1.56969153881073,-2.991028308868408
780,44000.0,9.140583038330078,1.4763716459274292,-2.9168508052825928
781,44100.0,9.379864692687988,1.5864413976669312,-2.885744333267212
782,44200.0,9.379864692687988,1.5864413976669312,-2.885744333267212
783,44300.0,9.379864692687988,1.5864413976669312,-2.885744333267212
784,44400.0,9.236295700073242,1.5984054803848269,-2.8115665912628174
785,44500.0,9.236295700073242,1.5984054803848269,-2.8115665912628174
786,44600.0,9.073582649230957,1.4165509939193726,-2.964707374572754
787,44700.0,9.073582649230957,1.4165509939193726,-2.964707374572754
788,44800.0,9.226724624633787,1.56969153881073,-2.991028308868408
789,44900.0,9.226724624633787,1.56969153881073,-2.991028308868408
790,45000.0,9.226724624633787,1.56969153881073,-2.991028308868408
791,45100.0,8.992227554321289,1.4045867919921875,-2.868994235992432
792,45200.0,8.992227554321289,1.4045867919921875,-2.868994235992432
793,45300.0,9.298508644104004,1.4500504732131958,-2.9790639877319336
794,45400.0,9.298508644104004,1.4500504732131958,-2.9790639877319336
795,45500.0,9.332008361816406,1.5170495510101318,-2.9168508052825928
796,45600.0,9.332008361816406,1.5170495510101318,-2.9168508052825928
797,45700.0,9.332008361816406,1.5170495510101318,-2.9168508052825928
798,45800.0,8.910871505737305,1.4189438819885254,-2.8522443771362305
799,45900.0,8.910871505737305,1.4189438819885254,-2.8522443771362305
800,45000.0,9.226724624633787,1.56969153881073,-2.991028308868408
801,45100.0,8.992227554321289,1.4045867919921875,-2.868994235992432
802,45200.0,8.992227554321289,1.4045867919921875,-2.868994235992432
803,45300.0,9.298508644104004,1.4500504732131958,-2.9790639877319336
804,45400.0,9.298508644104004,1.4500504732131958,-2.9790639877319336
805,45500.0,9.332008361816406,1.5170495510101318,-2.9168508052825928
806,45600.0,9.332008361816406,1.5170495510101318,-2.9168508052825928
807,45700.0,9.332008361816406,1.5170495510101318,-2.9168508052825928
808,45800.0,8.910871505737305,1.4189438819885254,-2.8522443771362305
809,45900.0,8.910871505737305,1.4189438819885254,-2.8522443771362305
810,46000.0,9.059226989746094,1.3519448041915894,-2.9551358222961426
811,46100.0,9.059226989746094,1.3519448041915894,-2.9551358222961426
812,46200.0,9.131011009216307,1.4739787578582764,-2.830709218978882
813,46300.0,9.131011009216307,1.4739787578582764,-2.830709218978882
814,46400.0,9.059226989746094,1.392622709274292,-2.785245418548584
815,46500.0,9.059226989746094,1.392622709274292,-2.785245418548584
816,46600.0,9.059226989746094,1.392622709274292,-2.785245418548584
817,46700.0,9.145368576049805,1.56969153881073,-2.8498516082763667
818,46800.0,9.145368576049805,1.56969153881073,-2.8498516082763667
819,46900.0,9.131011009216307,1.5170495510101318,-2.8115665912628174
820,46000.0,9.059226989746094,1.3519448041915894,-2.9551358222961426
821,46100.0,9.059226989746094,1.3519448041915894,-2.9551358222961426
822,46200.0,9.131011009216307,1.4739787578582764,-2.830709218978882
823,46300.0,9.131011009216307,1.4739787578582764,-2.830709218978882
824,46400.0,9.059226989746094,1.392622709274292,-2.785245418548584
825,46500.0,9.059226989746094,1.392622709274292,-2.785245418548584
826,46600.0,9.059226989746094,1.392622709274292,-2.785245418548584
827,46700.0,9.145368576049805,1.56969153881073,-2.8498516082763667
828,46800.0,9.145368576049805,1.56969153881073,-2.8498516082763667
829,46900.0,9.131011009216307,1.5170495510101318,-2.8115665912628174
830,47000.0,9.131011009216307,1.5170495510101318,-2.8115665912628174
831,47100.0,9.135796546936037,1.423729419708252,-2.806780815124512
832,47200.0,9.135796546936037,1.423729419708252,-2.806780815124512
833,47300.0,9.135796546936037,1.423729419708252,-2.806780815124512
834,47400.0,9.159724235534668,1.5122638940811155,-2.8737800121307373
835,47500.0,9.159724235534668,1.5122638940811155,-2.8737800121307373
836,47600.0,9.087940216064453,1.4859429597854614,-2.8522443771362305
837,47700.0,9.087940216064453,1.4859429597854614,-2.8522443771362305
838,47800.0,9.183652877807617,1.428515076637268,-2.816352128982544
839,47900.0,9.183652877807617,1.428515076637268,-2.816352128982544
840,47000.0,9.131011009216307,1.5170495510101318,-2.8115665912628174
841,47100.0,9.135796546936037,1.423729419708252,-2.806780815124512
842,47200.0,9.135796546936037,1.423729419708252,-2.806780815124512
843,47300.0,9.135796546936037,1.423729419708252,-2.806780815124512
844,47400.0,9.159724235534668,1.5122638940811155,-2.8737800121307373
845,47500.0,9.159724235534668,1.5122638940811155,-2.8737800121307373
846,47600.0,9.087940216064453,1.4859429597854614,-2.8522443771362305
847,47700.0,9.087940216064453,1.4859429597854614,-2.8522443771362305
848,47800.0,9.183652877807617,1.428515076637268,-2.816352128982544
849,47900.0,9.183652877807617,1.428515076637268,-2.816352128982544
850,48000.0,9.183652877807617,1.428515076637268,-2.816352128982544
851,48100.0,9.150154113769533,1.5122638940811155,-2.933600425720215
852,48200.0,9.150154113769533,1.5122638940811155,-2.933600425720215
853,48300.0,9.121439933776855,1.5314064025878906,-2.888136863708496
854,48400.0,9.121439933776855,1.5314064025878906,-2.888136863708496
855,48500.0,9.131011009216307,1.4668002128601074,-2.8283162117004395
856,48600.0,9.131011009216307,1.4668002128601074,-2.8283162117004395
857,48700.0,9.131011009216307,1.4668002128601074,-2.8283162117004395
858,48800.0,9.159724235534668,1.5936198234558103,-2.830709218978882
859,48900.0,9.159724235534668,1.5936198234558103,-2.830709218978882
860,48000.0,9.183652877807617,1.428515076637268,-2.816352128982544
861,48100.0,9.150154113769533,1.5122638940811155,-2.933600425720215
862,48200.0,9.150154113769533,1.5122638940811155,-2.933600425720215
863,48300.0,9.121439933776855,1.5314064025878906,-2.888136863708496
864,48400.0,9.121439933776855,1.5314064025878906,-2.888136863708496
865,48500.0,9.131011009216307,1.4668002128601074,-2.8283162117004395
866,48600.0,9.131011009216307,1.4668002128601074,-2.8283162117004395
867,48700.0,9.131011009216307,1.4668002128601074,-2.8283162117004395
868,48800.0,9.159724235534668,1.5936198234558103,-2.830709218978882
869,48900.0,9.159724235534668,1.5936198234558103,-2.830709218978882
870,49000.0,9.150154113769533,1.550549030303955,-2.7900311946868896
871,49100.0,9.150154113769533,1.550549030303955,-2.7900311946868896
872,49200.0,9.169296264648438,1.4787644147872925,-2.8139593601226807
873,49300.0,9.169296264648438,1.4787644147872925,-2.8139593601226807
874,49400.0,9.169296264648438,1.4787644147872925,-2.8139593601226807
875,49500.0,9.030512809753418,1.5098710060119631,-2.7589242458343506
876,49600.0,9.030512809753418,1.5098710060119631,-2.7589242458343506
877,49700.0,9.097511291503906,1.5098710060119631,-2.8187451362609863
878,49800.0,9.097511291503906,1.5098710060119631,-2.8187451362609863
879,49900.0,9.107083320617676,1.5409778356552124,-2.9048867225646973
880,49000.0,9.150154113769533,1.550549030303955,-2.7900311946868896
881,49100.0,9.150154113769533,1.550549030303955,-2.7900311946868896
882,49200.0,9.169296264648438,1.4787644147872925,-2.8139593601226807
883,49300.0,9.169296264648438,1.4787644147872925,-2.8139593601226807
884,49400.0,9.169296264648438,1.4787644147872925,-2.8139593601226807
885,49500.0,9.030512809753418,1.5098710060119631,-2.7589242458343506
886,49600.0,9.030512809753418,1.5098710060119631,-2.7589242458343506
887,49700.0,9.097511291503906,1.5098710060119631,-2.8187451362609863
888,49800.0,9.097511291503906,1.5098710060119631,-2.8187451362609863
889,49900.0,9.107083320617676,1.5409778356552124,-2.9048867225646973
890,50000.0,9.107083320617676,1.5409778356552124,-2.9048867225646973
891,50100.0,9.107083320617676,1.5409778356552124,-2.9048867225646973
892,50200.0,9.111868858337402,1.5481561422348022,-2.8929224014282227
893,50300.0,9.111868858337402,1.5481561422348022,-2.8929224014282227
894,50400.0,9.207581520080566,1.5744771957397459,-2.909672498703003
895,50500.0,9.207581520080566,1.5744771957397459,-2.909672498703003
896,50600.0,9.097511291503906,1.4859429597854614,-2.857030153274536
897,50700.0,9.097511291503906,1.4859429597854614,-2.857030153274536
898,50800.0,9.107083320617676,1.4811571836471558,-2.8833510875701904
899,50900.0,9.107083320617676,1.4811571836471558,-2.8833510875701904
900,50000.0,9.107083320617676,1.5409778356552124,-2.9048867225646973
901,50100.0,9.107083320617676,1.5409778356552124,-2.9048867225646973
902,50200.0,9.111868858337402,1.5481561422348022,-2.8929224014282227
903,50300.0,9.111868858337402,1.5481561422348022,-2.8929224014282227
904,50400.0,9.207581520080566,1.5744771957397459,-2.909672498703003
905,50500.0,9.207581520080566,1.5744771957397459,-2.909672498703003
906,50600.0,9.097511291503906,1.4859429597854614,-2.857030153274536
907,50700.0,9.097511291503906,1.4859429597854614,-2.857030153274536
908,50800.0,9.107083320617676,1.4811571836471558,-2.8833510875701904
909,50900.0,9.107083320617676,1.4811571836471558,-2.8833510875701904
910,51000.0,9.107083320617676,1.4811571836471558,-2.8833510875701904
911,51100.0,9.116654396057127,1.5361920595169067,-2.9168508052825928
912,51200.0,9.116654396057127,1.5361920595169067,-2.9168508052825928
913,51300.0,9.126225471496582,1.588834285736084,-2.8929224014282227
914,51400.0,9.126225471496582,1.588834285736084,-2.8929224014282227
915,51500.0,9.126225471496582,1.588834285736084,-2.8929224014282227
916,51600.0,9.078369140625,1.497907042503357,-2.723031997680664
917,51700.0,9.078369140625,1.497907042503357,-2.723031997680664
918,51800.0,9.18843936920166,1.442872166633606,-2.9264223575592037
919,51900.0,9.18843936920166,1.442872166633606,-2.9264223575592037
920,51000.0,9.107083320617676,1.4811571836471558,-2.8833510875701904
921,51100.0,9.116654396057127,1.5361920595169067,-2.9168508052825928
922,51200.0,9.116654396057127,1.5361920595169067,-2.9168508052825928
923,51300.0,9.126225471496582,1.588834285736084,-2.8929224014282227
924,51400.0,9.126225471496582,1.588834285736084,-2.8929224014282227
925,51500.0,9.126225471496582,1.588834285736084,-2.8929224014282227
926,51600.0,9.078369140625,1.497907042503357,-2.723031997680664
927,51700.0,9.078369140625,1.497907042503357,-2.723031997680664
928,51800.0,9.18843936920166,1.442872166633606,-2.9264223575592037
929,51900.0,9.18843936920166,1.442872166633606,-2.9264223575592037
930,52000.0,9.10229778289795,1.5481561422348022,-3.0173492431640625
931,52100.0,9.10229778289795,1.5481561422348022,-3.0173492431640625
932,52200.0,8.997013092041016,1.6199408769607544,-2.96949315071106
933,52300.0,8.997013092041016,1.6199408769607544,-2.96949315071106
934,52400.0,8.997013092041016,1.6199408769607544,-2.96949315071106
935,52500.0,9.164510726928713,1.56251323223114,-2.9383859634399414
936,52600.0,9.164510726928713,1.56251323223114,-2.9383859634399414
937,52700.0,9.078369140625,1.529013752937317,-2.9527432918548584
938,52800.0,9.078369140625,1.529013752937317,-2.9527432918548584
939,52900.0,9.044869422912598,1.5314064025878906,-2.8115665912628174
940,52000.0,9.10229778289795,1.5481561422348022,-3.0173492431640625
941,52100.0,9.10229778289795,1.5481561422348022,-3.0173492431640625
942,52200.0,8.997013092041016,1.6199408769607544,-2.96949315071106
943,52300.0,8.997013092041016,1.6199408769607544,-2.96949315071106
944,52400.0,8.997013092041016,1.6199408769607544,-2.96949315071106
945,52500.0,9.164510726928713,1.56251323223114,-2.9383859634399414
946,52600.0,9.164510726928713,1.56251323223114,-2.9383859634399414
947,52700.0,9.078369140625,1.529013752937317,-2.9527432918548584
948,52800.0,9.078369140625,1.529013752937317,-2.9527432918548584
949,52900.0,9.044869422912598,1.5314064025878906,-2.8115665912628174
950,53000.0,9.044869422912598,1.5314064025878906,-2.8115665912628174
951,53100.0,9.044869422912598,1.5314064025878906,-2.8115665912628174
952,53200.0,9.020941734313963,1.3974084854125977,-2.9551358222961426
953,53300.0,9.020941734313963,1.3974084854125977,-2.9551358222961426
954,53400.0,9.059226989746094,1.430907964706421,-2.885744333267212
955,53500.0,9.059226989746094,1.430907964706421,-2.885744333267212
956,53600.0,9.226724624633787,1.6677974462509155,-2.7828526496887207
957,53700.0,9.226724624633787,1.6677974462509155,-2.7828526496887207
958,53800.0,9.15493869781494,1.4213367700576782,-2.9216365814208984
959,53900.0,9.15493869781494,1.4213367700576782,-2.9216365814208984
960,53000.0,9.044869422912598,1.5314064025878906,-2.8115665912628174
961,53100.0,9.044869422912598,1.5314064025878906,-2.8115665912628174
962,53200.0,9.020941734313963,1.3974084854125977,-2.9551358222961426
963,53300.0,9.020941734313963,1.3974084854125977,-2.9551358222961426
964,53400.0,9.059226989746094,1.430907964706421,-2.885744333267212
965,53500.0,9.059226989746094,1.430907964706421,-2.885744333267212
966,53600.0,9.226724624633787,1.6677974462509155,-2.7828526496887207
967,53700.0,9.226724624633787,1.6677974462509155,-2.7828526496887207
968,53800.0,9.15493869781494,1.4213367700576782,-2.9216365814208984
969,53900.0,9.15493869781494,1.4213367700576782,-2.9216365814208984
970,54000.0,9.15493869781494,1.4213367700576782,-2.9216365814208984
971,54100.0,9.116654396057127,1.5026925802230835,-2.801995038986206
972,54200.0,9.116654396057127,1.5026925802230835,-2.801995038986206
973,54300.0,9.073582649230957,1.6031911373138428,-3.1513471603393555
974,54400.0,9.073582649230957,1.6031911373138428,-3.1513471603393555
975,54500.0,9.073582649230957,1.6031911373138428,-3.1513471603393555
976,54600.0,8.968299865722656,1.7635102272033691,-2.8929224014282227
977,54700.0,8.968299865722656,1.7635102272033691,-2.8929224014282227
978,54800.0,9.030512809753418,1.6175479888916016,-2.8594231605529785
979,54900.0,9.030512809753418,1.6175479888916016,-2.8594231605529785
980,54000.0,9.15493869781494,1.4213367700576782,-2.9216365814208984
981,54100.0,9.116654396057127,1.5026925802230835,-2.801995038986206
982,54200.0,9.116654396057127,1.5026925802230835,-2.801995038986206
983,54300.0,9.073582649230957,1.6031911373138428,-3.1513471603393555
984,54400.0,9.073582649230957,1.6031911373138428,-3.1513471603393555
985,54500.0,9.073582649230957,1.6031911373138428,-3.1513471603393555
986,54600.0,8.968299865722656,1.7635102272033691,-2.8929224014282227
987,54700.0,8.968299865722656,1.7635102272033691,-2.8929224014282227
988,54800.0,9.030512809753418,1.6175479888916016,-2.8594231605529785
989,54900.0,9.030512809753418,1.6175479888916016,-2.8594231605529785
990,55000.0,9.183652877807617,1.5337992906570437,-2.9264223575592037
991,55100.0,9.183652877807617,1.5337992906570437,-2.9264223575592037
992,55200.0,9.226724624633787,1.4859429597854614,-3.0436704158782963
993,55300.0,9.226724624633787,1.4859429597854614,-3.0436704158782963
994,55400.0,9.226724624633787,1.4859429597854614,-3.0436704158782963
995,55500.0,9.21715259552002,1.6223337650299072,-2.761317014694214
996,55600.0,9.21715259552002,1.6223337650299072,-2.761317014694214
997,55700.0,8.886943817138672,1.6654045581817627,-2.617748022079468
998,55800.0,8.886943817138672,1.6654045581817627,-2.617748022079468
999,55900.0,8.886943817138672,1.6654045581817627,-2.617748022079468
1000,55000.0,9.183652877807617,1.5337992906570437,-2.9264223575592037
1001,55100.0,9.183652877807617,1.5337992906570437,-2.9264223575592037
1002,55200.0,9.226724624633787,1.4859429597854614,-3.0436704158782963
1003,55300.0,9.226724624633787,1.4859429597854614,-3.0436704158782963
1004,55400.0,9.226724624633787,1.4859429597854614,-3.0436704158782963
1005,55500.0,9.21715259552002,1.6223337650299072,-2.761317014694214
1006,55600.0,9.21715259552002,1.6223337650299072,-2.761317014694214
1007,55700.0,8.886943817138672,1.6654045581817627,-2.617748022079468
1008,55800.0,8.886943817138672,1.6654045581817627,-2.617748022079468
1009,55900.0,8.886943817138672,1.6654045581817627,-2.617748022079468
1010,56000.0,8.767301559448242,1.7371891736984253,-2.8211379051208496
1011,56100.0,8.767301559448242,1.7371891736984253,-2.8211379051208496
1012,56200.0,8.61894702911377,1.8209381103515625,-2.124826431274414
1013,56300.0,8.61894702911377,1.8209381103515625,-2.124826431274414
1014,56400.0,9.169296264648438,1.5337992906570437,-2.3473589420318604
1015,56500.0,9.169296264648438,1.5337992906570437,-2.3473589420318604
1016,56600.0,9.006584167480469,1.380658507347107,-2.483749866485596
1017,56700.0,9.006584167480469,1.380658507347107,-2.483749866485596
1018,56800.0,9.006584167480469,1.380658507347107,-2.483749866485596
1019,56900.0,9.384650230407717,1.495514154434204,-2.517249345779419
1020,56000.0,8.767301559448242,1.7371891736984253,-2.8211379051208496
1021,56100.0,8.767301559448242,1.7371891736984253,-2.8211379051208496
1022,56200.0,8.61894702911377,1.8209381103515625,-2.124826431274414
1023,56300.0,8.61894702911377,1.8209381103515625,-2.124826431274414
1024,56400.0,9.169296264648438,1.5337992906570437,-2.3473589420318604
1025,56500.0,9.169296264648438,1.5337992906570437,-2.3473589420318604
1026,56600.0,9.006584167480469,1.380658507347107,-2.483749866485596
1027,56700.0,9.006584167480469,1.380658507347107,-2.483749866485596
1028,56800.0,9.006584167480469,1.380658507347107,-2.483749866485596
1029,56900.0,9.384650230407717,1.495514154434204,-2.517249345779419
1030,57000.0,9.384650230407717,1.495514154434204,-2.517249345779419
1031,57100.0,9.087940216064453,1.2658032178878784,-2.691925525665283
1032,57200.0,9.087940216064453,1.2658032178878784,-2.691925525665283
1033,57300.0,9.087940216064453,1.2658032178878784,-2.691925525665283
1034,57400.0,9.078369140625,1.2490534782409668,-2.7421746253967285
1035,57500.0,9.078369140625,1.2490534782409668,-2.7421746253967285
1036,57600.0,9.164510726928713,1.428515076637268,-2.7254250049591064
1037,57700.0,9.164510726928713,1.428515076637268,-2.7254250049591064
1038,57800.0,9.131011009216307,1.1868400573730469,-2.6967110633850098
1039,57900.0,9.131011009216307,1.1868400573730469,-2.6967110633850098
1040,57000.0,9.384650230407717,1.495514154434204,-2.517249345779419
1041,57100.0,9.087940216064453,1.2658032178878784,-2.691925525665283
1042,57200.0,9.087940216064453,1.2658032178878784,-2.691925525665283
1043,57300.0,9.087940216064453,1.2658032178878784,-2.691925525665283
1044,57400.0,9.078369140625,1.2490534782409668,-2.7421746253967285
1045,57500.0,9.078369140625,1.2490534782409668,-2.7421746253967285
1046,57600.0,9.164510726928713,1.428515076637268,-2.7254250049591064
1047,57700.0,9.164510726928713,1.428515076637268,-2.7254250049591064
1048,57800.0,9.131011009216307,1.1868400573730469,-2.6967110633850098
1049,57900.0,9.131011009216307,1.1868400573730469,-2.6967110633850098
1050,58000.0,9.131011009216307,1.1868400573730469,-2.6967110633850098
1051,58100.0,9.269794464111328,1.4333008527755735,-2.754138946533203
1052,58200.0,9.269794464111328,1.4333008527755735,-2.754138946533203
1053,58300.0,9.260223388671877,1.3974084854125977,-2.7349963188171387
1054,58400.0,9.260223388671877,1.3974084854125977,-2.7349963188171387
1055,58500.0,9.221939086914062,1.4021940231323242,-2.7828526496887207
1056,58600.0,9.221939086914062,1.4021940231323242,-2.7828526496887207
1057,58700.0,9.221939086914062,1.4021940231323242,-2.7828526496887207
1058,58800.0,9.10229778289795,1.294516921043396,-2.7014968395233154
1059,58900.0,9.10229778289795,1.294516921043396,-2.7014968395233154
1060,58000.0,9.131011009216307,1.1868400573730469,-2.6967110633850098
1061,58100.0,9.269794464111328,1.4333008527755735,-2.754138946533203
1062,58200.0,9.269794464111328,1.4333008527755735,-2.754138946533203
1063,58300.0,9.260223388671877,1.3974084854125977,-2.7349963188171387
1064,58400.0,9.260223388671877,1.3974084854125977,-2.7349963188171387
1065,58500.0,9.221939086914062,1.4021940231323242,-2.7828526496887207
1066,58600.0,9.221939086914062,1.4021940231323242,-2.7828526496887207
1067,58700.0,9.221939086914062,1.4021940231323242,-2.7828526496887207
1068,58800.0,9.10229778289795,1.294516921043396,-2.7014968395233154
1069,58900.0,9.10229778289795,1.294516921043396,-2.7014968395233154
1070,59000.0,9.193224906921387,1.4093725681304932,-2.699103832244873
1071,59100.0,9.193224906921387,1.4093725681304932,-2.699103832244873
1072,59200.0,9.193224906921387,1.4093725681304932,-2.699103832244873
1073,59300.0,9.174081802368164,1.2538390159606934,-2.761317014694214
1074,59400.0,9.174081802368164,1.2538390159606934,-2.761317014694214
1075,59500.0,9.28893756866455,1.3495519161224363,-2.6799612045288086
1076,59600.0,9.28893756866455,1.3495519161224363,-2.6799612045288086
1077,59700.0,9.20279598236084,1.306481122970581,-2.7182462215423584
1078,59800.0,9.20279598236084,1.306481122970581,-2.7182462215423584
1079,59900.0,9.17886734008789,1.2131611108779907,-2.7589242458343506
1080,59000.0,9.193224906921387,1.4093725681304932,-2.699103832244873
1081,59100.0,9.193224906921387,1.4093725681304932,-2.699103832244873
1082,59200.0,9.193224906921387,1.4093725681304932,-2.699103832244873
1083,59300.0,9.174081802368164,1.2538390159606934,-2.761317014694214
1084,59400.0,9.174081802368164,1.2538390159606934,-2.761317014694214
1085,59500.0,9.28893756866455,1.3495519161224363,-2.6799612045288086
1086,59600.0,9.28893756866455,1.3495519161224363,-2.6799612045288086
1087,59700.0,9.20279598236084,1.306481122970581,-2.7182462215423584
1088,59800.0,9.20279598236084,1.306481122970581,-2.7182462215423584
1089,59900.0,9.17886734008789,1.2131611108779907,-2.7589242458343506
1090,60000.0,9.17886734008789,1.2131611108779907,-2.7589242458343506
1091,60100.0,9.17886734008789,1.2131611108779907,-2.7589242458343506
1092,60200.0,9.322437286376953,1.423729419708252,-2.7876384258270264
1093,60300.0,9.322437286376953,1.423729419708252,-2.7876384258270264
1094,60400.0,9.274580955505373,1.2299107313156128,-2.7326035499572754
1095,60500.0,9.274580955505373,1.2299107313156128,-2.7326035499572754
1096,60600.0,9.207581520080566,1.2562319040298462,-2.6608188152313232
1097,60700.0,9.207581520080566,1.2562319040298462,-2.6608188152313232
1098,60800.0,9.198010444641113,1.3878371715545654,-2.756531953811645
1099,60900.0,9.198010444641113,1.3878371715545654,-2.756531953811645
1100,60000.0,9.17886734008789,1.2131611108779907,-2.7589242458343506
1101,60100.0,9.17886734008789,1.2131611108779907,-2.7589242458343506
1102,60200.0,9.322437286376953,1.423729419708252,-2.7876384258270264
1103,60300.0,9.322437286376953,1.423729419708252,-2.7876384258270264
1104,60400.0,9.274580955505373,1.2299107313156128,-2.7326035499572754
1105,60500.0,9.274580955505373,1.2299107313156128,-2.7326035499572754
1106,60600.0,9.207581520080566,1.2562319040298462,-2.6608188152313232
1107,60700.0,9.207581520080566,1.2562319040298462,-2.6608188152313232
1108,60800.0,9.198010444641113,1.3878371715545654,-2.756531953811645
1109,60900.0,9.198010444641113,1.3878371715545654,-2.756531953811645
1110,61000.0,9.198010444641113,1.3878371715545654,-2.756531953811645
1111,61100.0,9.212367057800293,1.2059825658798218,-2.720639228820801
1112,61200.0,9.212367057800293,1.2059825658798218,-2.720639228820801
1113,61300.0,9.15493869781494,1.1772687435150146,-2.63449764251709
1114,61400.0,9.15493869781494,1.1772687435150146,-2.63449764251709
1115,61500.0,9.15493869781494,1.1772687435150146,-2.63449764251709
1116,61600.0,9.150154113769533,1.3328022956848145,-2.6943180561065674
1117,61700.0,9.150154113769533,1.3328022956848145,-2.6943180561065674
1118,61800.0,9.212367057800293,1.2059825658798218,-2.629711866378784
1119,61900.0,9.212367057800293,1.2059825658798218,-2.629711866378784
1120,61000.0,9.198010444641113,1.3878371715545654,-2.756531953811645
1121,61100.0,9.212367057800293,1.2059825658798218,-2.720639228820801
1122,61200.0,9.212367057800293,1.2059825658798218,-2.720639228820801
1123,61300.0,9.15493869781494,1.1772687435150146,-2.63449764251709
1124,61400.0,9.15493869781494,1.1772687435150146,-2.63449764251709
1125,61500.0,9.15493869781494,1.1772687435150146,-2.63449764251709
1126,61600.0,9.150154113769533,1.3328022956848145,-2.6943180561065674
1127,61700.0,9.150154113769533,1.3328022956848145,-2.6943180561065674
1128,61800.0,9.212367057800293,1.2059825658798218,-2.629711866378784
1129,61900.0,9.212367057800293,1.2059825658798218,-2.629711866378784
1130,62000.0,9.308080673217773,1.3232309818267822,-2.6943180561065674
1131,62100.0,9.308080673217773,1.3232309818267822,-2.6943180561065674
1132,62200.0,9.140583038330078,1.2681961059570312,-2.6321046352386475
1133,62300.0,9.140583038330078,1.2681961059570312,-2.6321046352386475
1134,62400.0,9.140583038330078,1.2681961059570312,-2.6321046352386475
1135,62500.0,9.241080284118652,1.244267821311951,-2.730210542678833
1136,62600.0,9.241080284118652,1.244267821311951,-2.730210542678833
1137,62700.0,9.241080284118652,1.241874933242798,-2.6632115840911865
1138,62800.0,9.241080284118652,1.241874933242798,-2.6632115840911865
1139,62900.0,9.226724624633787,1.325623631477356,-2.65842604637146
1140,62000.0,9.308080673217773,1.3232309818267822,-2.6943180561065674
1141,62100.0,9.308080673217773,1.3232309818267822,-2.6943180561065674
1142,62200.0,9.140583038330078,1.2681961059570312,-2.6321046352386475
1143,62300.0,9.140583038330078,1.2681961059570312,-2.6321046352386475
1144,62400.0,9.140583038330078,1.2681961059570312,-2.6321046352386475
1145,62500.0,9.241080284118652,1.244267821311951,-2.730210542678833
1146,62600.0,9.241080284118652,1.244267821311951,-2.730210542678833
1147,62700.0,9.241080284118652,1.241874933242798,-2.6632115840911865
1148,62800.0,9.241080284118652,1.241874933242798,-2.6632115840911865
1149,62900.0,9.226724624633787,1.325623631477356,-2.65842604637146
1150,63000.0,9.226724624633787,1.325623631477356,-2.65842604637146
1151,63100.0,9.116654396057127,1.227518081665039,-2.7589242458343506
1152,63200.0,9.116654396057127,1.227518081665039,-2.7589242458343506
1153,63300.0,8.97787094116211,1.1485549211502075,-2.900100946426392
1154,63400.0,8.97787094116211,1.1485549211502075,-2.900100946426392
1155,63500.0,8.97787094116211,1.1485549211502075,-2.900100946426392
1156,63600.0,9.17886734008789,1.1700903177261353,-2.9048867225646973
1157,63700.0,9.17886734008789,1.1700903177261353,-2.9048867225646973
1158,63800.0,9.293723106384276,1.062413215637207,-2.6967110633850098
1159,63900.0,9.293723106384276,1.062413215637207,-2.6967110633850098
1160,63000.0,9.226724624633787,1.325623631477356,-2.65842604637146
1161,63100.0,9.116654396057127,1.227518081665039,-2.7589242458343506
1162,63200.0,9.116654396057127,1.227518081665039,-2.7589242458343506
1163,63300.0,8.97787094116211,1.1485549211502075,-2.900100946426392
1164,63400.0,8.97787094116211,1.1485549211502075,-2.900100946426392
1165,63500.0,8.97787094116211,1.1485549211502075,-2.900100946426392
1166,63600.0,9.17886734008789,1.1700903177261353,-2.9048867225646973
1167,63700.0,9.17886734008789,1.1700903177261353,-2.9048867225646973
1168,63800.0,9.293723106384276,1.062413215637207,-2.6967110633850098
1169,63900.0,9.293723106384276,1.062413215637207,-2.6967110633850098
1170,64000.0,9.293723106384276,1.062413215637207,-2.6967110633850098
1171,64100.0,9.236295700073242,1.0241280794143677,-2.84506630897522
1172,64200.0,9.236295700073242,1.0241280794143677,-2.84506630897522
1173,64300.0,9.18843936920166,1.062413215637207,-2.603391170501709
1174,64400.0,9.18843936920166,1.062413215637207,-2.603391170501709
1175,64500.0,9.207581520080566,1.0552347898483276,-2.7349963188171387
1176,64600.0,9.207581520080566,1.0552347898483276,-2.7349963188171387
1177,64700.0,9.279366493225098,0.9619146585464478,-2.7900311946868896
1178,64800.0,9.279366493225098,0.9619146585464478,-2.7900311946868896
1179,64900.0,9.279366493225098,0.9619146585464478,-2.7900311946868896
1180,64000.0,9.293723106384276,1.062413215637207,-2.6967110633850098
1181,64100.0,9.236295700073242,1.0241280794143677,-2.84506630897522
1182,64200.0,9.236295700073242,1.0241280794143677,-2.84506630897522
1183,64300.0,9.18843936920166,1.062413215637207,-2.603391170501709
1184,64400.0,9.18843936920166,1.062413215637207,-2.603391170501709
1185,64500.0,9.207581520080566,1.0552347898483276,-2.7349963188171387
1186,64600.0,9.207581520080566,1.0552347898483276,-2.7349963188171387
1187,64700.0,9.279366493225098,0.9619146585464478,-2.7900311946868896
1188,64800.0,9.279366493225098,0.9619146585464478,-2.7900311946868896
1189,64900.0,9.279366493225098,0.9619146585464478,-2.7900311946868896
1190,65000.0,9.298508644104004,1.0719845294952393,-2.739781856536865
1191,65100.0,9.298508644104004,1.0719845294952393,-2.739781856536865
1192,65200.0,9.17886734008789,1.1509476900100708,-2.7038896083831787
1193,65300.0,9.17886734008789,1.1509476900100708,-2.7038896083831787
1194,65400.0,9.17886734008789,1.1509476900100708,-2.7038896083831787
1195,65500.0,9.17886734008789,1.155733346939087,-2.67278265953064
1196,65600.0,9.17886734008789,1.155733346939087,-2.67278265953064
1197,65700.0,9.17886734008789,1.1772687435150146,-2.847458839416504
1198,65800.0,9.17886734008789,1.1772687435150146,-2.847458839416504
1199,65900.0,9.34157943725586,1.1006983518600464,-2.75174617767334
1200,65000.0,9.298508644104004,1.0719845294952393,-2.739781856536865
1201,65100.0,9.298508644104004,1.0719845294952393,-2.739781856536865
1202,65200.0,9.17886734008789,1.1509476900100708,-2.7038896083831787
1203,65300.0,9.17886734008789,1.1509476900100708,-2.7038896083831787
1204,65400.0,9.17886734008789,1.1509476900100708,-2.7038896083831787
1205,65500.0,9.17886734008789,1.155733346939087,-2.67278265953064
1206,65600.0,9.17886734008789,1.155733346939087,-2.67278265953064
1207,65700.0,9.17886734008789,1.1772687435150146,-2.847458839416504
1208,65800.0,9.17886734008789,1.1772687435150146,-2.847458839416504
1209,65900.0,9.34157943725586,1.1006983518600464,-2.75174617767334
1210,66000.0,9.34157943725586,1.1006983518600464,-2.75174617767334
1211,66100.0,9.107083320617676,1.0552347898483276,-2.675175428390503
1212,66200.0,9.107083320617676,1.0552347898483276,-2.675175428390503
1213,66300.0,9.107083320617676,1.0552347898483276,-2.675175428390503
1214,66400.0,9.169296264648438,1.0839486122131348,-2.715853452682495
1215,66500.0,9.169296264648438,1.0839486122131348,-2.715853452682495
1216,66600.0,9.418149948120117,1.2634103298187256,-2.6775684356689453
1217,66700.0,9.418149948120117,1.2634103298187256,-2.6775684356689453
1218,66800.0,9.418149948120117,1.2634103298187256,-2.6775684356689453
1219,66900.0,9.111868858337402,1.4021940231323242,-2.691925525665283
1220,66000.0,9.34157943725586,1.1006983518600464,-2.75174617767334
1221,66100.0,9.107083320617676,1.0552347898483276,-2.675175428390503
1222,66200.0,9.107083320617676,1.0552347898483276,-2.675175428390503
1223,66300.0,9.107083320617676,1.0552347898483276,-2.675175428390503
1224,66400.0,9.169296264648438,1.0839486122131348,-2.715853452682495
1225,66500.0,9.169296264648438,1.0839486122131348,-2.715853452682495
1226,66600.0,9.418149948120117,1.2634103298187256,-2.6775684356689453
1227,66700.0,9.418149948120117,1.2634103298187256,-2.6775684356689453
1228,66800.0,9.418149948120117,1.2634103298187256,-2.6775684356689453
1229,66900.0,9.111868858337402,1.4021940231323242,-2.691925525665283
1230,67000.0,9.111868858337402,1.4021940231323242,-2.691925525665283
1231,67100.0,9.322437286376953,1.3782659769058228,-2.756531953811645
1232,67200.0,9.322437286376953,1.3782659769058228,-2.756531953811645
1233,67300.0,9.09272575378418,1.0911270380020142,-2.830709218978882
1234,67400.0,9.09272575378418,1.0911270380020142,-2.830709218978882
1235,67500.0,9.231510162353516,1.2323036193847656,-2.914458036422729
1236,67600.0,9.231510162353516,1.2323036193847656,-2.914458036422729
1237,67700.0,9.231510162353516,1.2323036193847656,-2.914458036422729
1238,67800.0,9.221939086914062,1.184447169303894,-2.8402805328369136
1239,67900.0,9.221939086914062,1.184447169303894,-2.8402805328369136
1240,67000.0,9.111868858337402,1.4021940231323242,-2.691925525665283
1241,67100.0,9.322437286376953,1.3782659769058228,-2.756531953811645
1242,67200.0,9.322437286376953,1.3782659769058228,-2.756531953811645
1243,67300.0,9.09272575378418,1.0911270380020142,-2.830709218978882
1244,67400.0,9.09272575378418,1.0911270380020142,-2.830709218978882
1245,67500.0,9.231510162353516,1.2323036193847656,-2.914458036422729
1246,67600.0,9.231510162353516,1.2323036193847656,-2.914458036422729
1247,67700.0,9.231510162353516,1.2323036193847656,-2.914458036422729
1248,67800.0,9.221939086914062,1.184447169303894,-2.8402805328369136
1249,67900.0,9.221939086914062,1.184447169303894,-2.8402805328369136
1250,68000.0,9.054441452026367,1.0528419017791748,-2.885744333267212
1251,68100.0,9.054441452026367,1.0528419017791748,-2.885744333267212
1252,68200.0,9.231510162353516,1.1437692642211914,-2.8426735401153564
1253,68300.0,9.231510162353516,1.1437692642211914,-2.8426735401153564
1254,68400.0,9.174081802368164,1.0480562448501587,-2.7421746253967285
1255,68500.0,9.174081802368164,1.0480562448501587,-2.7421746253967285
1256,68600.0,9.174081802368164,1.0480562448501587,-2.7421746253967285
1257,68700.0,9.250652313232422,1.105484127998352,-2.940778970718384
1258,68800.0,9.250652313232422,1.105484127998352,-2.940778970718384
1259,68900.0,9.18843936920166,0.9954141974449158,-2.7254250049591064
1260,68000.0,9.054441452026367,1.0528419017791748,-2.885744333267212
1261,68100.0,9.054441452026367,1.0528419017791748,-2.885744333267212
1262,68200.0,9.231510162353516,1.1437692642211914,-2.8426735401153564
1263,68300.0,9.231510162353516,1.1437692642211914,-2.8426735401153564
1264,68400.0,9.174081802368164,1.0480562448501587,-2.7421746253967285
1265,68500.0,9.174081802368164,1.0480562448501587,-2.7421746253967285
1266,68600.0,9.174081802368164,1.0480562448501587,-2.7421746253967285
1267,68700.0,9.250652313232422,1.105484127998352,-2.940778970718384
1268,68800.0,9.250652313232422,1.105484127998352,-2.940778970718384
1269,68900.0,9.18843936920166,0.9954141974449158,-2.7254250049591064
1270,69000.0,9.18843936920166,0.9954141974449158,-2.7254250049591064
1271,69100.0,9.284152030944824,1.1198409795761108,-2.8139593601226807
1272,69200.0,9.284152030944824,1.1198409795761108,-2.8139593601226807
1273,69300.0,9.241080284118652,0.9882357716560364,-2.792424201965332
1274,69400.0,9.241080284118652,0.9882357716560364,-2.792424201965332
1275,69500.0,9.241080284118652,0.9882357716560364,-2.792424201965332
1276,69600.0,9.20279598236084,1.06480610370636,-2.833101987838745
1277,69700.0,9.20279598236084,1.06480610370636,-2.833101987838745
1278,69800.0,9.231510162353516,1.1341978311538696,-2.715853452682495
1279,69900.0,9.231510162353516,1.1341978311538696,-2.715853452682495
1280,69000.0,9.18843936920166,0.9954141974449158,-2.7254250049591064
1281,69100.0,9.284152030944824,1.1198409795761108,-2.8139593601226807
1282,69200.0,9.284152030944824,1.1198409795761108,-2.8139593601226807
1283,69300.0,9.241080284118652,0.9882357716560364,-2.792424201965332
1284,69400.0,9.241080284118652,0.9882357716560364,-2.792424201965332
1285,69500.0,9.241080284118652,0.9882357716560364,-2.792424201965332
1286,69600.0,9.20279598236084,1.06480610370636,-2.833101987838745
1287,69700.0,9.20279598236084,1.06480610370636,-2.833101987838745
1288,69800.0,9.231510162353516,1.1341978311538696,-2.715853452682495
1289,69900.0,9.231510162353516,1.1341978311538696,-2.715853452682495
1290,70000.0,9.001798629760742,1.0600204467773438,-2.935993194580078
1291,70100.0,9.001798629760742,1.0600204467773438,-2.935993194580078
1292,70200.0,9.001798629760742,1.0600204467773438,-2.935993194580078
1293,70300.0,9.059226989746094,1.1868400573730469,-2.756531953811645
1294,70400.0,9.059226989746094,1.1868400573730469,-2.756531953811645
1295,70500.0,9.116654396057127,1.3184452056884766,-2.940778970718384
1296,70600.0,9.116654396057127,1.3184452056884766,-2.940778970718384
1297,70700.0,9.207581520080566,1.1150553226470947,-3.072384119033813
1298,70800.0,9.207581520080566,1.1150553226470947,-3.072384119033813
1299,70900.0,9.044869422912598,1.0145567655563354,-3.156132936477661
1300,70000.0,9.001798629760742,1.0600204467773438,-2.935993194580078
1301,70100.0,9.001798629760742,1.0600204467773438,-2.935993194580078
1302,70200.0,9.001798629760742,1.0600204467773438,-2.935993194580078
1303,70300.0,9.059226989746094,1.1868400573730469,-2.756531953811645
1304,70400.0,9.059226989746094,1.1868400573730469,-2.756531953811645
1305,70500.0,9.116654396057127,1.3184452056884766,-2.940778970718384
1306,70600.0,9.116654396057127,1.3184452056884766,-2.940778970718384
1307,70700.0,9.207581520080566,1.1150553226470947,-3.072384119033813
1308,70800.0,9.207581520080566,1.1150553226470947,-3.072384119033813
1309,70900.0,9.044869422912598,1.0145567655563354,-3.156132936477661
1310,71000.0,9.044869422912598,1.0145567655563354,-3.156132936477661
1311,71100.0,9.044869422912598,1.0145567655563354,-3.156132936477661
1312,71200.0,9.183652877807617,1.3328022956848145,-3.208775281906128
1313,71300.0,9.183652877807617,1.3328022956848145,-3.208775281906128
1314,71400.0,9.150154113769533,1.4524433612823486,-3.002992391586304
1315,71500.0,9.150154113769533,1.4524433612823486,-3.002992391586304
1316,71600.0,9.06401252746582,1.3950155973434448,-3.067598581314087
1317,71700.0,9.06401252746582,1.3950155973434448,-3.067598581314087
1318,71800.0,9.06401252746582,1.3950155973434448,-3.067598581314087
1319,71900.0,9.30329418182373,1.0911270380020142,-2.864208698272705
1320,71000.0,9.044869422912598,1.0145567655563354,-3.156132936477661
1321,71100.0,9.044869422912598,1.0145567655563354,-3.156132936477661
1322,71200.0,9.183652877807617,1.3328022956848145,-3.208775281906128
1323,71300.0,9.183652877807617,1.3328022956848145,-3.208775281906128
1324,71400.0,9.150154113769533,1.4524433612823486,-3.002992391586304
1325,71500.0,9.150154113769533,1.4524433612823486,-3.002992391586304
1326,71600.0,9.06401252746582,1.3950155973434448,-3.067598581314087
1327,71700.0,9.06401252746582,1.3950155973434448,-3.067598581314087
1328,71800.0,9.06401252746582,1.3950155973434448,-3.067598581314087
1329,71900.0,9.30329418182373,1.0911270380020142,-2.864208698272705
1330,72000.0,9.30329418182373,1.0911270380020142,-2.864208698272705
1331,72100.0,9.221939086914062,1.210768222808838,-2.8761727809906006
1332,72200.0,9.221939086914062,1.210768222808838,-2.8761727809906006
1333,72300.0,9.183652877807617,1.2969098091125488,-2.7828526496887207
1334,72400.0,9.183652877807617,1.2969098091125488,-2.7828526496887207
1335,72500.0,9.183652877807617,1.2969098091125488,-2.7828526496887207
1336,72600.0,9.370293617248537,1.497907042503357,-2.9072794914245605
1337,72700.0,9.370293617248537,1.497907042503357,-2.9072794914245605
1338,72800.0,9.169296264648438,1.191625714302063,-2.816352128982544
1339,72900.0,9.169296264648438,1.191625714302063,-2.816352128982544
1340,72000.0,9.30329418182373,1.0911270380020142,-2.864208698272705
1341,72100.0,9.221939086914062,1.210768222808838,-2.8761727809906006
1342,72200.0,9.221939086914062,1.210768222808838,-2.8761727809906006
1343,72300.0,9.183652877807617,1.2969098091125488,-2.7828526496887207
1344,72400.0,9.183652877807617,1.2969098091125488,-2.7828526496887207
1345,72500.0,9.183652877807617,1.2969098091125488,-2.7828526496887207
1346,72600.0,9.370293617248537,1.497907042503357,-2.9072794914245605
1347,72700.0,9.370293617248537,1.497907042503357,-2.9072794914245605
1348,72800.0,9.169296264648438,1.191625714302063,-2.816352128982544
1349,72900.0,9.169296264648438,1.191625714302063,-2.816352128982544
1350,73000.0,9.078369140625,1.3375877141952517,-2.675175428390503
1351,73100.0,9.078369140625,1.3375877141952517,-2.675175428390503
1352,73200.0,9.078369140625,1.3375877141952517,-2.675175428390503
1353,73300.0,9.274580955505373,1.3950155973434448,-2.8713872432708736
1354,73400.0,9.274580955505373,1.3950155973434448,-2.8713872432708736
1355,73500.0,9.18843936920166,1.3591231107711792,-2.8833510875701904
1356,73600.0,9.18843936920166,1.3591231107711792,-2.8833510875701904
1357,73700.0,9.820144653320312,1.6319050788879397,-2.622533798217773
1358,73800.0,9.820144653320312,1.6319050788879397,-2.622533798217773
1359,73900.0,9.30329418182373,1.1820544004440308,-3.0005996227264404
1360,73000.0,9.078369140625,1.3375877141952517,-2.675175428390503
1361,73100.0,9.078369140625,1.3375877141952517,-2.675175428390503
1362,73200.0,9.078369140625,1.3375877141952517,-2.675175428390503
1363,73300.0,9.274580955505373,1.3950155973434448,-2.8713872432708736
1364,73400.0,9.274580955505373,1.3950155973434448,-2.8713872432708736
1365,73500.0,9.18843936920166,1.3591231107711792,-2.8833510875701904
1366,73600.0,9.18843936920166,1.3591231107711792,-2.8833510875701904
1367,73700.0,9.820144653320312,1.6319050788879397,-2.622533798217773
1368,73800.0,9.820144653320312,1.6319050788879397,-2.622533798217773
1369,73900.0,9.30329418182373,1.1820544004440308,-3.0005996227264404
1370,74000.0,9.30329418182373,1.1820544004440308,-3.0005996227264404
1371,74100.0,9.30329418182373,1.1820544004440308,-3.0005996227264404
1372,74200.0,9.198010444641113,1.3351951837539673,-2.7900311946868896
1373,74300.0,9.198010444641113,1.3351951837539673,-2.7900311946868896
1374,74400.0,8.853443145751953,1.2873386144638062,-2.785245418548584
1375,74500.0,8.853443145751953,1.2873386144638062,-2.785245418548584
1376,74600.0,8.973085403442383,1.3208380937576294,-2.950350284576416
1377,74700.0,8.973085403442383,1.3208380937576294,-2.950350284576416
1378,74800.0,8.973085403442383,1.3208380937576294,-2.950350284576416
1379,74900.0,9.226724624633787,1.356730580329895,-3.060420036315918
1380,74000.0,9.30329418182373,1.1820544004440308,-3.0005996227264404
1381,74100.0,9.30329418182373,1.1820544004440308,-3.0005996227264404
1382,74200.0,9.198010444641113,1.3351951837539673,-2.7900311946868896
1383,74300.0,9.198010444641113,1.3351951837539673,-2.7900311946868896
1384,74400.0,8.853443145751953,1.2873386144638062,-2.785245418548584
1385,74500.0,8.853443145751953,1.2873386144638062,-2.785245418548584
1386,74600.0,8.973085403442383,1.3208380937576294,-2.950350284576416
1387,74700.0,8.973085403442383,1.3208380937576294,-2.950350284576416
1388,74800.0,8.973085403442383,1.3208380937576294,-2.950350284576416
1389,74900.0,9.226724624633787,1.356730580329895,-3.060420036315918
1390,75000.0,9.226724624633787,1.356730580329895,-3.060420036315918
1391,75100.0,9.198010444641113,1.2777673006057741,-3.005385160446167
1392,75200.0,9.198010444641113,1.2777673006057741,-3.005385160446167
1393,75300.0,9.241080284118652,1.2705888748168943,-3.1082763671875
1394,75400.0,9.241080284118652,1.2705888748168943,-3.1082763671875
1395,75500.0,9.006584167480469,1.129412293434143,-2.8929224014282227
1396,75600.0,9.006584167480469,1.129412293434143,-2.8929224014282227
1397,75700.0,9.006584167480469,1.129412293434143,-2.8929224014282227
1398,75800.0,9.06401252746582,1.1485549211502075,-2.9623143672943115
1399,75900.0,9.06401252746582,1.1485549211502075,-2.9623143672943115
1400,75000.0,9.226724624633787,1.356730580329895,-3.060420036315918
1401,75100.0,9.198010444641113,1.2777673006057741,-3.005385160446167
1402,75200.0,9.198010444641113,1.2777673006057741,-3.005385160446167
1403,75300.0,9.241080284118652,1.2705888748168943,-3.1082763671875
1404,75400.0,9.241080284118652,1.2705888748168943,-3.1082763671875
1405,75500.0,9.006584167480469,1.129412293434143,-2.8929224014282227
1406,75600.0,9.006584167480469,1.129412293434143,-2.8929224014282227
1407,75700.0,9.006584167480469,1.129412293434143,-2.8929224014282227
1408,75800.0,9.06401252746582,1.1485549211502075,-2.9623143672943115
1409,75900.0,9.06401252746582,1.1485549211502075,-2.9623143672943115
1410,76000.0,9.040083885192873,1.0504491329193115,-3.0939197540283203
1411,76100.0,9.040083885192873,1.0504491329193115,-3.0939197540283203
1412,76200.0,9.054441452026367,1.0815558433532717,-2.957528829574585
1413,76300.0,9.054441452026367,1.0815558433532717,-2.957528829574585
1414,76400.0,9.054441452026367,1.0815558433532717,-2.957528829574585
1415,76500.0,9.245866775512695,1.0193424224853516,-2.998206615447998
1416,76600.0,9.245866775512695,1.0193424224853516,-2.998206615447998
1417,76700.0,9.087940216064453,1.0600204467773438,-3.0460631847381587
1418,76800.0,9.087940216064453,1.0600204467773438,-3.0460631847381587
1419,76900.0,9.030512809753418,0.9810572862625122,-3.0005996227264404
1420,76000.0,9.040083885192873,1.0504491329193115,-3.0939197540283203
1421,76100.0,9.040083885192873,1.0504491329193115,-3.0939197540283203
1422,76200.0,9.054441452026367,1.0815558433532717,-2.957528829574585
1423,76300.0,9.054441452026367,1.0815558433532717,-2.957528829574585
1424,76400.0,9.054441452026367,1.0815558433532717,-2.957528829574585
1425,76500.0,9.245866775512695,1.0193424224853516,-2.998206615447998
1426,76600.0,9.245866775512695,1.0193424224853516,-2.998206615447998
1427,76700.0,9.087940216064453,1.0600204467773438,-3.0460631847381587
1428,76800.0,9.087940216064453,1.0600204467773438,-3.0460631847381587
1429,76900.0,9.030512809753418,0.9810572862625122,-3.0005996227264404
1430,77000.0,9.030512809753418,0.9810572862625122,-3.0005996227264404
1431,77100.0,9.030512809753418,0.9810572862625122,-3.0005996227264404
1432,77200.0,9.116654396057127,1.0528419017791748,-3.1178479194641118
1433,77300.0,9.116654396057127,1.0528419017791748,-3.1178479194641118
1434,77400.0,9.15493869781494,1.057627558708191,-3.25663161277771
1435,77500.0,9.15493869781494,1.057627558708191,-3.25663161277771
1436,77600.0,9.059226989746094,0.906879723072052,-3.146562099456787
1437,77700.0,9.059226989746094,0.906879723072052,-3.146562099456787
1438,77800.0,9.059226989746094,0.906879723072052,-3.146562099456787
1439,77900.0,9.131011009216307,1.0217353105545044,-3.177668571472168
1440,77000.0,9.030512809753418,0.9810572862625122,-3.0005996227264404
1441,77100.0,9.030512809753418,0.9810572862625122,-3.0005996227264404
1442,77200.0,9.116654396057127,1.0528419017791748,-3.1178479194641118
1443,77300.0,9.116654396057127,1.0528419017791748,-3.1178479194641118
1444,77400.0,9.15493869781494,1.057627558708191,-3.25663161277771
1445,77500.0,9.15493869781494,1.057627558708191,-3.25663161277771
1446,77600.0,9.059226989746094,0.906879723072052,-3.146562099456787
1447,77700.0,9.059226989746094,0.906879723072052,-3.146562099456787
1448,77800.0,9.059226989746094,0.906879723072052,-3.146562099456787
1449,77900.0,9.131011009216307,1.0217353105545044,-3.177668571472168
1450,78000.0,9.131011009216307,1.0217353105545044,-3.177668571472168
1451,78100.0,8.997013092041016,1.160519003868103,-3.1082763671875
1452,78200.0,8.997013092041016,1.160519003868103,-3.1082763671875
1453,78300.0,9.087940216064453,1.1270195245742798,-3.0077781677246094
1454,78400.0,9.087940216064453,1.1270195245742798,-3.0077781677246094
1455,78500.0,9.087940216064453,1.1270195245742798,-3.0077781677246094
1456,78600.0,9.212367057800293,1.2323036193847656,-3.050848960876465
1457,78700.0,9.212367057800293,1.2323036193847656,-3.050848960876465
1458,78800.0,9.437292098999023,1.2083754539489746,-2.761317014694214
1459,78900.0,9.437292098999023,1.2083754539489746,-2.761317014694214
1460,78000.0,9.131011009216307,1.0217353105545044,-3.177668571472168
1461,78100.0,8.997013092041016,1.160519003868103,-3.1082763671875
1462,78200.0,8.997013092041016,1.160519003868103,-3.1082763671875
1463,78300.0,9.087940216064453,1.1270195245742798,-3.0077781677246094
1464,78400.0,9.087940216064453,1.1270195245742798,-3.0077781677246094
1465,78500.0,9.087940216064453,1.1270195245742798,-3.0077781677246094
1466,78600.0,9.212367057800293,1.2323036193847656,-3.050848960876465
1467,78700.0,9.212367057800293,1.2323036193847656,-3.050848960876465
1468,78800.0,9.437292098999023,1.2083754539489746,-2.761317014694214
1469,78900.0,9.437292098999023,1.2083754539489746,-2.761317014694214
1470,79000.0,9.231510162353516,1.2658032178878784,-2.75174617767334
1471,79100.0,9.231510162353516,1.2658032178878784,-2.75174617767334
1472,79200.0,9.231510162353516,1.2658032178878784,-2.75174617767334
1473,79300.0,9.193224906921387,1.373480200767517,-2.737389087677002
1474,79400.0,9.193224906921387,1.373480200767517,-2.737389087677002
1475,79500.0,9.28893756866455,1.3591231107711792,-2.746960401535034
1476,79600.0,9.28893756866455,1.3591231107711792,-2.746960401535034
1477,79700.0,9.107083320617676,1.3184452056884766,-2.665604591369629
1478,79800.0,9.107083320617676,1.3184452056884766,-2.665604591369629
1479,79900.0,9.107083320617676,1.3184452056884766,-2.665604591369629
1480,79000.0,9.231510162353516,1.2658032178878784,-2.75174617767334
1481,79100.0,9.231510162353516,1.2658032178878784,-2.75174617767334
1482,79200.0,9.231510162353516,1.2658032178878784,-2.75174617767334
1483,79300.0,9.193224906921387,1.373480200767517,-2.737389087677002
1484,79400.0,9.193224906921387,1.373480200767517,-2.737389087677002
1485,79500.0,9.28893756866455,1.3591231107711792,-2.746960401535034
1486,79600.0,9.28893756866455,1.3591231107711792,-2.746960401535034
1487,79700.0,9.107083320617676,1.3184452056884766,-2.665604591369629
1488,79800.0,9.107083320617676,1.3184452056884766,-2.665604591369629
1489,79900.0,9.107083320617676,1.3184452056884766,-2.665604591369629
1490,80000.0,9.06879711151123,1.2801601886749268,-2.809173583984375
1491,80100.0,9.06879711151123,1.2801601886749268,-2.809173583984375
1492,80200.0,9.116654396057127,1.3328022956848145,-2.8666017055511475
1493,80300.0,9.116654396057127,1.3328022956848145,-2.8666017055511475
1494,80400.0,9.274580955505373,1.4380863904953003,-2.756531953811645
1495,80500.0,9.274580955505373,1.4380863904953003,-2.756531953811645
1496,80600.0,9.274580955505373,1.4380863904953003,-2.756531953811645
1497,80700.0,9.20279598236084,1.1150553226470947,-2.816352128982544
1498,80800.0,9.20279598236084,1.1150553226470947,-2.816352128982544
1499,80900.0,9.212367057800293,1.2346963882446291,-2.7014968395233154
1500,80000.0,9.06879711151123,1.2801601886749268,-2.809173583984375
1501,80100.0,9.06879711151123,1.2801601886749268,-2.809173583984375
1502,80200.0,9.116654396057127,1.3328022956848145,-2.8666017055511475
1503,80300.0,9.116654396057127,1.3328022956848145,-2.8666017055511475
1504,80400.0,9.274580955505373,1.4380863904953003,-2.756531953811645
1505,80500.0,9.274580955505373,1.4380863904953003,-2.756531953811645
1506,80600.0,9.274580955505373,1.4380863904953003,-2.756531953811645
1507,80700.0,9.20279598236084,1.1150553226470947,-2.816352128982544
1508,80800.0,9.20279598236084,1.1150553226470947,-2.816352128982544
1509,80900.0,9.212367057800293,1.2346963882446291,-2.7014968395233154
1510,81000.0,9.212367057800293,1.2346963882446291,-2.7014968395233154
1511,81100.0,9.375079154968262,1.361515998840332,-2.825923442840576
1512,81200.0,9.375079154968262,1.361515998840332,-2.825923442840576
1513,81300.0,9.375079154968262,1.361515998840332,-2.825923442840576
1514,81400.0,9.164510726928713,1.179661512374878,-2.8713872432708736
1515,81500.0,9.164510726928713,1.179661512374878,-2.8713872432708736
1516,81600.0,9.231510162353516,1.241874933242798,-2.8354949951171875
1517,81700.0,9.231510162353516,1.241874933242798,-2.8354949951171875
1518,81800.0,9.159724235534668,1.1629117727279663,-2.761317014694214
1519,81900.0,9.159724235534668,1.1629117727279663,-2.761317014694214
1520,81000.0,9.212367057800293,1.2346963882446291,-2.7014968395233154
1521,81100.0,9.375079154968262,1.361515998840332,-2.825923442840576
1522,81200.0,9.375079154968262,1.361515998840332,-2.825923442840576
1523,81300.0,9.375079154968262,1.361515998840332,-2.825923442840576
1524,81400.0,9.164510726928713,1.179661512374878,-2.8713872432708736
1525,81500.0,9.164510726928713,1.179661512374878,-2.8713872432708736
1526,81600.0,9.231510162353516,1.241874933242798,-2.8354949951171875
1527,81700.0,9.231510162353516,1.241874933242798,-2.8354949951171875
1528,81800.0,9.159724235534668,1.1629117727279663,-2.761317014694214
1529,81900.0,9.159724235534668,1.1629117727279663,-2.761317014694214
1530,82000.0,9.159724235534668,1.1629117727279663,-2.761317014694214
1531,82100.0,9.18843936920166,1.2753744125366209,-2.89052963256836
1532,82200.0,9.18843936920166,1.2753744125366209,-2.89052963256836
1533,82300.0,9.126225471496582,1.2610174417495728,-2.9240293502807617
1534,82400.0,9.126225471496582,1.2610174417495728,-2.9240293502807617
1535,82500.0,9.174081802368164,1.3016955852508545,-2.720639228820801
1536,82600.0,9.174081802368164,1.3016955852508545,-2.720639228820801
1537,82700.0,9.183652877807617,1.184447169303894,-2.933600425720215
1538,82800.0,9.183652877807617,1.184447169303894,-2.933600425720215
1539,82900.0,9.183652877807617,1.184447169303894,-2.933600425720215
1540,82000.0,9.159724235534668,1.1629117727279663,-2.761317014694214
1541,82100.0,9.18843936920166,1.2753744125366209,-2.89052963256836
1542,82200.0,9.18843936920166,1.2753744125366209,-2.89052963256836
1543,82300.0,9.126225471496582,1.2610174417495728,-2.9240293502807617
1544,82400.0,9.126225471496582,1.2610174417495728,-2.9240293502807617
1545,82500.0,9.174081802368164,1.3016955852508545,-2.720639228820801
1546,82600.0,9.174081802368164,1.3016955852508545,-2.720639228820801
1547,82700.0,9.183652877807617,1.184447169303894,-2.933600425720215
1548,82800.0,9.183652877807617,1.184447169303894,-2.933600425720215
1549,82900.0,9.183652877807617,1.184447169303894,-2.933600425720215
1550,83000.0,9.580862045288086,1.2873386144638062,-2.799602746963501
1551,83100.0,9.580862045288086,1.2873386144638062,-2.799602746963501
1552,83200.0,9.097511291503906,1.1772687435150146,-2.943171739578247
1553,83300.0,9.097511291503906,1.1772687435150146,-2.943171739578247
1554,83400.0,9.011369705200195,0.9260223507881165,-2.6321046352386475
1555,83500.0,9.011369705200195,0.9260223507881165,-2.6321046352386475
1556,83600.0,9.011369705200195,0.9260223507881165,-2.6321046352386475
1557,83700.0,9.145368576049805,1.2131611108779907,-2.945564746856689
1558,83800.0,9.145368576049805,1.2131611108779907,-2.945564746856689
1559,83900.0,8.97787094116211,1.0217353105545044,-2.9718859195709233
1560,83000.0,9.580862045288086,1.2873386144638062,-2.799602746963501
1561,83100.0,9.580862045288086,1.2873386144638062,-2.799602746963501
1562,83200.0,9.097511291503906,1.1772687435150146,-2.943171739578247
1563,83300.0,9.097511291503906,1.1772687435150146,-2.943171739578247
1564,83400.0,9.011369705200195,0.9260223507881165,-2.6321046352386475
1565,83500.0,9.011369705200195,0.9260223507881165,-2.6321046352386475
1566,83600.0,9.011369705200195,0.9260223507881165,-2.6321046352386475
1567,83700.0,9.145368576049805,1.2131611108779907,-2.945564746856689
1568,83800.0,9.145368576049805,1.2131611108779907,-2.945564746856689
1569,83900.0,8.97787094116211,1.0217353105545044,-2.9718859195709233
1570,84000.0,8.97787094116211,1.0217353105545044,-2.9718859195709233
1571,84100.0,9.116654396057127,0.9738788008689879,-2.902493953704834
1572,84200.0,9.116654396057127,0.9738788008689879,-2.902493953704834
1573,84300.0,9.116654396057127,0.9738788008689879,-2.902493953704834
1574,84400.0,9.69093132019043,1.2179466485977173,-2.8833510875701904
1575,84500.0,9.69093132019043,1.2179466485977173,-2.8833510875701904
1576,84600.0,8.896513938903809,0.9427721500396729,-2.933600425720215
1577,84700.0,8.896513938903809,0.9427721500396729,-2.933600425720215
1578,84800.0,8.767301559448242,0.8518448472023009,-2.825923442840576
1579,84900.0,8.767301559448242,0.8518448472023009,-2.825923442840576
1580,84000.0,8.97787094116211,1.0217353105545044,-2.9718859195709233
1581,84100.0,9.116654396057127,0.9738788008689879,-2.902493953704834
1582,84200.0,9.116654396057127,0.9738788008689879,-2.902493953704834
1583,84300.0,9.116654396057127,0.9738788008689879,-2.902493953704834
1584,84400.0,9.69093132019043,1.2179466485977173,-2.8833510875701904
1585,84500.0,9.69093132019043,1.2179466485977173,-2.8833510875701904
1586,84600.0,8.896513938903809,0.9427721500396729,-2.933600425720215
1587,84700.0,8.896513938903809,0.9427721500396729,-2.933600425720215
1588,84800.0,8.767301559448242,0.8518448472023009,-2.825923442840576
1589,84900.0,8.767301559448242,0.8518448472023009,-2.825923442840576
1590,85000.0,8.767301559448242,0.8518448472023009,-2.825923442840576
1591,85100.0,8.858229637145996,1.0408778190612793,-3.067598581314087
1592,85200.0,8.858229637145996,1.0408778190612793,-3.067598581314087
1593,85300.0,9.379864692687988,1.3208380937576294,-2.763710021972656
1594,85400.0,9.379864692687988,1.3208380937576294,-2.763710021972656
1595,85500.0,9.260223388671877,1.160519003868103,-3.0939197540283203
1596,85600.0,9.260223388671877,1.160519003868103,-3.0939197540283203
1597,85700.0,8.949156761169434,1.0073783397674558,-2.8211379051208496
1598,85800.0,8.949156761169434,1.0073783397674558,-2.8211379051208496
1599,85900.0,8.949156761169434,1.0073783397674558,-2.8211379051208496
1600,85000.0,8.767301559448242,0.8518448472023009,-2.825923442840576
1601,85100.0,8.858229637145996,1.0408778190612793,-3.067598581314087
1602,85200.0,8.858229637145996,1.0408778190612793,-3.067598581314087
1603,85300.0,9.379864692687988,1.3208380937576294,-2.763710021972656
1604,85400.0,9.379864692687988,1.3208380937576294,-2.763710021972656
1605,85500.0,9.260223388671877,1.160519003868103,-3.0939197540283203
1606,85600.0,9.260223388671877,1.160519003868103,-3.0939197540283203
1607,85700.0,8.949156761169434,1.0073783397674558,-2.8211379051208496
1608,85800.0,8.949156761169434,1.0073783397674558,-2.8211379051208496
1609,85900.0,8.949156761169434,1.0073783397674558,-2.8211379051208496
1610,86000.0,9.351150512695312,1.2131611108779907,-3.1130621433258057
1611,86100.0,9.351150512695312,1.2131611108779907,-3.1130621433258057
1612,86200.0,9.260223388671877,1.146162033081055,-3.0484561920166016
1613,86300.0,9.260223388671877,1.146162033081055,-3.0484561920166016
1614,86400.0,9.260223388671877,1.146162033081055,-3.0484561920166016
1615,86500.0,9.164510726928713,1.2610174417495728,-2.89052963256836
1616,86600.0,9.164510726928713,1.2610174417495728,-2.89052963256836
1617,86700.0,9.174081802368164,1.3160523176193235,-2.902493953704834
1618,86800.0,9.174081802368164,1.3160523176193235,-2.902493953704834
1619,86900.0,9.231510162353516,1.1102697849273682,-3.0149567127227783
1620,86000.0,9.351150512695312,1.2131611108779907,-3.1130621433258057
1621,86100.0,9.351150512695312,1.2131611108779907,-3.1130621433258057
1622,86200.0,9.260223388671877,1.146162033081055,-3.0484561920166016
1623,86300.0,9.260223388671877,1.146162033081055,-3.0484561920166016
1624,86400.0,9.260223388671877,1.146162033081055,-3.0484561920166016
1625,86500.0,9.164510726928713,1.2610174417495728,-2.89052963256836
1626,86600.0,9.164510726928713,1.2610174417495728,-2.89052963256836
1627,86700.0,9.174081802368164,1.3160523176193235,-2.902493953704834
1628,86800.0,9.174081802368164,1.3160523176193235,-2.902493953704834
1629,86900.0,9.231510162353516,1.1102697849273682,-3.0149567127227783
1630,87000.0,9.231510162353516,1.1102697849273682,-3.0149567127227783
1631,87100.0,9.159724235534668,1.2586246728897097,-3.0221347808837886
1632,87200.0,9.159724235534668,1.2586246728897097,-3.0221347808837886
1633,87300.0,9.159724235534668,1.2586246728897097,-3.0221347808837886
1634,87400.0,9.054441452026367,1.1868400573730469,-2.9288151264190674
1635,87500.0,9.054441452026367,1.1868400573730469,-2.9288151264190674
1636,87600.0,9.09272575378418,1.0241280794143677,-3.086741209030152
1637,87700.0,9.09272575378418,1.0241280794143677,-3.086741209030152
1638,87800.0,9.09272575378418,1.0241280794143677,-3.086741209030152
1639,87900.0,9.078369140625,1.131805181503296,-3.053241729736328
1640,87000.0,9.231510162353516,1.1102697849273682,-3.0149567127227783
1641,87100.0,9.159724235534668,1.2586246728897097,-3.0221347808837886
1642,87200.0,9.159724235534668,1.2586246728897097,-3.0221347808837886
1643,87300.0,9.159724235534668,1.2586246728897097,-3.0221347808837886
1644,87400.0,9.054441452026367,1.1868400573730469,-2.9288151264190674
1645,87500.0,9.054441452026367,1.1868400573730469,-2.9288151264190674
1646,87600.0,9.09272575378418,1.0241280794143677,-3.086741209030152
1647,87700.0,9.09272575378418,1.0241280794143677,-3.086741209030152
1648,87800.0,9.09272575378418,1.0241280794143677,-3.086741209030152
1649,87900.0,9.078369140625,1.131805181503296,-3.053241729736328
1650,88000.0,9.078369140625,1.131805181503296,-3.053241729736328
1651,88100.0,9.121439933776855,1.0767701864242554,-3.034099102020264
1652,88200.0,9.121439933776855,1.0767701864242554,-3.034099102020264
1653,88300.0,9.126225471496582,1.1676974296569824,-3.06999135017395
1654,88400.0,9.126225471496582,1.1676974296569824,-3.06999135017395
1655,88500.0,9.126225471496582,1.1676974296569824,-3.06999135017395
1656,88600.0,9.245866775512695,1.179661512374878,-2.995814085006714
1657,88700.0,9.245866775512695,1.179661512374878,-2.995814085006714
1658,88800.0,9.21715259552002,1.0887343883514404,-3.072384119033813
1659,88900.0,9.21715259552002,1.0887343883514404,-3.072384119033813
1660,88000.0,9.078369140625,1.131805181503296,-3.053241729736328
1661,88100.0,9.121439933776855,1.0767701864242554,-3.034099102020264
1662,88200.0,9.121439933776855,1.0767701864242554,-3.034099102020264
1663,88300.0,9.126225471496582,1.1676974296569824,-3.06999135017395
1664,88400.0,9.126225471496582,1.1676974296569824,-3.06999135017395
1665,88500.0,9.126225471496582,1.1676974296569824,-3.06999135017395
1666,88600.0,9.245866775512695,1.179661512374878,-2.995814085006714
1667,88700.0,9.245866775512695,1.179661512374878,-2.995814085006714
1668,88800.0,9.21715259552002,1.0887343883514404,-3.072384119033813
1669,88900.0,9.21715259552002,1.0887343883514404,-3.072384119033813
1670,89000.0,9.035298347473145,1.2705888748168943,-2.9168508052825928
1671,89100.0,9.035298347473145,1.2705888748168943,-2.9168508052825928
1672,89200.0,9.035298347473145,1.2705888748168943,-2.9168508052825928
1673,89300.0,9.159724235534668,1.06480610370636,-3.1058835983276367
1674,89400.0,9.159724235534668,1.06480610370636,-3.1058835983276367
1675,89500.0,9.126225471496582,1.0169496536254885,-3.034099102020264
1676,89600.0,9.126225471496582,1.0169496536254885,-3.034099102020264
1677,89700.0,9.20279598236084,1.2131611108779907,-3.041277408599853
1678,89800.0,9.20279598236084,1.2131611108779907,-3.041277408599853
1679,89900.0,9.06879711151123,1.1341978311538696,-3.060420036315918
1680,89000.0,9.035298347473145,1.2705888748168943,-2.9168508052825928
1681,89100.0,9.035298347473145,1.2705888748168943,-2.9168508052825928
1682,89200.0,9.035298347473145,1.2705888748168943,-2.9168508052825928
1683,89300.0,9.159724235534668,1.06480610370636,-3.1058835983276367
1684,89400.0,9.159724235534668,1.06480610370636,-3.1058835983276367
1685,89500.0,9.126225471496582,1.0169496536254885,-3.034099102020264
1686,89600.0,9.126225471496582,1.0169496536254885,-3.034099102020264
1687,89700.0,9.20279598236084,1.2131611108779907,-3.041277408599853
1688,89800.0,9.20279598236084,1.2131611108779907,-3.041277408599853
1689,89900.0,9.06879711151123,1.1341978311538696,-3.060420036315918
1690,90000.0,9.06879711151123,1.1341978311538696,-3.060420036315918
1691,90100.0,9.001798629760742,1.3591231107711792,-2.8522443771362305
1692,90200.0,9.001798629760742,1.3591231107711792,-2.8522443771362305
1693,90300.0,9.001798629760742,1.3591231107711792,-2.8522443771362305
1694,90400.0,9.06401252746582,1.3184452056884766,-2.900100946426392
1695,90500.0,9.06401252746582,1.3184452056884766,-2.900100946426392
1696,90600.0,9.06879711151123,1.146162033081055,-3.184847116470337
1697,90700.0,9.06879711151123,1.146162033081055,-3.184847116470337
1698,90800.0,9.06879711151123,1.146162033081055,-3.184847116470337
1699,90900.0,9.09272575378418,1.2658032178878784,-3.079562902450561
1700,90000.0,9.06879711151123,1.1341978311538696,-3.060420036315918
1701,90100.0,9.001798629760742,1.3591231107711792,-2.8522443771362305
1702,90200.0,9.001798629760742,1.3591231107711792,-2.8522443771362305
1703,90300.0,9.001798629760742,1.3591231107711792,-2.8522443771362305
1704,90400.0,9.06401252746582,1.3184452056884766,-2.900100946426392
1705,90500.0,9.06401252746582,1.3184452056884766,-2.900100946426392
1706,90600.0,9.06879711151123,1.146162033081055,-3.184847116470337
1707,90700.0,9.06879711151123,1.146162033081055,-3.184847116470337
1708,90800.0,9.06879711151123,1.146162033081055,-3.184847116470337
1709,90900.0,9.09272575378418,1.2658032178878784,-3.079562902450561
1710,91000.0,9.09272575378418,1.2658032178878784,-3.079562902450561
1711,91100.0,9.193224906921387,1.1437692642211914,-2.933600425720215
1712,91200.0,9.193224906921387,1.1437692642211914,-2.933600425720215
1713,91300.0,9.67657470703125,1.289731502532959,-3.1058835983276367
1714,91400.0,9.67657470703125,1.289731502532959,-3.1058835983276367
1715,91500.0,9.67657470703125,1.289731502532959,-3.1058835983276367
1716,91600.0,9.164510726928713,0.8422735333442688,-3.13220477104187
1717,91700.0,9.164510726928713,0.8422735333442688,-3.13220477104187
1718,91800.0,8.891729354858398,1.026520848274231,-2.959921598434448
1719,91900.0,8.891729354858398,1.026520848274231,-2.959921598434448
1720,91000.0,9.09272575378418,1.2658032178878784,-3.079562902450561
1721,91100.0,9.193224906921387,1.1437692642211914,-2.933600425720215
1722,91200.0,9.193224906921387,1.1437692642211914,-2.933600425720215
1723,91300.0,9.67657470703125,1.289731502532959,-3.1058835983276367
1724,91400.0,9.67657470703125,1.289731502532959,-3.1058835983276367
1725,91500.0,9.67657470703125,1.289731502532959,-3.1058835983276367
1726,91600.0,9.164510726928713,0.8422735333442688,-3.13220477104187
1727,91700.0,9.164510726928713,0.8422735333442688,-3.13220477104187
1728,91800.0,8.891729354858398,1.026520848274231,-2.959921598434448
1729,91900.0,8.891729354858398,1.026520848274231,-2.959921598434448
1730,92000.0,9.087940216064453,1.129412293434143,-3.0436704158782963
1731,92100.0,9.087940216064453,1.129412293434143,-3.0436704158782963
1732,92200.0,9.087940216064453,1.129412293434143,-3.0436704158782963
1733,92300.0,9.135796546936037,1.0408778190612793,-3.036492109298706
1734,92400.0,9.135796546936037,1.0408778190612793,-3.036492109298706
1735,92500.0,9.150154113769533,1.0600204467773438,-2.9551358222961426
1736,92600.0,9.150154113769533,1.0600204467773438,-2.9551358222961426
1737,92700.0,9.111868858337402,1.1724830865859983,-3.0197420120239262
1738,92800.0,9.111868858337402,1.1724830865859983,-3.0197420120239262
1739,92900.0,9.111868858337402,1.1724830865859983,-3.0197420120239262
1740,92000.0,9.087940216064453,1.129412293434143,-3.0436704158782963
1741,92100.0,9.087940216064453,1.129412293434143,-3.0436704158782963
1742,92200.0,9.087940216064453,1.129412293434143,-3.0436704158782963
1743,92300.0,9.135796546936037,1.0408778190612793,-3.036492109298706
1744,92400.0,9.135796546936037,1.0408778190612793,-3.036492109298706
1745,92500.0,9.150154113769533,1.0600204467773438,-2.9551358222961426
1746,92600.0,9.150154113769533,1.0600204467773438,-2.9551358222961426
1747,92700.0,9.111868858337402,1.1724830865859983,-3.0197420120239262
1748,92800.0,9.111868858337402,1.1724830865859983,-3.0197420120239262
1749,92900.0,9.111868858337402,1.1724830865859983,-3.0197420120239262
1750,93000.0,9.17886734008789,1.210768222808838,-2.9718859195709233
1751,93100.0,9.17886734008789,1.210768222808838,-2.9718859195709233
1752,93200.0,9.150154113769533,1.0815558433532717,-3.053241729736328
1753,93300.0,9.150154113769533,1.0815558433532717,-3.053241729736328
1754,93400.0,9.097511291503906,1.2179466485977173,-3.084348201751709
1755,93500.0,9.097511291503906,1.2179466485977173,-3.084348201751709
1756,93600.0,9.097511291503906,1.2179466485977173,-3.084348201751709
1757,93700.0,9.116654396057127,1.179661512374878,-3.086741209030152
