,timestamp,ax,ay,az
0,0.0,-4.329315185546875,-7.6566572189331055,0.910993754863739
1,100.0,-4.329315185546875,-7.6566572189331055,0.910993754863739
2,200.0,-4.3418846130371085,-8.541314125061035,2.343324899673462
3,300.0,-4.3418846130371085,-8.541314125061035,2.343324899673462
4,400.0,-2.3570916652679443,-9.522936820983887,2.078765630722046
5,500.0,-2.3570916652679443,-9.522936820983887,2.078765630722046
6,600.0,-2.670133352279663,-9.895236015319824,1.977012038230896
7,700.0,-2.670133352279663,-9.895236015319824,1.977012038230896
8,800.0,-1.0899603366851809,-11.019312858581543,1.519719481468201
9,900.0,-1.0899603366851809,-11.019312858581543,1.519719481468201
10,1000.0,1.2186486721038818,-9.730634689331056,1.027711033821106
11,1100.0,0.6596025824546814,-9.619902610778807,0.5524620413780212
12,1200.0,0.6596025824546814,-9.619902610778807,0.5524620413780212
13,1300.0,0.8918401598930359,-9.596558570861816,0.4297592043876648
14,1400.0,0.8918401598930359,-9.596558570861816,0.4297592043876648
15,1500.0,1.2761094570159912,-9.618106842041016,0.4040215313434601
16,1600.0,1.2761094570159912,-9.618106842041016,0.4040215313434601
17,1700.0,1.4490906000137331,-9.539097785949707,0.15801730751991272
18,1800.0,1.4490906000137331,-9.539097785949707,0.15801730751991272
19,1900.0,1.2443863153457642,-9.613917350769043,-0.1322796493768692
20,2000.0,1.5735890865325928,-9.548076629638672,-0.4339490532875061
21,2100.0,1.5735890865325928,-9.548076629638672,-0.4339490532875061
22,2200.0,1.578976035118103,-9.545681953430176,-0.6548141837120056
23,2300.0,1.578976035118103,-9.545681953430176,-0.6548141837120056
24,2400.0,1.4963760375976565,-9.632472038269043,-0.8122329115867615
25,2500.0,1.4963760375976565,-9.632472038269043,-0.8122329115867615
26,2600.0,1.3192051649093628,-9.55705451965332,-0.6087257862091064
27,2700.0,1.3192051649093628,-9.55705451965332,-0.6087257862091064
28,2800.0,1.9458874464035036,-9.403825759887695,-0.4842272996902466
29,2900.0,1.6531962156295776,-9.600749015808104,0.8349778652191162
30,3000.0,1.6531962156295776,-9.600749015808104,0.8349778652191162
31,3100.0,1.174954533576965,-9.317634582519533,1.3509283065795898
32,3200.0,1.174954533576965,-9.317634582519533,1.3509283065795898
33,3300.0,2.427720546722412,-8.827422142028809,0.4393360018730164
34,3400.0,2.427720546722412,-8.827422142028809,0.4393360018730164
35,3500.0,1.057040095329285,-9.87608242034912,-0.5650315880775452
36,3600.0,1.057040095329285,-9.87608242034912,-0.5650315880775452
37,3700.0,1.7304092645645142,-9.317035675048828,-0.2124854028224945
38,3800.0,1.048660397529602,-9.518747329711914,-0.2783259451389313
39,3900.0,1.048660397529602,-9.518747329711914,-0.2783259451389313
40,2000.0,1.5735890865325928,-9.548076629638672,-0.4339490532875061
41,2100.0,1.5735890865325928,-9.548076629638672,-0.4339490532875061
42,2200.0,1.578976035118103,-9.545681953430176,-0.6548141837120056
43,2300.0,1.578976035118103,-9.545681953430176,-0.6548141837120056
44,2400.0,1.4963760375976565,-9.632472038269043,-0.8122329115867615
45,2500.0,1.4963760375976565,-9.632472038269043,-0.8122329115867615
46,2600.0,1.3192051649093628,-9.55705451965332,-0.6087257862091064
47,2700.0,1.3192051649093628,-9.55705451965332,-0.6087257862091064
48,2800.0,1.9458874464035036,-9.403825759887695,-0.4842272996902466
49,2900.0,1.6531962156295776,-9.600749015808104,0.8349778652191162
50,3000.0,1.6531962156295776,-9.600749015808104,0.8349778652191162
51,3100.0,1.174954533576965,-9.317634582519533,1.3509283065795898
52,3200.0,1.174954533576965,-9.317634582519533,1.3509283065795898
53,3300.0,2.427720546722412,-8.827422142028809,0.4393360018730164
54,3400.0,2.427720546722412,-8.827422142028809,0.4393360018730164
55,3500.0,1.057040095329285,-9.87608242034912,-0.5650315880775452
56,3600.0,1.057040095329285,-9.87608242034912,-0.5650315880775452
57,3700.0,1.7304092645645142,-9.317035675048828,-0.2124854028224945
58,3800.0,1.048660397529602,-9.518747329711914,-0.2783259451389313
59,3900.0,1.048660397529602,-9.518747329711914,-0.2783259451389313
60,4000.0,1.0905588865280151,-9.26675796508789,-1.1881226301193235
61,4100.0,1.0905588865280151,-9.26675796508789,-1.1881226301193235
62,4200.0,3.2387564182281494,-9.051279067993164,0.33279404044151306
63,4300.0,3.2387564182281494,-9.051279067993164,0.33279404044151306
64,4400.0,2.1110873222351074,-9.643245697021484,-1.2509703636169434
65,4500.0,2.1110873222351074,-9.643245697021484,-1.2509703636169434
66,4600.0,2.9101521968841557,-9.454702377319336,-0.9343371987342834
67,4700.0,2.408566951751709,-9.263765335083008,-0.5315127968788147
68,4800.0,2.408566951751709,-9.263765335083008,-0.5315127968788147
69,4900.0,3.4171242713928223,-9.035717010498047,-0.7206547260284424
70,5000.0,3.4171242713928223,-9.035717010498047,-0.7206547260284424
71,5100.0,2.2020668983459477,-9.358335494995117,-0.7248445749282837
72,5200.0,2.2020668983459477,-9.358335494995117,-0.7248445749282837
73,5300.0,2.5683798789978027,-9.245209693908693,-0.6224924325942993
74,5400.0,2.5683798789978027,-9.245209693908693,-0.6224924325942993
75,5500.0,2.62823486328125,-9.396044731140137,-0.5907692909240723
76,5600.0,2.683301448822021,-9.312846183776855,-0.4321534037590027
77,5700.0,2.683301448822021,-9.312846183776855,-0.4321534037590027
78,5800.0,2.6803088188171387,-9.24102020263672,-0.6607996821403503
79,5900.0,2.6803088188171387,-9.24102020263672,-0.6607996821403503
80,4000.0,1.0905588865280151,-9.26675796508789,-1.1881226301193235
81,4100.0,1.0905588865280151,-9.26675796508789,-1.1881226301193235
82,4200.0,3.2387564182281494,-9.051279067993164,0.33279404044151306
83,4300.0,3.2387564182281494,-9.051279067993164,0.33279404044151306
84,4400.0,2.1110873222351074,-9.643245697021484,-1.2509703636169434
85,4500.0,2.1110873222351074,-9.643245697021484,-1.2509703636169434
86,4600.0,2.9101521968841557,-9.454702377319336,-0.9343371987342834
87,4700.0,2.408566951751709,-9.263765335083008,-0.5315127968788147
88,4800.0,2.408566951751709,-9.263765335083008,-0.5315127968788147
89,4900.0,3.4171242713928223,-9.035717010498047,-0.7206547260284424
90,5000.0,3.4171242713928223,-9.035717010498047,-0.7206547260284424
91,5100.0,2.2020668983459477,-9.358335494995117,-0.7248445749282837
92,5200.0,2.2020668983459477,-9.358335494995117,-0.7248445749282837
93,5300.0,2.5683798789978027,-9.245209693908693,-0.6224924325942993
94,5400.0,2.5683798789978027,-9.245209693908693,-0.6224924325942993
95,5500.0,2.62823486328125,-9.396044731140137,-0.5907692909240723
96,5600.0,2.683301448822021,-9.312846183776855,-0.4321534037590027
97,5700.0,2.683301448822021,-9.312846183776855,-0.4321534037590027
98,5800.0,2.6803088188171387,-9.24102020263672,-0.6607996821403503
99,5900.0,2.6803088188171387,-9.24102020263672,-0.6607996821403503
100,6000.0,2.8203697204589844,-9.25059700012207,-0.6057330369949341
101,6100.0,2.8203697204589844,-9.25059700012207,-0.6057330369949341
102,6200.0,2.804807186126709,-9.191938400268556,-0.6380547285079956
103,6300.0,2.804807186126709,-9.191938400268556,-0.6380547285079956
104,6400.0,3.014299869537353,-9.047089576721193,-0.3974374830722809
105,6500.0,2.667739152908325,-9.253589630126953,-0.5770025849342346
106,6600.0,2.667739152908325,-9.253589630126953,-0.5770025849342346
107,6700.0,2.607285737991333,-9.34157657623291,-0.6260837316513062
108,6800.0,2.607285737991333,-9.34157657623291,-0.6260837316513062
109,6900.0,2.7461493015289307,-9.238027572631836,-0.6153098344802856
110,7000.0,2.7461493015289307,-9.238027572631836,-0.6153098344802856
111,7100.0,2.7515363693237305,-9.239224433898926,-0.39803603291511536
112,7200.0,2.7515363693237305,-9.239224433898926,-0.39803603291511536
113,7300.0,2.2804770469665527,-9.36013126373291,-0.44771572947502136
114,7400.0,2.737171173095703,-9.263166427612305,-0.5003881454467773
115,7500.0,2.737171173095703,-9.263166427612305,-0.5003881454467773
116,7600.0,2.6623523235321045,-9.282320022583008,-0.4997895956039429
117,7700.0,2.6623523235321045,-9.282320022583008,-0.4997895956039429
118,7800.0,2.6396074295043945,-9.287707328796387,-0.4495113790035248
119,7900.0,2.6396074295043945,-9.287707328796387,-0.4495113790035248
120,6000.0,2.8203697204589844,-9.25059700012207,-0.6057330369949341
121,6100.0,2.8203697204589844,-9.25059700012207,-0.6057330369949341
122,6200.0,2.804807186126709,-9.191938400268556,-0.6380547285079956
123,6300.0,2.804807186126709,-9.191938400268556,-0.6380547285079956
124,6400.0,3.014299869537353,-9.047089576721193,-0.3974374830722809
125,6500.0,2.667739152908325,-9.253589630126953,-0.5770025849342346
126,6600.0,2.667739152908325,-9.253589630126953,-0.5770025849342346
127,6700.0,2.607285737991333,-9.34157657623291,-0.6260837316513062
128,6800.0,2.607285737991333,-9.34157657623291,-0.6260837316513062
129,6900.0,2.7461493015289307,-9.238027572631836,-0.6153098344802856
130,7000.0,2.7461493015289307,-9.238027572631836,-0.6153098344802856
131,7100.0,2.7515363693237305,-9.239224433898926,-0.39803603291511536
132,7200.0,2.7515363693237305,-9.239224433898926,-0.39803603291511536
133,7300.0,2.2804770469665527,-9.36013126373291,-0.44771572947502136
134,7400.0,2.737171173095703,-9.263166427612305,-0.5003881454467773
135,7500.0,2.737171173095703,-9.263166427612305,-0.5003881454467773
136,7600.0,2.6623523235321045,-9.282320022583008,-0.4997895956039429
137,7700.0,2.6623523235321045,-9.282320022583008,-0.4997895956039429
138,7800.0,2.6396074295043945,-9.287707328796387,-0.4495113790035248
139,7900.0,2.6396074295043945,-9.287707328796387,-0.4495113790035248
140,8000.0,2.70185661315918,-9.257779121398926,-0.5500678420066833
141,8100.0,2.70185661315918,-9.257779121398926,-0.5500678420066833
142,8200.0,2.6198551654815674,-9.27334213256836,-0.4776432514190674
143,8300.0,2.6210522651672363,-9.29069995880127,-0.5231330990791321
144,8400.0,2.6210522651672363,-9.29069995880127,-0.5231330990791321
145,8500.0,2.675520420074463,-9.253589630126953,-0.4680664241313934
146,8600.0,2.675520420074463,-9.253589630126953,-0.4680664241313934
147,8700.0,2.4402899742126465,-9.294290542602539,-0.5303156971931458
148,8800.0,2.4402899742126465,-9.294290542602539,-0.5303156971931458
149,8900.0,2.518101692199707,-9.273940086364746,-0.42437225580215454
150,9000.0,2.518101692199707,-9.273940086364746,-0.42437225580215454
151,9100.0,2.646191358566284,-9.257181167602539,-0.4572925269603729
152,9200.0,2.6240451335906982,-9.267355918884276,-0.3872621357440949
153,9300.0,2.6240451335906982,-9.267355918884276,-0.3872621357440949
154,9400.0,2.4594438076019287,-9.32421875,-0.37828385829925537
155,9500.0,2.4594438076019287,-9.32421875,-0.37828385829925537
156,9600.0,2.5360581874847408,-9.317634582519533,-0.4016273319721222
157,9700.0,2.5360581874847408,-9.317634582519533,-0.4016273319721222
158,9800.0,2.586336374282837,-9.313444137573242,-0.4716577231884002
159,9900.0,2.586336374282837,-9.313444137573242,-0.4716577231884002
160,8000.0,2.70185661315918,-9.257779121398926,-0.5500678420066833
161,8100.0,2.70185661315918,-9.257779121398926,-0.5500678420066833
162,8200.0,2.6198551654815674,-9.27334213256836,-0.4776432514190674
163,8300.0,2.6210522651672363,-9.29069995880127,-0.5231330990791321
164,8400.0,2.6210522651672363,-9.29069995880127,-0.5231330990791321
165,8500.0,2.675520420074463,-9.253589630126953,-0.4680664241313934
166,8600.0,2.675520420074463,-9.253589630126953,-0.4680664241313934
167,8700.0,2.4402899742126465,-9.294290542602539,-0.5303156971931458
168,8800.0,2.4402899742126465,-9.294290542602539,-0.5303156971931458
169,8900.0,2.518101692199707,-9.273940086364746,-0.42437225580215454
170,9000.0,2.518101692199707,-9.273940086364746,-0.42437225580215454
171,9100.0,2.646191358566284,-9.257181167602539,-0.4572925269603729
172,9200.0,2.6240451335906982,-9.267355918884276,-0.3872621357440949
173,9300.0,2.6240451335906982,-9.267355918884276,-0.3872621357440949
174,9400.0,2.4594438076019287,-9.32421875,-0.37828385829925537
175,9500.0,2.4594438076019287,-9.32421875,-0.37828385829925537
176,9600.0,2.5360581874847408,-9.317634582519533,-0.4016273319721222
177,9700.0,2.5360581874847408,-9.317634582519533,-0.4016273319721222
178,9800.0,2.586336374282837,-9.313444137573242,-0.4716577231884002
179,9900.0,2.586336374282837,-9.313444137573242,-0.4716577231884002
180,10000.0,2.5246856212615967,-9.35055446624756,-0.3609259128570557
181,10100.0,2.455852508544922,-9.31045150756836,-0.4985924959182739
182,10200.0,2.455852508544922,-9.31045150756836,-0.4985924959182739
183,10300.0,2.485181331634521,-9.298480987548828,-0.4537012279033661
184,10400.0,2.485181331634521,-9.298480987548828,-0.4537012279033661
185,10500.0,2.481590032577514,-9.331400871276855,-0.4279635548591614
186,10600.0,2.481590032577514,-9.331400871276855,-0.4279635548591614
187,10700.0,2.6593594551086426,-9.279925346374512,-0.3052607178688049
188,10800.0,2.6593594551086426,-9.279925346374512,-0.3052607178688049
189,10900.0,2.4025814533233643,-9.31643772125244,-0.3800795078277588
190,11000.0,2.604891538619995,-9.315838813781738,-0.3369838893413544
191,11100.0,2.604891538619995,-9.315838813781738,-0.3369838893413544
192,11200.0,2.4205379486083984,-9.34397029876709,-0.3519476354122162
193,11300.0,2.4205379486083984,-9.34397029876709,-0.3519476354122162
194,11400.0,2.278681516647339,-9.363123893737793,-0.454898327589035
195,11500.0,2.278681516647339,-9.363123893737793,-0.454898327589035
196,11600.0,2.629431962966919,-9.255983352661133,-0.22206220030784607
197,11700.0,2.629431962966919,-9.255983352661133,-0.22206220030784607
198,11800.0,2.473210334777832,-9.311649322509766,-0.3579331636428833
199,11900.0,2.427121877670288,-9.361927032470703,-0.4782418012619018
200,10000.0,2.5246856212615967,-9.35055446624756,-0.3609259128570557
201,10100.0,2.455852508544922,-9.31045150756836,-0.4985924959182739
202,10200.0,2.455852508544922,-9.31045150756836,-0.4985924959182739
203,10300.0,2.485181331634521,-9.298480987548828,-0.4537012279033661
204,10400.0,2.485181331634521,-9.298480987548828,-0.4537012279033661
205,10500.0,2.481590032577514,-9.331400871276855,-0.4279635548591614
206,10600.0,2.481590032577514,-9.331400871276855,-0.4279635548591614
207,10700.0,2.6593594551086426,-9.279925346374512,-0.3052607178688049
208,10800.0,2.6593594551086426,-9.279925346374512,-0.3052607178688049
209,10900.0,2.4025814533233643,-9.31643772125244,-0.3800795078277588
210,11000.0,2.604891538619995,-9.315838813781738,-0.3369838893413544
211,11100.0,2.604891538619995,-9.315838813781738,-0.3369838893413544
212,11200.0,2.4205379486083984,-9.34397029876709,-0.3519476354122162
213,11300.0,2.4205379486083984,-9.34397029876709,-0.3519476354122162
214,11400.0,2.278681516647339,-9.363123893737793,-0.454898327589035
215,11500.0,2.278681516647339,-9.363123893737793,-0.454898327589035
216,11600.0,2.629431962966919,-9.255983352661133,-0.22206220030784607
217,11700.0,2.629431962966919,-9.255983352661133,-0.22206220030784607
218,11800.0,2.473210334777832,-9.311649322509766,-0.3579331636428833
219,11900.0,2.427121877670288,-9.361927032470703,-0.4782418012619018
220,12000.0,2.427121877670288,-9.361927032470703,-0.4782418012619018
221,12100.0,2.4217350482940674,-9.317035675048828,-0.25079262256622314
222,12200.0,2.4217350482940674,-9.317035675048828,-0.25079262256622314
223,12300.0,2.3367409706115723,-9.36671543121338,-0.1586158573627472
224,12400.0,2.3367409706115723,-9.36671543121338,-0.1586158573627472
225,12500.0,2.411559581756592,-9.271546363830566,-0.33099839091300964
226,12600.0,2.411559581756592,-9.271546363830566,-0.33099839091300964
227,12700.0,2.3948001861572266,-9.338583946228027,-0.33937808871269226
228,12800.0,2.360682964324951,-9.337985038757324,-0.36391866207122797
229,12900.0,2.360682964324951,-9.337985038757324,-0.36391866207122797
230,13000.0,2.44747257232666,-9.27453899383545,-0.3728969097137451
231,13100.0,2.44747257232666,-9.27453899383545,-0.3728969097137451
232,13200.0,2.518101692199707,-9.33199977874756,-0.3381809890270233
233,13300.0,2.518101692199707,-9.33199977874756,-0.3381809890270233
234,13400.0,2.39120888710022,-9.309853553771973,-0.35374331474304205
235,13500.0,2.39120888710022,-9.309853553771973,-0.35374331474304205
236,13600.0,2.3684639930725098,-9.35893440246582,-0.27653029561042786
237,13700.0,2.389413356781006,-9.348758697509766,-0.20350714027881625
238,13800.0,2.389413356781006,-9.348758697509766,-0.20350714027881625
239,13900.0,2.2810757160186768,-9.336788177490234,-0.29388827085494995
240,12000.0,2.427121877670288,-9.361927032470703,-0.4782418012619018
241,12100.0,2.4217350482940674,-9.317035675048828,-0.25079262256622314
242,12200.0,2.4217350482940674,-9.317035675048828,-0.25079262256622314
243,12300.0,2.3367409706115723,-9.36671543121338,-0.1586158573627472
244,12400.0,2.3367409706115723,-9.36671543121338,-0.1586158573627472
245,12500.0,2.411559581756592,-9.271546363830566,-0.33099839091300964
246,12600.0,2.411559581756592,-9.271546363830566,-0.33099839091300964
247,12700.0,2.3948001861572266,-9.338583946228027,-0.33937808871269226
248,12800.0,2.360682964324951,-9.337985038757324,-0.36391866207122797
249,12900.0,2.360682964324951,-9.337985038757324,-0.36391866207122797
250,13000.0,2.44747257232666,-9.27453899383545,-0.3728969097137451
251,13100.0,2.44747257232666,-9.27453899383545,-0.3728969097137451
252,13200.0,2.518101692199707,-9.33199977874756,-0.3381809890270233
253,13300.0,2.518101692199707,-9.33199977874756,-0.3381809890270233
254,13400.0,2.39120888710022,-9.309853553771973,-0.35374331474304205
255,13500.0,2.39120888710022,-9.309853553771973,-0.35374331474304205
256,13600.0,2.3684639930725098,-9.35893440246582,-0.27653029561042786
257,13700.0,2.389413356781006,-9.348758697509766,-0.20350714027881625
258,13800.0,2.389413356781006,-9.348758697509766,-0.20350714027881625
259,13900.0,2.2810757160186768,-9.336788177490234,-0.29388827085494995
260,14000.0,2.2810757160186768,-9.336788177490234,-0.29388827085494995
261,14100.0,2.352303266525269,-9.384672164916992,-0.1735796183347702
262,14200.0,2.352303266525269,-9.384672164916992,-0.1735796183347702
263,14300.0,2.333149671554565,-9.400833129882812,-0.22385786473751068
264,14400.0,2.333149671554565,-9.400833129882812,-0.22385786473751068
265,14500.0,2.410961151123047,-9.330802917480467,-0.21847090125083926
266,14600.0,2.421136379241944,-9.304466247558594,-0.2663549482822418
267,14700.0,2.421136379241944,-9.304466247558594,-0.2663549482822418
268,14800.0,2.3780407905578613,-9.371503829956056,-0.3214215636253357
269,14900.0,2.3780407905578613,-9.371503829956056,-0.3214215636253357
270,15000.0,2.5258827209472656,-9.305065155029297,-0.2968810200691223
271,15100.0,2.5258827209472656,-9.305065155029297,-0.2968810200691223
272,15200.0,2.3283610343933105,-9.414599418640137,-0.24839842319488525
273,15300.0,2.3283610343933105,-9.414599418640137,-0.24839842319488525
274,15400.0,2.497750997543335,-9.329007148742676,-0.2717418968677521
275,15500.0,2.388814687728882,-9.340977668762207,-0.30286651849746704
276,15600.0,2.388814687728882,-9.340977668762207,-0.30286651849746704
277,15700.0,2.3690626621246342,-9.372700691223145,-0.2585737705230713
278,15800.0,2.3690626621246342,-9.372700691223145,-0.2585737705230713
279,15900.0,2.36188006401062,-9.34037971496582,-0.29628247022628784
280,14000.0,2.2810757160186768,-9.336788177490234,-0.29388827085494995
281,14100.0,2.352303266525269,-9.384672164916992,-0.1735796183347702
282,14200.0,2.352303266525269,-9.384672164916992,-0.1735796183347702
283,14300.0,2.333149671554565,-9.400833129882812,-0.22385786473751068
284,14400.0,2.333149671554565,-9.400833129882812,-0.22385786473751068
285,14500.0,2.410961151123047,-9.330802917480467,-0.21847090125083926
286,14600.0,2.421136379241944,-9.304466247558594,-0.2663549482822418
287,14700.0,2.421136379241944,-9.304466247558594,-0.2663549482822418
288,14800.0,2.3780407905578613,-9.371503829956056,-0.3214215636253357
289,14900.0,2.3780407905578613,-9.371503829956056,-0.3214215636253357
290,15000.0,2.5258827209472656,-9.305065155029297,-0.2968810200691223
291,15100.0,2.5258827209472656,-9.305065155029297,-0.2968810200691223
292,15200.0,2.3283610343933105,-9.414599418640137,-0.24839842319488525
293,15300.0,2.3283610343933105,-9.414599418640137,-0.24839842319488525
294,15400.0,2.497750997543335,-9.329007148742676,-0.2717418968677521
295,15500.0,2.388814687728882,-9.340977668762207,-0.30286651849746704
296,15600.0,2.388814687728882,-9.340977668762207,-0.30286651849746704
297,15700.0,2.3690626621246342,-9.372700691223145,-0.2585737705230713
298,15800.0,2.3690626621246342,-9.372700691223145,-0.2585737705230713
299,15900.0,2.36188006401062,-9.34037971496582,-0.29628247022628784
300,16000.0,2.36188006401062,-9.34037971496582,-0.29628247022628784
301,16100.0,2.388216257095337,-9.34397029876709,-0.21428105235099792
302,16200.0,2.388216257095337,-9.34397029876709,-0.21428105235099792
303,16300.0,2.3762452602386475,-9.349956512451172,-0.2298433631658554
304,16400.0,2.355295896530152,-9.36671543121338,-0.24420857429504395
305,16500.0,2.355295896530152,-9.36671543121338,-0.24420857429504395
306,16600.0,2.457049608230591,-9.324816703796387,-0.31364041566848755
307,16700.0,2.457049608230591,-9.324816703796387,-0.31364041566848755
308,16800.0,2.3038206100463867,-9.390059471130373,-0.2106897532939911
309,16900.0,2.3038206100463867,-9.390059471130373,-0.2106897532939911
310,17000.0,2.319382905960083,-9.35354709625244,-0.3118447661399841
311,17100.0,2.319382905960083,-9.35354709625244,-0.3118447661399841
312,17200.0,2.3289597034454346,-9.370905876159668,-0.25737667083740234
313,17300.0,2.20924973487854,-9.443329811096193,-0.14365209639072418
314,17400.0,2.20924973487854,-9.443329811096193,-0.14365209639072418
315,17500.0,2.5294740200042725,-9.355342864990234,-0.11851298063993455
316,17600.0,2.5294740200042725,-9.355342864990234,-0.11851298063993455
317,17700.0,2.3738510608673096,-9.31883144378662,-0.2256535142660141
318,17800.0,2.3738510608673096,-9.31883144378662,-0.2256535142660141
319,17900.0,2.296638011932373,-9.354146003723145,-0.10235211998224257
320,16000.0,2.36188006401062,-9.34037971496582,-0.29628247022628784
321,16100.0,2.388216257095337,-9.34397029876709,-0.21428105235099792
322,16200.0,2.388216257095337,-9.34397029876709,-0.21428105235099792
323,16300.0,2.3762452602386475,-9.349956512451172,-0.2298433631658554
324,16400.0,2.355295896530152,-9.36671543121338,-0.24420857429504395
325,16500.0,2.355295896530152,-9.36671543121338,-0.24420857429504395
326,16600.0,2.457049608230591,-9.324816703796387,-0.31364041566848755
327,16700.0,2.457049608230591,-9.324816703796387,-0.31364041566848755
328,16800.0,2.3038206100463867,-9.390059471130373,-0.2106897532939911
329,16900.0,2.3038206100463867,-9.390059471130373,-0.2106897532939911
330,17000.0,2.319382905960083,-9.35354709625244,-0.3118447661399841
331,17100.0,2.319382905960083,-9.35354709625244,-0.3118447661399841
332,17200.0,2.3289597034454346,-9.370905876159668,-0.25737667083740234
333,17300.0,2.20924973487854,-9.443329811096193,-0.14365209639072418
334,17400.0,2.20924973487854,-9.443329811096193,-0.14365209639072418
335,17500.0,2.5294740200042725,-9.355342864990234,-0.11851298063993455
336,17600.0,2.5294740200042725,-9.355342864990234,-0.11851298063993455
337,17700.0,2.3738510608673096,-9.31883144378662,-0.2256535142660141
338,17800.0,2.3738510608673096,-9.31883144378662,-0.2256535142660141
339,17900.0,2.296638011932373,-9.354146003723145,-0.10235211998224257
340,18000.0,2.296638011932373,-9.354146003723145,-0.10235211998224257
341,18100.0,2.2876596450805664,-9.362525939941406,-0.2609679996967316
342,18200.0,2.3098061084747314,-9.376891136169434,-0.17417816817760468
343,18300.0,2.3098061084747314,-9.376891136169434,-0.17417816817760468
344,18400.0,2.3774423599243164,-9.334393501281738,-0.2687491476535797
345,18500.0,2.3774423599243164,-9.334393501281738,-0.2687491476535797
346,18600.0,2.296638011932373,-9.372700691223145,-0.2172738015651703
347,18700.0,2.296638011932373,-9.372700691223145,-0.2172738015651703
348,18800.0,2.427121877670288,-9.29069995880127,-0.23343466222286224
349,18900.0,2.427121877670288,-9.29069995880127,-0.23343466222286224
350,19000.0,2.4612393379211426,-9.403226852416992,-0.1777694821357727
351,19100.0,2.4612393379211426,-9.403226852416992,-0.1777694821357727
352,19200.0,2.4648306369781494,-9.229048728942873,-0.31364041566848755
353,19300.0,2.3151929378509517,-9.411606788635254,-0.3345896899700165
354,19400.0,2.3151929378509517,-9.411606788635254,-0.3345896899700165
355,19500.0,2.6629507541656494,-9.25059700012207,-0.42437225580215454
356,19600.0,2.6629507541656494,-9.25059700012207,-0.42437225580215454
357,19700.0,2.955641984939575,-9.133280754089355,-0.42437225580215454
358,19800.0,2.955641984939575,-9.133280754089355,-0.42437225580215454
359,19900.0,2.847304344177246,-9.222464561462402,-0.4800374507904053
360,18000.0,2.296638011932373,-9.354146003723145,-0.10235211998224257
361,18100.0,2.2876596450805664,-9.362525939941406,-0.2609679996967316
362,18200.0,2.3098061084747314,-9.376891136169434,-0.17417816817760468
363,18300.0,2.3098061084747314,-9.376891136169434,-0.17417816817760468
364,18400.0,2.3774423599243164,-9.334393501281738,-0.2687491476535797
365,18500.0,2.3774423599243164,-9.334393501281738,-0.2687491476535797
366,18600.0,2.296638011932373,-9.372700691223145,-0.2172738015651703
367,18700.0,2.296638011932373,-9.372700691223145,-0.2172738015651703
368,18800.0,2.427121877670288,-9.29069995880127,-0.23343466222286224
369,18900.0,2.427121877670288,-9.29069995880127,-0.23343466222286224
370,19000.0,2.4612393379211426,-9.403226852416992,-0.1777694821357727
371,19100.0,2.4612393379211426,-9.403226852416992,-0.1777694821357727
372,19200.0,2.4648306369781494,-9.229048728942873,-0.31364041566848755
373,19300.0,2.3151929378509517,-9.411606788635254,-0.3345896899700165
374,19400.0,2.3151929378509517,-9.411606788635254,-0.3345896899700165
375,19500.0,2.6629507541656494,-9.25059700012207,-0.42437225580215454
376,19600.0,2.6629507541656494,-9.25059700012207,-0.42437225580215454
377,19700.0,2.955641984939575,-9.133280754089355,-0.42437225580215454
378,19800.0,2.955641984939575,-9.133280754089355,-0.42437225580215454
379,19900.0,2.847304344177246,-9.222464561462402,-0.4800374507904053
380,20000.0,2.847304344177246,-9.222464561462402,-0.4800374507904053
381,20100.0,2.6138696670532227,-9.35654067993164,-0.5740098357200623
382,20200.0,2.7473464012146,-9.297284126281738,-0.6703764796257019
383,20300.0,2.7473464012146,-9.297284126281738,-0.6703764796257019
384,20400.0,2.6431987285614014,-9.245808601379396,-0.7715315222740173
385,20500.0,2.6431987285614014,-9.245808601379396,-0.7715315222740173
386,20600.0,2.4869771003723145,-9.292495727539064,-0.4429273009300232
387,20700.0,2.4869771003723145,-9.292495727539064,-0.4429273009300232
388,20800.0,2.6575639247894287,-9.24940013885498,-0.5434837937355042
389,20900.0,2.6575639247894287,-9.24940013885498,-0.5434837937355042
390,21000.0,2.6880898475646973,-9.253589630126953,-0.5231330990791321
391,21100.0,2.722805976867676,-9.22785186767578,-0.5626373887062073
392,21200.0,2.722805976867676,-9.22785186767578,-0.5626373887062073
393,21300.0,2.805405855178833,-9.232640266418457,-0.6625953316688538
394,21400.0,2.805405855178833,-9.232640266418457,-0.6625953316688538
395,21500.0,2.7120320796966557,-9.25059700012207,-0.6338648796081543
396,21600.0,2.7120320796966557,-9.25059700012207,-0.6338648796081543
397,21700.0,2.630629062652588,-9.265560150146484,-0.6135141849517822
398,21800.0,2.630629062652588,-9.265560150146484,-0.6135141849517822
399,21900.0,2.7102363109588623,-9.1632080078125,-0.6536170840263367
400,20000.0,2.847304344177246,-9.222464561462402,-0.4800374507904053
401,20100.0,2.6138696670532227,-9.35654067993164,-0.5740098357200623
402,20200.0,2.7473464012146,-9.297284126281738,-0.6703764796257019
403,20300.0,2.7473464012146,-9.297284126281738,-0.6703764796257019
404,20400.0,2.6431987285614014,-9.245808601379396,-0.7715315222740173
405,20500.0,2.6431987285614014,-9.245808601379396,-0.7715315222740173
406,20600.0,2.4869771003723145,-9.292495727539064,-0.4429273009300232
407,20700.0,2.4869771003723145,-9.292495727539064,-0.4429273009300232
408,20800.0,2.6575639247894287,-9.24940013885498,-0.5434837937355042
409,20900.0,2.6575639247894287,-9.24940013885498,-0.5434837937355042
410,21000.0,2.6880898475646973,-9.253589630126953,-0.5231330990791321
411,21100.0,2.722805976867676,-9.22785186767578,-0.5626373887062073
412,21200.0,2.722805976867676,-9.22785186767578,-0.5626373887062073
413,21300.0,2.805405855178833,-9.232640266418457,-0.6625953316688538
414,21400.0,2.805405855178833,-9.232640266418457,-0.6625953316688538
415,21500.0,2.7120320796966557,-9.25059700012207,-0.6338648796081543
416,21600.0,2.7120320796966557,-9.25059700012207,-0.6338648796081543
417,21700.0,2.630629062652588,-9.265560150146484,-0.6135141849517822
418,21800.0,2.630629062652588,-9.265560150146484,-0.6135141849517822
419,21900.0,2.7102363109588623,-9.1632080078125,-0.6536170840263367
420,22000.0,2.4235305786132812,-9.336788177490234,-0.7302315235137941
421,22100.0,2.4235305786132812,-9.336788177490234,-0.7302315235137941
422,22200.0,2.8425159454345703,-9.244611740112305,-0.4608838260173798
423,22300.0,2.8425159454345703,-9.244611740112305,-0.4608838260173798
424,22400.0,2.6144683361053467,-9.18715000152588,-0.7523778676986694
425,22500.0,2.6144683361053467,-9.18715000152588,-0.7523778676986694
426,22600.0,2.419340848922729,-9.321226119995117,-0.5117605924606323
427,22700.0,2.419340848922729,-9.321226119995117,-0.5117605924606323
428,22800.0,2.7281928062438965,-9.221866607666016,-0.5716156363487244
429,22900.0,2.7449522018432617,-9.237428665161133,-0.6607996821403503
430,23000.0,2.7449522018432617,-9.237428665161133,-0.6607996821403503
431,23100.0,2.587533473968506,-9.296685218811037,-0.3381809890270233
432,23200.0,2.587533473968506,-9.296685218811037,-0.3381809890270233
433,23300.0,2.880224704742432,-9.167996406555176,-0.21847090125083926
434,23400.0,2.880224704742432,-9.167996406555176,-0.21847090125083926
435,23500.0,2.786850690841675,-9.220070838928224,-0.3896563351154328
436,23600.0,2.786850690841675,-9.220070838928224,-0.3896563351154328
437,23700.0,2.832340717315674,-9.185355186462402,-0.436343252658844
438,23800.0,2.7527334690093994,-9.169792175292967,-0.15322890877723694
439,23900.0,2.7527334690093994,-9.169792175292967,-0.15322890877723694
440,22000.0,2.4235305786132812,-9.336788177490234,-0.7302315235137941
441,22100.0,2.4235305786132812,-9.336788177490234,-0.7302315235137941
442,22200.0,2.8425159454345703,-9.244611740112305,-0.4608838260173798
443,22300.0,2.8425159454345703,-9.244611740112305,-0.4608838260173798
444,22400.0,2.6144683361053467,-9.18715000152588,-0.7523778676986694
445,22500.0,2.6144683361053467,-9.18715000152588,-0.7523778676986694
446,22600.0,2.419340848922729,-9.321226119995117,-0.5117605924606323
447,22700.0,2.419340848922729,-9.321226119995117,-0.5117605924606323
448,22800.0,2.7281928062438965,-9.221866607666016,-0.5716156363487244
449,22900.0,2.7449522018432617,-9.237428665161133,-0.6607996821403503
450,23000.0,2.7449522018432617,-9.237428665161133,-0.6607996821403503
451,23100.0,2.587533473968506,-9.296685218811037,-0.3381809890270233
452,23200.0,2.587533473968506,-9.296685218811037,-0.3381809890270233
453,23300.0,2.880224704742432,-9.167996406555176,-0.21847090125083926
454,23400.0,2.880224704742432,-9.167996406555176,-0.21847090125083926
455,23500.0,2.786850690841675,-9.220070838928224,-0.3896563351154328
456,23600.0,2.786850690841675,-9.220070838928224,-0.3896563351154328
457,23700.0,2.832340717315674,-9.185355186462402,-0.436343252658844
458,23800.0,2.7527334690093994,-9.169792175292967,-0.15322890877723694
459,23900.0,2.7527334690093994,-9.169792175292967,-0.15322890877723694
460,24000.0,2.693476915359497,-9.218873977661133,-0.6194996833801271
461,24100.0,2.693476915359497,-9.218873977661133,-0.6194996833801271
462,24200.0,2.6611552238464355,-9.263765335083008,-0.7302315235137941
463,24300.0,2.6611552238464355,-9.263765335083008,-0.7302315235137941
464,24400.0,2.4821887016296387,-9.292495727539064,-0.7691373229026794
465,24500.0,2.4821887016296387,-9.292495727539064,-0.7691373229026794
466,24600.0,2.5025393962860107,-9.3026704788208,-0.3800795078277588
467,24700.0,2.9047651290893555,-9.205705642700195,-0.5363011956214905
468,24800.0,2.9047651290893555,-9.205705642700195,-0.5363011956214905
469,24900.0,2.6803088188171387,-9.312846183776855,-0.6967126727104187
470,25000.0,2.6803088188171387,-9.312846183776855,-0.6967126727104187
471,25100.0,2.807201385498047,-9.245209693908693,-0.547075092792511
472,25200.0,2.807201385498047,-9.245209693908693,-0.547075092792511
473,25300.0,2.7210102081298833,-9.225458145141602,-0.5291185975074768
474,25400.0,2.7210102081298833,-9.225458145141602,-0.5291185975074768
475,25500.0,2.9119477272033687,-9.178771018981934,-0.6117185354232788
476,25600.0,2.5264813899993896,-9.347561836242676,-0.5656301379203796
477,25700.0,2.5264813899993896,-9.347561836242676,-0.5656301379203796
478,25800.0,3.05799412727356,-9.24640655517578,-0.5644330382347107
479,25900.0,3.05799412727356,-9.24640655517578,-0.5644330382347107
480,24000.0,2.693476915359497,-9.218873977661133,-0.6194996833801271
481,24100.0,2.693476915359497,-9.218873977661133,-0.6194996833801271
482,24200.0,2.6611552238464355,-9.263765335083008,-0.7302315235137941
483,24300.0,2.6611552238464355,-9.263765335083008,-0.7302315235137941
484,24400.0,2.4821887016296387,-9.292495727539064,-0.7691373229026794
485,24500.0,2.4821887016296387,-9.292495727539064,-0.7691373229026794
486,24600.0,2.5025393962860107,-9.3026704788208,-0.3800795078277588
487,24700.0,2.9047651290893555,-9.205705642700195,-0.5363011956214905
488,24800.0,2.9047651290893555,-9.205705642700195,-0.5363011956214905
489,24900.0,2.6803088188171387,-9.312846183776855,-0.6967126727104187
490,25000.0,2.6803088188171387,-9.312846183776855,-0.6967126727104187
491,25100.0,2.807201385498047,-9.245209693908693,-0.547075092792511
492,25200.0,2.807201385498047,-9.245209693908693,-0.547075092792511
493,25300.0,2.7210102081298833,-9.225458145141602,-0.5291185975074768
494,25400.0,2.7210102081298833,-9.225458145141602,-0.5291185975074768
495,25500.0,2.9119477272033687,-9.178771018981934,-0.6117185354232788
496,25600.0,2.5264813899993896,-9.347561836242676,-0.5656301379203796
497,25700.0,2.5264813899993896,-9.347561836242676,-0.5656301379203796
498,25800.0,3.05799412727356,-9.24640655517578,-0.5644330382347107
499,25900.0,3.05799412727356,-9.24640655517578,-0.5644330382347107
500,26000.0,2.9059622287750244,-9.090784072875977,-0.6703764796257019
501,26100.0,2.9059622287750244,-9.090784072875977,-0.6703764796257019
502,26200.0,2.9077579975128174,-9.115324020385742,-0.4842272996902466
503,26300.0,2.9077579975128174,-9.115324020385742,-0.4842272996902466
504,26400.0,2.8143839836120605,-9.226056098937988,-0.568622887134552
505,26500.0,2.7533318996429443,-9.249998092651367,-0.5638344883918762
506,26600.0,2.7533318996429443,-9.249998092651367,-0.5638344883918762
507,26700.0,2.9418752193450928,-9.185355186462402,-0.4890156984329224
508,26800.0,2.9418752193450928,-9.185355186462402,-0.4890156984329224
509,26900.0,2.7736825942993164,-9.282320022583008,-0.5542576909065247
510,27000.0,2.7736825942993164,-9.282320022583008,-0.5542576909065247
511,27100.0,2.4869771003723145,-9.27334213256836,-0.4273650050163269
512,27200.0,2.4869771003723145,-9.27334213256836,-0.4273650050163269
513,27300.0,2.873042106628418,-9.248202323913574,-0.4471171796321869
514,27400.0,2.523488521575928,-9.290101051330566,-0.5650315880775452
515,27500.0,2.523488521575928,-9.290101051330566,-0.5650315880775452
516,27600.0,2.7246015071868896,-9.242217063903807,-0.4010287821292877
517,27700.0,2.7246015071868896,-9.242217063903807,-0.4010287821292877
518,27800.0,2.6138696670532227,-9.320627212524414,-0.3130418658256531
519,27900.0,2.6138696670532227,-9.320627212524414,-0.3130418658256531
520,26000.0,2.9059622287750244,-9.090784072875977,-0.6703764796257019
521,26100.0,2.9059622287750244,-9.090784072875977,-0.6703764796257019
522,26200.0,2.9077579975128174,-9.115324020385742,-0.4842272996902466
523,26300.0,2.9077579975128174,-9.115324020385742,-0.4842272996902466
524,26400.0,2.8143839836120605,-9.226056098937988,-0.568622887134552
525,26500.0,2.7533318996429443,-9.249998092651367,-0.5638344883918762
526,26600.0,2.7533318996429443,-9.249998092651367,-0.5638344883918762
527,26700.0,2.9418752193450928,-9.185355186462402,-0.4890156984329224
528,26800.0,2.9418752193450928,-9.185355186462402,-0.4890156984329224
529,26900.0,2.7736825942993164,-9.282320022583008,-0.5542576909065247
530,27000.0,2.7736825942993164,-9.282320022583008,-0.5542576909065247
531,27100.0,2.4869771003723145,-9.27334213256836,-0.4273650050163269
532,27200.0,2.4869771003723145,-9.27334213256836,-0.4273650050163269
533,27300.0,2.873042106628418,-9.248202323913574,-0.4471171796321869
534,27400.0,2.523488521575928,-9.290101051330566,-0.5650315880775452
535,27500.0,2.523488521575928,-9.290101051330566,-0.5650315880775452
536,27600.0,2.7246015071868896,-9.242217063903807,-0.4010287821292877
537,27700.0,2.7246015071868896,-9.242217063903807,-0.4010287821292877
538,27800.0,2.6138696670532227,-9.320627212524414,-0.3130418658256531
539,27900.0,2.6138696670532227,-9.320627212524414,-0.3130418658256531
540,28000.0,2.5731682777404785,-9.285911560058594,-0.33339259028434753
541,28100.0,2.5731682777404785,-9.285911560058594,-0.33339259028434753
542,28200.0,2.6599581241607666,-9.256582260131836,-0.5680243372917175
543,28300.0,2.582146644592285,-9.32302188873291,-0.2974795699119568
544,28400.0,2.582146644592285,-9.32302188873291,-0.2974795699119568
545,28500.0,2.6390087604522705,-9.291297912597656,-0.3405751883983612
546,28600.0,2.6390087604522705,-9.291297912597656,-0.3405751883983612
547,28700.0,2.5995044708251958,-9.27453899383545,-0.5105634927749634
548,28800.0,2.5995044708251958,-9.27453899383545,-0.5105634927749634
549,28900.0,2.4630351066589355,-9.33199977874756,-0.2621650993824005
550,29000.0,2.4630351066589355,-9.33199977874756,-0.2621650993824005
551,29100.0,2.559401512145996,-9.34037971496582,-0.24660277366638186
552,29200.0,2.6665420532226562,-9.262567520141602,-0.4399345517158508
553,29300.0,2.6665420532226562,-9.262567520141602,-0.4399345517158508
554,29400.0,2.5779566764831543,-9.311050415039064,-0.4471171796321869
555,29500.0,2.5779566764831543,-9.311050415039064,-0.4471171796321869
556,29600.0,2.606687068939209,-9.308655738830566,-0.4004302322864533
557,29700.0,2.606687068939209,-9.308655738830566,-0.4004302322864533
558,29800.0,2.691082715988159,-9.262567520141602,-0.4944026470184326
559,29900.0,2.691082715988159,-9.262567520141602,-0.4944026470184326
560,28000.0,2.5731682777404785,-9.285911560058594,-0.33339259028434753
561,28100.0,2.5731682777404785,-9.285911560058594,-0.33339259028434753
562,28200.0,2.6599581241607666,-9.256582260131836,-0.5680243372917175
563,28300.0,2.582146644592285,-9.32302188873291,-0.2974795699119568
564,28400.0,2.582146644592285,-9.32302188873291,-0.2974795699119568
565,28500.0,2.6390087604522705,-9.291297912597656,-0.3405751883983612
566,28600.0,2.6390087604522705,-9.291297912597656,-0.3405751883983612
567,28700.0,2.5995044708251958,-9.27453899383545,-0.5105634927749634
568,28800.0,2.5995044708251958,-9.27453899383545,-0.5105634927749634
569,28900.0,2.4630351066589355,-9.33199977874756,-0.2621650993824005
570,29000.0,2.4630351066589355,-9.33199977874756,-0.2621650993824005
571,29100.0,2.559401512145996,-9.34037971496582,-0.24660277366638186
572,29200.0,2.6665420532226562,-9.262567520141602,-0.4399345517158508
573,29300.0,2.6665420532226562,-9.262567520141602,-0.4399345517158508
574,29400.0,2.5779566764831543,-9.311050415039064,-0.4471171796321869
575,29500.0,2.5779566764831543,-9.311050415039064,-0.4471171796321869
576,29600.0,2.606687068939209,-9.308655738830566,-0.4004302322864533
577,29700.0,2.606687068939209,-9.308655738830566,-0.4004302322864533
578,29800.0,2.691082715988159,-9.262567520141602,-0.4944026470184326
579,29900.0,2.691082715988159,-9.262567520141602,-0.4944026470184326
580,30000.0,2.5552117824554443,-9.327810287475586,-0.3860650360584259
581,30100.0,2.519298791885376,-9.330204010009766,-0.3381809890270233
582,30200.0,2.519298791885376,-9.330204010009766,-0.3381809890270233
583,30300.0,2.669534921646118,-9.233837127685547,-0.4920084476470947
584,30400.0,2.669534921646118,-9.233837127685547,-0.4920084476470947
585,30500.0,2.516305923461914,-9.299677848815918,-0.4740519225597382
586,30600.0,2.516305923461914,-9.299677848815918,-0.4740519225597382
587,30700.0,2.5145103931427,-9.287108421325684,-0.454898327589035
588,30800.0,2.5145103931427,-9.287108421325684,-0.454898327589035
589,30900.0,2.692279815673828,-9.327810287475586,-0.4513070285320282
590,31000.0,2.5701754093170166,-9.273940086364746,-0.5291185975074768
591,31100.0,2.5701754093170166,-9.273940086364746,-0.5291185975074768
592,31200.0,2.515707492828369,-9.285911560058594,-0.5351040959358215
593,31300.0,2.515707492828369,-9.285911560058594,-0.5351040959358215
594,31400.0,2.52109432220459,-9.34037971496582,-0.3543418645858765
595,31500.0,2.52109432220459,-9.34037971496582,-0.3543418645858765
596,31600.0,2.624643564224243,-9.26675796508789,-0.4339490532875061
597,31700.0,2.624643564224243,-9.26675796508789,-0.4339490532875061
598,31800.0,2.5983073711395264,-9.299078941345217,-0.4638765752315521
599,31900.0,2.5785553455352783,-9.294290542602539,-0.4836287498474121
600,30000.0,2.5552117824554443,-9.327810287475586,-0.3860650360584259
601,30100.0,2.519298791885376,-9.330204010009766,-0.3381809890270233
602,30200.0,2.519298791885376,-9.330204010009766,-0.3381809890270233
603,30300.0,2.669534921646118,-9.233837127685547,-0.4920084476470947
604,30400.0,2.669534921646118,-9.233837127685547,-0.4920084476470947
605,30500.0,2.516305923461914,-9.299677848815918,-0.4740519225597382
606,30600.0,2.516305923461914,-9.299677848815918,-0.4740519225597382
607,30700.0,2.5145103931427,-9.287108421325684,-0.454898327589035
608,30800.0,2.5145103931427,-9.287108421325684,-0.454898327589035
609,30900.0,2.692279815673828,-9.327810287475586,-0.4513070285320282
610,31000.0,2.5701754093170166,-9.273940086364746,-0.5291185975074768
611,31100.0,2.5701754093170166,-9.273940086364746,-0.5291185975074768
612,31200.0,2.515707492828369,-9.285911560058594,-0.5351040959358215
613,31300.0,2.515707492828369,-9.285911560058594,-0.5351040959358215
614,31400.0,2.52109432220459,-9.34037971496582,-0.3543418645858765
615,31500.0,2.52109432220459,-9.34037971496582,-0.3543418645858765
616,31600.0,2.624643564224243,-9.26675796508789,-0.4339490532875061
617,31700.0,2.624643564224243,-9.26675796508789,-0.4339490532875061
618,31800.0,2.5983073711395264,-9.299078941345217,-0.4638765752315521
619,31900.0,2.5785553455352783,-9.294290542602539,-0.4836287498474121
620,32000.0,2.5785553455352783,-9.294290542602539,-0.4836287498474121
621,32100.0,2.700061082839966,-9.252392768859863,-0.36571431159973145
622,32200.0,2.700061082839966,-9.252392768859863,-0.36571431159973145
623,32300.0,2.5725696086883545,-9.28650951385498,-0.4255693554878235
624,32400.0,2.5725696086883545,-9.28650951385498,-0.4255693554878235
625,32500.0,2.4594438076019287,-9.349956512451172,-0.34596213698387146
626,32600.0,2.4594438076019287,-9.349956512451172,-0.34596213698387146
627,32700.0,2.485780000686645,-9.354146003723145,-0.4327519536018372
628,32800.0,2.646790027618408,-9.263166427612305,-0.4950011968612671
629,32900.0,2.646790027618408,-9.263166427612305,-0.4950011968612671
630,33000.0,2.568978309631348,-9.296685218811037,-0.4387374520301819
631,33100.0,2.568978309631348,-9.296685218811037,-0.4387374520301819
632,33200.0,2.627636432647705,-9.330802917480467,-0.3405751883983612
633,33300.0,2.627636432647705,-9.330802917480467,-0.3405751883983612
634,33400.0,2.6785130500793457,-9.231443405151367,-0.35913026332855225
635,33500.0,2.6785130500793457,-9.231443405151367,-0.35913026332855225
636,33600.0,2.597708940505981,-9.284713745117188,-0.484825849533081
637,33700.0,2.6623523235321045,-9.281123161315918,-0.4656722247600555
638,33800.0,2.6623523235321045,-9.281123161315918,-0.4656722247600555
639,33900.0,2.5761611461639404,-9.323619842529297,-0.4417302012443543
640,32000.0,2.5785553455352783,-9.294290542602539,-0.4836287498474121
641,32100.0,2.700061082839966,-9.252392768859863,-0.36571431159973145
642,32200.0,2.700061082839966,-9.252392768859863,-0.36571431159973145
643,32300.0,2.5725696086883545,-9.28650951385498,-0.4255693554878235
644,32400.0,2.5725696086883545,-9.28650951385498,-0.4255693554878235
645,32500.0,2.4594438076019287,-9.349956512451172,-0.34596213698387146
646,32600.0,2.4594438076019287,-9.349956512451172,-0.34596213698387146
647,32700.0,2.485780000686645,-9.354146003723145,-0.4327519536018372
648,32800.0,2.646790027618408,-9.263166427612305,-0.4950011968612671
649,32900.0,2.646790027618408,-9.263166427612305,-0.4950011968612671
650,33000.0,2.568978309631348,-9.296685218811037,-0.4387374520301819
651,33100.0,2.568978309631348,-9.296685218811037,-0.4387374520301819
652,33200.0,2.627636432647705,-9.330802917480467,-0.3405751883983612
653,33300.0,2.627636432647705,-9.330802917480467,-0.3405751883983612
654,33400.0,2.6785130500793457,-9.231443405151367,-0.35913026332855225
655,33500.0,2.6785130500793457,-9.231443405151367,-0.35913026332855225
656,33600.0,2.597708940505981,-9.284713745117188,-0.484825849533081
657,33700.0,2.6623523235321045,-9.281123161315918,-0.4656722247600555
658,33800.0,2.6623523235321045,-9.281123161315918,-0.4656722247600555
659,33900.0,2.5761611461639404,-9.323619842529297,-0.4417302012443543
660,34000.0,2.5761611461639404,-9.323619842529297,-0.4417302012443543
661,34100.0,2.5941176414489746,-9.305663108825684,-0.3477577865123749
662,34200.0,2.5941176414489746,-9.305663108825684,-0.3477577865123749
663,34300.0,2.604292869567871,-9.271546363830566,-0.4842272996902466
664,34400.0,2.604292869567871,-9.271546363830566,-0.4842272996902466
665,34500.0,2.5097219944000244,-9.317634582519533,-0.3489548861980438
666,34600.0,2.495356798171997,-9.349357604980467,-0.406415730714798
667,34700.0,2.495356798171997,-9.349357604980467,-0.406415730714798
668,34800.0,2.5737667083740234,-9.327810287475586,-0.497395396232605
669,34900.0,2.5737667083740234,-9.327810287475586,-0.497395396232605
670,35000.0,2.58813214302063,-9.275136947631836,-0.5422866940498352
671,35100.0,2.58813214302063,-9.275136947631836,-0.5422866940498352
672,35200.0,2.538452386856079,-9.296086311340332,-0.405218631029129
673,35300.0,2.538452386856079,-9.296086311340332,-0.405218631029129
674,35400.0,2.534262418746948,-9.320627212524414,-0.38486793637275696
675,35500.0,2.5725696086883545,-9.223063468933104,-0.4417302012443543
676,35600.0,2.5725696086883545,-9.223063468933104,-0.4417302012443543
677,35700.0,2.5743653774261475,-9.270947456359863,-0.5237316489219666
678,35800.0,2.5743653774261475,-9.270947456359863,-0.5237316489219666
679,35900.0,2.587533473968506,-9.306262016296387,-0.4920084476470947
680,34000.0,2.5761611461639404,-9.323619842529297,-0.4417302012443543
681,34100.0,2.5941176414489746,-9.305663108825684,-0.3477577865123749
682,34200.0,2.5941176414489746,-9.305663108825684,-0.3477577865123749
683,34300.0,2.604292869567871,-9.271546363830566,-0.4842272996902466
684,34400.0,2.604292869567871,-9.271546363830566,-0.4842272996902466
685,34500.0,2.5097219944000244,-9.317634582519533,-0.3489548861980438
686,34600.0,2.495356798171997,-9.349357604980467,-0.406415730714798
687,34700.0,2.495356798171997,-9.349357604980467,-0.406415730714798
688,34800.0,2.5737667083740234,-9.327810287475586,-0.497395396232605
689,34900.0,2.5737667083740234,-9.327810287475586,-0.497395396232605
690,35000.0,2.58813214302063,-9.275136947631836,-0.5422866940498352
691,35100.0,2.58813214302063,-9.275136947631836,-0.5422866940498352
692,35200.0,2.538452386856079,-9.296086311340332,-0.405218631029129
693,35300.0,2.538452386856079,-9.296086311340332,-0.405218631029129
694,35400.0,2.534262418746948,-9.320627212524414,-0.38486793637275696
695,35500.0,2.5725696086883545,-9.223063468933104,-0.4417302012443543
696,35600.0,2.5725696086883545,-9.223063468933104,-0.4417302012443543
697,35700.0,2.5743653774261475,-9.270947456359863,-0.5237316489219666
698,35800.0,2.5743653774261475,-9.270947456359863,-0.5237316489219666
699,35900.0,2.587533473968506,-9.306262016296387,-0.4920084476470947
700,36000.0,2.587533473968506,-9.306262016296387,-0.4920084476470947
701,36100.0,2.543240785598755,-9.318233489990234,-0.3878606855869293
702,36200.0,2.543240785598755,-9.318233489990234,-0.3878606855869293
703,36300.0,2.5731682777404785,-9.329007148742676,-0.3854664862155914
704,36400.0,2.5222914218902592,-9.289502143859863,-0.4752490520477295
705,36500.0,2.5222914218902592,-9.289502143859863,-0.4752490520477295
706,36600.0,2.5456349849700928,-9.294290542602539,-0.37229835987091053
707,36700.0,2.5456349849700928,-9.294290542602539,-0.37229835987091053
708,36800.0,2.523488521575928,-9.315239906311037,-0.3728969097137451
709,36900.0,2.523488521575928,-9.315239906311037,-0.3728969097137451
710,37000.0,2.610278367996216,-9.275136947631836,-0.4584896266460418
711,37100.0,2.610278367996216,-9.275136947631836,-0.4584896266460418
712,37200.0,2.548627614974976,-9.305065155029297,-0.5315127968788147
713,37300.0,2.548627614974976,-9.305065155029297,-0.5315127968788147
714,37400.0,2.609679937362671,-9.282918930053713,-0.4195838570594788
715,37500.0,2.615066766738892,-9.296086311340332,-0.4381389021873474
716,37600.0,2.615066766738892,-9.296086311340332,-0.4381389021873474
717,37700.0,2.583942174911499,-9.30386734008789,-0.507570743560791
718,37800.0,2.583942174911499,-9.30386734008789,-0.507570743560791
719,37900.0,2.6198551654815674,-9.29309368133545,-0.5273229479789734
720,36000.0,2.587533473968506,-9.306262016296387,-0.4920084476470947
721,36100.0,2.543240785598755,-9.318233489990234,-0.3878606855869293
722,36200.0,2.543240785598755,-9.318233489990234,-0.3878606855869293
723,36300.0,2.5731682777404785,-9.329007148742676,-0.3854664862155914
724,36400.0,2.5222914218902592,-9.289502143859863,-0.4752490520477295
725,36500.0,2.5222914218902592,-9.289502143859863,-0.4752490520477295
726,36600.0,2.5456349849700928,-9.294290542602539,-0.37229835987091053
727,36700.0,2.5456349849700928,-9.294290542602539,-0.37229835987091053
728,36800.0,2.523488521575928,-9.315239906311037,-0.3728969097137451
729,36900.0,2.523488521575928,-9.315239906311037,-0.3728969097137451
730,37000.0,2.610278367996216,-9.275136947631836,-0.4584896266460418
731,37100.0,2.610278367996216,-9.275136947631836,-0.4584896266460418
732,37200.0,2.548627614974976,-9.305065155029297,-0.5315127968788147
733,37300.0,2.548627614974976,-9.305065155029297,-0.5315127968788147
734,37400.0,2.609679937362671,-9.282918930053713,-0.4195838570594788
735,37500.0,2.615066766738892,-9.296086311340332,-0.4381389021873474
736,37600.0,2.615066766738892,-9.296086311340332,-0.4381389021873474
737,37700.0,2.583942174911499,-9.30386734008789,-0.507570743560791
738,37800.0,2.583942174911499,-9.30386734008789,-0.507570743560791
739,37900.0,2.6198551654815674,-9.29309368133545,-0.5273229479789734
740,38000.0,2.6198551654815674,-9.29309368133545,-0.5273229479789734
741,38100.0,2.5354595184326167,-9.348758697509766,-0.376488208770752
742,38200.0,2.515108823776245,-9.332598686218262,-0.3824737071990967
743,38300.0,2.515108823776245,-9.332598686218262,-0.3824737071990967
744,38400.0,2.6007015705108643,-9.311649322509766,-0.4602852761745453
745,38500.0,2.6007015705108643,-9.311649322509766,-0.4602852761745453
746,38600.0,2.7006595134735107,-9.241618156433104,-0.5871779918670654
747,38700.0,2.7006595134735107,-9.241618156433104,-0.5871779918670654
748,38800.0,2.6222493648529053,-9.21588134765625,-0.5608417391777039
749,38900.0,2.6222493648529053,-9.21588134765625,-0.5608417391777039
750,39000.0,2.692279815673828,-9.222464561462402,-0.5231330990791321
751,39100.0,2.692279815673828,-9.222464561462402,-0.5231330990791321
752,39200.0,2.563591480255127,-9.321824073791504,-0.4722562730312347
753,39300.0,2.6228480339050293,-9.305663108825684,-0.4100070297718048
754,39400.0,2.6228480339050293,-9.305663108825684,-0.4100070297718048
755,39500.0,2.564189910888672,-9.281721115112305,-0.4902127981185913
756,39600.0,2.564189910888672,-9.281721115112305,-0.4902127981185913
757,39700.0,2.5127146244049072,-9.358335494995117,-0.2998737692832947
758,39800.0,2.5127146244049072,-9.358335494995117,-0.2998737692832947
759,39900.0,2.651578426361084,-9.232041358947754,-0.6135141849517822
760,38000.0,2.6198551654815674,-9.29309368133545,-0.5273229479789734
761,38100.0,2.5354595184326167,-9.348758697509766,-0.376488208770752
762,38200.0,2.515108823776245,-9.332598686218262,-0.3824737071990967
763,38300.0,2.515108823776245,-9.332598686218262,-0.3824737071990967
764,38400.0,2.6007015705108643,-9.311649322509766,-0.4602852761745453
765,38500.0,2.6007015705108643,-9.311649322509766,-0.4602852761745453
766,38600.0,2.7006595134735107,-9.241618156433104,-0.5871779918670654
767,38700.0,2.7006595134735107,-9.241618156433104,-0.5871779918670654
768,38800.0,2.6222493648529053,-9.21588134765625,-0.5608417391777039
769,38900.0,2.6222493648529053,-9.21588134765625,-0.5608417391777039
770,39000.0,2.692279815673828,-9.222464561462402,-0.5231330990791321
771,39100.0,2.692279815673828,-9.222464561462402,-0.5231330990791321
772,39200.0,2.563591480255127,-9.321824073791504,-0.4722562730312347
773,39300.0,2.6228480339050293,-9.305663108825684,-0.4100070297718048
774,39400.0,2.6228480339050293,-9.305663108825684,-0.4100070297718048
775,39500.0,2.564189910888672,-9.281721115112305,-0.4902127981185913
776,39600.0,2.564189910888672,-9.281721115112305,-0.4902127981185913
777,39700.0,2.5127146244049072,-9.358335494995117,-0.2998737692832947
778,39800.0,2.5127146244049072,-9.358335494995117,-0.2998737692832947
779,39900.0,2.651578426361084,-9.232041358947754,-0.6135141849517822
780,40000.0,2.65636682510376,-9.26915168762207,-0.4225766062736511
781,40100.0,2.65636682510376,-9.26915168762207,-0.4225766062736511
782,40200.0,2.6587610244750977,-9.239224433898926,-0.4596867263317108
783,40300.0,2.6587610244750977,-9.239224433898926,-0.4596867263317108
784,40400.0,2.615665435791016,-9.252392768859863,-0.454898327589035
785,40500.0,2.615665435791016,-9.252392768859863,-0.454898327589035
786,40600.0,2.457648038864136,-9.319430351257324,-0.4578910768032074
787,40700.0,2.457648038864136,-9.319430351257324,-0.4578910768032074
788,40800.0,2.565387010574341,-9.27453899383545,-0.414795458316803
789,40900.0,2.565387010574341,-9.27453899383545,-0.414795458316803
790,41000.0,2.5767595767974854,-9.300874710083008,-0.5123591423034668
791,41100.0,2.671330451965332,-9.24102020263672,-0.679354727268219
792,41200.0,2.671330451965332,-9.24102020263672,-0.679354727268219
793,41300.0,2.5683798789978027,-9.339780807495117,-0.24839842319488525
794,41400.0,2.5683798789978027,-9.339780807495117,-0.24839842319488525
795,41500.0,2.42472767829895,-9.374496459960938,-0.44831427931785583
796,41600.0,2.42472767829895,-9.374496459960938,-0.44831427931785583
797,41700.0,2.6030957698822017,-9.354146003723145,-0.4399345517158508
798,41800.0,2.6030957698822017,-9.354146003723145,-0.4399345517158508
799,41900.0,2.5115175247192383,-9.43135929107666,-0.2256535142660141
800,40000.0,2.65636682510376,-9.26915168762207,-0.4225766062736511
801,40100.0,2.65636682510376,-9.26915168762207,-0.4225766062736511
802,40200.0,2.6587610244750977,-9.239224433898926,-0.4596867263317108
803,40300.0,2.6587610244750977,-9.239224433898926,-0.4596867263317108
804,40400.0,2.615665435791016,-9.252392768859863,-0.454898327589035
805,40500.0,2.615665435791016,-9.252392768859863,-0.454898327589035
806,40600.0,2.457648038864136,-9.319430351257324,-0.4578910768032074
807,40700.0,2.457648038864136,-9.319430351257324,-0.4578910768032074
808,40800.0,2.565387010574341,-9.27453899383545,-0.414795458316803
809,40900.0,2.565387010574341,-9.27453899383545,-0.414795458316803
810,41000.0,2.5767595767974854,-9.300874710083008,-0.5123591423034668
811,41100.0,2.671330451965332,-9.24102020263672,-0.679354727268219
812,41200.0,2.671330451965332,-9.24102020263672,-0.679354727268219
813,41300.0,2.5683798789978027,-9.339780807495117,-0.24839842319488525
814,41400.0,2.5683798789978027,-9.339780807495117,-0.24839842319488525
815,41500.0,2.42472767829895,-9.374496459960938,-0.44831427931785583
816,41600.0,2.42472767829895,-9.374496459960938,-0.44831427931785583
817,41700.0,2.6030957698822017,-9.354146003723145,-0.4399345517158508
818,41800.0,2.6030957698822017,-9.354146003723145,-0.4399345517158508
819,41900.0,2.5115175247192383,-9.43135929107666,-0.2256535142660141
820,42000.0,2.4438812732696533,-9.331400871276855,-0.333991140127182
821,42100.0,2.4438812732696533,-9.331400871276855,-0.333991140127182
822,42200.0,2.5103204250335693,-9.280524253845217,-0.4195838570594788
823,42300.0,2.5103204250335693,-9.280524253845217,-0.4195838570594788
824,42400.0,2.563591480255127,-9.3427734375,-0.395043283700943
825,42500.0,2.563591480255127,-9.3427734375,-0.395043283700943
826,42600.0,2.481590032577514,-9.307458877563477,-0.4716577231884002
827,42700.0,2.481590032577514,-9.307458877563477,-0.4716577231884002
828,42800.0,2.58813214302063,-9.264363288879396,-0.6554127335548401
829,42900.0,2.3977930545806885,-9.366117477416992,-0.4800374507904053
830,43000.0,2.3977930545806885,-9.366117477416992,-0.4800374507904053
831,43100.0,2.5797524452209477,-9.294889450073242,-0.5201402902603149
832,43200.0,2.5797524452209477,-9.294889450073242,-0.5201402902603149
833,43300.0,2.4588451385498047,-9.36671543121338,-0.43095630407333374
834,43400.0,2.4588451385498047,-9.36671543121338,-0.43095630407333374
835,43500.0,2.565387010574341,-9.315838813781738,-0.4153940081596375
836,43600.0,2.565387010574341,-9.315838813781738,-0.4153940081596375
837,43700.0,2.630030632019043,-9.263166427612305,-0.3681085109710693
838,43800.0,2.6659436225891118,-9.287707328796387,-0.4399345517158508
839,43900.0,2.6659436225891118,-9.287707328796387,-0.4399345517158508
840,42000.0,2.4438812732696533,-9.331400871276855,-0.333991140127182
841,42100.0,2.4438812732696533,-9.331400871276855,-0.333991140127182
842,42200.0,2.5103204250335693,-9.280524253845217,-0.4195838570594788
843,42300.0,2.5103204250335693,-9.280524253845217,-0.4195838570594788
844,42400.0,2.563591480255127,-9.3427734375,-0.395043283700943
845,42500.0,2.563591480255127,-9.3427734375,-0.395043283700943
846,42600.0,2.481590032577514,-9.307458877563477,-0.4716577231884002
847,42700.0,2.481590032577514,-9.307458877563477,-0.4716577231884002
848,42800.0,2.58813214302063,-9.264363288879396,-0.6554127335548401
849,42900.0,2.3977930545806885,-9.366117477416992,-0.4800374507904053
850,43000.0,2.3977930545806885,-9.366117477416992,-0.4800374507904053
851,43100.0,2.5797524452209477,-9.294889450073242,-0.5201402902603149
852,43200.0,2.5797524452209477,-9.294889450073242,-0.5201402902603149
853,43300.0,2.4588451385498047,-9.36671543121338,-0.43095630407333374
854,43400.0,2.4588451385498047,-9.36671543121338,-0.43095630407333374
855,43500.0,2.565387010574341,-9.315838813781738,-0.4153940081596375
856,43600.0,2.565387010574341,-9.315838813781738,-0.4153940081596375
857,43700.0,2.630030632019043,-9.263166427612305,-0.3681085109710693
858,43800.0,2.6659436225891118,-9.287707328796387,-0.4399345517158508
859,43900.0,2.6659436225891118,-9.287707328796387,-0.4399345517158508
860,44000.0,2.520495891571045,-9.320028305053713,-0.40462008118629456
861,44100.0,2.520495891571045,-9.320028305053713,-0.40462008118629456
862,44200.0,2.6850972175598145,-9.237428665161133,-0.4495113790035248
863,44300.0,2.6850972175598145,-9.237428665161133,-0.4495113790035248
864,44400.0,2.62823486328125,-9.29069995880127,-0.496198296546936
865,44500.0,2.62823486328125,-9.29069995880127,-0.496198296546936
866,44600.0,2.607884168624878,-9.331400871276855,-0.4824316501617432
867,44700.0,2.5258827209472656,-9.305065155029297,-0.5279214978218079
868,44800.0,2.5258827209472656,-9.305065155029297,-0.5279214978218079
869,44900.0,2.632424831390381,-9.26795482635498,-0.3411737382411957
870,45000.0,2.632424831390381,-9.26795482635498,-0.3411737382411957
871,45100.0,2.449268341064453,-9.265560150146484,-0.4752490520477295
872,45200.0,2.449268341064453,-9.265560150146484,-0.4752490520477295
873,45300.0,2.562992811203003,-9.3026704788208,-0.4578910768032074
874,45400.0,2.562992811203003,-9.3026704788208,-0.4578910768032074
875,45500.0,2.47560453414917,-9.346364974975586,-0.3992331326007843
876,45600.0,2.5941176414489746,-9.282918930053713,-0.4554968774318695
877,45700.0,2.5941176414489746,-9.282918930053713,-0.4554968774318695
878,45800.0,2.483385801315308,-9.312247276306152,-0.4776432514190674
879,45900.0,2.483385801315308,-9.312247276306152,-0.4776432514190674
880,44000.0,2.520495891571045,-9.320028305053713,-0.40462008118629456
881,44100.0,2.520495891571045,-9.320028305053713,-0.40462008118629456
882,44200.0,2.6850972175598145,-9.237428665161133,-0.4495113790035248
883,44300.0,2.6850972175598145,-9.237428665161133,-0.4495113790035248
884,44400.0,2.62823486328125,-9.29069995880127,-0.496198296546936
885,44500.0,2.62823486328125,-9.29069995880127,-0.496198296546936
886,44600.0,2.607884168624878,-9.331400871276855,-0.4824316501617432
887,44700.0,2.5258827209472656,-9.305065155029297,-0.5279214978218079
888,44800.0,2.5258827209472656,-9.305065155029297,-0.5279214978218079
889,44900.0,2.632424831390381,-9.26795482635498,-0.3411737382411957
890,45000.0,2.632424831390381,-9.26795482635498,-0.3411737382411957
891,45100.0,2.449268341064453,-9.265560150146484,-0.4752490520477295
892,45200.0,2.449268341064453,-9.265560150146484,-0.4752490520477295
893,45300.0,2.562992811203003,-9.3026704788208,-0.4578910768032074
894,45400.0,2.562992811203003,-9.3026704788208,-0.4578910768032074
895,45500.0,2.47560453414917,-9.346364974975586,-0.3992331326007843
896,45600.0,2.5941176414489746,-9.282918930053713,-0.4554968774318695
897,45700.0,2.5941176414489746,-9.282918930053713,-0.4554968774318695
898,45800.0,2.483385801315308,-9.312247276306152,-0.4776432514190674
899,45900.0,2.483385801315308,-9.312247276306152,-0.4776432514190674
900,46000.0,2.589329242706299,-9.287108421325684,-0.4525041282176971
901,46100.0,2.589329242706299,-9.287108421325684,-0.4525041282176971
902,46200.0,2.6593594551086426,-9.245209693908693,-0.4387374520301819
903,46300.0,2.6593594551086426,-9.245209693908693,-0.4387374520301819
904,46400.0,2.7066450119018555,-9.255385398864746,-0.487220048904419
905,46500.0,2.470217704772949,-9.307458877563477,-0.524330198764801
906,46600.0,2.470217704772949,-9.307458877563477,-0.524330198764801
907,46700.0,2.6785130500793457,-9.245808601379396,-0.4776432514190674
908,46800.0,2.6785130500793457,-9.245808601379396,-0.4776432514190674
909,46900.0,2.652176856994629,-9.27334213256836,-0.426167905330658
910,47000.0,2.652176856994629,-9.27334213256836,-0.426167905330658
911,47100.0,2.6785130500793457,-9.314043045043944,-0.4812345504760742
912,47200.0,2.6785130500793457,-9.314043045043944,-0.4812345504760742
913,47300.0,2.437297344207764,-9.32541561126709,-0.3956418335437775
914,47400.0,2.6013002395629883,-9.298480987548828,-0.5632359385490417
915,47500.0,2.6013002395629883,-9.298480987548828,-0.5632359385490417
916,47600.0,2.4791958332061768,-9.329605102539064,-0.4734533727169037
917,47700.0,2.4791958332061768,-9.329605102539064,-0.4734533727169037
918,47800.0,2.5306711196899414,-9.301473617553713,-0.3315969407558441
919,47900.0,2.5306711196899414,-9.301473617553713,-0.3315969407558441
920,46000.0,2.589329242706299,-9.287108421325684,-0.4525041282176971
921,46100.0,2.589329242706299,-9.287108421325684,-0.4525041282176971
922,46200.0,2.6593594551086426,-9.245209693908693,-0.4387374520301819
923,46300.0,2.6593594551086426,-9.245209693908693,-0.4387374520301819
924,46400.0,2.7066450119018555,-9.255385398864746,-0.487220048904419
925,46500.0,2.470217704772949,-9.307458877563477,-0.524330198764801
926,46600.0,2.470217704772949,-9.307458877563477,-0.524330198764801
927,46700.0,2.6785130500793457,-9.245808601379396,-0.4776432514190674
928,46800.0,2.6785130500793457,-9.245808601379396,-0.4776432514190674
929,46900.0,2.652176856994629,-9.27334213256836,-0.426167905330658
930,47000.0,2.652176856994629,-9.27334213256836,-0.426167905330658
931,47100.0,2.6785130500793457,-9.314043045043944,-0.4812345504760742
932,47200.0,2.6785130500793457,-9.314043045043944,-0.4812345504760742
933,47300.0,2.437297344207764,-9.32541561126709,-0.3956418335437775
934,47400.0,2.6013002395629883,-9.298480987548828,-0.5632359385490417
935,47500.0,2.6013002395629883,-9.298480987548828,-0.5632359385490417
936,47600.0,2.4791958332061768,-9.329605102539064,-0.4734533727169037
937,47700.0,2.4791958332061768,-9.329605102539064,-0.4734533727169037
938,47800.0,2.5306711196899414,-9.301473617553713,-0.3315969407558441
939,47900.0,2.5306711196899414,-9.301473617553713,-0.3315969407558441
940,48000.0,2.453458309173584,-9.346963882446287,-0.4016273319721222
941,48100.0,2.453458309173584,-9.346963882446287,-0.4016273319721222
942,48200.0,2.597708940505981,-9.324816703796387,-0.4058171808719635
943,48300.0,2.550423383712769,-9.326014518737793,-0.4955997467041016
944,48400.0,2.550423383712769,-9.326014518737793,-0.4955997467041016
945,48500.0,2.540247917175293,-9.317035675048828,-0.4237737059593201
946,48600.0,2.540247917175293,-9.317035675048828,-0.4237737059593201
947,48700.0,2.5941176414489746,-9.276932716369627,-0.4746504724025726
948,48800.0,2.5941176414489746,-9.276932716369627,-0.4746504724025726
949,48900.0,2.5276784896850586,-9.288904190063477,-0.4985924959182739
950,49000.0,2.5276784896850586,-9.288904190063477,-0.4985924959182739
951,49100.0,2.515108823776245,-9.279327392578123,-0.4070142805576325
952,49200.0,2.5001451969146733,-9.329605102539064,-0.3669114112854004
953,49300.0,2.5001451969146733,-9.329605102539064,-0.3669114112854004
954,49400.0,2.5055320262908936,-9.304466247558594,-0.436343252658844
955,49500.0,2.5055320262908936,-9.304466247558594,-0.436343252658844
956,49600.0,2.5438392162323,-9.301473617553713,-0.5033808946609497
957,49700.0,2.5438392162323,-9.301473617553713,-0.5033808946609497
958,49800.0,2.448669672012329,-9.329605102539064,-0.3471592366695404
959,49900.0,2.448669672012329,-9.329605102539064,-0.3471592366695404
960,48000.0,2.453458309173584,-9.346963882446287,-0.4016273319721222
961,48100.0,2.453458309173584,-9.346963882446287,-0.4016273319721222
962,48200.0,2.597708940505981,-9.324816703796387,-0.4058171808719635
963,48300.0,2.550423383712769,-9.326014518737793,-0.4955997467041016
964,48400.0,2.550423383712769,-9.326014518737793,-0.4955997467041016
965,48500.0,2.540247917175293,-9.317035675048828,-0.4237737059593201
966,48600.0,2.540247917175293,-9.317035675048828,-0.4237737059593201
967,48700.0,2.5941176414489746,-9.276932716369627,-0.4746504724025726
968,48800.0,2.5941176414489746,-9.276932716369627,-0.4746504724025726
969,48900.0,2.5276784896850586,-9.288904190063477,-0.4985924959182739
970,49000.0,2.5276784896850586,-9.288904190063477,-0.4985924959182739
971,49100.0,2.515108823776245,-9.279327392578123,-0.4070142805576325
972,49200.0,2.5001451969146733,-9.329605102539064,-0.3669114112854004
973,49300.0,2.5001451969146733,-9.329605102539064,-0.3669114112854004
974,49400.0,2.5055320262908936,-9.304466247558594,-0.436343252658844
975,49500.0,2.5055320262908936,-9.304466247558594,-0.436343252658844
976,49600.0,2.5438392162323,-9.301473617553713,-0.5033808946609497
977,49700.0,2.5438392162323,-9.301473617553713,-0.5033808946609497
978,49800.0,2.448669672012329,-9.329605102539064,-0.3471592366695404
979,49900.0,2.448669672012329,-9.329605102539064,-0.3471592366695404
980,50000.0,2.540247917175293,-9.2841157913208,-0.4590881764888763
981,50100.0,2.492363929748535,-9.3026704788208,-0.4698620736598969
982,50200.0,2.492363929748535,-9.3026704788208,-0.4698620736598969
983,50300.0,2.5091233253479004,-9.326014518737793,-0.3567360639572144
984,50400.0,2.5091233253479004,-9.326014518737793,-0.3567360639572144
985,50500.0,2.4905683994293213,-9.330204010009766,-0.5285200476646423
986,50600.0,2.4905683994293213,-9.330204010009766,-0.5285200476646423
987,50700.0,2.5947160720825195,-9.272743225097656,-0.5063736438751221
988,50800.0,2.5947160720825195,-9.272743225097656,-0.5063736438751221
989,50900.0,2.517503023147583,-9.319430351257324,-0.3830722570419312
990,51000.0,2.5456349849700928,-9.326014518737793,-0.4387374520301819
991,51100.0,2.5456349849700928,-9.326014518737793,-0.4387374520301819
992,51200.0,2.562394380569458,-9.303269386291504,-0.4297592043876648
993,51300.0,2.562394380569458,-9.303269386291504,-0.4297592043876648
994,51400.0,2.482787132263184,-9.32661247253418,-0.4357447028160095
995,51500.0,2.482787132263184,-9.32661247253418,-0.4357447028160095
996,51600.0,2.547430515289306,-9.339780807495117,-0.465073674917221
997,51700.0,2.547430515289306,-9.339780807495117,-0.465073674917221
998,51800.0,2.4660277366638184,-9.312846183776855,-0.37828385829925537
999,51900.0,2.470816135406494,-9.314641952514648,-0.2322375625371933
1000,50000.0,2.540247917175293,-9.2841157913208,-0.4590881764888763
1001,50100.0,2.492363929748535,-9.3026704788208,-0.4698620736598969
1002,50200.0,2.492363929748535,-9.3026704788208,-0.4698620736598969
1003,50300.0,2.5091233253479004,-9.326014518737793,-0.3567360639572144
1004,50400.0,2.5091233253479004,-9.326014518737793,-0.3567360639572144
1005,50500.0,2.4905683994293213,-9.330204010009766,-0.5285200476646423
1006,50600.0,2.4905683994293213,-9.330204010009766,-0.5285200476646423
1007,50700.0,2.5947160720825195,-9.272743225097656,-0.5063736438751221
1008,50800.0,2.5947160720825195,-9.272743225097656,-0.5063736438751221
1009,50900.0,2.517503023147583,-9.319430351257324,-0.3830722570419312
1010,51000.0,2.5456349849700928,-9.326014518737793,-0.4387374520301819
1011,51100.0,2.5456349849700928,-9.326014518737793,-0.4387374520301819
1012,51200.0,2.562394380569458,-9.303269386291504,-0.4297592043876648
1013,51300.0,2.562394380569458,-9.303269386291504,-0.4297592043876648
1014,51400.0,2.482787132263184,-9.32661247253418,-0.4357447028160095
1015,51500.0,2.482787132263184,-9.32661247253418,-0.4357447028160095
1016,51600.0,2.547430515289306,-9.339780807495117,-0.465073674917221
1017,51700.0,2.547430515289306,-9.339780807495117,-0.465073674917221
1018,51800.0,2.4660277366638184,-9.312846183776855,-0.37828385829925537
1019,51900.0,2.470816135406494,-9.314641952514648,-0.2322375625371933
1020,52000.0,2.470816135406494,-9.314641952514648,-0.2322375625371933
1021,52100.0,2.5360581874847408,-9.314043045043944,-0.5303156971931458
1022,52200.0,2.5360581874847408,-9.314043045043944,-0.5303156971931458
1023,52300.0,2.7096378803253174,-9.27453899383545,-0.5698199868202211
1024,52400.0,2.7096378803253174,-9.27453899383545,-0.5698199868202211
1025,52500.0,2.4462754726409908,-9.361927032470703,-0.1801636815071106
1026,52600.0,2.4462754726409908,-9.361927032470703,-0.1801636815071106
1027,52700.0,2.45285964012146,-9.370306968688963,-0.4028244316577912
1028,52800.0,2.521692991256714,-9.224859237670898,-0.4908113479614258
1029,52900.0,2.521692991256714,-9.224859237670898,-0.4908113479614258
1030,53000.0,2.3062148094177246,-9.3427734375,-0.4351461529731751
1031,53100.0,2.3062148094177246,-9.3427734375,-0.4351461529731751
1032,53200.0,2.5336639881134038,-9.297284126281738,-0.28311434388160706
1033,53300.0,2.5336639881134038,-9.297284126281738,-0.28311434388160706
1034,53400.0,2.406771183013916,-9.361329078674316,-0.292691171169281
1035,53500.0,2.406771183013916,-9.361329078674316,-0.292691171169281
1036,53600.0,2.561197280883789,-9.35354709625244,-0.1388636976480484
1037,53700.0,2.364274263381958,-9.736021041870117,-0.29628247022628784
1038,53800.0,2.364274263381958,-9.736021041870117,-0.29628247022628784
1039,53900.0,2.7449522018432617,-9.311649322509766,-0.31543606519699097
1040,52000.0,2.470816135406494,-9.314641952514648,-0.2322375625371933
1041,52100.0,2.5360581874847408,-9.314043045043944,-0.5303156971931458
1042,52200.0,2.5360581874847408,-9.314043045043944,-0.5303156971931458
1043,52300.0,2.7096378803253174,-9.27453899383545,-0.5698199868202211
1044,52400.0,2.7096378803253174,-9.27453899383545,-0.5698199868202211
1045,52500.0,2.4462754726409908,-9.361927032470703,-0.1801636815071106
1046,52600.0,2.4462754726409908,-9.361927032470703,-0.1801636815071106
1047,52700.0,2.45285964012146,-9.370306968688963,-0.4028244316577912
1048,52800.0,2.521692991256714,-9.224859237670898,-0.4908113479614258
1049,52900.0,2.521692991256714,-9.224859237670898,-0.4908113479614258
1050,53000.0,2.3062148094177246,-9.3427734375,-0.4351461529731751
1051,53100.0,2.3062148094177246,-9.3427734375,-0.4351461529731751
1052,53200.0,2.5336639881134038,-9.297284126281738,-0.28311434388160706
1053,53300.0,2.5336639881134038,-9.297284126281738,-0.28311434388160706
1054,53400.0,2.406771183013916,-9.361329078674316,-0.292691171169281
1055,53500.0,2.406771183013916,-9.361329078674316,-0.292691171169281
1056,53600.0,2.561197280883789,-9.35354709625244,-0.1388636976480484
1057,53700.0,2.364274263381958,-9.736021041870117,-0.29628247022628784
1058,53800.0,2.364274263381958,-9.736021041870117,-0.29628247022628784
1059,53900.0,2.7449522018432617,-9.311649322509766,-0.31543606519699097
1060,54000.0,2.7449522018432617,-9.311649322509766,-0.31543606519699097
1061,54100.0,2.5318682193756104,-9.303269386291504,-0.16340427100658414
1062,54200.0,2.5318682193756104,-9.303269386291504,-0.16340427100658414
1063,54300.0,2.5791537761688232,-9.328408241271973,-0.19033902883529666
1064,54400.0,2.5791537761688232,-9.328408241271973,-0.19033902883529666
1065,54500.0,2.4127566814422607,-9.289502143859863,-0.7003039717674255
1066,54600.0,2.4444799423217773,-9.372700691223145,-0.5560533404350281
1067,54700.0,2.4444799423217773,-9.372700691223145,-0.5560533404350281
1068,54800.0,2.390610456466675,-9.320627212524414,-0.272938996553421
1069,54900.0,2.390610456466675,-9.320627212524414,-0.272938996553421
1070,55000.0,2.595314741134644,-9.333795547485352,-0.1322796493768692
1071,55100.0,2.595314741134644,-9.333795547485352,-0.1322796493768692
1072,55200.0,2.748543500900269,-9.171587944030762,-0.4183867573738098
1073,55300.0,2.748543500900269,-9.171587944030762,-0.4183867573738098
1074,55400.0,2.4450783729553223,-9.361329078674316,-0.3148375153541565
1075,55500.0,2.7653028964996342,-9.22785186767578,-0.4716577231884002
1076,55600.0,2.7653028964996342,-9.22785186767578,-0.4716577231884002
1077,55700.0,2.807800054550171,-9.151836395263672,-0.406415730714798
1078,55800.0,2.807800054550171,-9.151836395263672,-0.406415730714798
1079,55900.0,2.8365304470062256,-9.224859237670898,-0.4537012279033661
1080,54000.0,2.7449522018432617,-9.311649322509766,-0.31543606519699097
1081,54100.0,2.5318682193756104,-9.303269386291504,-0.16340427100658414
1082,54200.0,2.5318682193756104,-9.303269386291504,-0.16340427100658414
1083,54300.0,2.5791537761688232,-9.328408241271973,-0.19033902883529666
1084,54400.0,2.5791537761688232,-9.328408241271973,-0.19033902883529666
1085,54500.0,2.4127566814422607,-9.289502143859863,-0.7003039717674255
1086,54600.0,2.4444799423217773,-9.372700691223145,-0.5560533404350281
1087,54700.0,2.4444799423217773,-9.372700691223145,-0.5560533404350281
1088,54800.0,2.390610456466675,-9.320627212524414,-0.272938996553421
1089,54900.0,2.390610456466675,-9.320627212524414,-0.272938996553421
1090,55000.0,2.595314741134644,-9.333795547485352,-0.1322796493768692
1091,55100.0,2.595314741134644,-9.333795547485352,-0.1322796493768692
1092,55200.0,2.748543500900269,-9.171587944030762,-0.4183867573738098
1093,55300.0,2.748543500900269,-9.171587944030762,-0.4183867573738098
1094,55400.0,2.4450783729553223,-9.361329078674316,-0.3148375153541565
1095,55500.0,2.7653028964996342,-9.22785186767578,-0.4716577231884002
1096,55600.0,2.7653028964996342,-9.22785186767578,-0.4716577231884002
1097,55700.0,2.807800054550171,-9.151836395263672,-0.406415730714798
1098,55800.0,2.807800054550171,-9.151836395263672,-0.406415730714798
1099,55900.0,2.8365304470062256,-9.224859237670898,-0.4537012279033661
1100,56000.0,2.8365304470062256,-9.224859237670898,-0.4537012279033661
1101,56100.0,2.8718450069427486,-9.23323917388916,-0.34416648745536804
1102,56200.0,2.8718450069427486,-9.23323917388916,-0.34416648745536804
1103,56300.0,2.7341783046722408,-9.305663108825684,-0.39145198464393616
1104,56400.0,2.551620483398437,-9.24940013885498,-0.5333084464073181
1105,56500.0,2.551620483398437,-9.24940013885498,-0.5333084464073181
1106,56600.0,2.4881742000579834,-9.306262016296387,-0.3621230125427246
1107,56700.0,2.4881742000579834,-9.306262016296387,-0.3621230125427246
1108,56800.0,2.9957449436187744,-9.169792175292967,-0.4788403511047363
1109,56900.0,2.9957449436187744,-9.169792175292967,-0.4788403511047363
1110,57000.0,2.3768436908721924,-9.302072525024414,-0.3890577852725983
1111,57100.0,2.3768436908721924,-9.302072525024414,-0.3890577852725983
1112,57200.0,2.7042508125305176,-9.268553733825684,-0.4118026793003082
1113,57300.0,2.28406834602356,-9.294290542602539,-0.4106055796146393
1114,57400.0,2.28406834602356,-9.294290542602539,-0.4106055796146393
1115,57500.0,2.700061082839966,-9.236231803894043,-0.4058171808719635
1116,57600.0,2.700061082839966,-9.236231803894043,-0.4058171808719635
1117,57700.0,2.748543500900269,-9.263166427612305,-0.17537526786327362
1118,57800.0,2.748543500900269,-9.263166427612305,-0.17537526786327362
1119,57900.0,2.365471363067627,-9.339181900024414,-0.3956418335437775
1120,56000.0,2.8365304470062256,-9.224859237670898,-0.4537012279033661
1121,56100.0,2.8718450069427486,-9.23323917388916,-0.34416648745536804
1122,56200.0,2.8718450069427486,-9.23323917388916,-0.34416648745536804
1123,56300.0,2.7341783046722408,-9.305663108825684,-0.39145198464393616
1124,56400.0,2.551620483398437,-9.24940013885498,-0.5333084464073181
1125,56500.0,2.551620483398437,-9.24940013885498,-0.5333084464073181
1126,56600.0,2.4881742000579834,-9.306262016296387,-0.3621230125427246
1127,56700.0,2.4881742000579834,-9.306262016296387,-0.3621230125427246
1128,56800.0,2.9957449436187744,-9.169792175292967,-0.4788403511047363
1129,56900.0,2.9957449436187744,-9.169792175292967,-0.4788403511047363
1130,57000.0,2.3768436908721924,-9.302072525024414,-0.3890577852725983
1131,57100.0,2.3768436908721924,-9.302072525024414,-0.3890577852725983
1132,57200.0,2.7042508125305176,-9.268553733825684,-0.4118026793003082
1133,57300.0,2.28406834602356,-9.294290542602539,-0.4106055796146393
1134,57400.0,2.28406834602356,-9.294290542602539,-0.4106055796146393
1135,57500.0,2.700061082839966,-9.236231803894043,-0.4058171808719635
1136,57600.0,2.700061082839966,-9.236231803894043,-0.4058171808719635
1137,57700.0,2.748543500900269,-9.263166427612305,-0.17537526786327362
1138,57800.0,2.748543500900269,-9.263166427612305,-0.17537526786327362
1139,57900.0,2.365471363067627,-9.339181900024414,-0.3956418335437775
1140,58000.0,2.365471363067627,-9.339181900024414,-0.3956418335437775
1141,58100.0,2.6761188507080083,-9.240421295166016,-0.4890156984329224
1142,58200.0,2.607285737991333,-9.355941772460938,-0.4818331003189087
1143,58300.0,2.607285737991333,-9.355941772460938,-0.4818331003189087
1144,58400.0,2.8012158870697017,-9.285911560058594,0.0454898327589035
1145,58500.0,2.8012158870697017,-9.285911560058594,0.0454898327589035
1146,58600.0,2.7760767936706543,-9.247604370117188,-0.37888240814208973
1147,58700.0,2.7760767936706543,-9.247604370117188,-0.37888240814208973
1148,58800.0,2.889801502227783,-9.223063468933104,-0.4632780253887177
1149,58900.0,2.889801502227783,-9.223063468933104,-0.4632780253887177
1150,59000.0,2.8173768520355225,-9.230844497680664,-0.5410895943641663
1151,59100.0,2.7712883949279785,-9.221866607666016,-0.4339490532875061
1152,59200.0,2.7712883949279785,-9.221866607666016,-0.4339490532875061
1153,59300.0,2.717418909072876,-9.23443603515625,-0.41778820753097534
1154,59400.0,2.717418909072876,-9.23443603515625,-0.41778820753097534
1155,59500.0,2.7940332889556885,-9.221267700195312,-0.6374561786651611
1156,59600.0,2.7940332889556885,-9.221267700195312,-0.6374561786651611
1157,59700.0,2.852092742919922,-9.221866607666016,-0.44771572947502136
1158,59800.0,2.852092742919922,-9.221866607666016,-0.44771572947502136
1159,59900.0,2.735974073410034,-9.238027572631836,-0.5793967843055725
1160,58000.0,2.365471363067627,-9.339181900024414,-0.3956418335437775
1161,58100.0,2.6761188507080083,-9.240421295166016,-0.4890156984329224
1162,58200.0,2.607285737991333,-9.355941772460938,-0.4818331003189087
1163,58300.0,2.607285737991333,-9.355941772460938,-0.4818331003189087
1164,58400.0,2.8012158870697017,-9.285911560058594,0.0454898327589035
1165,58500.0,2.8012158870697017,-9.285911560058594,0.0454898327589035
1166,58600.0,2.7760767936706543,-9.247604370117188,-0.37888240814208973
1167,58700.0,2.7760767936706543,-9.247604370117188,-0.37888240814208973
1168,58800.0,2.889801502227783,-9.223063468933104,-0.4632780253887177
1169,58900.0,2.889801502227783,-9.223063468933104,-0.4632780253887177
1170,59000.0,2.8173768520355225,-9.230844497680664,-0.5410895943641663
1171,59100.0,2.7712883949279785,-9.221866607666016,-0.4339490532875061
1172,59200.0,2.7712883949279785,-9.221866607666016,-0.4339490532875061
1173,59300.0,2.717418909072876,-9.23443603515625,-0.41778820753097534
1174,59400.0,2.717418909072876,-9.23443603515625,-0.41778820753097534
1175,59500.0,2.7940332889556885,-9.221267700195312,-0.6374561786651611
1176,59600.0,2.7940332889556885,-9.221267700195312,-0.6374561786651611
1177,59700.0,2.852092742919922,-9.221866607666016,-0.44771572947502136
1178,59800.0,2.852092742919922,-9.221866607666016,-0.44771572947502136
1179,59900.0,2.735974073410034,-9.238027572631836,-0.5793967843055725
1180,60000.0,2.6366145610809326,-9.253589630126953,-0.5009866952896118
1181,60100.0,2.6366145610809326,-9.253589630126953,-0.5009866952896118
1182,60200.0,2.7042508125305176,-9.337985038757324,-0.4088099300861359
1183,60300.0,2.7042508125305176,-9.337985038757324,-0.4088099300861359
1184,60400.0,2.849698543548584,-9.156624794006348,-0.5949591398239136
1185,60500.0,2.849698543548584,-9.156624794006348,-0.5949591398239136
1186,60600.0,2.562992811203003,-9.26675796508789,-0.4040215313434601
1187,60700.0,2.562992811203003,-9.26675796508789,-0.4040215313434601
1188,60800.0,2.6144683361053467,-9.254786491394043,-0.4668693244457245
1189,60900.0,2.6144683361053467,-9.254786491394043,-0.4668693244457245
1190,61000.0,2.677914619445801,-9.292495727539064,-0.4752490520477295
1191,61100.0,2.7006595134735107,-9.26795482635498,-0.436343252658844
1192,61200.0,2.7006595134735107,-9.26795482635498,-0.436343252658844
1193,61300.0,2.5995044708251958,-9.261969566345217,-0.4507084786891937
1194,61400.0,2.5995044708251958,-9.261969566345217,-0.4507084786891937
1195,61500.0,2.630629062652588,-9.29189682006836,-0.454898327589035
1196,61600.0,2.630629062652588,-9.29189682006836,-0.454898327589035
1197,61700.0,2.6647465229034424,-9.271546363830566,-0.5698199868202211
1198,61800.0,2.6647465229034424,-9.271546363830566,-0.5698199868202211
1199,61900.0,2.6132712364196777,-9.3026704788208,-0.3357867896556854
1200,60000.0,2.6366145610809326,-9.253589630126953,-0.5009866952896118
1201,60100.0,2.6366145610809326,-9.253589630126953,-0.5009866952896118
1202,60200.0,2.7042508125305176,-9.337985038757324,-0.4088099300861359
1203,60300.0,2.7042508125305176,-9.337985038757324,-0.4088099300861359
1204,60400.0,2.849698543548584,-9.156624794006348,-0.5949591398239136
1205,60500.0,2.849698543548584,-9.156624794006348,-0.5949591398239136
1206,60600.0,2.562992811203003,-9.26675796508789,-0.4040215313434601
1207,60700.0,2.562992811203003,-9.26675796508789,-0.4040215313434601
1208,60800.0,2.6144683361053467,-9.254786491394043,-0.4668693244457245
1209,60900.0,2.6144683361053467,-9.254786491394043,-0.4668693244457245
1210,61000.0,2.677914619445801,-9.292495727539064,-0.4752490520477295
1211,61100.0,2.7006595134735107,-9.26795482635498,-0.436343252658844
1212,61200.0,2.7006595134735107,-9.26795482635498,-0.436343252658844
1213,61300.0,2.5995044708251958,-9.261969566345217,-0.4507084786891937
1214,61400.0,2.5995044708251958,-9.261969566345217,-0.4507084786891937
1215,61500.0,2.630629062652588,-9.29189682006836,-0.454898327589035
1216,61600.0,2.630629062652588,-9.29189682006836,-0.454898327589035
1217,61700.0,2.6647465229034424,-9.271546363830566,-0.5698199868202211
1218,61800.0,2.6647465229034424,-9.271546363830566,-0.5698199868202211
1219,61900.0,2.6132712364196777,-9.3026704788208,-0.3357867896556854
1220,62000.0,2.5971102714538574,-9.32421875,-0.37828385829925537
1221,62100.0,2.5971102714538574,-9.32421875,-0.37828385829925537
1222,62200.0,2.6414029598236084,-9.281123161315918,-0.3992331326007843
1223,62300.0,2.6414029598236084,-9.281123161315918,-0.3992331326007843
1224,62400.0,2.667739152908325,-9.225458145141602,-0.4788403511047363
1225,62500.0,2.667739152908325,-9.225458145141602,-0.4788403511047363
1226,62600.0,2.623446464538574,-9.280524253845217,-0.4632780253887177
1227,62700.0,2.607884168624878,-9.303269386291504,-0.5003881454467773
1228,62800.0,2.607884168624878,-9.303269386291504,-0.5003881454467773
1229,62900.0,2.6378116607666016,-9.294290542602539,-0.4572925269603729
1230,63000.0,2.6378116607666016,-9.294290542602539,-0.4572925269603729
1231,63100.0,2.7694928646087646,-9.26675796508789,-0.4991910457611084
1232,63200.0,2.7694928646087646,-9.26675796508789,-0.4991910457611084
1233,63300.0,2.7557260990142822,-9.241618156433104,-0.3884592354297638
1234,63400.0,2.7557260990142822,-9.241618156433104,-0.3884592354297638
1235,63500.0,2.7772738933563232,-9.249998092651367,-0.4459200799465179
1236,63600.0,2.7772738933563232,-9.249998092651367,-0.4459200799465179
1237,63700.0,2.737171173095703,-9.27334213256836,-0.4896142482757568
1238,63800.0,2.5791537761688232,-9.330802917480467,-0.3184288144111633
1239,63900.0,2.5791537761688232,-9.330802917480467,-0.3184288144111633
1240,62000.0,2.5971102714538574,-9.32421875,-0.37828385829925537
1241,62100.0,2.5971102714538574,-9.32421875,-0.37828385829925537
1242,62200.0,2.6414029598236084,-9.281123161315918,-0.3992331326007843
1243,62300.0,2.6414029598236084,-9.281123161315918,-0.3992331326007843
1244,62400.0,2.667739152908325,-9.225458145141602,-0.4788403511047363
1245,62500.0,2.667739152908325,-9.225458145141602,-0.4788403511047363
1246,62600.0,2.623446464538574,-9.280524253845217,-0.4632780253887177
1247,62700.0,2.607884168624878,-9.303269386291504,-0.5003881454467773
1248,62800.0,2.607884168624878,-9.303269386291504,-0.5003881454467773
1249,62900.0,2.6378116607666016,-9.294290542602539,-0.4572925269603729
1250,63000.0,2.6378116607666016,-9.294290542602539,-0.4572925269603729
1251,63100.0,2.7694928646087646,-9.26675796508789,-0.4991910457611084
1252,63200.0,2.7694928646087646,-9.26675796508789,-0.4991910457611084
1253,63300.0,2.7557260990142822,-9.241618156433104,-0.3884592354297638
1254,63400.0,2.7557260990142822,-9.241618156433104,-0.3884592354297638
1255,63500.0,2.7772738933563232,-9.249998092651367,-0.4459200799465179
1256,63600.0,2.7772738933563232,-9.249998092651367,-0.4459200799465179
1257,63700.0,2.737171173095703,-9.27334213256836,-0.4896142482757568
1258,63800.0,2.5791537761688232,-9.330802917480467,-0.3184288144111633
1259,63900.0,2.5791537761688232,-9.330802917480467,-0.3184288144111633
1260,64000.0,2.674323320388794,-9.231443405151367,-0.4016273319721222
1261,64100.0,2.674323320388794,-9.231443405151367,-0.4016273319721222
1262,64200.0,2.675520420074463,-9.292495727539064,-0.44412440061569214
1263,64300.0,2.675520420074463,-9.292495727539064,-0.44412440061569214
1264,64400.0,2.6408045291900635,-9.276932716369627,-0.3435679376125336
1265,64500.0,2.6408045291900635,-9.276932716369627,-0.3435679376125336
1266,64600.0,2.7036523818969727,-9.188347816467283,-0.5153518915176392
1267,64700.0,2.562394380569458,-9.323619842529297,-0.4399345517158508
1268,64800.0,2.562394380569458,-9.323619842529297,-0.4399345517158508
1269,64900.0,2.7126305103302,-9.256582260131836,-0.3471592366695404
1270,65000.0,2.7126305103302,-9.256582260131836,-0.3471592366695404
1271,65100.0,2.589329242706299,-9.336189270019533,-0.3405751883983612
1272,65200.0,2.589329242706299,-9.336189270019533,-0.3405751883983612
1273,65300.0,2.5791537761688232,-9.3427734375,-0.24001872539520264
1274,65400.0,2.5791537761688232,-9.3427734375,-0.24001872539520264
1275,65500.0,2.7742812633514404,-9.199121475219727,-0.4734533727169037
1276,65600.0,2.597708940505981,-9.300874710083008,-0.4153940081596375
1277,65700.0,2.597708940505981,-9.300874710083008,-0.4153940081596375
1278,65800.0,2.6623523235321045,-9.308655738830566,-0.33997663855552673
1279,65900.0,2.6623523235321045,-9.308655738830566,-0.33997663855552673
1280,64000.0,2.674323320388794,-9.231443405151367,-0.4016273319721222
1281,64100.0,2.674323320388794,-9.231443405151367,-0.4016273319721222
1282,64200.0,2.675520420074463,-9.292495727539064,-0.44412440061569214
1283,64300.0,2.675520420074463,-9.292495727539064,-0.44412440061569214
1284,64400.0,2.6408045291900635,-9.276932716369627,-0.3435679376125336
1285,64500.0,2.6408045291900635,-9.276932716369627,-0.3435679376125336
1286,64600.0,2.7036523818969727,-9.188347816467283,-0.5153518915176392
1287,64700.0,2.562394380569458,-9.323619842529297,-0.4399345517158508
1288,64800.0,2.562394380569458,-9.323619842529297,-0.4399345517158508
1289,64900.0,2.7126305103302,-9.256582260131836,-0.3471592366695404
1290,65000.0,2.7126305103302,-9.256582260131836,-0.3471592366695404
1291,65100.0,2.589329242706299,-9.336189270019533,-0.3405751883983612
1292,65200.0,2.589329242706299,-9.336189270019533,-0.3405751883983612
1293,65300.0,2.5791537761688232,-9.3427734375,-0.24001872539520264
1294,65400.0,2.5791537761688232,-9.3427734375,-0.24001872539520264
1295,65500.0,2.7742812633514404,-9.199121475219727,-0.4734533727169037
1296,65600.0,2.597708940505981,-9.300874710083008,-0.4153940081596375
1297,65700.0,2.597708940505981,-9.300874710083008,-0.4153940081596375
1298,65800.0,2.6623523235321045,-9.308655738830566,-0.33997663855552673
1299,65900.0,2.6623523235321045,-9.308655738830566,-0.33997663855552673
1300,66000.0,2.671330451965332,-9.245808601379396,-0.3357867896556854
1301,66100.0,2.671330451965332,-9.245808601379396,-0.3357867896556854
1302,66200.0,2.649782657623291,-9.271546363830566,-0.5734112858772278
1303,66300.0,2.649782657623291,-9.271546363830566,-0.5734112858772278
1304,66400.0,2.962226152420044,-9.201516151428224,-0.34596213698387146
1305,66500.0,2.680907249450684,-9.289502143859863,-0.2495955228805542
1306,66600.0,2.680907249450684,-9.289502143859863,-0.2495955228805542
1307,66700.0,2.6431987285614014,-9.28531265258789,-0.3447650372982025
1308,66800.0,2.6431987285614014,-9.28531265258789,-0.3447650372982025
1309,66900.0,2.655169725418091,-9.29069995880127,-0.3208230137825012
1310,67000.0,2.655169725418091,-9.29069995880127,-0.3208230137825012
1311,67100.0,2.761711597442627,-9.180566787719727,-0.4614823758602142
1312,67200.0,2.761711597442627,-9.180566787719727,-0.4614823758602142
1313,67300.0,2.850297212600708,-9.162610054016113,-0.579995334148407
1314,67400.0,2.474407434463501,-9.190741539001463,-0.5524620413780212
1315,67500.0,2.474407434463501,-9.190741539001463,-0.5524620413780212
1316,67600.0,2.7329812049865723,-9.27453899383545,-0.4004302322864533
1317,67700.0,2.7329812049865723,-9.27453899383545,-0.4004302322864533
1318,67800.0,2.732382774353028,-9.227252960205078,-0.3986345827579498
1319,67900.0,2.732382774353028,-9.227252960205078,-0.3986345827579498
1320,66000.0,2.671330451965332,-9.245808601379396,-0.3357867896556854
1321,66100.0,2.671330451965332,-9.245808601379396,-0.3357867896556854
1322,66200.0,2.649782657623291,-9.271546363830566,-0.5734112858772278
1323,66300.0,2.649782657623291,-9.271546363830566,-0.5734112858772278
1324,66400.0,2.962226152420044,-9.201516151428224,-0.34596213698387146
1325,66500.0,2.680907249450684,-9.289502143859863,-0.2495955228805542
1326,66600.0,2.680907249450684,-9.289502143859863,-0.2495955228805542
1327,66700.0,2.6431987285614014,-9.28531265258789,-0.3447650372982025
1328,66800.0,2.6431987285614014,-9.28531265258789,-0.3447650372982025
1329,66900.0,2.655169725418091,-9.29069995880127,-0.3208230137825012
1330,67000.0,2.655169725418091,-9.29069995880127,-0.3208230137825012
1331,67100.0,2.761711597442627,-9.180566787719727,-0.4614823758602142
1332,67200.0,2.761711597442627,-9.180566787719727,-0.4614823758602142
1333,67300.0,2.850297212600708,-9.162610054016113,-0.579995334148407
1334,67400.0,2.474407434463501,-9.190741539001463,-0.5524620413780212
1335,67500.0,2.474407434463501,-9.190741539001463,-0.5524620413780212
1336,67600.0,2.7329812049865723,-9.27453899383545,-0.4004302322864533
1337,67700.0,2.7329812049865723,-9.27453899383545,-0.4004302322864533
1338,67800.0,2.732382774353028,-9.227252960205078,-0.3986345827579498
1339,67900.0,2.732382774353028,-9.227252960205078,-0.3986345827579498
1340,68000.0,2.670732021331787,-9.34157657623291,-0.2992752194404602
1341,68100.0,2.670732021331787,-9.34157657623291,-0.2992752194404602
1342,68200.0,2.4791958332061768,-9.360730171203613,-0.3794809579849243
1343,68300.0,2.607884168624878,-9.278728485107422,-0.262763649225235
1344,68400.0,2.607884168624878,-9.278728485107422,-0.262763649225235
1345,68500.0,2.5995044708251958,-9.279327392578123,-0.292691171169281
1346,68600.0,2.5995044708251958,-9.279327392578123,-0.292691171169281
1347,68700.0,2.6647465229034424,-9.24640655517578,-0.3298012912273407
1348,68800.0,2.6647465229034424,-9.24640655517578,-0.3298012912273407
1349,68900.0,2.5564088821411133,-9.308655738830566,-0.304063618183136
1350,69000.0,2.5564088821411133,-9.308655738830566,-0.304063618183136
1351,69100.0,2.5145103931427,-9.324816703796387,-0.2609679996967316
1352,69200.0,2.495356798171997,-9.299078941345217,-0.34596213698387146
1353,69300.0,2.495356798171997,-9.299078941345217,-0.34596213698387146
1354,69400.0,2.5282769203186035,-9.321226119995117,-0.32022446393966675
1355,69500.0,2.5282769203186035,-9.321226119995117,-0.32022446393966675
1356,69600.0,2.5270798206329346,-9.333196640014648,-0.33099839091300964
1357,69700.0,2.5270798206329346,-9.333196640014648,-0.33099839091300964
1358,69800.0,2.448669672012329,-9.308655738830566,-0.4070142805576325
1359,69900.0,2.448669672012329,-9.308655738830566,-0.4070142805576325
1360,68000.0,2.670732021331787,-9.34157657623291,-0.2992752194404602
1361,68100.0,2.670732021331787,-9.34157657623291,-0.2992752194404602
1362,68200.0,2.4791958332061768,-9.360730171203613,-0.3794809579849243
1363,68300.0,2.607884168624878,-9.278728485107422,-0.262763649225235
1364,68400.0,2.607884168624878,-9.278728485107422,-0.262763649225235
1365,68500.0,2.5995044708251958,-9.279327392578123,-0.292691171169281
1366,68600.0,2.5995044708251958,-9.279327392578123,-0.292691171169281
1367,68700.0,2.6647465229034424,-9.24640655517578,-0.3298012912273407
1368,68800.0,2.6647465229034424,-9.24640655517578,-0.3298012912273407
1369,68900.0,2.5564088821411133,-9.308655738830566,-0.304063618183136
1370,69000.0,2.5564088821411133,-9.308655738830566,-0.304063618183136
1371,69100.0,2.5145103931427,-9.324816703796387,-0.2609679996967316
1372,69200.0,2.495356798171997,-9.299078941345217,-0.34596213698387146
1373,69300.0,2.495356798171997,-9.299078941345217,-0.34596213698387146
1374,69400.0,2.5282769203186035,-9.321226119995117,-0.32022446393966675
1375,69500.0,2.5282769203186035,-9.321226119995117,-0.32022446393966675
1376,69600.0,2.5270798206329346,-9.333196640014648,-0.33099839091300964
1377,69700.0,2.5270798206329346,-9.333196640014648,-0.33099839091300964
1378,69800.0,2.448669672012329,-9.308655738830566,-0.4070142805576325
1379,69900.0,2.448669672012329,-9.308655738830566,-0.4070142805576325
1380,70000.0,2.5109190940856934,-9.337387084960938,-0.3842693865299225
1381,70100.0,2.537853717803955,-9.277531623840332,-0.4866214990615845
1382,70200.0,2.537853717803955,-9.277531623840332,-0.4866214990615845
1383,70300.0,2.560598611831665,-9.296685218811037,-0.2358288615942001
1384,70400.0,2.560598611831665,-9.296685218811037,-0.2358288615942001
1385,70500.0,2.544437885284424,-9.301473617553713,-0.22505496442317965
1386,70600.0,2.544437885284424,-9.301473617553713,-0.22505496442317965
1387,70700.0,2.5336639881134038,-9.33499240875244,-0.20709845423698425
1388,70800.0,2.5336639881134038,-9.33499240875244,-0.20709845423698425
1389,70900.0,2.4905683994293213,-9.393052101135254,-0.10115502029657364
1390,71000.0,2.386420488357544,-9.388861656188963,-0.2777273952960968
1391,71100.0,2.386420488357544,-9.388861656188963,-0.2777273952960968
1392,71200.0,2.306813240051269,-9.4014310836792,-0.198120191693306
1393,71300.0,2.306813240051269,-9.4014310836792,-0.198120191693306
1394,71400.0,2.3977930545806885,-9.320627212524414,-0.4327519536018372
1395,71500.0,2.3977930545806885,-9.320627212524414,-0.4327519536018372
1396,71600.0,2.3469161987304688,-9.363722801208496,-0.32261869311332697
1397,71700.0,2.3469161987304688,-9.363722801208496,-0.32261869311332697
1398,71800.0,2.363077163696289,-9.34816074371338,-0.2555810213088989
1399,71900.0,2.2475569248199463,-9.373299598693848,-0.2298433631658554
1400,70000.0,2.5109190940856934,-9.337387084960938,-0.3842693865299225
1401,70100.0,2.537853717803955,-9.277531623840332,-0.4866214990615845
1402,70200.0,2.537853717803955,-9.277531623840332,-0.4866214990615845
1403,70300.0,2.560598611831665,-9.296685218811037,-0.2358288615942001
1404,70400.0,2.560598611831665,-9.296685218811037,-0.2358288615942001
1405,70500.0,2.544437885284424,-9.301473617553713,-0.22505496442317965
1406,70600.0,2.544437885284424,-9.301473617553713,-0.22505496442317965
1407,70700.0,2.5336639881134038,-9.33499240875244,-0.20709845423698425
1408,70800.0,2.5336639881134038,-9.33499240875244,-0.20709845423698425
1409,70900.0,2.4905683994293213,-9.393052101135254,-0.10115502029657364
1410,71000.0,2.386420488357544,-9.388861656188963,-0.2777273952960968
1411,71100.0,2.386420488357544,-9.388861656188963,-0.2777273952960968
1412,71200.0,2.306813240051269,-9.4014310836792,-0.198120191693306
1413,71300.0,2.306813240051269,-9.4014310836792,-0.198120191693306
1414,71400.0,2.3977930545806885,-9.320627212524414,-0.4327519536018372
1415,71500.0,2.3977930545806885,-9.320627212524414,-0.4327519536018372
1416,71600.0,2.3469161987304688,-9.363722801208496,-0.32261869311332697
1417,71700.0,2.3469161987304688,-9.363722801208496,-0.32261869311332697
1418,71800.0,2.363077163696289,-9.34816074371338,-0.2555810213088989
1419,71900.0,2.2475569248199463,-9.373299598693848,-0.2298433631658554
1420,72000.0,2.2475569248199463,-9.373299598693848,-0.2298433631658554
1421,72100.0,2.318784236907959,-9.367314338684082,-0.12449848651885985
1422,72200.0,2.318784236907959,-9.367314338684082,-0.12449848651885985
1423,72300.0,2.145204782485962,-9.404424667358398,-0.21966800093650815
1424,72400.0,2.145204782485962,-9.404424667358398,-0.21966800093650815
1425,72500.0,2.321777105331421,-9.363722801208496,-0.21428105235099792
1426,72600.0,2.321777105331421,-9.363722801208496,-0.21428105235099792
1427,72700.0,2.240972757339477,-9.414599418640137,-0.2274491637945175
1428,72800.0,2.325368404388428,-9.361329078674316,-0.3292027413845062
1429,72900.0,2.325368404388428,-9.361329078674316,-0.3292027413845062
1430,73000.0,2.3810336589813232,-9.320627212524414,-0.32261869311332697
1431,73100.0,2.3810336589813232,-9.320627212524414,-0.32261869311332697
1432,73200.0,2.4468741416931152,-9.315239906311037,-0.34596213698387146
1433,73300.0,2.4468741416931152,-9.315239906311037,-0.34596213698387146
1434,73400.0,2.674323320388794,-9.30686092376709,-0.4022258818149567
1435,73500.0,2.674323320388794,-9.30686092376709,-0.4022258818149567
1436,73600.0,2.485181331634521,-9.360730171203613,-0.4118026793003082
1437,73700.0,2.538452386856079,-9.297882080078123,-0.3531447649002075
1438,73800.0,2.538452386856079,-9.297882080078123,-0.3531447649002075
1439,73900.0,2.6533739566802983,-9.258976936340332,-0.4710591733455658
1440,72000.0,2.2475569248199463,-9.373299598693848,-0.2298433631658554
1441,72100.0,2.318784236907959,-9.367314338684082,-0.12449848651885985
1442,72200.0,2.318784236907959,-9.367314338684082,-0.12449848651885985
1443,72300.0,2.145204782485962,-9.404424667358398,-0.21966800093650815
1444,72400.0,2.145204782485962,-9.404424667358398,-0.21966800093650815
1445,72500.0,2.321777105331421,-9.363722801208496,-0.21428105235099792
1446,72600.0,2.321777105331421,-9.363722801208496,-0.21428105235099792
1447,72700.0,2.240972757339477,-9.414599418640137,-0.2274491637945175
1448,72800.0,2.325368404388428,-9.361329078674316,-0.3292027413845062
1449,72900.0,2.325368404388428,-9.361329078674316,-0.3292027413845062
1450,73000.0,2.3810336589813232,-9.320627212524414,-0.32261869311332697
1451,73100.0,2.3810336589813232,-9.320627212524414,-0.32261869311332697
1452,73200.0,2.4468741416931152,-9.315239906311037,-0.34596213698387146
1453,73300.0,2.4468741416931152,-9.315239906311037,-0.34596213698387146
1454,73400.0,2.674323320388794,-9.30686092376709,-0.4022258818149567
1455,73500.0,2.674323320388794,-9.30686092376709,-0.4022258818149567
1456,73600.0,2.485181331634521,-9.360730171203613,-0.4118026793003082
1457,73700.0,2.538452386856079,-9.297882080078123,-0.3531447649002075
1458,73800.0,2.538452386856079,-9.297882080078123,-0.3531447649002075
1459,73900.0,2.6533739566802983,-9.258976936340332,-0.4710591733455658
1460,74000.0,2.6533739566802983,-9.258976936340332,-0.4710591733455658
1461,74100.0,2.7688941955566406,-9.222464561462402,-0.4854243993759155
1462,74200.0,2.7688941955566406,-9.222464561462402,-0.4854243993759155
1463,74300.0,2.691082715988159,-9.241618156433104,-0.4537012279033661
1464,74400.0,2.691082715988159,-9.241618156433104,-0.4537012279033661
1465,74500.0,2.874837636947632,-9.374496459960938,-0.4554968774318695
1466,74600.0,2.650381326675415,-9.255983352661133,-0.6075286865234375
1467,74700.0,2.650381326675415,-9.255983352661133,-0.6075286865234375
1468,74800.0,2.695871114730835,-9.275735855102539,-0.5309142470359802
1469,74900.0,2.695871114730835,-9.275735855102539,-0.5309142470359802
1470,75000.0,2.483385801315308,-9.178771018981934,-0.4854243993759155
1471,75100.0,2.483385801315308,-9.178771018981934,-0.4854243993759155
1472,75200.0,2.714426279067993,-9.163806915283203,-0.4608838260173798
1473,75300.0,2.714426279067993,-9.163806915283203,-0.4608838260173798
1474,75400.0,2.7449522018432617,-9.147047996520996,-0.5321113467216492
1475,75500.0,2.7766754627227783,-9.263765335083008,-0.5464765429496765
1476,75600.0,2.7766754627227783,-9.263765335083008,-0.5464765429496765
1477,75700.0,2.917933225631714,-9.173982620239258,-0.4118026793003082
1478,75800.0,2.917933225631714,-9.173982620239258,-0.4118026793003082
1479,75900.0,2.8329391479492188,-9.287108421325684,-0.4608838260173798
1480,74000.0,2.6533739566802983,-9.258976936340332,-0.4710591733455658
1481,74100.0,2.7688941955566406,-9.222464561462402,-0.4854243993759155
1482,74200.0,2.7688941955566406,-9.222464561462402,-0.4854243993759155
1483,74300.0,2.691082715988159,-9.241618156433104,-0.4537012279033661
1484,74400.0,2.691082715988159,-9.241618156433104,-0.4537012279033661
1485,74500.0,2.874837636947632,-9.374496459960938,-0.4554968774318695
1486,74600.0,2.650381326675415,-9.255983352661133,-0.6075286865234375
1487,74700.0,2.650381326675415,-9.255983352661133,-0.6075286865234375
1488,74800.0,2.695871114730835,-9.275735855102539,-0.5309142470359802
1489,74900.0,2.695871114730835,-9.275735855102539,-0.5309142470359802
1490,75000.0,2.483385801315308,-9.178771018981934,-0.4854243993759155
1491,75100.0,2.483385801315308,-9.178771018981934,-0.4854243993759155
1492,75200.0,2.714426279067993,-9.163806915283203,-0.4608838260173798
1493,75300.0,2.714426279067993,-9.163806915283203,-0.4608838260173798
1494,75400.0,2.7449522018432617,-9.147047996520996,-0.5321113467216492
1495,75500.0,2.7766754627227783,-9.263765335083008,-0.5464765429496765
1496,75600.0,2.7766754627227783,-9.263765335083008,-0.5464765429496765
1497,75700.0,2.917933225631714,-9.173982620239258,-0.4118026793003082
1498,75800.0,2.917933225631714,-9.173982620239258,-0.4118026793003082
1499,75900.0,2.8329391479492188,-9.287108421325684,-0.4608838260173798
1500,76000.0,2.8329391479492188,-9.287108421325684,-0.4608838260173798
1501,76100.0,2.8604724407196045,-9.214683532714844,-0.4135983288288117
1502,76200.0,2.8604724407196045,-9.214683532714844,-0.4135983288288117
1503,76300.0,2.7240030765533447,-9.223063468933104,-0.33339259028434753
1504,76400.0,2.7515363693237305,-9.21588134765625,-0.4806360006332398
1505,76500.0,2.7515363693237305,-9.21588134765625,-0.4806360006332398
1506,76600.0,2.4552538394927983,-9.337985038757324,-0.34656068682670593
1507,76700.0,2.4552538394927983,-9.337985038757324,-0.34656068682670593
1508,76800.0,2.7030537128448486,-9.290101051330566,-0.4896142482757568
1509,76900.0,2.7030537128448486,-9.290101051330566,-0.4896142482757568
1510,77000.0,2.648585557937622,-9.192537307739258,-0.5859808921813965
1511,77100.0,2.648585557937622,-9.192537307739258,-0.5859808921813965
1512,77200.0,2.736572504043579,-9.212289810180664,-0.5602431893348694
1513,77300.0,2.540846586227417,-9.335591316223145,-0.4979939460754394
1514,77400.0,2.540846586227417,-9.335591316223145,-0.4979939460754394
1515,77500.0,2.5773582458496094,-9.285911560058594,-0.27473464608192444
1516,77600.0,2.5773582458496094,-9.285911560058594,-0.27473464608192444
1517,77700.0,2.783858060836792,-9.26675796508789,0.06703764945268631
1518,77800.0,2.783858060836792,-9.26675796508789,0.06703764945268631
1519,77900.0,2.718017578125,-9.213486671447754,-0.5895721912384033
1520,76000.0,2.8329391479492188,-9.287108421325684,-0.4608838260173798
1521,76100.0,2.8604724407196045,-9.214683532714844,-0.4135983288288117
1522,76200.0,2.8604724407196045,-9.214683532714844,-0.4135983288288117
1523,76300.0,2.7240030765533447,-9.223063468933104,-0.33339259028434753
1524,76400.0,2.7515363693237305,-9.21588134765625,-0.4806360006332398
1525,76500.0,2.7515363693237305,-9.21588134765625,-0.4806360006332398
1526,76600.0,2.4552538394927983,-9.337985038757324,-0.34656068682670593
1527,76700.0,2.4552538394927983,-9.337985038757324,-0.34656068682670593
1528,76800.0,2.7030537128448486,-9.290101051330566,-0.4896142482757568
1529,76900.0,2.7030537128448486,-9.290101051330566,-0.4896142482757568
1530,77000.0,2.648585557937622,-9.192537307739258,-0.5859808921813965
1531,77100.0,2.648585557937622,-9.192537307739258,-0.5859808921813965
1532,77200.0,2.736572504043579,-9.212289810180664,-0.5602431893348694
1533,77300.0,2.540846586227417,-9.335591316223145,-0.4979939460754394
1534,77400.0,2.540846586227417,-9.335591316223145,-0.4979939460754394
1535,77500.0,2.5773582458496094,-9.285911560058594,-0.27473464608192444
1536,77600.0,2.5773582458496094,-9.285911560058594,-0.27473464608192444
1537,77700.0,2.783858060836792,-9.26675796508789,0.06703764945268631
1538,77800.0,2.783858060836792,-9.26675796508789,0.06703764945268631
1539,77900.0,2.718017578125,-9.213486671447754,-0.5895721912384033
1540,78000.0,2.718017578125,-9.213486671447754,-0.5895721912384033
1541,78100.0,2.540247917175293,-9.282918930053713,-0.4351461529731751
1542,78200.0,2.5049335956573486,-9.308655738830566,-0.3675099611282349
1543,78300.0,2.5049335956573486,-9.308655738830566,-0.3675099611282349
1544,78400.0,2.4791958332061768,-9.367912292480467,-0.3968389332294464
1545,78500.0,2.4791958332061768,-9.367912292480467,-0.3968389332294464
1546,78600.0,2.5803508758544917,-9.293692588806152,-0.3681085109710693
1547,78700.0,2.5803508758544917,-9.293692588806152,-0.3681085109710693
1548,78800.0,2.759916067123413,-9.233837127685547,-0.3621230125427246
1549,78900.0,2.759916067123413,-9.233837127685547,-0.3621230125427246
1550,79000.0,2.492962598800659,-9.260173797607422,-0.4812345504760742
1551,79100.0,2.520495891571045,-9.272144317626953,-0.3010708689689636
1552,79200.0,2.520495891571045,-9.272144317626953,-0.3010708689689636
1553,79300.0,2.5995044708251958,-9.239823341369627,-0.4542997777462006
1554,79400.0,2.5995044708251958,-9.239823341369627,-0.4542997777462006
1555,79500.0,2.8419175148010254,-9.226655006408693,-0.3124433159828186
1556,79600.0,2.8419175148010254,-9.226655006408693,-0.3124433159828186
1557,79700.0,2.406172752380371,-9.420584678649902,-0.4471171796321869
1558,79800.0,2.406172752380371,-9.420584678649902,-0.4471171796321869
1559,79900.0,2.85448694229126,-9.123106002807617,-0.646434485912323
1560,78000.0,2.718017578125,-9.213486671447754,-0.5895721912384033
1561,78100.0,2.540247917175293,-9.282918930053713,-0.4351461529731751
1562,78200.0,2.5049335956573486,-9.308655738830566,-0.3675099611282349
1563,78300.0,2.5049335956573486,-9.308655738830566,-0.3675099611282349
1564,78400.0,2.4791958332061768,-9.367912292480467,-0.3968389332294464
1565,78500.0,2.4791958332061768,-9.367912292480467,-0.3968389332294464
1566,78600.0,2.5803508758544917,-9.293692588806152,-0.3681085109710693
1567,78700.0,2.5803508758544917,-9.293692588806152,-0.3681085109710693
1568,78800.0,2.759916067123413,-9.233837127685547,-0.3621230125427246
1569,78900.0,2.759916067123413,-9.233837127685547,-0.3621230125427246
1570,79000.0,2.492962598800659,-9.260173797607422,-0.4812345504760742
1571,79100.0,2.520495891571045,-9.272144317626953,-0.3010708689689636
1572,79200.0,2.520495891571045,-9.272144317626953,-0.3010708689689636
1573,79300.0,2.5995044708251958,-9.239823341369627,-0.4542997777462006
1574,79400.0,2.5995044708251958,-9.239823341369627,-0.4542997777462006
1575,79500.0,2.8419175148010254,-9.226655006408693,-0.3124433159828186
1576,79600.0,2.8419175148010254,-9.226655006408693,-0.3124433159828186
1577,79700.0,2.406172752380371,-9.420584678649902,-0.4471171796321869
1578,79800.0,2.406172752380371,-9.420584678649902,-0.4471171796321869
1579,79900.0,2.85448694229126,-9.123106002807617,-0.646434485912323
1580,80000.0,2.930502891540528,-9.320028305053713,-0.30047231912612915
1581,80100.0,2.930502891540528,-9.320028305053713,-0.30047231912612915
1582,80200.0,2.2918496131896973,-9.534309387207033,-0.1562216579914093
1583,80300.0,2.2918496131896973,-9.534309387207033,-0.1562216579914093
1584,80400.0,2.5761611461639404,-9.182960510253906,-0.5033808946609497
1585,80500.0,2.5761611461639404,-9.182960510253906,-0.5033808946609497
1586,80600.0,2.7527334690093994,-9.27334213256836,-0.7553706169128418
1587,80700.0,2.7527334690093994,-9.27334213256836,-0.7553706169128418
1588,80800.0,2.5582044124603267,-9.287108421325684,-0.7098808288574219
1589,80900.0,2.8221652507781982,-9.188945770263672,-0.7122750282287598
1590,81000.0,2.8221652507781982,-9.188945770263672,-0.7122750282287598
1591,81100.0,2.7114334106445317,-9.271546363830566,-0.6733692288398743
1592,81200.0,2.7114334106445317,-9.271546363830566,-0.6733692288398743
1593,81300.0,2.516305923461914,-9.33199977874756,-0.6949170231819153
1594,81400.0,2.516305923461914,-9.33199977874756,-0.6949170231819153
1595,81500.0,2.5965118408203125,-9.269750595092773,-0.8391677141189575
1596,81600.0,2.5965118408203125,-9.269750595092773,-0.8391677141189575
1597,81700.0,2.800018787384033,-9.275136947631836,-0.9026140570640564
1598,81800.0,2.671929121017456,-9.255983352661133,-0.7314286231994629
1599,81900.0,2.671929121017456,-9.255983352661133,-0.7314286231994629
1600,80000.0,2.930502891540528,-9.320028305053713,-0.30047231912612915
1601,80100.0,2.930502891540528,-9.320028305053713,-0.30047231912612915
1602,80200.0,2.2918496131896973,-9.534309387207033,-0.1562216579914093
1603,80300.0,2.2918496131896973,-9.534309387207033,-0.1562216579914093
1604,80400.0,2.5761611461639404,-9.182960510253906,-0.5033808946609497
1605,80500.0,2.5761611461639404,-9.182960510253906,-0.5033808946609497
1606,80600.0,2.7527334690093994,-9.27334213256836,-0.7553706169128418
1607,80700.0,2.7527334690093994,-9.27334213256836,-0.7553706169128418
1608,80800.0,2.5582044124603267,-9.287108421325684,-0.7098808288574219
1609,80900.0,2.8221652507781982,-9.188945770263672,-0.7122750282287598
1610,81000.0,2.8221652507781982,-9.188945770263672,-0.7122750282287598
1611,81100.0,2.7114334106445317,-9.271546363830566,-0.6733692288398743
1612,81200.0,2.7114334106445317,-9.271546363830566,-0.6733692288398743
1613,81300.0,2.516305923461914,-9.33199977874756,-0.6949170231819153
1614,81400.0,2.516305923461914,-9.33199977874756,-0.6949170231819153
1615,81500.0,2.5965118408203125,-9.269750595092773,-0.8391677141189575
1616,81600.0,2.5965118408203125,-9.269750595092773,-0.8391677141189575
1617,81700.0,2.800018787384033,-9.275136947631836,-0.9026140570640564
1618,81800.0,2.671929121017456,-9.255983352661133,-0.7314286231994629
1619,81900.0,2.671929121017456,-9.255983352661133,-0.7314286231994629
1620,82000.0,2.4175450801849365,-9.32541561126709,-0.5225345492362976
1621,82100.0,2.4175450801849365,-9.32541561126709,-0.5225345492362976
1622,82200.0,2.677914619445801,-9.27453899383545,-0.4644751250743866
1623,82300.0,2.677914619445801,-9.27453899383545,-0.4644751250743866
1624,82400.0,2.588730573654175,-9.30386734008789,-0.2825157940387726
1625,82500.0,2.588730573654175,-9.30386734008789,-0.2825157940387726
1626,82600.0,2.6533739566802983,-9.285911560058594,-0.4100070297718048
1627,82700.0,2.5540146827697754,-9.294889450073242,-0.405218631029129
1628,82800.0,2.5540146827697754,-9.294889450073242,-0.405218631029129
1629,82900.0,2.674323320388794,-9.276334762573242,-0.4680664241313934
1630,83000.0,2.674323320388794,-9.276334762573242,-0.4680664241313934
1631,83100.0,2.5546131134033203,-9.2841157913208,-0.42437225580215454
1632,83200.0,2.5546131134033203,-9.2841157913208,-0.42437225580215454
1633,83300.0,2.6533739566802983,-9.239823341369627,-0.5740098357200623
1634,83400.0,2.6533739566802983,-9.239823341369627,-0.5740098357200623
1635,83500.0,2.479794502258301,-9.460687637329102,-0.3495534360408783
1636,83600.0,2.479794502258301,-9.460687637329102,-0.3495534360408783
1637,83700.0,2.3965959548950195,-9.309853553771973,-0.4255693554878235
1638,83800.0,2.452261209487915,-9.3026704788208,-0.669179379940033
1639,83900.0,2.452261209487915,-9.3026704788208,-0.669179379940033
1640,82000.0,2.4175450801849365,-9.32541561126709,-0.5225345492362976
1641,82100.0,2.4175450801849365,-9.32541561126709,-0.5225345492362976
1642,82200.0,2.677914619445801,-9.27453899383545,-0.4644751250743866
1643,82300.0,2.677914619445801,-9.27453899383545,-0.4644751250743866
1644,82400.0,2.588730573654175,-9.30386734008789,-0.2825157940387726
1645,82500.0,2.588730573654175,-9.30386734008789,-0.2825157940387726
1646,82600.0,2.6533739566802983,-9.285911560058594,-0.4100070297718048
1647,82700.0,2.5540146827697754,-9.294889450073242,-0.405218631029129
1648,82800.0,2.5540146827697754,-9.294889450073242,-0.405218631029129
1649,82900.0,2.674323320388794,-9.276334762573242,-0.4680664241313934
1650,83000.0,2.674323320388794,-9.276334762573242,-0.4680664241313934
1651,83100.0,2.5546131134033203,-9.2841157913208,-0.42437225580215454
1652,83200.0,2.5546131134033203,-9.2841157913208,-0.42437225580215454
1653,83300.0,2.6533739566802983,-9.239823341369627,-0.5740098357200623
1654,83400.0,2.6533739566802983,-9.239823341369627,-0.5740098357200623
1655,83500.0,2.479794502258301,-9.460687637329102,-0.3495534360408783
1656,83600.0,2.479794502258301,-9.460687637329102,-0.3495534360408783
1657,83700.0,2.3965959548950195,-9.309853553771973,-0.4255693554878235
1658,83800.0,2.452261209487915,-9.3026704788208,-0.669179379940033
1659,83900.0,2.452261209487915,-9.3026704788208,-0.669179379940033
1660,84000.0,2.4803929328918457,-9.324816703796387,-0.6757634282112122
1661,84100.0,2.4803929328918457,-9.324816703796387,-0.6757634282112122
1662,84200.0,2.1080946922302246,-9.37629222869873,-0.6206967830657959
1663,84300.0,2.1080946922302246,-9.37629222869873,-0.6206967830657959
1664,84400.0,2.425326347351074,-9.288305282592773,-0.5829881429672241
1665,84500.0,2.425326347351074,-9.288305282592773,-0.5829881429672241
1666,84600.0,2.291250944137573,-9.346963882446287,-0.5333084464073181
1667,84700.0,2.3564929962158203,-9.342175483703613,-0.405218631029129
1668,84800.0,2.3564929962158203,-9.342175483703613,-0.405218631029129
1669,84900.0,2.448669672012329,-9.34037971496582,-0.4423287510871887
1670,85000.0,2.448669672012329,-9.34037971496582,-0.4423287510871887
1671,85100.0,2.3349452018737797,-9.373299598693848,-0.2825157940387726
1672,85200.0,2.3349452018737797,-9.373299598693848,-0.2825157940387726
1673,85300.0,2.7072436809539795,-9.285911560058594,-0.5973533391952515
1674,85400.0,2.7072436809539795,-9.285911560058594,-0.5973533391952515
1675,85500.0,2.1942858695983887,-9.431957244873047,-0.2358288615942001
1676,85600.0,2.2613234519958496,-9.38048267364502,-0.6218938827514648
1677,85700.0,2.2613234519958496,-9.38048267364502,-0.6218938827514648
1678,85800.0,2.1116859912872314,-9.442132949829102,-0.3034650683403015
1679,85900.0,2.1116859912872314,-9.442132949829102,-0.3034650683403015
1680,84000.0,2.4803929328918457,-9.324816703796387,-0.6757634282112122
1681,84100.0,2.4803929328918457,-9.324816703796387,-0.6757634282112122
1682,84200.0,2.1080946922302246,-9.37629222869873,-0.6206967830657959
1683,84300.0,2.1080946922302246,-9.37629222869873,-0.6206967830657959
1684,84400.0,2.425326347351074,-9.288305282592773,-0.5829881429672241
1685,84500.0,2.425326347351074,-9.288305282592773,-0.5829881429672241
1686,84600.0,2.291250944137573,-9.346963882446287,-0.5333084464073181
1687,84700.0,2.3564929962158203,-9.342175483703613,-0.405218631029129
1688,84800.0,2.3564929962158203,-9.342175483703613,-0.405218631029129
1689,84900.0,2.448669672012329,-9.34037971496582,-0.4423287510871887
1690,85000.0,2.448669672012329,-9.34037971496582,-0.4423287510871887
1691,85100.0,2.3349452018737797,-9.373299598693848,-0.2825157940387726
1692,85200.0,2.3349452018737797,-9.373299598693848,-0.2825157940387726
1693,85300.0,2.7072436809539795,-9.285911560058594,-0.5973533391952515
1694,85400.0,2.7072436809539795,-9.285911560058594,-0.5973533391952515
1695,85500.0,2.1942858695983887,-9.431957244873047,-0.2358288615942001
1696,85600.0,2.2613234519958496,-9.38048267364502,-0.6218938827514648
1697,85700.0,2.2613234519958496,-9.38048267364502,-0.6218938827514648
1698,85800.0,2.1116859912872314,-9.442132949829102,-0.3034650683403015
1699,85900.0,2.1116859912872314,-9.442132949829102,-0.3034650683403015
1700,86000.0,2.363675594329834,-9.331400871276855,-0.547075092792511
1701,86100.0,2.363675594329834,-9.331400871276855,-0.547075092792511
1702,86200.0,2.3570916652679443,-9.369110107421877,-0.667982280254364
1703,86300.0,2.3570916652679443,-9.369110107421877,-0.667982280254364
1704,86400.0,2.448669672012329,-9.342175483703613,-0.586579442024231
1705,86500.0,2.406771183013916,-9.226056098937988,-0.465073674917221
1706,86600.0,2.406771183013916,-9.226056098937988,-0.465073674917221
1707,86700.0,2.677914619445801,-9.278130531311037,-0.5219359993934631
1708,86800.0,2.677914619445801,-9.278130531311037,-0.5219359993934631
1709,86900.0,2.352901697158813,-9.35055446624756,-0.2555810213088989
1710,87000.0,2.352901697158813,-9.35055446624756,-0.2555810213088989
1711,87100.0,2.439092874526977,-9.30925464630127,-0.38367083668708796
1712,87200.0,2.439092874526977,-9.30925464630127,-0.38367083668708796
1713,87300.0,2.3271639347076416,-9.33499240875244,-0.3603273630142212
1714,87400.0,2.557007312774658,-9.307458877563477,-0.3992331326007843
1715,87500.0,2.557007312774658,-9.307458877563477,-0.3992331326007843
1716,87600.0,2.430713176727295,-9.385869026184082,-0.4016273319721222
1717,87700.0,2.430713176727295,-9.385869026184082,-0.4016273319721222
1718,87800.0,2.3343467712402344,-9.361329078674316,-0.36511576175689703
1719,87900.0,2.3343467712402344,-9.361329078674316,-0.36511576175689703
1720,86000.0,2.363675594329834,-9.331400871276855,-0.547075092792511
1721,86100.0,2.363675594329834,-9.331400871276855,-0.547075092792511
1722,86200.0,2.3570916652679443,-9.369110107421877,-0.667982280254364
1723,86300.0,2.3570916652679443,-9.369110107421877,-0.667982280254364
1724,86400.0,2.448669672012329,-9.342175483703613,-0.586579442024231
1725,86500.0,2.406771183013916,-9.226056098937988,-0.465073674917221
