,timestamp,ax,ay,az
0,7000.0,-0.4163511395454407,6.340980052947997,-7.357929229736327
1,7100.0,-0.4163511395454407,6.340980052947997,-7.357929229736327
2,7200.0,-0.4163511395454407,6.340980052947997,-7.357929229736327
3,7300.0,-0.4163511395454407,6.340980052947997,-7.357929229736327
4,7400.0,-0.41156551241874695,6.293124198913574,-7.458428382873535
5,7500.0,-0.41156551241874695,6.293124198913574,-7.458428382873535
6,7600.0,-0.4211367666721344,6.32662296295166,-7.39142894744873
7,7700.0,-0.4211367666721344,6.32662296295166,-7.39142894744873
8,7800.0,-0.4211367666721344,6.32662296295166,-7.39142894744873
9,7900.0,-0.4450649619102478,6.252446174621582,-7.381857395172119
10,8000.0,-0.4450649619102478,6.252446174621582,-7.381857395172119
11,8100.0,-0.3780659735202789,6.32662296295166,-7.39142894744873
12,8200.0,-0.3780659735202789,6.32662296295166,-7.39142894744873
13,8300.0,-0.3780659735202789,6.32662296295166,-7.39142894744873
14,8400.0,-0.430708110332489,6.309873104095459,-7.412964344024657
15,8500.0,-0.430708110332489,6.309873104095459,-7.412964344024657
16,8600.0,-0.3828516006469727,6.32662296295166,-7.432106971740723
17,8700.0,-0.3828516006469727,6.32662296295166,-7.432106971740723
18,8800.0,-0.4259224236011505,6.33380126953125,-7.456035614013673
19,8900.0,-0.4259224236011505,6.33380126953125,-7.456035614013673
20,9000.0,-0.4259224236011505,6.33380126953125,-7.456035614013673
21,9100.0,-0.3828516006469727,6.362515449523926,-7.465606689453125
22,9200.0,-0.3828516006469727,6.362515449523926,-7.465606689453125
23,9300.0,-0.3445664942264557,6.309873104095459,-7.427321434020996
24,9400.0,-0.3445664942264557,6.309873104095459,-7.427321434020996
25,9500.0,-0.397208571434021,6.331408977508545,-7.401000499725343
26,9600.0,-0.397208571434021,6.331408977508545,-7.401000499725343
27,9700.0,-0.3828516006469727,6.32662296295166,-7.372286796569824
28,9800.0,-0.3828516006469727,6.32662296295166,-7.372286796569824
29,9900.0,-0.3828516006469727,6.32662296295166,-7.372286796569824
30,8500.0,-0.430708110332489,6.309873104095459,-7.412964344024657
31,8600.0,-0.3828516006469727,6.32662296295166,-7.432106971740723
32,8700.0,-0.3828516006469727,6.32662296295166,-7.432106971740723
33,8800.0,-0.4259224236011505,6.33380126953125,-7.456035614013673
34,8900.0,-0.4259224236011505,6.33380126953125,-7.456035614013673
35,9000.0,-0.4259224236011505,6.33380126953125,-7.456035614013673
36,9100.0,-0.3828516006469727,6.362515449523926,-7.465606689453125
37,9200.0,-0.3828516006469727,6.362515449523926,-7.465606689453125
38,9300.0,-0.3445664942264557,6.309873104095459,-7.427321434020996
39,9400.0,-0.3445664942264557,6.309873104095459,-7.427321434020996
40,9500.0,-0.397208571434021,6.331408977508545,-7.401000499725343
41,9600.0,-0.397208571434021,6.331408977508545,-7.401000499725343
42,9700.0,-0.3828516006469727,6.32662296295166,-7.372286796569824
43,9800.0,-0.3828516006469727,6.32662296295166,-7.372286796569824
44,9900.0,-0.3828516006469727,6.32662296295166,-7.372286796569824
45,10000.0,-0.4019941985607147,6.3290162086486825,-7.331608772277832
46,10100.0,-0.4019941985607147,6.3290162086486825,-7.331608772277832
47,10200.0,-0.4067798554897308,6.379265785217285,-7.401000499725343
48,10300.0,-0.4067798554897308,6.379265785217285,-7.401000499725343
49,10400.0,-0.3493521213531494,6.345765590667725,-7.401000499725343
50,10500.0,-0.3493521213531494,6.345765590667725,-7.401000499725343
51,10600.0,-0.3493521213531494,6.345765590667725,-7.401000499725343
52,10700.0,-0.397208571434021,6.372087001800537,-7.448856830596924
53,10800.0,-0.397208571434021,6.372087001800537,-7.448856830596924
54,10900.0,-0.4067798554897308,6.331408977508545,-7.39142894744873
55,11000.0,-0.4067798554897308,6.331408977508545,-7.39142894744873
56,11100.0,-0.4067798554897308,6.331408977508545,-7.39142894744873
57,11200.0,-0.4929214715957642,6.314659118652344,-7.41535758972168
58,11300.0,-0.4929214715957642,6.314659118652344,-7.41535758972168
59,11400.0,-0.3732803165912628,6.285945415496826,-7.420143127441406
60,10000.0,-0.4019941985607147,6.3290162086486825,-7.331608772277832
61,10100.0,-0.4019941985607147,6.3290162086486825,-7.331608772277832
62,10200.0,-0.4067798554897308,6.379265785217285,-7.401000499725343
63,10300.0,-0.4067798554897308,6.379265785217285,-7.401000499725343
64,10400.0,-0.3493521213531494,6.345765590667725,-7.401000499725343
65,10500.0,-0.3493521213531494,6.345765590667725,-7.401000499725343
66,10600.0,-0.3493521213531494,6.345765590667725,-7.401000499725343
67,10700.0,-0.397208571434021,6.372087001800537,-7.448856830596924
68,10800.0,-0.397208571434021,6.372087001800537,-7.448856830596924
69,10900.0,-0.4067798554897308,6.331408977508545,-7.39142894744873
70,11000.0,-0.4067798554897308,6.331408977508545,-7.39142894744873
71,11100.0,-0.4067798554897308,6.331408977508545,-7.39142894744873
72,11200.0,-0.4929214715957642,6.314659118652344,-7.41535758972168
73,11300.0,-0.4929214715957642,6.314659118652344,-7.41535758972168
74,11400.0,-0.3732803165912628,6.285945415496826,-7.420143127441406
75,11500.0,-0.3732803165912628,6.285945415496826,-7.420143127441406
76,11600.0,-0.41156551241874695,6.300302028656006,-7.446464061737059
77,11700.0,-0.41156551241874695,6.300302028656006,-7.446464061737059
78,11800.0,-0.41156551241874695,6.300302028656006,-7.446464061737059
79,11900.0,-0.35892340540885925,6.259624004364014,-7.3531436920166025
80,12000.0,-0.35892340540885925,6.259624004364014,-7.3531436920166025
81,12100.0,-0.35892340540885925,6.312265872955322,-7.472784996032715
82,12200.0,-0.35892340540885925,6.312265872955322,-7.472784996032715
83,12300.0,-0.35413774847984314,6.2500529289245605,-7.463213920593263
84,12400.0,-0.35413774847984314,6.2500529289245605,-7.463213920593263
85,12500.0,-0.35413774847984314,6.2500529289245605,-7.463213920593263
86,12600.0,-0.36370906233787537,6.240481376647949,-7.465606689453125
87,12700.0,-0.36370906233787537,6.240481376647949,-7.465606689453125
88,12800.0,-0.3924228847026825,6.340980052947997,-7.508677005767822
89,12900.0,-0.3924228847026825,6.340980052947997,-7.508677005767822
90,11500.0,-0.3732803165912628,6.285945415496826,-7.420143127441406
91,11600.0,-0.41156551241874695,6.300302028656006,-7.446464061737059
92,11700.0,-0.41156551241874695,6.300302028656006,-7.446464061737059
93,11800.0,-0.41156551241874695,6.300302028656006,-7.446464061737059
94,11900.0,-0.35892340540885925,6.259624004364014,-7.3531436920166025
95,12000.0,-0.35892340540885925,6.259624004364014,-7.3531436920166025
96,12100.0,-0.35892340540885925,6.312265872955322,-7.472784996032715
97,12200.0,-0.35892340540885925,6.312265872955322,-7.472784996032715
98,12300.0,-0.35413774847984314,6.2500529289245605,-7.463213920593263
99,12400.0,-0.35413774847984314,6.2500529289245605,-7.463213920593263
100,12500.0,-0.35413774847984314,6.2500529289245605,-7.463213920593263
101,12600.0,-0.36370906233787537,6.240481376647949,-7.465606689453125
102,12700.0,-0.36370906233787537,6.240481376647949,-7.465606689453125
103,12800.0,-0.3924228847026825,6.340980052947997,-7.508677005767822
104,12900.0,-0.3924228847026825,6.340980052947997,-7.508677005767822
105,13000.0,-0.5120640397071838,6.063412666320801,-7.357929229736327
106,13100.0,-0.5120640397071838,6.063412666320801,-7.357929229736327
107,13200.0,-0.4450649619102478,6.206982612609862,-7.472784996032715
108,13300.0,-0.4450649619102478,6.206982612609862,-7.472784996032715
109,13400.0,-0.4450649619102478,6.206982612609862,-7.472784996032715
110,13500.0,-0.4498506784439087,6.386443614959718,-7.539783954620361
111,13600.0,-0.4498506784439087,6.386443614959718,-7.539783954620361
112,13700.0,-0.5838487148284912,6.9272212982177725,-7.659425258636475
113,13800.0,-0.5838487148284912,6.9272212982177725,-7.659425258636475
114,13900.0,-1.8233308792114256,6.845865249633789,-5.2115678787231445
115,14000.0,-1.8233308792114256,6.845865249633789,-5.2115678787231445
116,14100.0,-1.8233308792114256,6.845865249633789,-5.2115678787231445
117,14200.0,-2.335394859313965,8.152346611022951,-4.599005222320557
118,14300.0,-2.335394859313965,8.152346611022951,-4.599005222320557
119,14400.0,-1.0001999139785769,6.2500529289245605,-7.542177200317383
120,13000.0,-0.5120640397071838,6.063412666320801,-7.357929229736327
121,13100.0,-0.5120640397071838,6.063412666320801,-7.357929229736327
122,13200.0,-0.4450649619102478,6.206982612609862,-7.472784996032715
123,13300.0,-0.4450649619102478,6.206982612609862,-7.472784996032715
124,13400.0,-0.4450649619102478,6.206982612609862,-7.472784996032715
125,13500.0,-0.4498506784439087,6.386443614959718,-7.539783954620361
126,13600.0,-0.4498506784439087,6.386443614959718,-7.539783954620361
127,13700.0,-0.5838487148284912,6.9272212982177725,-7.659425258636475
128,13800.0,-0.5838487148284912,6.9272212982177725,-7.659425258636475
129,13900.0,-1.8233308792114256,6.845865249633789,-5.2115678787231445
130,14000.0,-1.8233308792114256,6.845865249633789,-5.2115678787231445
131,14100.0,-1.8233308792114256,6.845865249633789,-5.2115678787231445
132,14200.0,-2.335394859313965,8.152346611022951,-4.599005222320557
133,14300.0,-2.335394859313965,8.152346611022951,-4.599005222320557
134,14400.0,-1.0001999139785769,6.2500529289245605,-7.542177200317383
135,14500.0,-1.0001999139785769,6.2500529289245605,-7.542177200317383
136,14600.0,-1.0001999139785769,6.2500529289245605,-7.542177200317383
137,14700.0,-0.3445664942264557,6.963113307952881,-6.853044033050537
138,14800.0,-0.3445664942264557,6.963113307952881,-6.853044033050537
139,14900.0,-0.30149564146995544,6.027520179748535,-7.489534854888916
140,15000.0,-0.30149564146995544,6.027520179748535,-7.489534854888916
141,15100.0,-1.2681961059570312,6.034698486328125,-7.2670021057128915
142,15200.0,-1.2681961059570312,6.034698486328125,-7.2670021057128915
143,15300.0,-0.5838487148284912,7.200003147125244,-6.9320068359375
144,15400.0,-0.5838487148284912,7.200003147125244,-6.9320068359375
145,15500.0,-0.5838487148284912,7.200003147125244,-6.9320068359375
146,15600.0,-0.7082754969596863,7.503891944885254,-5.580062389373778
147,15700.0,-0.7082754969596863,7.503891944885254,-5.580062389373778
148,15800.0,-0.3780659735202789,7.121039390563965,-6.429513931274414
149,15900.0,-0.3780659735202789,7.121039390563965,-6.429513931274414
150,14500.0,-1.0001999139785769,6.2500529289245605,-7.542177200317383
151,14600.0,-1.0001999139785769,6.2500529289245605,-7.542177200317383
152,14700.0,-0.3445664942264557,6.963113307952881,-6.853044033050537
153,14800.0,-0.3445664942264557,6.963113307952881,-6.853044033050537
154,14900.0,-0.30149564146995544,6.027520179748535,-7.489534854888916
155,15000.0,-0.30149564146995544,6.027520179748535,-7.489534854888916
156,15100.0,-1.2681961059570312,6.034698486328125,-7.2670021057128915
157,15200.0,-1.2681961059570312,6.034698486328125,-7.2670021057128915
158,15300.0,-0.5838487148284912,7.200003147125244,-6.9320068359375
159,15400.0,-0.5838487148284912,7.200003147125244,-6.9320068359375
160,15500.0,-0.5838487148284912,7.200003147125244,-6.9320068359375
161,15600.0,-0.7082754969596863,7.503891944885254,-5.580062389373778
162,15700.0,-0.7082754969596863,7.503891944885254,-5.580062389373778
163,15800.0,-0.3780659735202789,7.121039390563965,-6.429513931274414
164,15900.0,-0.3780659735202789,7.121039390563965,-6.429513931274414
165,16000.0,-0.12921242415905002,8.035098075866701,-6.142375946044923
166,16100.0,-0.12921242415905002,8.035098075866701,-6.142375946044923
167,16200.0,-0.12921242415905002,8.035098075866701,-6.142375946044923
168,16300.0,-0.3254238963127136,8.255237579345701,-4.374079704284668
169,16400.0,-0.3254238963127136,8.255237579345701,-4.374079704284668
170,16500.0,-0.12921242415905002,8.894121170043945,-3.876372575759888
171,16600.0,-0.12921242415905002,8.894121170043945,-3.876372575759888
172,16700.0,-0.04307081177830696,8.941977500915527,-3.919443368911743
173,16800.0,-0.04307081177830696,8.941977500915527,-3.919443368911743
174,16900.0,-0.14835500717163086,8.965906143188477,-3.929014682769776
175,17000.0,-0.14835500717163086,8.965906143188477,-3.929014682769776
176,17100.0,-0.14835500717163086,8.965906143188477,-3.929014682769776
177,17200.0,-0.07657032459974289,8.896513938903809,-3.749552965164185
178,17300.0,-0.07657032459974289,8.896513938903809,-3.749552965164185
179,17400.0,-0.12442677468061447,9.044869422912598,-3.780659914016724
180,16000.0,-0.12921242415905002,8.035098075866701,-6.142375946044923
181,16100.0,-0.12921242415905002,8.035098075866701,-6.142375946044923
182,16200.0,-0.12921242415905002,8.035098075866701,-6.142375946044923
183,16300.0,-0.3254238963127136,8.255237579345701,-4.374079704284668
184,16400.0,-0.3254238963127136,8.255237579345701,-4.374079704284668
185,16500.0,-0.12921242415905002,8.894121170043945,-3.876372575759888
186,16600.0,-0.12921242415905002,8.894121170043945,-3.876372575759888
187,16700.0,-0.04307081177830696,8.941977500915527,-3.919443368911743
188,16800.0,-0.04307081177830696,8.941977500915527,-3.919443368911743
189,16900.0,-0.14835500717163086,8.965906143188477,-3.929014682769776
190,17000.0,-0.14835500717163086,8.965906143188477,-3.929014682769776
191,17100.0,-0.14835500717163086,8.965906143188477,-3.929014682769776
192,17200.0,-0.07657032459974289,8.896513938903809,-3.749552965164185
193,17300.0,-0.07657032459974289,8.896513938903809,-3.749552965164185
194,17400.0,-0.12442677468061447,9.044869422912598,-3.780659914016724
195,17500.0,-0.12442677468061447,9.044869422912598,-3.780659914016724
196,17600.0,-0.12442677468061447,9.044869422912598,-3.780659914016724
197,17700.0,-0.12442677468061447,8.999405860900879,-3.7710886001586914
198,17800.0,-0.12442677468061447,8.999405860900879,-3.7710886001586914
199,17900.0,-0.1579262912273407,8.98265552520752,-3.7351961135864262
200,18000.0,-0.1579262912273407,8.98265552520752,-3.7351961135864262
201,18100.0,-0.19621144235134125,9.14297580718994,-3.775874137878418
202,18200.0,-0.19621144235134125,9.14297580718994,-3.775874137878418
203,18300.0,-0.19621144235134125,9.14297580718994,-3.775874137878418
204,18400.0,-0.17706887423992154,8.915657043457031,-3.929014682769776
205,18500.0,-0.17706887423992154,8.915657043457031,-3.929014682769776
206,18600.0,-0.22013968229293826,8.973085403442383,-3.871586799621582
207,18700.0,-0.22013968229293826,8.973085403442383,-3.871586799621582
208,18800.0,-0.2105683833360672,8.980262756347656,-3.943371772766113
209,18900.0,-0.2105683833360672,8.980262756347656,-3.943371772766113
210,17500.0,-0.12442677468061447,9.044869422912598,-3.780659914016724
211,17600.0,-0.12442677468061447,9.044869422912598,-3.780659914016724
212,17700.0,-0.12442677468061447,8.999405860900879,-3.7710886001586914
213,17800.0,-0.12442677468061447,8.999405860900879,-3.7710886001586914
214,17900.0,-0.1579262912273407,8.98265552520752,-3.7351961135864262
215,18000.0,-0.1579262912273407,8.98265552520752,-3.7351961135864262
216,18100.0,-0.19621144235134125,9.14297580718994,-3.775874137878418
217,18200.0,-0.19621144235134125,9.14297580718994,-3.775874137878418
218,18300.0,-0.19621144235134125,9.14297580718994,-3.775874137878418
219,18400.0,-0.17706887423992154,8.915657043457031,-3.929014682769776
220,18500.0,-0.17706887423992154,8.915657043457031,-3.929014682769776
221,18600.0,-0.22013968229293826,8.973085403442383,-3.871586799621582
222,18700.0,-0.22013968229293826,8.973085403442383,-3.871586799621582
223,18800.0,-0.2105683833360672,8.980262756347656,-3.943371772766113
224,18900.0,-0.2105683833360672,8.980262756347656,-3.943371772766113
225,19000.0,-0.2105683833360672,8.980262756347656,-3.943371772766113
226,19100.0,-0.19142580032348636,9.008977890014648,-3.919443368911743
227,19200.0,-0.19142580032348636,9.008977890014648,-3.919443368911743
228,19300.0,-0.1627119481563568,9.044869422912598,-3.893122434616089
229,19400.0,-0.1627119481563568,9.044869422912598,-3.893122434616089
230,19500.0,-0.2105683833360672,9.006584167480469,-4.036691665649413
231,19600.0,-0.2105683833360672,9.006584167480469,-4.036691665649413
232,19700.0,-0.2105683833360672,9.006584167480469,-4.036691665649413
233,19800.0,-0.19142580032348636,8.903693199157715,-3.9529430866241455
234,19900.0,-0.19142580032348636,8.903693199157715,-3.9529430866241455
235,20000.0,-0.12921242415905002,9.03290557861328,-3.996013641357422
236,20100.0,-0.12921242415905002,9.03290557861328,-3.996013641357422
237,20200.0,-0.12921242415905002,9.03290557861328,-3.996013641357422
238,20300.0,-0.15314064919948578,8.970691680908203,-3.976871252059937
239,20400.0,-0.15314064919948578,8.970691680908203,-3.976871252059937
240,19000.0,-0.2105683833360672,8.980262756347656,-3.943371772766113
241,19100.0,-0.19142580032348636,9.008977890014648,-3.919443368911743
242,19200.0,-0.19142580032348636,9.008977890014648,-3.919443368911743
243,19300.0,-0.1627119481563568,9.044869422912598,-3.893122434616089
244,19400.0,-0.1627119481563568,9.044869422912598,-3.893122434616089
245,19500.0,-0.2105683833360672,9.006584167480469,-4.036691665649413
246,19600.0,-0.2105683833360672,9.006584167480469,-4.036691665649413
247,19700.0,-0.2105683833360672,9.006584167480469,-4.036691665649413
248,19800.0,-0.19142580032348636,8.903693199157715,-3.9529430866241455
249,19900.0,-0.19142580032348636,8.903693199157715,-3.9529430866241455
250,20000.0,-0.12921242415905002,9.03290557861328,-3.996013641357422
251,20100.0,-0.12921242415905002,9.03290557861328,-3.996013641357422
252,20200.0,-0.12921242415905002,9.03290557861328,-3.996013641357422
253,20300.0,-0.15314064919948578,8.970691680908203,-3.976871252059937
254,20400.0,-0.15314064919948578,8.970691680908203,-3.976871252059937
255,20500.0,-0.08614162355661392,8.958727836608887,-3.964907169342041
256,20600.0,-0.08614162355661392,8.958727836608887,-3.964907169342041
257,20700.0,-0.04307081177830696,8.997013092041016,-3.962514162063599
258,20800.0,-0.04307081177830696,8.997013092041016,-3.962514162063599
259,20900.0,-0.07178468257188797,8.997013092041016,-3.8668015003204346
260,21000.0,-0.07178468257188797,8.997013092041016,-3.8668015003204346
261,21100.0,-0.07178468257188797,8.997013092041016,-3.8668015003204346
262,21200.0,-0.02392822504043579,8.97787094116211,-3.814159393310547
263,21300.0,-0.02392822504043579,8.97787094116211,-3.814159393310547
264,21400.0,-0.09092726558446884,8.968299865722656,-3.811766624450684
265,21500.0,-0.09092726558446884,8.968299865722656,-3.811766624450684
266,21600.0,-0.057427741587162025,9.078369140625,-3.871586799621582
267,21700.0,-0.057427741587162025,9.078369140625,-3.871586799621582
268,21800.0,-0.057427741587162025,9.078369140625,-3.871586799621582
269,21900.0,-0.057427741587162025,9.049654960632324,-3.936193227767944
270,20500.0,-0.08614162355661392,8.958727836608887,-3.964907169342041
271,20600.0,-0.08614162355661392,8.958727836608887,-3.964907169342041
272,20700.0,-0.04307081177830696,8.997013092041016,-3.962514162063599
273,20800.0,-0.04307081177830696,8.997013092041016,-3.962514162063599
274,20900.0,-0.07178468257188797,8.997013092041016,-3.8668015003204346
275,21000.0,-0.07178468257188797,8.997013092041016,-3.8668015003204346
276,21100.0,-0.07178468257188797,8.997013092041016,-3.8668015003204346
277,21200.0,-0.02392822504043579,8.97787094116211,-3.814159393310547
278,21300.0,-0.02392822504043579,8.97787094116211,-3.814159393310547
279,21400.0,-0.09092726558446884,8.968299865722656,-3.811766624450684
280,21500.0,-0.09092726558446884,8.968299865722656,-3.811766624450684
281,21600.0,-0.057427741587162025,9.078369140625,-3.871586799621582
282,21700.0,-0.057427741587162025,9.078369140625,-3.871586799621582
283,21800.0,-0.057427741587162025,9.078369140625,-3.871586799621582
284,21900.0,-0.057427741587162025,9.049654960632324,-3.936193227767944
285,22000.0,-0.057427741587162025,9.049654960632324,-3.936193227767944
286,22100.0,-0.07178468257188797,8.96112060546875,-3.9146575927734375
287,22200.0,-0.07178468257188797,8.96112060546875,-3.9146575927734375
288,22300.0,-0.057427741587162025,9.001798629760742,-3.8213374614715576
289,22400.0,-0.057427741587162025,9.001798629760742,-3.8213374614715576
290,22500.0,-0.057427741587162025,9.001798629760742,-3.8213374614715576
291,22600.0,-0.04307081177830696,8.963513374328613,-3.924229145050049
292,22700.0,-0.04307081177830696,8.963513374328613,-3.924229145050049
293,22800.0,-0.0047856452874839315,8.980262756347656,-3.8668015003204346
294,22900.0,-0.0047856452874839315,8.980262756347656,-3.8668015003204346
295,23000.0,0.00957129057496786,8.963513374328613,-3.893122434616089
296,23100.0,0.00957129057496786,8.963513374328613,-3.893122434616089
297,23200.0,0.00957129057496786,8.963513374328613,-3.893122434616089
298,23300.0,-0.00957129057496786,9.004191398620605,-3.936193227767944
299,23400.0,-0.00957129057496786,9.004191398620605,-3.936193227767944
300,22000.0,-0.057427741587162025,9.049654960632324,-3.936193227767944
301,22100.0,-0.07178468257188797,8.96112060546875,-3.9146575927734375
302,22200.0,-0.07178468257188797,8.96112060546875,-3.9146575927734375
303,22300.0,-0.057427741587162025,9.001798629760742,-3.8213374614715576
304,22400.0,-0.057427741587162025,9.001798629760742,-3.8213374614715576
305,22500.0,-0.057427741587162025,9.001798629760742,-3.8213374614715576
306,22600.0,-0.04307081177830696,8.963513374328613,-3.924229145050049
307,22700.0,-0.04307081177830696,8.963513374328613,-3.924229145050049
308,22800.0,-0.0047856452874839315,8.980262756347656,-3.8668015003204346
309,22900.0,-0.0047856452874839315,8.980262756347656,-3.8668015003204346
310,23000.0,0.00957129057496786,8.963513374328613,-3.893122434616089
311,23100.0,0.00957129057496786,8.963513374328613,-3.893122434616089
312,23200.0,0.00957129057496786,8.963513374328613,-3.893122434616089
313,23300.0,-0.00957129057496786,9.004191398620605,-3.936193227767944
314,23400.0,-0.00957129057496786,9.004191398620605,-3.936193227767944
315,23500.0,-0.01914258114993572,8.992227554321289,-3.873979806900024
316,23600.0,-0.01914258114993572,8.992227554321289,-3.873979806900024
317,23700.0,-0.014356935396790503,8.975478172302246,-3.9146575927734375
318,23800.0,-0.014356935396790503,8.975478172302246,-3.9146575927734375
319,23900.0,-0.014356935396790503,8.975478172302246,-3.9146575927734375
320,24000.0,-0.07657032459974289,8.956335067749023,-3.88594388961792
321,24100.0,-0.07657032459974289,8.956335067749023,-3.88594388961792
322,24200.0,-0.08614162355661392,8.997013092041016,-3.871586799621582
323,24300.0,-0.08614162355661392,8.997013092041016,-3.871586799621582
324,24400.0,-0.08614162355661392,8.997013092041016,-3.871586799621582
325,24500.0,-0.09571290016174316,8.9850492477417,-3.8955152034759517
326,24600.0,-0.09571290016174316,8.9850492477417,-3.8955152034759517
327,24700.0,0.00957129057496786,9.001798629760742,-3.8668015003204346
328,24800.0,0.00957129057496786,9.001798629760742,-3.8668015003204346
329,24900.0,-0.10049854964017868,9.006584167480469,-3.964907169342041
330,23500.0,-0.01914258114993572,8.992227554321289,-3.873979806900024
331,23600.0,-0.01914258114993572,8.992227554321289,-3.873979806900024
332,23700.0,-0.014356935396790503,8.975478172302246,-3.9146575927734375
333,23800.0,-0.014356935396790503,8.975478172302246,-3.9146575927734375
334,23900.0,-0.014356935396790503,8.975478172302246,-3.9146575927734375
335,24000.0,-0.07657032459974289,8.956335067749023,-3.88594388961792
336,24100.0,-0.07657032459974289,8.956335067749023,-3.88594388961792
337,24200.0,-0.08614162355661392,8.997013092041016,-3.871586799621582
338,24300.0,-0.08614162355661392,8.997013092041016,-3.871586799621582
339,24400.0,-0.08614162355661392,8.997013092041016,-3.871586799621582
340,24500.0,-0.09571290016174316,8.9850492477417,-3.8955152034759517
341,24600.0,-0.09571290016174316,8.9850492477417,-3.8955152034759517
342,24700.0,0.00957129057496786,9.001798629760742,-3.8668015003204346
343,24800.0,0.00957129057496786,9.001798629760742,-3.8668015003204346
344,24900.0,-0.10049854964017868,9.006584167480469,-3.964907169342041
345,25000.0,-0.10049854964017868,9.006584167480469,-3.964907169342041
346,25100.0,-0.10049854964017868,9.006584167480469,-3.964907169342041
347,25200.0,-0.028713870793581012,9.06401252746582,-3.905086755752564
348,25300.0,-0.028713870793581012,9.06401252746582,-3.905086755752564
349,25400.0,-0.03828516229987145,8.980262756347656,-3.862015962600708
350,25500.0,-0.03828516229987145,8.980262756347656,-3.862015962600708
351,25600.0,0.014356935396790503,9.037691116333008,-3.9146575927734375
352,25700.0,0.014356935396790503,9.037691116333008,-3.9146575927734375
353,25800.0,0.014356935396790503,9.037691116333008,-3.9146575927734375
354,25900.0,0.02392822504043579,8.968299865722656,-3.876372575759888
355,26000.0,0.02392822504043579,8.968299865722656,-3.876372575759888
356,26100.0,-0.028713870793581012,9.006584167480469,-3.869194030761719
357,26200.0,-0.028713870793581012,9.006584167480469,-3.869194030761719
358,26300.0,-0.028713870793581012,9.006584167480469,-3.869194030761719
359,26400.0,-0.014356935396790503,8.997013092041016,-3.902693748474121
360,25000.0,-0.10049854964017868,9.006584167480469,-3.964907169342041
361,25100.0,-0.10049854964017868,9.006584167480469,-3.964907169342041
362,25200.0,-0.028713870793581012,9.06401252746582,-3.905086755752564
363,25300.0,-0.028713870793581012,9.06401252746582,-3.905086755752564
364,25400.0,-0.03828516229987145,8.980262756347656,-3.862015962600708
365,25500.0,-0.03828516229987145,8.980262756347656,-3.862015962600708
366,25600.0,0.014356935396790503,9.037691116333008,-3.9146575927734375
367,25700.0,0.014356935396790503,9.037691116333008,-3.9146575927734375
368,25800.0,0.014356935396790503,9.037691116333008,-3.9146575927734375
369,25900.0,0.02392822504043579,8.968299865722656,-3.876372575759888
370,26000.0,0.02392822504043579,8.968299865722656,-3.876372575759888
371,26100.0,-0.028713870793581012,9.006584167480469,-3.869194030761719
372,26200.0,-0.028713870793581012,9.006584167480469,-3.869194030761719
373,26300.0,-0.028713870793581012,9.006584167480469,-3.869194030761719
374,26400.0,-0.014356935396790503,8.997013092041016,-3.902693748474121
375,26500.0,-0.014356935396790503,8.997013092041016,-3.902693748474121
376,26600.0,-0.057427741587162025,8.975478172302246,-3.945764780044556
377,26700.0,-0.057427741587162025,8.975478172302246,-3.945764780044556
378,26800.0,-0.08614162355661392,9.025726318359377,-3.87876558303833
379,26900.0,-0.08614162355661392,9.025726318359377,-3.87876558303833
380,27000.0,-0.08614162355661392,9.025726318359377,-3.87876558303833
381,27100.0,-0.07657032459974289,9.028119087219238,-3.948157548904419
382,27200.0,-0.07657032459974289,9.028119087219238,-3.948157548904419
383,27300.0,-0.014356935396790503,8.992227554321289,-3.919443368911743
384,27400.0,-0.014356935396790503,8.992227554321289,-3.919443368911743
385,27500.0,-0.014356935396790503,8.992227554321289,-3.919443368911743
386,27600.0,-0.09092726558446884,8.965906143188477,-3.8979082107543945
387,27700.0,-0.09092726558446884,8.965906143188477,-3.8979082107543945
388,27800.0,-0.07657032459974289,8.980262756347656,-3.924229145050049
389,27900.0,-0.07657032459974289,8.980262756347656,-3.924229145050049
390,26500.0,-0.014356935396790503,8.997013092041016,-3.902693748474121
391,26600.0,-0.057427741587162025,8.975478172302246,-3.945764780044556
392,26700.0,-0.057427741587162025,8.975478172302246,-3.945764780044556
393,26800.0,-0.08614162355661392,9.025726318359377,-3.87876558303833
394,26900.0,-0.08614162355661392,9.025726318359377,-3.87876558303833
395,27000.0,-0.08614162355661392,9.025726318359377,-3.87876558303833
396,27100.0,-0.07657032459974289,9.028119087219238,-3.948157548904419
397,27200.0,-0.07657032459974289,9.028119087219238,-3.948157548904419
398,27300.0,-0.014356935396790503,8.992227554321289,-3.919443368911743
399,27400.0,-0.014356935396790503,8.992227554321289,-3.919443368911743
400,27500.0,-0.014356935396790503,8.992227554321289,-3.919443368911743
401,27600.0,-0.09092726558446884,8.965906143188477,-3.8979082107543945
402,27700.0,-0.09092726558446884,8.965906143188477,-3.8979082107543945
403,27800.0,-0.07657032459974289,8.980262756347656,-3.924229145050049
404,27900.0,-0.07657032459974289,8.980262756347656,-3.924229145050049
405,28000.0,-0.057427741587162025,8.970691680908203,-3.94097900390625
406,28100.0,-0.057427741587162025,8.970691680908203,-3.94097900390625
407,28200.0,-0.057427741587162025,8.970691680908203,-3.94097900390625
408,28300.0,-0.04307081177830696,8.963513374328613,-3.842873096466065
409,28400.0,-0.04307081177830696,8.963513374328613,-3.842873096466065
410,28500.0,-0.028713870793581012,8.9850492477417,-3.8500516414642334
411,28600.0,-0.028713870793581012,8.9850492477417,-3.8500516414642334
412,28700.0,-0.028713870793581012,8.9850492477417,-3.8500516414642334
413,28800.0,-0.0047856452874839315,9.018548011779783,-3.8548374176025386
414,28900.0,-0.0047856452874839315,9.018548011779783,-3.8548374176025386
415,29000.0,-0.028713870793581012,8.997013092041016,-3.842873096466065
416,29100.0,-0.028713870793581012,8.997013092041016,-3.842873096466065
417,29200.0,-0.014356935396790503,9.052047729492188,-3.840480089187622
418,29300.0,-0.014356935396790503,9.052047729492188,-3.840480089187622
419,29400.0,-0.02392822504043579,9.016156196594238,-3.8356947898864746
420,28000.0,-0.057427741587162025,8.970691680908203,-3.94097900390625
421,28100.0,-0.057427741587162025,8.970691680908203,-3.94097900390625
422,28200.0,-0.057427741587162025,8.970691680908203,-3.94097900390625
423,28300.0,-0.04307081177830696,8.963513374328613,-3.842873096466065
424,28400.0,-0.04307081177830696,8.963513374328613,-3.842873096466065
425,28500.0,-0.028713870793581012,8.9850492477417,-3.8500516414642334
426,28600.0,-0.028713870793581012,8.9850492477417,-3.8500516414642334
427,28700.0,-0.028713870793581012,8.9850492477417,-3.8500516414642334
428,28800.0,-0.0047856452874839315,9.018548011779783,-3.8548374176025386
429,28900.0,-0.0047856452874839315,9.018548011779783,-3.8548374176025386
430,29000.0,-0.028713870793581012,8.997013092041016,-3.842873096466065
431,29100.0,-0.028713870793581012,8.997013092041016,-3.842873096466065
432,29200.0,-0.014356935396790503,9.052047729492188,-3.840480089187622
433,29300.0,-0.014356935396790503,9.052047729492188,-3.840480089187622
434,29400.0,-0.02392822504043579,9.016156196594238,-3.8356947898864746
435,29500.0,-0.02392822504043579,9.016156196594238,-3.8356947898864746
436,29600.0,-0.02392822504043579,9.016156196594238,-3.8356947898864746
437,29700.0,-0.01914258114993572,9.008977890014648,-3.888336658477783
438,29800.0,-0.01914258114993572,9.008977890014648,-3.888336658477783
439,29900.0,-0.09571290016174316,8.94676399230957,-3.8835511207580566
440,30000.0,-0.09571290016174316,8.94676399230957,-3.8835511207580566
441,30100.0,-0.04785645008087158,9.083154678344727,-3.869194030761719
442,30200.0,-0.04785645008087158,9.083154678344727,-3.869194030761719
443,30300.0,-0.00957129057496786,9.044869422912598,-3.81655216217041
444,30400.0,-0.00957129057496786,9.044869422912598,-3.81655216217041
445,30500.0,-0.00957129057496786,9.044869422912598,-3.81655216217041
446,30600.0,-0.062213387340307236,8.997013092041016,-3.8835511207580566
447,30700.0,-0.062213387340307236,8.997013092041016,-3.8835511207580566
448,30800.0,-0.028713870793581012,9.037691116333008,-3.8548374176025386
449,30900.0,-0.028713870793581012,9.037691116333008,-3.8548374176025386
450,29500.0,-0.02392822504043579,9.016156196594238,-3.8356947898864746
451,29600.0,-0.02392822504043579,9.016156196594238,-3.8356947898864746
452,29700.0,-0.01914258114993572,9.008977890014648,-3.888336658477783
453,29800.0,-0.01914258114993572,9.008977890014648,-3.888336658477783
454,29900.0,-0.09571290016174316,8.94676399230957,-3.8835511207580566
455,30000.0,-0.09571290016174316,8.94676399230957,-3.8835511207580566
456,30100.0,-0.04785645008087158,9.083154678344727,-3.869194030761719
457,30200.0,-0.04785645008087158,9.083154678344727,-3.869194030761719
458,30300.0,-0.00957129057496786,9.044869422912598,-3.81655216217041
459,30400.0,-0.00957129057496786,9.044869422912598,-3.81655216217041
460,30500.0,-0.00957129057496786,9.044869422912598,-3.81655216217041
461,30600.0,-0.062213387340307236,8.997013092041016,-3.8835511207580566
462,30700.0,-0.062213387340307236,8.997013092041016,-3.8835511207580566
463,30800.0,-0.028713870793581012,9.037691116333008,-3.8548374176025386
464,30900.0,-0.028713870793581012,9.037691116333008,-3.8548374176025386
465,31000.0,0.03828516229987145,8.999405860900879,-3.847658634185791
466,31100.0,0.03828516229987145,8.999405860900879,-3.847658634185791
467,31200.0,0.03828516229987145,8.999405860900879,-3.847658634185791
468,31300.0,-0.014356935396790503,9.001798629760742,-3.804587841033936
469,31400.0,-0.014356935396790503,9.001798629760742,-3.804587841033936
470,31500.0,0.00957129057496786,9.040083885192873,-3.828516006469727
471,31600.0,0.00957129057496786,9.040083885192873,-3.828516006469727
472,31700.0,0.03828516229987145,8.987441062927246,-3.8261232376098633
473,31800.0,0.03828516229987145,8.987441062927246,-3.8261232376098633
474,31900.0,-0.03828516229987145,9.044869422912598,-3.876372575759888
475,32000.0,-0.03828516229987145,9.044869422912598,-3.876372575759888
476,32100.0,-0.03828516229987145,9.044869422912598,-3.876372575759888
477,32200.0,-0.0047856452874839315,9.018548011779783,-3.876372575759888
478,32300.0,-0.0047856452874839315,9.018548011779783,-3.876372575759888
479,32400.0,0.0047856452874839315,9.035298347473145,-3.8356947898864746
480,31000.0,0.03828516229987145,8.999405860900879,-3.847658634185791
481,31100.0,0.03828516229987145,8.999405860900879,-3.847658634185791
482,31200.0,0.03828516229987145,8.999405860900879,-3.847658634185791
483,31300.0,-0.014356935396790503,9.001798629760742,-3.804587841033936
484,31400.0,-0.014356935396790503,9.001798629760742,-3.804587841033936
485,31500.0,0.00957129057496786,9.040083885192873,-3.828516006469727
486,31600.0,0.00957129057496786,9.040083885192873,-3.828516006469727
487,31700.0,0.03828516229987145,8.987441062927246,-3.8261232376098633
488,31800.0,0.03828516229987145,8.987441062927246,-3.8261232376098633
489,31900.0,-0.03828516229987145,9.044869422912598,-3.876372575759888
490,32000.0,-0.03828516229987145,9.044869422912598,-3.876372575759888
491,32100.0,-0.03828516229987145,9.044869422912598,-3.876372575759888
492,32200.0,-0.0047856452874839315,9.018548011779783,-3.876372575759888
493,32300.0,-0.0047856452874839315,9.018548011779783,-3.876372575759888
494,32400.0,0.0047856452874839315,9.035298347473145,-3.8356947898864746
495,32500.0,0.0047856452874839315,9.035298347473145,-3.8356947898864746
496,32600.0,-0.01914258114993572,8.941977500915527,-3.869194030761719
497,32700.0,-0.01914258114993572,8.941977500915527,-3.869194030761719
498,32800.0,-0.0047856452874839315,9.061619758605957,-3.8356947898864746
499,32900.0,-0.0047856452874839315,9.061619758605957,-3.8356947898864746
500,33000.0,-0.0047856452874839315,9.061619758605957,-3.8356947898864746
501,33100.0,-0.00957129057496786,9.008977890014648,-3.8596229553222656
502,33200.0,-0.00957129057496786,9.008977890014648,-3.8596229553222656
503,33300.0,0.02392822504043579,9.040083885192873,-3.828516006469727
504,33400.0,0.02392822504043579,9.040083885192873,-3.828516006469727
505,33500.0,-0.00957129057496786,8.970691680908203,-3.754338502883911
506,33600.0,-0.00957129057496786,8.970691680908203,-3.754338502883911
507,33700.0,0.028713870793581012,9.06879711151123,-3.809373617172241
508,33800.0,0.028713870793581012,9.06879711151123,-3.809373617172241
509,33900.0,0.033499516546726234,9.016156196594238,-3.785445213317871
510,32500.0,0.0047856452874839315,9.035298347473145,-3.8356947898864746
511,32600.0,-0.01914258114993572,8.941977500915527,-3.869194030761719
512,32700.0,-0.01914258114993572,8.941977500915527,-3.869194030761719
513,32800.0,-0.0047856452874839315,9.061619758605957,-3.8356947898864746
514,32900.0,-0.0047856452874839315,9.061619758605957,-3.8356947898864746
515,33000.0,-0.0047856452874839315,9.061619758605957,-3.8356947898864746
516,33100.0,-0.00957129057496786,9.008977890014648,-3.8596229553222656
517,33200.0,-0.00957129057496786,9.008977890014648,-3.8596229553222656
518,33300.0,0.02392822504043579,9.040083885192873,-3.828516006469727
519,33400.0,0.02392822504043579,9.040083885192873,-3.828516006469727
520,33500.0,-0.00957129057496786,8.970691680908203,-3.754338502883911
521,33600.0,-0.00957129057496786,8.970691680908203,-3.754338502883911
522,33700.0,0.028713870793581012,9.06879711151123,-3.809373617172241
523,33800.0,0.028713870793581012,9.06879711151123,-3.809373617172241
524,33900.0,0.033499516546726234,9.016156196594238,-3.785445213317871
525,34000.0,0.033499516546726234,9.016156196594238,-3.785445213317871
526,34100.0,0.033499516546726234,9.016156196594238,-3.785445213317871
527,34200.0,0.033499516546726234,9.030512809753418,-3.802195072174072
528,34300.0,0.033499516546726234,9.030512809753418,-3.802195072174072
529,34400.0,0.02392822504043579,9.028119087219238,-3.8261232376098633
530,34500.0,0.02392822504043579,9.028119087219238,-3.8261232376098633
531,34600.0,0.02392822504043579,9.028119087219238,-3.8261232376098633
532,34700.0,0.028713870793581012,9.011369705200195,-3.8213374614715576
533,34800.0,0.028713870793581012,9.011369705200195,-3.8213374614715576
534,34900.0,-0.014356935396790503,9.028119087219238,-3.7663028240203857
535,35000.0,-0.014356935396790503,9.028119087219238,-3.7663028240203857
536,35100.0,0.01914258114993572,9.097511291503906,-3.7782666683197017
537,35200.0,0.01914258114993572,9.097511291503906,-3.7782666683197017
538,35300.0,0.01914258114993572,9.097511291503906,-3.7782666683197017
539,35400.0,0.0047856452874839315,9.044869422912598,-3.802195072174072
540,34000.0,0.033499516546726234,9.016156196594238,-3.785445213317871
541,34100.0,0.033499516546726234,9.016156196594238,-3.785445213317871
542,34200.0,0.033499516546726234,9.030512809753418,-3.802195072174072
543,34300.0,0.033499516546726234,9.030512809753418,-3.802195072174072
544,34400.0,0.02392822504043579,9.028119087219238,-3.8261232376098633
545,34500.0,0.02392822504043579,9.028119087219238,-3.8261232376098633
546,34600.0,0.02392822504043579,9.028119087219238,-3.8261232376098633
547,34700.0,0.028713870793581012,9.011369705200195,-3.8213374614715576
548,34800.0,0.028713870793581012,9.011369705200195,-3.8213374614715576
549,34900.0,-0.014356935396790503,9.028119087219238,-3.7663028240203857
550,35000.0,-0.014356935396790503,9.028119087219238,-3.7663028240203857
551,35100.0,0.01914258114993572,9.097511291503906,-3.7782666683197017
552,35200.0,0.01914258114993572,9.097511291503906,-3.7782666683197017
553,35300.0,0.01914258114993572,9.097511291503906,-3.7782666683197017
554,35400.0,0.0047856452874839315,9.044869422912598,-3.802195072174072
555,35500.0,0.0047856452874839315,9.044869422912598,-3.802195072174072
556,35600.0,0.0047856452874839315,8.889336585998535,-3.876372575759888
557,35700.0,0.0047856452874839315,8.889336585998535,-3.876372575759888
558,35800.0,-0.028713870793581012,8.666803359985353,-3.9505498409271236
559,35900.0,-0.028713870793581012,8.666803359985353,-3.9505498409271236
560,36000.0,-0.028713870793581012,8.666803359985353,-3.9505498409271236
561,36100.0,0.057427741587162025,8.530412673950195,-4.3405799865722665
562,36200.0,0.057427741587162025,8.530412673950195,-4.3405799865722665
563,36300.0,0.19142580032348636,8.599804878234862,-5.218745708465576
564,36400.0,0.19142580032348636,8.599804878234862,-5.218745708465576
565,36500.0,0.033499516546726234,7.2670021057128915,-6.458228588104247
566,36600.0,0.033499516546726234,7.2670021057128915,-6.458228588104247
567,36700.0,0.033499516546726234,7.2670021057128915,-6.458228588104247
568,36800.0,-0.1339980661869049,7.207180976867676,-6.647261142730713
569,36900.0,-0.1339980661869049,7.207180976867676,-6.647261142730713
570,35500.0,0.0047856452874839315,9.044869422912598,-3.802195072174072
571,35600.0,0.0047856452874839315,8.889336585998535,-3.876372575759888
572,35700.0,0.0047856452874839315,8.889336585998535,-3.876372575759888
573,35800.0,-0.028713870793581012,8.666803359985353,-3.9505498409271236
574,35900.0,-0.028713870793581012,8.666803359985353,-3.9505498409271236
575,36000.0,-0.028713870793581012,8.666803359985353,-3.9505498409271236
576,36100.0,0.057427741587162025,8.530412673950195,-4.3405799865722665
577,36200.0,0.057427741587162025,8.530412673950195,-4.3405799865722665
578,36300.0,0.19142580032348636,8.599804878234862,-5.218745708465576
579,36400.0,0.19142580032348636,8.599804878234862,-5.218745708465576
580,36500.0,0.033499516546726234,7.2670021057128915,-6.458228588104247
581,36600.0,0.033499516546726234,7.2670021057128915,-6.458228588104247
582,36700.0,0.033499516546726234,7.2670021057128915,-6.458228588104247
583,36800.0,-0.1339980661869049,7.207180976867676,-6.647261142730713
584,36900.0,-0.1339980661869049,7.207180976867676,-6.647261142730713
585,37000.0,-0.28235307335853577,6.721438884735107,-6.963113307952881
586,37100.0,-0.28235307335853577,6.721438884735107,-6.963113307952881
587,37200.0,-0.36370906233787537,5.965306758880615,-7.4703922271728525
588,37300.0,-0.36370906233787537,5.965306758880615,-7.4703922271728525
589,37400.0,-0.36370906233787537,5.965306758880615,-7.4703922271728525
590,37500.0,-0.8518448472023009,5.86720085144043,-8.300702095031737
591,37600.0,-0.8518448472023009,5.86720085144043,-8.300702095031737
592,37700.0,-1.3208380937576294,6.2739810943603525,-8.109275817871094
593,37800.0,-1.3208380937576294,6.2739810943603525,-8.109275817871094
594,37900.0,-2.651247262954712,6.2189459800720215,-5.058426856994629
595,38000.0,-2.651247262954712,6.2189459800720215,-5.058426856994629
596,38100.0,-2.651247262954712,6.2189459800720215,-5.058426856994629
597,38200.0,-1.2011969089508057,9.497113227844238,-3.6299118995666495
598,38300.0,-1.2011969089508057,9.497113227844238,-3.6299118995666495
599,38400.0,-0.7992027401924133,8.319844245910645,-5.824130058288574
600,37000.0,-0.28235307335853577,6.721438884735107,-6.963113307952881
601,37100.0,-0.28235307335853577,6.721438884735107,-6.963113307952881
602,37200.0,-0.36370906233787537,5.965306758880615,-7.4703922271728525
603,37300.0,-0.36370906233787537,5.965306758880615,-7.4703922271728525
604,37400.0,-0.36370906233787537,5.965306758880615,-7.4703922271728525
605,37500.0,-0.8518448472023009,5.86720085144043,-8.300702095031737
606,37600.0,-0.8518448472023009,5.86720085144043,-8.300702095031737
607,37700.0,-1.3208380937576294,6.2739810943603525,-8.109275817871094
608,37800.0,-1.3208380937576294,6.2739810943603525,-8.109275817871094
609,37900.0,-2.651247262954712,6.2189459800720215,-5.058426856994629
610,38000.0,-2.651247262954712,6.2189459800720215,-5.058426856994629
611,38100.0,-2.651247262954712,6.2189459800720215,-5.058426856994629
612,38200.0,-1.2011969089508057,9.497113227844238,-3.6299118995666495
613,38300.0,-1.2011969089508057,9.497113227844238,-3.6299118995666495
614,38400.0,-0.7992027401924133,8.319844245910645,-5.824130058288574
615,38500.0,-0.7992027401924133,8.319844245910645,-5.824130058288574
616,38600.0,-0.7992027401924133,8.319844245910645,-5.824130058288574
617,38700.0,-0.8518448472023009,7.599604606628418,-5.962913990020753
618,38800.0,-0.8518448472023009,7.599604606628418,-5.962913990020753
619,38900.0,-0.8374879360198975,7.345965385437013,-6.453442573547362
620,39000.0,-0.8374879360198975,7.345965385437013,-6.453442573547362
621,39100.0,-0.8231310248374939,7.444070816040039,-6.587440490722656
622,39200.0,-0.8231310248374939,7.444070816040039,-6.587440490722656
623,39300.0,-0.8231310248374939,7.444070816040039,-6.587440490722656
624,39400.0,-1.2969098091125488,7.149754047393799,-6.592226982116699
625,39500.0,-1.2969098091125488,7.149754047393799,-6.592226982116699
626,39600.0,-0.3206382095813751,8.989834785461426,-5.520241737365723
627,39700.0,-0.3206382095813751,8.989834785461426,-5.520241737365723
628,39800.0,-0.23449662327766416,7.786244869232178,-6.369694232940674
629,39900.0,-0.23449662327766416,7.786244869232178,-6.369694232940674
630,38500.0,-0.7992027401924133,8.319844245910645,-5.824130058288574
631,38600.0,-0.7992027401924133,8.319844245910645,-5.824130058288574
632,38700.0,-0.8518448472023009,7.599604606628418,-5.962913990020753
633,38800.0,-0.8518448472023009,7.599604606628418,-5.962913990020753
634,38900.0,-0.8374879360198975,7.345965385437013,-6.453442573547362
635,39000.0,-0.8374879360198975,7.345965385437013,-6.453442573547362
636,39100.0,-0.8231310248374939,7.444070816040039,-6.587440490722656
637,39200.0,-0.8231310248374939,7.444070816040039,-6.587440490722656
638,39300.0,-0.8231310248374939,7.444070816040039,-6.587440490722656
639,39400.0,-1.2969098091125488,7.149754047393799,-6.592226982116699
640,39500.0,-1.2969098091125488,7.149754047393799,-6.592226982116699
641,39600.0,-0.3206382095813751,8.989834785461426,-5.520241737365723
642,39700.0,-0.3206382095813751,8.989834785461426,-5.520241737365723
643,39800.0,-0.23449662327766416,7.786244869232178,-6.369694232940674
644,39900.0,-0.23449662327766416,7.786244869232178,-6.369694232940674
645,40000.0,-0.23449662327766416,7.786244869232178,-6.369694232940674
646,40100.0,-0.1052841916680336,8.592625617980957,-5.1804609298706055
647,40200.0,-0.1052841916680336,8.592625617980957,-5.1804609298706055
648,40300.0,-0.07657032459974289,8.109275817871094,-5.242674350738525
649,40400.0,-0.07657032459974289,8.109275817871094,-5.242674350738525
650,40500.0,-0.15314064919948578,8.516055107116701,-4.878964900970459
651,40600.0,-0.15314064919948578,8.516055107116701,-4.878964900970459
652,40700.0,-0.15314064919948578,8.516055107116701,-4.878964900970459
653,40800.0,-0.0526420958340168,8.403593063354492,-5.082355499267578
654,40900.0,-0.0526420958340168,8.403593063354492,-5.082355499267578
655,41000.0,-0.057427741587162025,8.13798999786377,-5.405385971069336
656,41100.0,-0.057427741587162025,8.13798999786377,-5.405385971069336
657,41200.0,-0.057427741587162025,8.13798999786377,-5.405385971069336
658,41300.0,-0.033499516546726234,8.169095993041992,-5.45563554763794
659,41400.0,-0.033499516546726234,8.169095993041992,-5.45563554763794
660,40000.0,-0.23449662327766416,7.786244869232178,-6.369694232940674
661,40100.0,-0.1052841916680336,8.592625617980957,-5.1804609298706055
662,40200.0,-0.1052841916680336,8.592625617980957,-5.1804609298706055
663,40300.0,-0.07657032459974289,8.109275817871094,-5.242674350738525
664,40400.0,-0.07657032459974289,8.109275817871094,-5.242674350738525
665,40500.0,-0.15314064919948578,8.516055107116701,-4.878964900970459
666,40600.0,-0.15314064919948578,8.516055107116701,-4.878964900970459
667,40700.0,-0.15314064919948578,8.516055107116701,-4.878964900970459
668,40800.0,-0.0526420958340168,8.403593063354492,-5.082355499267578
669,40900.0,-0.0526420958340168,8.403593063354492,-5.082355499267578
670,41000.0,-0.057427741587162025,8.13798999786377,-5.405385971069336
671,41100.0,-0.057427741587162025,8.13798999786377,-5.405385971069336
672,41200.0,-0.057427741587162025,8.13798999786377,-5.405385971069336
673,41300.0,-0.033499516546726234,8.169095993041992,-5.45563554763794
674,41400.0,-0.033499516546726234,8.169095993041992,-5.45563554763794
675,41500.0,-0.0047856452874839315,8.078168869018555,-5.529813289642334
676,41600.0,-0.0047856452874839315,8.078168869018555,-5.529813289642334
677,41700.0,-0.062213387340307236,8.082954406738281,-5.517848491668701
678,41800.0,-0.062213387340307236,8.082954406738281,-5.517848491668701
679,41900.0,-0.062213387340307236,8.082954406738281,-5.517848491668701
680,42000.0,-0.11006984114646913,8.171488761901855,-5.443671703338623
681,42100.0,-0.11006984114646913,8.171488761901855,-5.443671703338623
682,42200.0,-0.033499516546726234,8.10688304901123,-5.525027275085449
683,42300.0,-0.033499516546726234,8.10688304901123,-5.525027275085449
684,42400.0,-0.033499516546726234,8.10688304901123,-5.525027275085449
685,42500.0,-0.2488535493612289,8.102097511291504,-5.546562671661377
686,42600.0,-0.2488535493612289,8.102097511291504,-5.546562671661377
687,42700.0,-0.062213387340307236,8.12841796875,-5.458028793334961
688,42800.0,-0.062213387340307236,8.12841796875,-5.458028793334961
689,42900.0,0.01914258114993572,7.994420051574707,-5.601597785949707
690,41500.0,-0.0047856452874839315,8.078168869018555,-5.529813289642334
691,41600.0,-0.0047856452874839315,8.078168869018555,-5.529813289642334
692,41700.0,-0.062213387340307236,8.082954406738281,-5.517848491668701
693,41800.0,-0.062213387340307236,8.082954406738281,-5.517848491668701
694,41900.0,-0.062213387340307236,8.082954406738281,-5.517848491668701
695,42000.0,-0.11006984114646913,8.171488761901855,-5.443671703338623
696,42100.0,-0.11006984114646913,8.171488761901855,-5.443671703338623
697,42200.0,-0.033499516546726234,8.10688304901123,-5.525027275085449
698,42300.0,-0.033499516546726234,8.10688304901123,-5.525027275085449
699,42400.0,-0.033499516546726234,8.10688304901123,-5.525027275085449
700,42500.0,-0.2488535493612289,8.102097511291504,-5.546562671661377
701,42600.0,-0.2488535493612289,8.102097511291504,-5.546562671661377
702,42700.0,-0.062213387340307236,8.12841796875,-5.458028793334961
703,42800.0,-0.062213387340307236,8.12841796875,-5.458028793334961
704,42900.0,0.01914258114993572,7.994420051574707,-5.601597785949707
705,43000.0,0.01914258114993572,7.994420051574707,-5.601597785949707
706,43100.0,0.01914258114993572,7.994420051574707,-5.601597785949707
707,43200.0,-0.2392822504043579,8.444271087646483,-4.304687976837158
708,43300.0,-0.2392822504043579,8.444271087646483,-4.304687976837158
709,43400.0,-0.16749757528305054,9.30329418182373,-3.8979082107543945
710,43500.0,-0.16749757528305054,9.30329418182373,-3.8979082107543945
711,43600.0,-0.6795615553855896,6.939186096191406,-7.274180889129639
712,43700.0,-0.6795615553855896,6.939186096191406,-7.274180889129639
713,43800.0,-0.6795615553855896,6.939186096191406,-7.274180889129639
714,43900.0,-0.5742774605751038,6.434299945831299,-7.3531436920166025
715,44000.0,-0.5742774605751038,6.434299945831299,-7.3531436920166025
716,44100.0,-0.9762716889381408,8.274380683898926,-6.199803352355957
717,44200.0,-0.9762716889381408,8.274380683898926,-6.199803352355957
718,44300.0,-1.919043779373169,5.398207664489746,-7.211967468261719
719,44400.0,-1.919043779373169,5.398207664489746,-7.211967468261719
720,43000.0,0.01914258114993572,7.994420051574707,-5.601597785949707
721,43100.0,0.01914258114993572,7.994420051574707,-5.601597785949707
722,43200.0,-0.2392822504043579,8.444271087646483,-4.304687976837158
723,43300.0,-0.2392822504043579,8.444271087646483,-4.304687976837158
724,43400.0,-0.16749757528305054,9.30329418182373,-3.8979082107543945
725,43500.0,-0.16749757528305054,9.30329418182373,-3.8979082107543945
726,43600.0,-0.6795615553855896,6.939186096191406,-7.274180889129639
727,43700.0,-0.6795615553855896,6.939186096191406,-7.274180889129639
728,43800.0,-0.6795615553855896,6.939186096191406,-7.274180889129639
729,43900.0,-0.5742774605751038,6.434299945831299,-7.3531436920166025
730,44000.0,-0.5742774605751038,6.434299945831299,-7.3531436920166025
731,44100.0,-0.9762716889381408,8.274380683898926,-6.199803352355957
732,44200.0,-0.9762716889381408,8.274380683898926,-6.199803352355957
733,44300.0,-1.919043779373169,5.398207664489746,-7.211967468261719
734,44400.0,-1.919043779373169,5.398207664489746,-7.211967468261719
735,44500.0,-2.900100946426392,9.695716857910156,-2.426322221755981
736,44600.0,-2.900100946426392,9.695716857910156,-2.426322221755981
737,44700.0,-2.900100946426392,9.695716857910156,-2.426322221755981
738,44800.0,-0.6747759580612183,5.982056617736816,-7.956134796142577
739,44900.0,-0.6747759580612183,5.982056617736816,-7.956134796142577
740,45000.0,-1.0719845294952393,6.943971633911133,-6.733402729034424
741,45100.0,-1.0719845294952393,6.943971633911133,-6.733402729034424
742,45200.0,-1.0911270380020142,6.345765590667725,-7.647461414337157
743,45300.0,-1.0911270380020142,6.345765590667725,-7.647461414337157
744,45400.0,-1.1437692642211914,6.331408977508545,-6.31944465637207
745,45500.0,-1.1437692642211914,6.331408977508545,-6.31944465637207
746,45600.0,-1.1437692642211914,6.331408977508545,-6.31944465637207
747,45700.0,-0.9475577473640442,6.496513843536378,-5.742774486541747
748,45800.0,-0.9475577473640442,6.496513843536378,-5.742774486541747
749,45900.0,-0.6699903011322021,8.410772323608397,-3.5700912475585938
750,44500.0,-2.900100946426392,9.695716857910156,-2.426322221755981
751,44600.0,-2.900100946426392,9.695716857910156,-2.426322221755981
752,44700.0,-2.900100946426392,9.695716857910156,-2.426322221755981
753,44800.0,-0.6747759580612183,5.982056617736816,-7.956134796142577
754,44900.0,-0.6747759580612183,5.982056617736816,-7.956134796142577
755,45000.0,-1.0719845294952393,6.943971633911133,-6.733402729034424
756,45100.0,-1.0719845294952393,6.943971633911133,-6.733402729034424
757,45200.0,-1.0911270380020142,6.345765590667725,-7.647461414337157
758,45300.0,-1.0911270380020142,6.345765590667725,-7.647461414337157
759,45400.0,-1.1437692642211914,6.331408977508545,-6.31944465637207
760,45500.0,-1.1437692642211914,6.331408977508545,-6.31944465637207
761,45600.0,-1.1437692642211914,6.331408977508545,-6.31944465637207
762,45700.0,-0.9475577473640442,6.496513843536378,-5.742774486541747
763,45800.0,-0.9475577473640442,6.496513843536378,-5.742774486541747
764,45900.0,-0.6699903011322021,8.410772323608397,-3.5700912475585938
765,46000.0,-0.6699903011322021,8.410772323608397,-3.5700912475585938
766,46100.0,-0.6699903011322021,8.410772323608397,-3.5700912475585938
767,46200.0,-0.057427741587162025,9.437292098999023,-1.3854442834854126
768,46300.0,-0.057427741587162025,9.437292098999023,-1.3854442834854126
769,46400.0,-0.0813559740781784,9.53779125213623,-2.00518536567688
770,46500.0,-0.0813559740781784,9.53779125213623,-2.00518536567688
771,46600.0,-0.0813559740781784,9.53779125213623,-2.00518536567688
772,46700.0,0.15314064919948578,9.722038269042967,-2.062613010406494
773,46800.0,0.15314064919948578,9.722038269042967,-2.062613010406494
774,46900.0,0.057427741587162025,9.62393283843994,-1.7874385118484497
775,47000.0,0.057427741587162025,9.62393283843994,-1.7874385118484497
776,47100.0,0.1339980661869049,9.647860527038574,-1.8903299570083616
777,47200.0,0.1339980661869049,9.647860527038574,-1.8903299570083616
778,47300.0,0.1339980661869049,9.647860527038574,-1.8903299570083616
779,47400.0,0.07657032459974289,9.650253295898438,-1.868794322013855
780,46000.0,-0.6699903011322021,8.410772323608397,-3.5700912475585938
781,46100.0,-0.6699903011322021,8.410772323608397,-3.5700912475585938
782,46200.0,-0.057427741587162025,9.437292098999023,-1.3854442834854126
783,46300.0,-0.057427741587162025,9.437292098999023,-1.3854442834854126
784,46400.0,-0.0813559740781784,9.53779125213623,-2.00518536567688
785,46500.0,-0.0813559740781784,9.53779125213623,-2.00518536567688
786,46600.0,-0.0813559740781784,9.53779125213623,-2.00518536567688
787,46700.0,0.15314064919948578,9.722038269042967,-2.062613010406494
788,46800.0,0.15314064919948578,9.722038269042967,-2.062613010406494
789,46900.0,0.057427741587162025,9.62393283843994,-1.7874385118484497
790,47000.0,0.057427741587162025,9.62393283843994,-1.7874385118484497
791,47100.0,0.1339980661869049,9.647860527038574,-1.8903299570083616
792,47200.0,0.1339980661869049,9.647860527038574,-1.8903299570083616
793,47300.0,0.1339980661869049,9.647860527038574,-1.8903299570083616
794,47400.0,0.07657032459974289,9.650253295898438,-1.868794322013855
795,47500.0,0.07657032459974289,9.650253295898438,-1.868794322013855
796,47600.0,0.07178468257188797,9.67657470703125,-1.8592231273651123
797,47700.0,0.07178468257188797,9.67657470703125,-1.8592231273651123
798,47800.0,0.0813559740781784,9.645467758178713,-1.919043779373169
799,47900.0,0.0813559740781784,9.645467758178713,-1.919043779373169
800,48000.0,0.10049854964017868,9.55214786529541,-2.0003998279571533
801,48100.0,0.10049854964017868,9.55214786529541,-2.0003998279571533
802,48200.0,0.10049854964017868,9.55214786529541,-2.0003998279571533
803,48300.0,0.09092726558446884,9.588040351867676,-1.94297194480896
804,48400.0,0.09092726558446884,9.588040351867676,-1.94297194480896
805,48500.0,0.0813559740781784,9.645467758178713,-1.9046868085861208
806,48600.0,0.0813559740781784,9.645467758178713,-1.9046868085861208
807,48700.0,0.04785645008087158,9.643074989318848,-1.9118653535842896
808,48800.0,0.04785645008087158,9.643074989318848,-1.9118653535842896
809,48900.0,0.04785645008087158,9.643074989318848,-1.9118653535842896
810,47500.0,0.07657032459974289,9.650253295898438,-1.868794322013855
811,47600.0,0.07178468257188797,9.67657470703125,-1.8592231273651123
812,47700.0,0.07178468257188797,9.67657470703125,-1.8592231273651123
813,47800.0,0.0813559740781784,9.645467758178713,-1.919043779373169
814,47900.0,0.0813559740781784,9.645467758178713,-1.919043779373169
815,48000.0,0.10049854964017868,9.55214786529541,-2.0003998279571533
816,48100.0,0.10049854964017868,9.55214786529541,-2.0003998279571533
817,48200.0,0.10049854964017868,9.55214786529541,-2.0003998279571533
818,48300.0,0.09092726558446884,9.588040351867676,-1.94297194480896
819,48400.0,0.09092726558446884,9.588040351867676,-1.94297194480896
820,48500.0,0.0813559740781784,9.645467758178713,-1.9046868085861208
821,48600.0,0.0813559740781784,9.645467758178713,-1.9046868085861208
822,48700.0,0.04785645008087158,9.643074989318848,-1.9118653535842896
823,48800.0,0.04785645008087158,9.643074989318848,-1.9118653535842896
824,48900.0,0.04785645008087158,9.643074989318848,-1.9118653535842896
825,49000.0,0.0813559740781784,9.698110580444336,-1.8783657550811768
826,49100.0,0.0813559740781784,9.698110580444336,-1.8783657550811768
827,49200.0,0.09092726558446884,9.65503978729248,-1.9286150932312007
828,49300.0,0.09092726558446884,9.65503978729248,-1.9286150932312007
829,49400.0,0.12442677468061447,9.62393283843994,-1.9477576017379759
830,49500.0,0.12442677468061447,9.62393283843994,-1.9477576017379759
831,49600.0,0.12442677468061447,9.62393283843994,-1.9477576017379759
832,49700.0,0.10049854964017868,9.621540069580078,-1.8927226066589355
833,49800.0,0.10049854964017868,9.621540069580078,-1.8927226066589355
834,49900.0,0.10049854964017868,9.650253295898438,-1.8831514120101929
835,50000.0,0.10049854964017868,9.650253295898438,-1.8831514120101929
836,50100.0,0.10049854964017868,9.650253295898438,-1.8831514120101929
837,50200.0,0.1339980661869049,9.633503913879396,-1.9094725847244265
838,50300.0,0.1339980661869049,9.633503913879396,-1.9094725847244265
839,50400.0,0.11485548317432405,9.57607650756836,-1.921436548233032
840,49000.0,0.0813559740781784,9.698110580444336,-1.8783657550811768
841,49100.0,0.0813559740781784,9.698110580444336,-1.8783657550811768
842,49200.0,0.09092726558446884,9.65503978729248,-1.9286150932312007
843,49300.0,0.09092726558446884,9.65503978729248,-1.9286150932312007
844,49400.0,0.12442677468061447,9.62393283843994,-1.9477576017379759
845,49500.0,0.12442677468061447,9.62393283843994,-1.9477576017379759
846,49600.0,0.12442677468061447,9.62393283843994,-1.9477576017379759
847,49700.0,0.10049854964017868,9.621540069580078,-1.8927226066589355
848,49800.0,0.10049854964017868,9.621540069580078,-1.8927226066589355
849,49900.0,0.10049854964017868,9.650253295898438,-1.8831514120101929
850,50000.0,0.10049854964017868,9.650253295898438,-1.8831514120101929
851,50100.0,0.10049854964017868,9.650253295898438,-1.8831514120101929
852,50200.0,0.1339980661869049,9.633503913879396,-1.9094725847244265
853,50300.0,0.1339980661869049,9.633503913879396,-1.9094725847244265
854,50400.0,0.11485548317432405,9.57607650756836,-1.921436548233032
855,50500.0,0.11485548317432405,9.57607650756836,-1.921436548233032
856,50600.0,0.1052841916680336,9.63828945159912,-1.9238293170928955
857,50700.0,0.1052841916680336,9.63828945159912,-1.9238293170928955
858,50800.0,0.07657032459974289,9.585646629333496,-1.8544375896453855
859,50900.0,0.07657032459974289,9.585646629333496,-1.8544375896453855
860,51000.0,0.07657032459974289,9.643074989318848,-1.8759729862213133
861,51100.0,0.07657032459974289,9.643074989318848,-1.8759729862213133
862,51200.0,0.1339980661869049,9.66939640045166,-1.8209381103515625
863,51300.0,0.1339980661869049,9.66939640045166,-1.8209381103515625
864,51400.0,0.1339980661869049,9.66939640045166,-1.8209381103515625
865,51500.0,0.06699903309345245,9.645467758178713,-1.804188132286072
866,51600.0,0.06699903309345245,9.645467758178713,-1.804188132286072
867,51700.0,-0.00957129057496786,9.54496955871582,-1.761117458343506
868,51800.0,-0.00957129057496786,9.54496955871582,-1.761117458343506
869,51900.0,0.11006984114646913,9.62393283843994,-1.588834285736084
870,50500.0,0.11485548317432405,9.57607650756836,-1.921436548233032
871,50600.0,0.1052841916680336,9.63828945159912,-1.9238293170928955
872,50700.0,0.1052841916680336,9.63828945159912,-1.9238293170928955
873,50800.0,0.07657032459974289,9.585646629333496,-1.8544375896453855
874,50900.0,0.07657032459974289,9.585646629333496,-1.8544375896453855
875,51000.0,0.07657032459974289,9.643074989318848,-1.8759729862213133
876,51100.0,0.07657032459974289,9.643074989318848,-1.8759729862213133
877,51200.0,0.1339980661869049,9.66939640045166,-1.8209381103515625
878,51300.0,0.1339980661869049,9.66939640045166,-1.8209381103515625
879,51400.0,0.1339980661869049,9.66939640045166,-1.8209381103515625
880,51500.0,0.06699903309345245,9.645467758178713,-1.804188132286072
881,51600.0,0.06699903309345245,9.645467758178713,-1.804188132286072
882,51700.0,-0.00957129057496786,9.54496955871582,-1.761117458343506
883,51800.0,-0.00957129057496786,9.54496955871582,-1.761117458343506
884,51900.0,0.11006984114646913,9.62393283843994,-1.588834285736084
885,52000.0,0.11006984114646913,9.62393283843994,-1.588834285736084
886,52100.0,0.11006984114646913,9.62393283843994,-1.588834285736084
887,52200.0,0.22492533922195435,10.033105850219727,-1.124626636505127
888,52300.0,0.22492533922195435,10.033105850219727,-1.124626636505127
889,52400.0,0.13878372311592102,9.762716293334961,-1.4907284975051882
890,52500.0,0.13878372311592102,9.762716293334961,-1.4907284975051882
891,52600.0,0.13878372311592102,9.762716293334961,-1.4907284975051882
892,52700.0,0.16749757528305054,9.60478973388672,-1.4859429597854614
893,52800.0,0.16749757528305054,9.60478973388672,-1.4859429597854614
894,52900.0,0.2297109663486481,9.820144653320312,-1.325623631477356
895,53000.0,0.2297109663486481,9.820144653320312,-1.325623631477356
896,53100.0,0.1579262912273407,9.65503978729248,-1.0815558433532717
897,53200.0,0.1579262912273407,9.65503978729248,-1.0815558433532717
898,53300.0,0.11964112520217896,9.803394317626953,-1.1150553226470947
899,53400.0,0.11964112520217896,9.803394317626953,-1.1150553226470947
900,52000.0,0.11006984114646913,9.62393283843994,-1.588834285736084
901,52100.0,0.11006984114646913,9.62393283843994,-1.588834285736084
902,52200.0,0.22492533922195435,10.033105850219727,-1.124626636505127
903,52300.0,0.22492533922195435,10.033105850219727,-1.124626636505127
904,52400.0,0.13878372311592102,9.762716293334961,-1.4907284975051882
905,52500.0,0.13878372311592102,9.762716293334961,-1.4907284975051882
906,52600.0,0.13878372311592102,9.762716293334961,-1.4907284975051882
907,52700.0,0.16749757528305054,9.60478973388672,-1.4859429597854614
908,52800.0,0.16749757528305054,9.60478973388672,-1.4859429597854614
909,52900.0,0.2297109663486481,9.820144653320312,-1.325623631477356
910,53000.0,0.2297109663486481,9.820144653320312,-1.325623631477356
911,53100.0,0.1579262912273407,9.65503978729248,-1.0815558433532717
912,53200.0,0.1579262912273407,9.65503978729248,-1.0815558433532717
913,53300.0,0.11964112520217896,9.803394317626953,-1.1150553226470947
914,53400.0,0.11964112520217896,9.803394317626953,-1.1150553226470947
915,53500.0,0.11964112520217896,9.803394317626953,-1.1150553226470947
916,53600.0,0.1866401582956314,9.734003067016602,-1.031306505203247
917,53700.0,0.1866401582956314,9.734003067016602,-1.031306505203247
918,53800.0,0.23449662327766416,9.839285850524902,-1.1820544004440308
919,53900.0,0.23449662327766416,9.839285850524902,-1.1820544004440308
920,54000.0,0.23449662327766416,9.839285850524902,-1.1820544004440308
921,54100.0,0.3254238963127136,9.80817985534668,-1.2586246728897097
922,54200.0,0.3254238963127136,9.80817985534668,-1.2586246728897097
923,54300.0,0.4019941985607147,9.92542839050293,-1.105484127998352
924,54400.0,0.4019941985607147,9.92542839050293,-1.105484127998352
925,54500.0,0.3876372575759888,9.652647018432617,-1.1988041400909424
926,54600.0,0.3876372575759888,9.652647018432617,-1.1988041400909424
927,54700.0,0.3445664942264557,9.702895164489746,-1.1820544004440308
928,54800.0,0.3445664942264557,9.702895164489746,-1.1820544004440308
929,54900.0,0.430708110332489,9.762716293334961,-1.2993026971817017
930,53500.0,0.11964112520217896,9.803394317626953,-1.1150553226470947
931,53600.0,0.1866401582956314,9.734003067016602,-1.031306505203247
932,53700.0,0.1866401582956314,9.734003067016602,-1.031306505203247
933,53800.0,0.23449662327766416,9.839285850524902,-1.1820544004440308
934,53900.0,0.23449662327766416,9.839285850524902,-1.1820544004440308
935,54000.0,0.23449662327766416,9.839285850524902,-1.1820544004440308
936,54100.0,0.3254238963127136,9.80817985534668,-1.2586246728897097
937,54200.0,0.3254238963127136,9.80817985534668,-1.2586246728897097
938,54300.0,0.4019941985607147,9.92542839050293,-1.105484127998352
939,54400.0,0.4019941985607147,9.92542839050293,-1.105484127998352
940,54500.0,0.3876372575759888,9.652647018432617,-1.1988041400909424
941,54600.0,0.3876372575759888,9.652647018432617,-1.1988041400909424
942,54700.0,0.3445664942264557,9.702895164489746,-1.1820544004440308
943,54800.0,0.3445664942264557,9.702895164489746,-1.1820544004440308
944,54900.0,0.430708110332489,9.762716293334961,-1.2993026971817017
945,55000.0,0.430708110332489,9.762716293334961,-1.2993026971817017
946,55100.0,0.430708110332489,9.762716293334961,-1.2993026971817017
947,55200.0,0.3828516006469727,9.698110580444336,-1.2299107313156128
948,55300.0,0.3828516006469727,9.698110580444336,-1.2299107313156128
949,55400.0,0.35413774847984314,9.674181938171387,-1.2011969089508057
950,55500.0,0.35413774847984314,9.674181938171387,-1.2011969089508057
951,55600.0,0.35413774847984314,9.724431037902832,-1.246660590171814
952,55700.0,0.35413774847984314,9.724431037902832,-1.246660590171814
953,55800.0,0.3397807776927948,9.745966911315918,-1.2083754539489746
954,55900.0,0.3397807776927948,9.745966911315918,-1.2083754539489746
955,56000.0,0.3397807776927948,9.745966911315918,-1.2083754539489746
956,56100.0,0.3302095234394073,9.681360244750977,-1.2705888748168943
957,56200.0,0.3302095234394073,9.681360244750977,-1.2705888748168943
958,56300.0,0.3254238963127136,9.798608779907227,-1.2562319040298462
959,56400.0,0.3254238963127136,9.798608779907227,-1.2562319040298462
960,55000.0,0.430708110332489,9.762716293334961,-1.2993026971817017
961,55100.0,0.430708110332489,9.762716293334961,-1.2993026971817017
962,55200.0,0.3828516006469727,9.698110580444336,-1.2299107313156128
963,55300.0,0.3828516006469727,9.698110580444336,-1.2299107313156128
964,55400.0,0.35413774847984314,9.674181938171387,-1.2011969089508057
965,55500.0,0.35413774847984314,9.674181938171387,-1.2011969089508057
966,55600.0,0.35413774847984314,9.724431037902832,-1.246660590171814
967,55700.0,0.35413774847984314,9.724431037902832,-1.246660590171814
968,55800.0,0.3397807776927948,9.745966911315918,-1.2083754539489746
969,55900.0,0.3397807776927948,9.745966911315918,-1.2083754539489746
970,56000.0,0.3397807776927948,9.745966911315918,-1.2083754539489746
971,56100.0,0.3302095234394073,9.681360244750977,-1.2705888748168943
972,56200.0,0.3302095234394073,9.681360244750977,-1.2705888748168943
973,56300.0,0.3254238963127136,9.798608779907227,-1.2562319040298462
974,56400.0,0.3254238963127136,9.798608779907227,-1.2562319040298462
975,56500.0,0.3684946894645691,9.772287368774414,-1.2562319040298462
976,56600.0,0.3684946894645691,9.772287368774414,-1.2562319040298462
977,56700.0,0.3684946894645691,9.772287368774414,-1.2562319040298462
978,56800.0,0.3684946894645691,9.745966911315918,-1.2825528383255005
979,56900.0,0.3684946894645691,9.745966911315918,-1.2825528383255005
980,57000.0,0.4163511395454407,9.722038269042967,-1.2562319040298462
981,57100.0,0.4163511395454407,9.722038269042967,-1.2562319040298462
982,57200.0,0.4163511395454407,9.722038269042967,-1.2562319040298462
983,57300.0,0.4211367666721344,9.745966911315918,-1.3280165195465088
984,57400.0,0.4211367666721344,9.745966911315918,-1.3280165195465088
985,57500.0,0.4594219326972962,9.731609344482422,-1.34476637840271
986,57600.0,0.4594219326972962,9.731609344482422,-1.34476637840271
987,57700.0,0.4833501875400543,9.72921657562256,-1.3543376922607422
988,57800.0,0.4833501875400543,9.72921657562256,-1.3543376922607422
989,57900.0,0.41156551241874695,9.736394882202148,-1.361515998840332
990,56500.0,0.3684946894645691,9.772287368774414,-1.2562319040298462
991,56600.0,0.3684946894645691,9.772287368774414,-1.2562319040298462
992,56700.0,0.3684946894645691,9.772287368774414,-1.2562319040298462
993,56800.0,0.3684946894645691,9.745966911315918,-1.2825528383255005
994,56900.0,0.3684946894645691,9.745966911315918,-1.2825528383255005
995,57000.0,0.4163511395454407,9.722038269042967,-1.2562319040298462
996,57100.0,0.4163511395454407,9.722038269042967,-1.2562319040298462
997,57200.0,0.4163511395454407,9.722038269042967,-1.2562319040298462
998,57300.0,0.4211367666721344,9.745966911315918,-1.3280165195465088
999,57400.0,0.4211367666721344,9.745966911315918,-1.3280165195465088
1000,57500.0,0.4594219326972962,9.731609344482422,-1.34476637840271
1001,57600.0,0.4594219326972962,9.731609344482422,-1.34476637840271
1002,57700.0,0.4833501875400543,9.72921657562256,-1.3543376922607422
1003,57800.0,0.4833501875400543,9.72921657562256,-1.3543376922607422
1004,57900.0,0.41156551241874695,9.736394882202148,-1.361515998840332
1005,58000.0,0.41156551241874695,9.736394882202148,-1.361515998840332
1006,58100.0,0.3828516006469727,9.7005033493042,-1.373480200767517
1007,58200.0,0.3828516006469727,9.7005033493042,-1.373480200767517
1008,58300.0,0.4498506784439087,9.741181373596193,-1.37587308883667
1009,58400.0,0.4498506784439087,9.741181373596193,-1.37587308883667
1010,58500.0,0.4498506784439087,9.741181373596193,-1.37587308883667
1011,58600.0,0.4019941985607147,9.760323524475098,-1.3543376922607422
1012,58700.0,0.4019941985607147,9.760323524475098,-1.3543376922607422
1013,58800.0,0.3924228847026825,9.755537986755373,-1.4069796800613403
1014,58900.0,0.3924228847026825,9.755537986755373,-1.4069796800613403
1015,59000.0,0.3924228847026825,9.755537986755373,-1.4069796800613403
1016,59100.0,0.3780659735202789,9.726823806762695,-1.4069796800613403
1017,59200.0,0.3780659735202789,9.726823806762695,-1.4069796800613403
1018,59300.0,0.3876372575759888,9.705288887023926,-1.4380863904953003
1019,59400.0,0.3876372575759888,9.705288887023926,-1.4380863904953003
1020,58000.0,0.41156551241874695,9.736394882202148,-1.361515998840332
1021,58100.0,0.3828516006469727,9.7005033493042,-1.373480200767517
1022,58200.0,0.3828516006469727,9.7005033493042,-1.373480200767517
1023,58300.0,0.4498506784439087,9.741181373596193,-1.37587308883667
1024,58400.0,0.4498506784439087,9.741181373596193,-1.37587308883667
1025,58500.0,0.4498506784439087,9.741181373596193,-1.37587308883667
1026,58600.0,0.4019941985607147,9.760323524475098,-1.3543376922607422
1027,58700.0,0.4019941985607147,9.760323524475098,-1.3543376922607422
1028,58800.0,0.3924228847026825,9.755537986755373,-1.4069796800613403
1029,58900.0,0.3924228847026825,9.755537986755373,-1.4069796800613403
1030,59000.0,0.3924228847026825,9.755537986755373,-1.4069796800613403
1031,59100.0,0.3780659735202789,9.726823806762695,-1.4069796800613403
1032,59200.0,0.3780659735202789,9.726823806762695,-1.4069796800613403
1033,59300.0,0.3876372575759888,9.705288887023926,-1.4380863904953003
1034,59400.0,0.3876372575759888,9.705288887023926,-1.4380863904953003
1035,59500.0,0.41156551241874695,9.7005033493042,-1.4811571836471558
1036,59600.0,0.41156551241874695,9.7005033493042,-1.4811571836471558
1037,59700.0,0.41156551241874695,9.7005033493042,-1.4811571836471558
1038,59800.0,0.4067798554897308,9.698110580444336,-1.430907964706421
1039,59900.0,0.4067798554897308,9.698110580444336,-1.430907964706421
1040,60000.0,0.4594219326972962,9.722038269042967,-1.4261221885681152
1041,60100.0,0.4594219326972962,9.722038269042967,-1.4261221885681152
1042,60200.0,0.4594219326972962,9.722038269042967,-1.4261221885681152
1043,60300.0,0.4498506784439087,9.678967475891113,-1.4165509939193726
1044,60400.0,0.4498506784439087,9.678967475891113,-1.4165509939193726
1045,60500.0,0.4019941985607147,9.671788215637207,-1.459621787071228
1046,60600.0,0.4019941985607147,9.671788215637207,-1.459621787071228
1047,60700.0,0.4163511395454407,9.705288887023926,-1.4069796800613403
1048,60800.0,0.4163511395454407,9.705288887023926,-1.4069796800613403
1049,60900.0,0.4211367666721344,9.664610862731934,-1.4165509939193726
1050,59500.0,0.41156551241874695,9.7005033493042,-1.4811571836471558
1051,59600.0,0.41156551241874695,9.7005033493042,-1.4811571836471558
1052,59700.0,0.41156551241874695,9.7005033493042,-1.4811571836471558
1053,59800.0,0.4067798554897308,9.698110580444336,-1.430907964706421
1054,59900.0,0.4067798554897308,9.698110580444336,-1.430907964706421
1055,60000.0,0.4594219326972962,9.722038269042967,-1.4261221885681152
1056,60100.0,0.4594219326972962,9.722038269042967,-1.4261221885681152
1057,60200.0,0.4594219326972962,9.722038269042967,-1.4261221885681152
1058,60300.0,0.4498506784439087,9.678967475891113,-1.4165509939193726
1059,60400.0,0.4498506784439087,9.678967475891113,-1.4165509939193726
1060,60500.0,0.4019941985607147,9.671788215637207,-1.459621787071228
1061,60600.0,0.4019941985607147,9.671788215637207,-1.459621787071228
1062,60700.0,0.4163511395454407,9.705288887023926,-1.4069796800613403
1063,60800.0,0.4163511395454407,9.705288887023926,-1.4069796800613403
1064,60900.0,0.4211367666721344,9.664610862731934,-1.4165509939193726
1065,61000.0,0.4211367666721344,9.664610862731934,-1.4165509939193726
1066,61100.0,0.3924228847026825,9.678967475891113,-1.4620146751403809
1067,61200.0,0.3924228847026825,9.678967475891113,-1.4620146751403809
1068,61300.0,0.3924228847026825,9.678967475891113,-1.4620146751403809
1069,61400.0,0.3876372575759888,9.69332504272461,-1.3974084854125977
1070,61500.0,0.3876372575759888,9.69332504272461,-1.3974084854125977
1071,61600.0,0.4163511395454407,9.736394882202148,-1.4739787578582764
1072,61700.0,0.4163511395454407,9.736394882202148,-1.4739787578582764
1073,61800.0,0.3684946894645691,9.69332504272461,-1.4165509939193726
1074,61900.0,0.3684946894645691,9.69332504272461,-1.4165509939193726
1075,62000.0,0.3684946894645691,9.69332504272461,-1.4165509939193726
1076,62100.0,0.430708110332489,9.722038269042967,-1.423729419708252
1077,62200.0,0.430708110332489,9.722038269042967,-1.423729419708252
1078,62300.0,0.4402793645858765,9.681360244750977,-1.4715858697891235
1079,62400.0,0.4402793645858765,9.681360244750977,-1.4715858697891235
1080,61000.0,0.4211367666721344,9.664610862731934,-1.4165509939193726
1081,61100.0,0.3924228847026825,9.678967475891113,-1.4620146751403809
1082,61200.0,0.3924228847026825,9.678967475891113,-1.4620146751403809
1083,61300.0,0.3924228847026825,9.678967475891113,-1.4620146751403809
1084,61400.0,0.3876372575759888,9.69332504272461,-1.3974084854125977
1085,61500.0,0.3876372575759888,9.69332504272461,-1.3974084854125977
1086,61600.0,0.4163511395454407,9.736394882202148,-1.4739787578582764
1087,61700.0,0.4163511395454407,9.736394882202148,-1.4739787578582764
1088,61800.0,0.3684946894645691,9.69332504272461,-1.4165509939193726
1089,61900.0,0.3684946894645691,9.69332504272461,-1.4165509939193726
1090,62000.0,0.3684946894645691,9.69332504272461,-1.4165509939193726
1091,62100.0,0.430708110332489,9.722038269042967,-1.423729419708252
1092,62200.0,0.430708110332489,9.722038269042967,-1.423729419708252
1093,62300.0,0.4402793645858765,9.681360244750977,-1.4715858697891235
1094,62400.0,0.4402793645858765,9.681360244750977,-1.4715858697891235
1095,62500.0,0.4067798554897308,9.710074424743652,-1.37587308883667
1096,62600.0,0.4067798554897308,9.710074424743652,-1.37587308883667
1097,62700.0,0.4498506784439087,9.726823806762695,-1.3950155973434448
1098,62800.0,0.4498506784439087,9.726823806762695,-1.3950155973434448
1099,62900.0,0.4498506784439087,9.726823806762695,-1.3950155973434448
1100,63000.0,0.41156551241874695,9.705288887023926,-1.392622709274292
1101,63100.0,0.41156551241874695,9.705288887023926,-1.392622709274292
1102,63200.0,0.4067798554897308,9.755537986755373,-1.4165509939193726
1103,63300.0,0.4067798554897308,9.755537986755373,-1.4165509939193726
1104,63400.0,0.3302095234394073,9.72921657562256,-1.3854442834854126
1105,63500.0,0.3302095234394073,9.72921657562256,-1.3854442834854126
1106,63600.0,0.3924228847026825,9.722038269042967,-1.3830513954162598
1107,63700.0,0.3924228847026825,9.722038269042967,-1.3830513954162598
1108,63800.0,0.3924228847026825,9.722038269042967,-1.3830513954162598
1109,63900.0,0.4163511395454407,9.66939640045166,-1.4189438819885254
1110,62500.0,0.4067798554897308,9.710074424743652,-1.37587308883667
1111,62600.0,0.4067798554897308,9.710074424743652,-1.37587308883667
1112,62700.0,0.4498506784439087,9.726823806762695,-1.3950155973434448
1113,62800.0,0.4498506784439087,9.726823806762695,-1.3950155973434448
1114,62900.0,0.4498506784439087,9.726823806762695,-1.3950155973434448
1115,63000.0,0.41156551241874695,9.705288887023926,-1.392622709274292
1116,63100.0,0.41156551241874695,9.705288887023926,-1.392622709274292
1117,63200.0,0.4067798554897308,9.755537986755373,-1.4165509939193726
1118,63300.0,0.4067798554897308,9.755537986755373,-1.4165509939193726
1119,63400.0,0.3302095234394073,9.72921657562256,-1.3854442834854126
1120,63500.0,0.3302095234394073,9.72921657562256,-1.3854442834854126
1121,63600.0,0.3924228847026825,9.722038269042967,-1.3830513954162598
1122,63700.0,0.3924228847026825,9.722038269042967,-1.3830513954162598
1123,63800.0,0.3924228847026825,9.722038269042967,-1.3830513954162598
1124,63900.0,0.4163511395454407,9.66939640045166,-1.4189438819885254
1125,64000.0,0.4163511395454407,9.66939640045166,-1.4189438819885254
1126,64100.0,0.4019941985607147,9.7005033493042,-1.5002998113632202
1127,64200.0,0.4019941985607147,9.7005033493042,-1.5002998113632202
1128,64300.0,0.4019941985607147,9.7005033493042,-1.5002998113632202
1129,64400.0,0.4163511395454407,9.707681655883787,-1.5026925802230835
1130,64500.0,0.4163511395454407,9.707681655883787,-1.5026925802230835
1131,64600.0,0.3924228847026825,9.707681655883787,-1.4261221885681152
1132,64700.0,0.3924228847026825,9.707681655883787,-1.4261221885681152
1133,64800.0,0.4067798554897308,9.695716857910156,-1.4811571836471558
1134,64900.0,0.4067798554897308,9.695716857910156,-1.4811571836471558
1135,65000.0,0.4546363055706024,9.650253295898438,-1.4811571836471558
1136,65100.0,0.4546363055706024,9.650253295898438,-1.4811571836471558
1137,65200.0,0.4546363055706024,9.650253295898438,-1.4811571836471558
1138,65300.0,0.4594219326972962,9.611968994140623,-1.3830513954162598
1139,65400.0,0.4594219326972962,9.611968994140623,-1.3830513954162598
1140,64000.0,0.4163511395454407,9.66939640045166,-1.4189438819885254
1141,64100.0,0.4019941985607147,9.7005033493042,-1.5002998113632202
1142,64200.0,0.4019941985607147,9.7005033493042,-1.5002998113632202
1143,64300.0,0.4019941985607147,9.7005033493042,-1.5002998113632202
1144,64400.0,0.4163511395454407,9.707681655883787,-1.5026925802230835
1145,64500.0,0.4163511395454407,9.707681655883787,-1.5026925802230835
1146,64600.0,0.3924228847026825,9.707681655883787,-1.4261221885681152
1147,64700.0,0.3924228847026825,9.707681655883787,-1.4261221885681152
1148,64800.0,0.4067798554897308,9.695716857910156,-1.4811571836471558
1149,64900.0,0.4067798554897308,9.695716857910156,-1.4811571836471558
1150,65000.0,0.4546363055706024,9.650253295898438,-1.4811571836471558
1151,65100.0,0.4546363055706024,9.650253295898438,-1.4811571836471558
1152,65200.0,0.4546363055706024,9.650253295898438,-1.4811571836471558
1153,65300.0,0.4594219326972962,9.611968994140623,-1.3830513954162598
1154,65400.0,0.4594219326972962,9.611968994140623,-1.3830513954162598
1155,65500.0,0.4546363055706024,9.724431037902832,-1.4476575851440432
1156,65600.0,0.4546363055706024,9.724431037902832,-1.4476575851440432
1157,65700.0,0.4402793645858765,9.712467193603516,-1.4715858697891235
1158,65800.0,0.4402793645858765,9.712467193603516,-1.4715858697891235
1159,65900.0,0.4594219326972962,9.68375301361084,-1.495514154434204
1160,66000.0,0.4594219326972962,9.68375301361084,-1.495514154434204
1161,66100.0,0.4594219326972962,9.68375301361084,-1.495514154434204
1162,66200.0,0.4546363055706024,9.695716857910156,-1.4668002128601074
1163,66300.0,0.4546363055706024,9.695716857910156,-1.4668002128601074
1164,66400.0,0.397208571434021,9.722038269042967,-1.4261221885681152
1165,66500.0,0.397208571434021,9.722038269042967,-1.4261221885681152
1166,66600.0,0.4067798554897308,9.71485996246338,-1.4356936216354368
1167,66700.0,0.4067798554897308,9.71485996246338,-1.4356936216354368
1168,66800.0,0.4067798554897308,9.71485996246338,-1.4356936216354368
1169,66900.0,0.35892340540885925,9.681360244750977,-1.4404792785644531
1170,65500.0,0.4546363055706024,9.724431037902832,-1.4476575851440432
1171,65600.0,0.4546363055706024,9.724431037902832,-1.4476575851440432
1172,65700.0,0.4402793645858765,9.712467193603516,-1.4715858697891235
1173,65800.0,0.4402793645858765,9.712467193603516,-1.4715858697891235
1174,65900.0,0.4594219326972962,9.68375301361084,-1.495514154434204
1175,66000.0,0.4594219326972962,9.68375301361084,-1.495514154434204
1176,66100.0,0.4594219326972962,9.68375301361084,-1.495514154434204
1177,66200.0,0.4546363055706024,9.695716857910156,-1.4668002128601074
1178,66300.0,0.4546363055706024,9.695716857910156,-1.4668002128601074
1179,66400.0,0.397208571434021,9.722038269042967,-1.4261221885681152
1180,66500.0,0.397208571434021,9.722038269042967,-1.4261221885681152
1181,66600.0,0.4067798554897308,9.71485996246338,-1.4356936216354368
1182,66700.0,0.4067798554897308,9.71485996246338,-1.4356936216354368
1183,66800.0,0.4067798554897308,9.71485996246338,-1.4356936216354368
1184,66900.0,0.35892340540885925,9.681360244750977,-1.4404792785644531
1185,67000.0,0.35892340540885925,9.681360244750977,-1.4404792785644531
1186,67100.0,0.4067798554897308,9.681360244750977,-1.4548362493515017
1187,67200.0,0.4067798554897308,9.681360244750977,-1.4548362493515017
1188,67300.0,0.4067798554897308,9.681360244750977,-1.4548362493515017
1189,67400.0,0.3924228847026825,9.609575271606444,-1.4189438819885254
1190,67500.0,0.3924228847026825,9.609575271606444,-1.4189438819885254
1191,67600.0,0.4546363055706024,9.753145217895508,-1.442872166633606
1192,67700.0,0.4546363055706024,9.753145217895508,-1.442872166633606
1193,67800.0,0.3158525824546814,10.021141052246094,-1.2299107313156128
1194,67900.0,0.3158525824546814,10.021141052246094,-1.2299107313156128
1195,68000.0,0.4689932465553284,9.688538551330566,-1.4644075632095337
1196,68100.0,0.4689932465553284,9.688538551330566,-1.4644075632095337
1197,68200.0,0.4689932465553284,9.688538551330566,-1.4644075632095337
1198,68300.0,0.4450649619102478,9.688538551330566,-1.459621787071228
1199,68400.0,0.4450649619102478,9.688538551330566,-1.459621787071228
1200,67000.0,0.35892340540885925,9.681360244750977,-1.4404792785644531
1201,67100.0,0.4067798554897308,9.681360244750977,-1.4548362493515017
1202,67200.0,0.4067798554897308,9.681360244750977,-1.4548362493515017
1203,67300.0,0.4067798554897308,9.681360244750977,-1.4548362493515017
1204,67400.0,0.3924228847026825,9.609575271606444,-1.4189438819885254
1205,67500.0,0.3924228847026825,9.609575271606444,-1.4189438819885254
1206,67600.0,0.4546363055706024,9.753145217895508,-1.442872166633606
1207,67700.0,0.4546363055706024,9.753145217895508,-1.442872166633606
1208,67800.0,0.3158525824546814,10.021141052246094,-1.2299107313156128
1209,67900.0,0.3158525824546814,10.021141052246094,-1.2299107313156128
1210,68000.0,0.4689932465553284,9.688538551330566,-1.4644075632095337
1211,68100.0,0.4689932465553284,9.688538551330566,-1.4644075632095337
1212,68200.0,0.4689932465553284,9.688538551330566,-1.4644075632095337
1213,68300.0,0.4450649619102478,9.688538551330566,-1.459621787071228
1214,68400.0,0.4450649619102478,9.688538551330566,-1.459621787071228
1215,68500.0,0.4546363055706024,9.707681655883787,-1.4931212663650513
1216,68600.0,0.4546363055706024,9.707681655883787,-1.4931212663650513
1217,68700.0,0.4546363055706024,9.707681655883787,-1.4931212663650513
1218,68800.0,0.3828516006469727,9.674181938171387,-1.5433706045150757
1219,68900.0,0.3828516006469727,9.674181938171387,-1.5433706045150757
1220,69000.0,0.4259224236011505,9.695716857910156,-1.5170495510101318
1221,69100.0,0.4259224236011505,9.695716857910156,-1.5170495510101318
1222,69200.0,0.3876372575759888,9.66221809387207,-1.5529417991638184
1223,69300.0,0.3876372575759888,9.66221809387207,-1.5529417991638184
1224,69400.0,0.3876372575759888,9.66221809387207,-1.5529417991638184
1225,69500.0,0.4019941985607147,9.717252731323242,-1.5050854682922363
1226,69600.0,0.4019941985607147,9.717252731323242,-1.5050854682922363
1227,69700.0,0.4402793645858765,9.702895164489746,-1.5649060010910034
1228,69800.0,0.4402793645858765,9.702895164489746,-1.5649060010910034
1229,69900.0,0.4402793645858765,9.702895164489746,-1.5649060010910034
1230,68500.0,0.4546363055706024,9.707681655883787,-1.4931212663650513
1231,68600.0,0.4546363055706024,9.707681655883787,-1.4931212663650513
1232,68700.0,0.4546363055706024,9.707681655883787,-1.4931212663650513
1233,68800.0,0.3828516006469727,9.674181938171387,-1.5433706045150757
1234,68900.0,0.3828516006469727,9.674181938171387,-1.5433706045150757
1235,69000.0,0.4259224236011505,9.695716857910156,-1.5170495510101318
1236,69100.0,0.4259224236011505,9.695716857910156,-1.5170495510101318
1237,69200.0,0.3876372575759888,9.66221809387207,-1.5529417991638184
1238,69300.0,0.3876372575759888,9.66221809387207,-1.5529417991638184
1239,69400.0,0.3876372575759888,9.66221809387207,-1.5529417991638184
1240,69500.0,0.4019941985607147,9.717252731323242,-1.5050854682922363
1241,69600.0,0.4019941985607147,9.717252731323242,-1.5050854682922363
1242,69700.0,0.4402793645858765,9.702895164489746,-1.5649060010910034
1243,69800.0,0.4402793645858765,9.702895164489746,-1.5649060010910034
1244,69900.0,0.4402793645858765,9.702895164489746,-1.5649060010910034
1245,70000.0,0.4642075896263122,9.698110580444336,-1.5218352079391482
1246,70100.0,0.4642075896263122,9.698110580444336,-1.5218352079391482
1247,70200.0,0.4594219326972962,9.69093132019043,-1.5337992906570437
1248,70300.0,0.4594219326972962,9.69093132019043,-1.5337992906570437
1249,70400.0,0.4689932465553284,9.753145217895508,-1.4883356094360352
1250,70500.0,0.4689932465553284,9.753145217895508,-1.4883356094360352
1251,70600.0,0.4689932465553284,9.753145217895508,-1.4883356094360352
1252,70700.0,0.4498506784439087,9.717252731323242,-1.5050854682922363
1253,70800.0,0.4498506784439087,9.717252731323242,-1.5050854682922363
1254,70900.0,0.430708110332489,9.674181938171387,-1.5074783563613892
1255,71000.0,0.430708110332489,9.674181938171387,-1.5074783563613892
1256,71100.0,0.430708110332489,9.674181938171387,-1.5074783563613892
1257,71200.0,0.3924228847026825,9.741181373596193,-1.5314064025878906
1258,71300.0,0.3924228847026825,9.741181373596193,-1.5314064025878906
1259,71400.0,0.4402793645858765,9.702895164489746,-1.5050854682922363
1260,70000.0,0.4642075896263122,9.698110580444336,-1.5218352079391482
1261,70100.0,0.4642075896263122,9.698110580444336,-1.5218352079391482
1262,70200.0,0.4594219326972962,9.69093132019043,-1.5337992906570437
1263,70300.0,0.4594219326972962,9.69093132019043,-1.5337992906570437
1264,70400.0,0.4689932465553284,9.753145217895508,-1.4883356094360352
1265,70500.0,0.4689932465553284,9.753145217895508,-1.4883356094360352
1266,70600.0,0.4689932465553284,9.753145217895508,-1.4883356094360352
1267,70700.0,0.4498506784439087,9.717252731323242,-1.5050854682922363
1268,70800.0,0.4498506784439087,9.717252731323242,-1.5050854682922363
1269,70900.0,0.430708110332489,9.674181938171387,-1.5074783563613892
1270,71000.0,0.430708110332489,9.674181938171387,-1.5074783563613892
1271,71100.0,0.430708110332489,9.674181938171387,-1.5074783563613892
1272,71200.0,0.3924228847026825,9.741181373596193,-1.5314064025878906
1273,71300.0,0.3924228847026825,9.741181373596193,-1.5314064025878906
1274,71400.0,0.4402793645858765,9.702895164489746,-1.5050854682922363
1275,71500.0,0.4402793645858765,9.702895164489746,-1.5050854682922363
1276,71600.0,0.4546363055706024,9.635896682739258,-1.5002998113632202
1277,71700.0,0.4546363055706024,9.635896682739258,-1.5002998113632202
1278,71800.0,0.4546363055706024,9.635896682739258,-1.5002998113632202
1279,71900.0,0.3828516006469727,9.643074989318848,-1.4883356094360352
1280,72000.0,0.3828516006469727,9.643074989318848,-1.4883356094360352
1281,72100.0,0.4594219326972962,9.678967475891113,-1.6486548185348509
1282,72200.0,0.4594219326972962,9.678967475891113,-1.6486548185348509
1283,72300.0,0.4594219326972962,9.678967475891113,-1.6486548185348509
1284,72400.0,0.4163511395454407,9.765109062194824,-1.730010747909546
1285,72500.0,0.4163511395454407,9.765109062194824,-1.730010747909546
1286,72600.0,-0.2297109663486481,8.463413238525389,-4.0869412422180185
1287,72700.0,-0.2297109663486481,8.463413238525389,-4.0869412422180185
1288,72800.0,-0.4737788736820221,8.085347175598145,-6.034698486328125
1289,72900.0,-0.4737788736820221,8.085347175598145,-6.034698486328125
1290,71500.0,0.4402793645858765,9.702895164489746,-1.5050854682922363
1291,71600.0,0.4546363055706024,9.635896682739258,-1.5002998113632202
1292,71700.0,0.4546363055706024,9.635896682739258,-1.5002998113632202
1293,71800.0,0.4546363055706024,9.635896682739258,-1.5002998113632202
1294,71900.0,0.3828516006469727,9.643074989318848,-1.4883356094360352
1295,72000.0,0.3828516006469727,9.643074989318848,-1.4883356094360352
1296,72100.0,0.4594219326972962,9.678967475891113,-1.6486548185348509
1297,72200.0,0.4594219326972962,9.678967475891113,-1.6486548185348509
1298,72300.0,0.4594219326972962,9.678967475891113,-1.6486548185348509
1299,72400.0,0.4163511395454407,9.765109062194824,-1.730010747909546
1300,72500.0,0.4163511395454407,9.765109062194824,-1.730010747909546
1301,72600.0,-0.2297109663486481,8.463413238525389,-4.0869412422180185
1302,72700.0,-0.2297109663486481,8.463413238525389,-4.0869412422180185
1303,72800.0,-0.4737788736820221,8.085347175598145,-6.034698486328125
1304,72900.0,-0.4737788736820221,8.085347175598145,-6.034698486328125
1305,73000.0,0.04307081177830696,3.780659914016724,-9.262616157531738
1306,73100.0,0.04307081177830696,3.780659914016724,-9.262616157531738
1307,73200.0,0.04307081177830696,3.780659914016724,-9.262616157531738
1308,73300.0,-0.4929214715957642,4.0079779624938965,-8.791230201721191
1309,73400.0,-0.4929214715957642,4.0079779624938965,-8.791230201721191
1310,73500.0,-0.5647061467170715,4.651647090911865,-8.319844245910645
1311,73600.0,-0.5647061467170715,4.651647090911865,-8.319844245910645
1312,73700.0,-0.5647061467170715,4.651647090911865,-8.319844245910645
1313,73800.0,-0.5599204897880554,4.603790760040283,-8.405985832214355
1314,73900.0,-0.5599204897880554,4.603790760040283,-8.405985832214355
1315,74000.0,-0.6269195079803467,4.668396949768066,-8.575876235961914
1316,74100.0,-0.6269195079803467,4.668396949768066,-8.575876235961914
1317,74200.0,-0.7322037816047668,4.632504463195801,-8.446663856506348
1318,74300.0,-0.7322037816047668,4.632504463195801,-8.446663856506348
1319,74400.0,-0.7322037816047668,4.632504463195801,-8.446663856506348
1320,73000.0,0.04307081177830696,3.780659914016724,-9.262616157531738
1321,73100.0,0.04307081177830696,3.780659914016724,-9.262616157531738
1322,73200.0,0.04307081177830696,3.780659914016724,-9.262616157531738
1323,73300.0,-0.4929214715957642,4.0079779624938965,-8.791230201721191
1324,73400.0,-0.4929214715957642,4.0079779624938965,-8.791230201721191
1325,73500.0,-0.5647061467170715,4.651647090911865,-8.319844245910645
1326,73600.0,-0.5647061467170715,4.651647090911865,-8.319844245910645
1327,73700.0,-0.5647061467170715,4.651647090911865,-8.319844245910645
1328,73800.0,-0.5599204897880554,4.603790760040283,-8.405985832214355
1329,73900.0,-0.5599204897880554,4.603790760040283,-8.405985832214355
1330,74000.0,-0.6269195079803467,4.668396949768066,-8.575876235961914
1331,74100.0,-0.6269195079803467,4.668396949768066,-8.575876235961914
1332,74200.0,-0.7322037816047668,4.632504463195801,-8.446663856506348
1333,74300.0,-0.7322037816047668,4.632504463195801,-8.446663856506348
1334,74400.0,-0.7322037816047668,4.632504463195801,-8.446663856506348
1335,74500.0,-0.8566305041313171,4.869394302368164,-8.635696411132812
1336,74600.0,-0.8566305041313171,4.869394302368164,-8.635696411132812
1337,74700.0,-0.9475577473640442,5.307280540466309,-8.358129501342772
1338,74800.0,-0.9475577473640442,5.307280540466309,-8.358129501342772
1339,74900.0,-1.9573287963867188,7.556533336639403,-5.276174068450928
1340,75000.0,-1.9573287963867188,7.556533336639403,-5.276174068450928
1341,75100.0,-1.9573287963867188,7.556533336639403,-5.276174068450928
1342,75200.0,-2.2827527523040767,8.039883613586426,-4.922036170959473
1343,75300.0,-2.2827527523040767,8.039883613586426,-4.922036170959473
1344,75400.0,-1.636690616607666,10.021141052246094,-0.3134597539901733
1345,75500.0,-1.636690616607666,10.021141052246094,-0.3134597539901733
1346,75600.0,-1.5170495510101318,8.669197082519531,-3.3403804302215576
1347,75700.0,-1.5170495510101318,8.669197082519531,-3.3403804302215576
1348,75800.0,-1.5170495510101318,8.669197082519531,-3.3403804302215576
1349,75900.0,-1.1868400573730469,7.22871732711792,-6.833901405334473
1350,74500.0,-0.8566305041313171,4.869394302368164,-8.635696411132812
1351,74600.0,-0.8566305041313171,4.869394302368164,-8.635696411132812
1352,74700.0,-0.9475577473640442,5.307280540466309,-8.358129501342772
1353,74800.0,-0.9475577473640442,5.307280540466309,-8.358129501342772
1354,74900.0,-1.9573287963867188,7.556533336639403,-5.276174068450928
1355,75000.0,-1.9573287963867188,7.556533336639403,-5.276174068450928
1356,75100.0,-1.9573287963867188,7.556533336639403,-5.276174068450928
1357,75200.0,-2.2827527523040767,8.039883613586426,-4.922036170959473
1358,75300.0,-2.2827527523040767,8.039883613586426,-4.922036170959473
1359,75400.0,-1.636690616607666,10.021141052246094,-0.3134597539901733
1360,75500.0,-1.636690616607666,10.021141052246094,-0.3134597539901733
1361,75600.0,-1.5170495510101318,8.669197082519531,-3.3403804302215576
1362,75700.0,-1.5170495510101318,8.669197082519531,-3.3403804302215576
1363,75800.0,-1.5170495510101318,8.669197082519531,-3.3403804302215576
1364,75900.0,-1.1868400573730469,7.22871732711792,-6.833901405334473
1365,76000.0,-1.1868400573730469,7.22871732711792,-6.833901405334473
1366,76100.0,-1.3639088869094849,6.374479293823242,-7.3363938331604
1367,76200.0,-1.3639088869094849,6.374479293823242,-7.3363938331604
1368,76300.0,-0.8662018179893494,6.431907176971436,-6.070591449737549
1369,76400.0,-0.8662018179893494,6.431907176971436,-6.070591449737549
1370,76500.0,-0.8662018179893494,6.431907176971436,-6.070591449737549
1371,76600.0,-0.04307081177830696,7.3124656677246085,-7.137789726257324
1372,76700.0,-0.04307081177830696,7.3124656677246085,-7.137789726257324
1373,76800.0,-0.397208571434021,8.346165657043457,-4.299902439117432
1374,76900.0,-0.397208571434021,8.346165657043457,-4.299902439117432
1375,77000.0,-0.5790630578994751,9.360722541809082,-2.359323024749756
1376,77100.0,-0.5790630578994751,9.360722541809082,-2.359323024749756
1377,77200.0,-0.5790630578994751,9.360722541809082,-2.359323024749756
1378,77300.0,-0.30149564146995544,10.576275825500488,0.21774686872959134
1379,77400.0,-0.30149564146995544,10.576275825500488,0.21774686872959134
1380,76000.0,-1.1868400573730469,7.22871732711792,-6.833901405334473
1381,76100.0,-1.3639088869094849,6.374479293823242,-7.3363938331604
1382,76200.0,-1.3639088869094849,6.374479293823242,-7.3363938331604
1383,76300.0,-0.8662018179893494,6.431907176971436,-6.070591449737549
1384,76400.0,-0.8662018179893494,6.431907176971436,-6.070591449737549
1385,76500.0,-0.8662018179893494,6.431907176971436,-6.070591449737549
1386,76600.0,-0.04307081177830696,7.3124656677246085,-7.137789726257324
1387,76700.0,-0.04307081177830696,7.3124656677246085,-7.137789726257324
1388,76800.0,-0.397208571434021,8.346165657043457,-4.299902439117432
1389,76900.0,-0.397208571434021,8.346165657043457,-4.299902439117432
1390,77000.0,-0.5790630578994751,9.360722541809082,-2.359323024749756
1391,77100.0,-0.5790630578994751,9.360722541809082,-2.359323024749756
1392,77200.0,-0.5790630578994751,9.360722541809082,-2.359323024749756
1393,77300.0,-0.30149564146995544,10.576275825500488,0.21774686872959134
1394,77400.0,-0.30149564146995544,10.576275825500488,0.21774686872959134
1395,77500.0,-0.20578275620937347,9.954142570495604,-0.11006984114646913
1396,77600.0,-0.20578275620937347,9.954142570495604,-0.11006984114646913
1397,77700.0,-0.02392822504043579,9.824929237365724,-0.2679961323738098
1398,77800.0,-0.02392822504043579,9.824929237365724,-0.2679961323738098
1399,77900.0,-0.02392822504043579,9.824929237365724,-0.2679961323738098
1400,78000.0,0.00957129057496786,9.863215446472168,-0.14356936514377594
1401,78100.0,0.00957129057496786,9.863215446472168,-0.14356936514377594
1402,78200.0,0.04307081177830696,9.896714210510254,-0.1986042857170105
1403,78300.0,0.04307081177830696,9.896714210510254,-0.1986042857170105
1404,78400.0,0.04307081177830696,9.896714210510254,-0.1986042857170105
1405,78500.0,0.06699903309345245,9.877571105957033,-0.13878372311592102
1406,78600.0,0.06699903309345245,9.877571105957033,-0.13878372311592102
1407,78700.0,-0.0526420958340168,9.846465110778807,-0.15314064919948578
1408,78800.0,-0.0526420958340168,9.846465110778807,-0.15314064919948578
1409,78900.0,0.08614162355661392,9.856036186218262,-0.13160523772239685
1410,77500.0,-0.20578275620937347,9.954142570495604,-0.11006984114646913
1411,77600.0,-0.20578275620937347,9.954142570495604,-0.11006984114646913
1412,77700.0,-0.02392822504043579,9.824929237365724,-0.2679961323738098
1413,77800.0,-0.02392822504043579,9.824929237365724,-0.2679961323738098
1414,77900.0,-0.02392822504043579,9.824929237365724,-0.2679961323738098
1415,78000.0,0.00957129057496786,9.863215446472168,-0.14356936514377594
1416,78100.0,0.00957129057496786,9.863215446472168,-0.14356936514377594
1417,78200.0,0.04307081177830696,9.896714210510254,-0.1986042857170105
1418,78300.0,0.04307081177830696,9.896714210510254,-0.1986042857170105
1419,78400.0,0.04307081177830696,9.896714210510254,-0.1986042857170105
1420,78500.0,0.06699903309345245,9.877571105957033,-0.13878372311592102
1421,78600.0,0.06699903309345245,9.877571105957033,-0.13878372311592102
1422,78700.0,-0.0526420958340168,9.846465110778807,-0.15314064919948578
1423,78800.0,-0.0526420958340168,9.846465110778807,-0.15314064919948578
1424,78900.0,0.08614162355661392,9.856036186218262,-0.13160523772239685
1425,79000.0,0.08614162355661392,9.856036186218262,-0.13160523772239685
1426,79100.0,0.11006984114646913,9.80817985534668,-0.17706887423992154
1427,79200.0,0.11006984114646913,9.80817985534668,-0.17706887423992154
1428,79300.0,0.11006984114646913,9.80817985534668,-0.17706887423992154
1429,79400.0,0.12442677468061447,9.836893081665039,-0.15314064919948578
1430,79500.0,0.12442677468061447,9.836893081665039,-0.15314064919948578
1431,79600.0,0.08614162355661392,9.81057357788086,-0.13639087975025174
1432,79700.0,0.08614162355661392,9.81057357788086,-0.13639087975025174
1433,79800.0,0.08614162355661392,9.81057357788086,-0.13639087975025174
1434,79900.0,0.11964112520217896,9.812965393066406,-0.15553347766399386
1435,80000.0,0.11964112520217896,9.812965393066406,-0.15553347766399386
1436,80100.0,0.1627119481563568,9.868000030517578,-0.1220339611172676
1437,80200.0,0.1627119481563568,9.868000030517578,-0.1220339611172676
1438,80300.0,0.1052841916680336,9.772287368774414,-0.16749757528305054
1439,80400.0,0.1052841916680336,9.772287368774414,-0.16749757528305054
1440,79000.0,0.08614162355661392,9.856036186218262,-0.13160523772239685
1441,79100.0,0.11006984114646913,9.80817985534668,-0.17706887423992154
1442,79200.0,0.11006984114646913,9.80817985534668,-0.17706887423992154
1443,79300.0,0.11006984114646913,9.80817985534668,-0.17706887423992154
1444,79400.0,0.12442677468061447,9.836893081665039,-0.15314064919948578
1445,79500.0,0.12442677468061447,9.836893081665039,-0.15314064919948578
1446,79600.0,0.08614162355661392,9.81057357788086,-0.13639087975025174
1447,79700.0,0.08614162355661392,9.81057357788086,-0.13639087975025174
1448,79800.0,0.08614162355661392,9.81057357788086,-0.13639087975025174
1449,79900.0,0.11964112520217896,9.812965393066406,-0.15553347766399386
1450,80000.0,0.11964112520217896,9.812965393066406,-0.15553347766399386
1451,80100.0,0.1627119481563568,9.868000030517578,-0.1220339611172676
1452,80200.0,0.1627119481563568,9.868000030517578,-0.1220339611172676
1453,80300.0,0.1052841916680336,9.772287368774414,-0.16749757528305054
1454,80400.0,0.1052841916680336,9.772287368774414,-0.16749757528305054
1455,80500.0,0.1052841916680336,9.772287368774414,-0.16749757528305054
1456,80600.0,0.16749757528305054,9.870393753051758,-0.15074782073497772
1457,80700.0,0.16749757528305054,9.870393753051758,-0.15074782073497772
1458,80800.0,0.17228324711322784,9.784252166748047,-0.1938186287879944
1459,80900.0,0.17228324711322784,9.784252166748047,-0.1938186287879944
1460,81000.0,0.17228324711322784,9.784252166748047,-0.1938186287879944
1461,81100.0,0.1579262912273407,9.760323524475098,-0.14835500717163086
1462,81200.0,0.1579262912273407,9.760323524475098,-0.14835500717163086
1463,81300.0,0.08614162355661392,9.853643417358398,-0.1579262912273407
1464,81400.0,0.08614162355661392,9.853643417358398,-0.1579262912273407
1465,81500.0,0.1579262912273407,9.803394317626953,-0.18903298676013947
1466,81600.0,0.1579262912273407,9.803394317626953,-0.18903298676013947
1467,81700.0,0.1579262912273407,9.803394317626953,-0.18903298676013947
1468,81800.0,0.10049854964017868,9.853643417358398,-0.17228324711322784
1469,81900.0,0.10049854964017868,9.853643417358398,-0.17228324711322784
1470,80500.0,0.1052841916680336,9.772287368774414,-0.16749757528305054
1471,80600.0,0.16749757528305054,9.870393753051758,-0.15074782073497772
1472,80700.0,0.16749757528305054,9.870393753051758,-0.15074782073497772
1473,80800.0,0.17228324711322784,9.784252166748047,-0.1938186287879944
1474,80900.0,0.17228324711322784,9.784252166748047,-0.1938186287879944
1475,81000.0,0.17228324711322784,9.784252166748047,-0.1938186287879944
1476,81100.0,0.1579262912273407,9.760323524475098,-0.14835500717163086
1477,81200.0,0.1579262912273407,9.760323524475098,-0.14835500717163086
1478,81300.0,0.08614162355661392,9.853643417358398,-0.1579262912273407
1479,81400.0,0.08614162355661392,9.853643417358398,-0.1579262912273407
1480,81500.0,0.1579262912273407,9.803394317626953,-0.18903298676013947
1481,81600.0,0.1579262912273407,9.803394317626953,-0.18903298676013947
1482,81700.0,0.1579262912273407,9.803394317626953,-0.18903298676013947
1483,81800.0,0.10049854964017868,9.853643417358398,-0.17228324711322784
1484,81900.0,0.10049854964017868,9.853643417358398,-0.17228324711322784
1485,82000.0,0.14356936514377594,9.856036186218262,-0.09092726558446884
1486,82100.0,0.14356936514377594,9.856036186218262,-0.09092726558446884
1487,82200.0,0.11964112520217896,9.820144653320312,-0.06699903309345245
1488,82300.0,0.11964112520217896,9.820144653320312,-0.06699903309345245
1489,82400.0,0.11964112520217896,9.820144653320312,-0.06699903309345245
1490,82500.0,0.14356936514377594,9.824929237365724,-0.16510476171970367
1491,82600.0,0.14356936514377594,9.824929237365724,-0.16510476171970367
1492,82700.0,0.20578275620937347,9.841679573059082,-0.19621144235134125
1493,82800.0,0.20578275620937347,9.841679573059082,-0.19621144235134125
1494,82900.0,0.20578275620937347,9.841679573059082,-0.19621144235134125
1495,83000.0,0.1339980661869049,9.817750930786133,-0.13878372311592102
1496,83100.0,0.1339980661869049,9.817750930786133,-0.13878372311592102
1497,83200.0,0.22492533922195435,9.863215446472168,-0.12921242415905002
1498,83300.0,0.22492533922195435,9.863215446472168,-0.12921242415905002
1499,83400.0,0.17228324711322784,9.841679573059082,-0.15074782073497772
1500,82000.0,0.14356936514377594,9.856036186218262,-0.09092726558446884
1501,82100.0,0.14356936514377594,9.856036186218262,-0.09092726558446884
1502,82200.0,0.11964112520217896,9.820144653320312,-0.06699903309345245
1503,82300.0,0.11964112520217896,9.820144653320312,-0.06699903309345245
1504,82400.0,0.11964112520217896,9.820144653320312,-0.06699903309345245
1505,82500.0,0.14356936514377594,9.824929237365724,-0.16510476171970367
1506,82600.0,0.14356936514377594,9.824929237365724,-0.16510476171970367
1507,82700.0,0.20578275620937347,9.841679573059082,-0.19621144235134125
1508,82800.0,0.20578275620937347,9.841679573059082,-0.19621144235134125
1509,82900.0,0.20578275620937347,9.841679573059082,-0.19621144235134125
1510,83000.0,0.1339980661869049,9.817750930786133,-0.13878372311592102
1511,83100.0,0.1339980661869049,9.817750930786133,-0.13878372311592102
1512,83200.0,0.22492533922195435,9.863215446472168,-0.12921242415905002
1513,83300.0,0.22492533922195435,9.863215446472168,-0.12921242415905002
1514,83400.0,0.17228324711322784,9.841679573059082,-0.15074782073497772
1515,83500.0,0.17228324711322784,9.841679573059082,-0.15074782073497772
1516,83600.0,0.17228324711322784,9.841679573059082,-0.15074782073497772
1517,83700.0,0.20099709928035736,9.789037704467773,-0.14835500717163086
1518,83800.0,0.20099709928035736,9.789037704467773,-0.14835500717163086
1519,83900.0,0.12442677468061447,9.839285850524902,-0.1459621787071228
1520,84000.0,0.12442677468061447,9.839285850524902,-0.1459621787071228
1521,84100.0,0.1579262912273407,9.875179290771484,-0.16510476171970367
1522,84200.0,0.1579262912273407,9.875179290771484,-0.16510476171970367
1523,84300.0,0.1579262912273407,9.875179290771484,-0.16510476171970367
1524,84400.0,0.1627119481563568,9.853643417358398,-0.11246266961097716
1525,84500.0,0.1627119481563568,9.853643417358398,-0.11246266961097716
1526,84600.0,0.11485548317432405,9.77707290649414,-0.1866401582956314
1527,84700.0,0.11485548317432405,9.77707290649414,-0.1866401582956314
1528,84800.0,0.12442677468061447,9.856036186218262,-0.15074782073497772
1529,84900.0,0.12442677468061447,9.856036186218262,-0.15074782073497772
1530,83500.0,0.17228324711322784,9.841679573059082,-0.15074782073497772
1531,83600.0,0.17228324711322784,9.841679573059082,-0.15074782073497772
1532,83700.0,0.20099709928035736,9.789037704467773,-0.14835500717163086
1533,83800.0,0.20099709928035736,9.789037704467773,-0.14835500717163086
1534,83900.0,0.12442677468061447,9.839285850524902,-0.1459621787071228
1535,84000.0,0.12442677468061447,9.839285850524902,-0.1459621787071228
1536,84100.0,0.1579262912273407,9.875179290771484,-0.16510476171970367
1537,84200.0,0.1579262912273407,9.875179290771484,-0.16510476171970367
1538,84300.0,0.1579262912273407,9.875179290771484,-0.16510476171970367
1539,84400.0,0.1627119481563568,9.853643417358398,-0.11246266961097716
1540,84500.0,0.1627119481563568,9.853643417358398,-0.11246266961097716
1541,84600.0,0.11485548317432405,9.77707290649414,-0.1866401582956314
1542,84700.0,0.11485548317432405,9.77707290649414,-0.1866401582956314
1543,84800.0,0.12442677468061447,9.856036186218262,-0.15074782073497772
1544,84900.0,0.12442677468061447,9.856036186218262,-0.15074782073497772
1545,85000.0,0.17706887423992154,9.834501266479492,-0.13160523772239685
1546,85100.0,0.17706887423992154,9.834501266479492,-0.13160523772239685
1547,85200.0,0.12921242415905002,9.824929237365724,-0.16031910479068756
1548,85300.0,0.12921242415905002,9.824929237365724,-0.16031910479068756
1549,85400.0,0.12921242415905002,9.824929237365724,-0.16031910479068756
1550,85500.0,0.14835500717163086,9.91585636138916,-0.16749757528305054
1551,85600.0,0.14835500717163086,9.91585636138916,-0.16749757528305054
1552,85700.0,0.1579262912273407,9.839285850524902,-0.1579262912273407
1553,85800.0,0.1579262912273407,9.839285850524902,-0.1579262912273407
1554,85900.0,0.1579262912273407,9.839285850524902,-0.1579262912273407
1555,86000.0,0.17228324711322784,9.820144653320312,-0.1938186287879944
1556,86100.0,0.17228324711322784,9.820144653320312,-0.1938186287879944
1557,86200.0,0.14356936514377594,9.844072341918944,-0.10049854964017868
1558,86300.0,0.14356936514377594,9.844072341918944,-0.10049854964017868
1559,86400.0,0.12921242415905002,9.856036186218262,-0.1052841916680336
1560,85000.0,0.17706887423992154,9.834501266479492,-0.13160523772239685
1561,85100.0,0.17706887423992154,9.834501266479492,-0.13160523772239685
1562,85200.0,0.12921242415905002,9.824929237365724,-0.16031910479068756
1563,85300.0,0.12921242415905002,9.824929237365724,-0.16031910479068756
1564,85400.0,0.12921242415905002,9.824929237365724,-0.16031910479068756
1565,85500.0,0.14835500717163086,9.91585636138916,-0.16749757528305054
1566,85600.0,0.14835500717163086,9.91585636138916,-0.16749757528305054
1567,85700.0,0.1579262912273407,9.839285850524902,-0.1579262912273407
1568,85800.0,0.1579262912273407,9.839285850524902,-0.1579262912273407
1569,85900.0,0.1579262912273407,9.839285850524902,-0.1579262912273407
1570,86000.0,0.17228324711322784,9.820144653320312,-0.1938186287879944
1571,86100.0,0.17228324711322784,9.820144653320312,-0.1938186287879944
1572,86200.0,0.14356936514377594,9.844072341918944,-0.10049854964017868
1573,86300.0,0.14356936514377594,9.844072341918944,-0.10049854964017868
1574,86400.0,0.12921242415905002,9.856036186218262,-0.1052841916680336
1575,86500.0,0.12921242415905002,9.856036186218262,-0.1052841916680336
1576,86600.0,0.12921242415905002,9.856036186218262,-0.1052841916680336
1577,86700.0,0.17706887423992154,9.858428955078123,-0.09571290016174316
1578,86800.0,0.17706887423992154,9.858428955078123,-0.09571290016174316
1579,86900.0,0.1339980661869049,9.803394317626953,-0.1579262912273407
1580,87000.0,0.1339980661869049,9.803394317626953,-0.1579262912273407
1581,87100.0,0.12921242415905002,9.896714210510254,-0.17946170270442965
1582,87200.0,0.12921242415905002,9.896714210510254,-0.17946170270442965
1583,87300.0,0.12921242415905002,9.896714210510254,-0.17946170270442965
1584,87400.0,0.12921242415905002,9.81535816192627,-0.2105683833360672
1585,87500.0,0.12921242415905002,9.81535816192627,-0.2105683833360672
1586,87600.0,0.1579262912273407,9.836893081665039,-0.07178468257188797
1587,87700.0,0.1579262912273407,9.836893081665039,-0.07178468257188797
1588,87800.0,0.14835500717163086,9.781858444213867,-0.1052841916680336
1589,87900.0,0.14835500717163086,9.781858444213867,-0.1052841916680336
1590,86500.0,0.12921242415905002,9.856036186218262,-0.1052841916680336
1591,86600.0,0.12921242415905002,9.856036186218262,-0.1052841916680336
1592,86700.0,0.17706887423992154,9.858428955078123,-0.09571290016174316
1593,86800.0,0.17706887423992154,9.858428955078123,-0.09571290016174316
1594,86900.0,0.1339980661869049,9.803394317626953,-0.1579262912273407
1595,87000.0,0.1339980661869049,9.803394317626953,-0.1579262912273407
1596,87100.0,0.12921242415905002,9.896714210510254,-0.17946170270442965
1597,87200.0,0.12921242415905002,9.896714210510254,-0.17946170270442965
1598,87300.0,0.12921242415905002,9.896714210510254,-0.17946170270442965
1599,87400.0,0.12921242415905002,9.81535816192627,-0.2105683833360672
1600,87500.0,0.12921242415905002,9.81535816192627,-0.2105683833360672
1601,87600.0,0.1579262912273407,9.836893081665039,-0.07178468257188797
1602,87700.0,0.1579262912273407,9.836893081665039,-0.07178468257188797
1603,87800.0,0.14835500717163086,9.781858444213867,-0.1052841916680336
1604,87900.0,0.14835500717163086,9.781858444213867,-0.1052841916680336
1605,88000.0,0.14835500717163086,9.781858444213867,-0.1052841916680336
1606,88100.0,0.1339980661869049,9.851251602172852,-0.11724831163883208
1607,88200.0,0.1339980661869049,9.851251602172852,-0.11724831163883208
1608,88300.0,0.22492533922195435,9.80100154876709,-0.1938186287879944
1609,88400.0,0.22492533922195435,9.80100154876709,-0.1938186287879944
1610,88500.0,0.20578275620937347,9.870393753051758,-0.1459621787071228
1611,88600.0,0.20578275620937347,9.870393753051758,-0.1459621787071228
1612,88700.0,0.20578275620937347,9.870393753051758,-0.1459621787071228
1613,88800.0,0.2440679222345352,9.81535816192627,-0.14835500717163086
1614,88900.0,0.2440679222345352,9.81535816192627,-0.14835500717163086
1615,89000.0,0.16749757528305054,9.846465110778807,-0.1698903888463974
1616,89100.0,0.16749757528305054,9.846465110778807,-0.1698903888463974
1617,89200.0,0.13878372311592102,9.846465110778807,-0.17946170270442965
1618,89300.0,0.13878372311592102,9.846465110778807,-0.17946170270442965
1619,89400.0,0.20578275620937347,9.841679573059082,-0.1698903888463974
1620,88000.0,0.14835500717163086,9.781858444213867,-0.1052841916680336
1621,88100.0,0.1339980661869049,9.851251602172852,-0.11724831163883208
1622,88200.0,0.1339980661869049,9.851251602172852,-0.11724831163883208
1623,88300.0,0.22492533922195435,9.80100154876709,-0.1938186287879944
1624,88400.0,0.22492533922195435,9.80100154876709,-0.1938186287879944
1625,88500.0,0.20578275620937347,9.870393753051758,-0.1459621787071228
1626,88600.0,0.20578275620937347,9.870393753051758,-0.1459621787071228
1627,88700.0,0.20578275620937347,9.870393753051758,-0.1459621787071228
1628,88800.0,0.2440679222345352,9.81535816192627,-0.14835500717163086
1629,88900.0,0.2440679222345352,9.81535816192627,-0.14835500717163086
1630,89000.0,0.16749757528305054,9.846465110778807,-0.1698903888463974
1631,89100.0,0.16749757528305054,9.846465110778807,-0.1698903888463974
1632,89200.0,0.13878372311592102,9.846465110778807,-0.17946170270442965
1633,89300.0,0.13878372311592102,9.846465110778807,-0.17946170270442965
1634,89400.0,0.20578275620937347,9.841679573059082,-0.1698903888463974
1635,89500.0,0.20578275620937347,9.841679573059082,-0.1698903888463974
1636,89600.0,0.20578275620937347,9.841679573059082,-0.1698903888463974
1637,89700.0,0.20578275620937347,9.78664493560791,-0.16749757528305054
1638,89800.0,0.20578275620937347,9.78664493560791,-0.16749757528305054
1639,89900.0,0.1339980661869049,9.817750930786133,-0.17228324711322784
1640,90000.0,0.1339980661869049,9.817750930786133,-0.17228324711322784
1641,90100.0,0.1339980661869049,9.817750930786133,-0.17228324711322784
1642,90200.0,0.09571290016174316,9.724431037902832,-0.17946170270442965
1643,90300.0,0.09571290016174316,9.724431037902832,-0.17946170270442965
1644,90400.0,0.15314064919948578,9.82971477508545,-0.18903298676013947
1645,90500.0,0.15314064919948578,9.82971477508545,-0.18903298676013947
1646,90600.0,0.17228324711322784,9.868000030517578,-0.11246266961097716
1647,90700.0,0.17228324711322784,9.868000030517578,-0.11246266961097716
1648,90800.0,0.17228324711322784,9.868000030517578,-0.11246266961097716
1649,90900.0,0.12442677468061447,9.868000030517578,-0.17228324711322784
1650,89500.0,0.20578275620937347,9.841679573059082,-0.1698903888463974
1651,89600.0,0.20578275620937347,9.841679573059082,-0.1698903888463974
1652,89700.0,0.20578275620937347,9.78664493560791,-0.16749757528305054
1653,89800.0,0.20578275620937347,9.78664493560791,-0.16749757528305054
1654,89900.0,0.1339980661869049,9.817750930786133,-0.17228324711322784
1655,90000.0,0.1339980661869049,9.817750930786133,-0.17228324711322784
1656,90100.0,0.1339980661869049,9.817750930786133,-0.17228324711322784
1657,90200.0,0.09571290016174316,9.724431037902832,-0.17946170270442965
1658,90300.0,0.09571290016174316,9.724431037902832,-0.17946170270442965
1659,90400.0,0.15314064919948578,9.82971477508545,-0.18903298676013947
1660,90500.0,0.15314064919948578,9.82971477508545,-0.18903298676013947
1661,90600.0,0.17228324711322784,9.868000030517578,-0.11246266961097716
1662,90700.0,0.17228324711322784,9.868000030517578,-0.11246266961097716
1663,90800.0,0.17228324711322784,9.868000030517578,-0.11246266961097716
1664,90900.0,0.12442677468061447,9.868000030517578,-0.17228324711322784
1665,91000.0,0.12442677468061447,9.868000030517578,-0.17228324711322784
1666,91100.0,0.2153540551662445,9.822537422180176,-0.12681959569454193
1667,91200.0,0.2153540551662445,9.822537422180176,-0.12681959569454193
1668,91300.0,0.2153540551662445,9.822537422180176,-0.12681959569454193
1669,91400.0,0.17228324711322784,9.791430473327637,-0.09092726558446884
1670,91500.0,0.17228324711322784,9.791430473327637,-0.09092726558446884
1671,91600.0,0.19621144235134125,9.841679573059082,-0.14117653667926788
1672,91700.0,0.19621144235134125,9.841679573059082,-0.14117653667926788
1673,91800.0,0.15314064919948578,9.7938232421875,-0.17228324711322784
1674,91900.0,0.15314064919948578,9.7938232421875,-0.17228324711322784
1675,92000.0,0.17228324711322784,9.832108497619627,-0.13878372311592102
1676,92100.0,0.17228324711322784,9.832108497619627,-0.13878372311592102
1677,92200.0,0.17228324711322784,9.832108497619627,-0.13878372311592102
1678,92300.0,0.1866401582956314,9.863215446472168,-0.11246266961097716
1679,92400.0,0.1866401582956314,9.863215446472168,-0.11246266961097716
1680,91000.0,0.12442677468061447,9.868000030517578,-0.17228324711322784
1681,91100.0,0.2153540551662445,9.822537422180176,-0.12681959569454193
1682,91200.0,0.2153540551662445,9.822537422180176,-0.12681959569454193
1683,91300.0,0.2153540551662445,9.822537422180176,-0.12681959569454193
1684,91400.0,0.17228324711322784,9.791430473327637,-0.09092726558446884
1685,91500.0,0.17228324711322784,9.791430473327637,-0.09092726558446884
1686,91600.0,0.19621144235134125,9.841679573059082,-0.14117653667926788
1687,91700.0,0.19621144235134125,9.841679573059082,-0.14117653667926788
1688,91800.0,0.15314064919948578,9.7938232421875,-0.17228324711322784
1689,91900.0,0.15314064919948578,9.7938232421875,-0.17228324711322784
1690,92000.0,0.17228324711322784,9.832108497619627,-0.13878372311592102
1691,92100.0,0.17228324711322784,9.832108497619627,-0.13878372311592102
1692,92200.0,0.17228324711322784,9.832108497619627,-0.13878372311592102
1693,92300.0,0.1866401582956314,9.863215446472168,-0.11246266961097716
1694,92400.0,0.1866401582956314,9.863215446472168,-0.11246266961097716
1695,92500.0,0.1627119481563568,9.798608779907227,-0.18903298676013947
1696,92600.0,0.1627119481563568,9.798608779907227,-0.18903298676013947
1697,92700.0,0.1627119481563568,9.798608779907227,-0.18903298676013947
1698,92800.0,0.20099709928035736,9.817750930786133,-0.18424734473228452
1699,92900.0,0.20099709928035736,9.817750930786133,-0.18424734473228452
1700,93000.0,0.14835500717163086,9.817750930786133,-0.1698903888463974
1701,93100.0,0.14835500717163086,9.817750930786133,-0.1698903888463974
1702,93200.0,0.11006984114646913,9.846465110778807,-0.1986042857170105
1703,93300.0,0.11006984114646913,9.846465110778807,-0.1986042857170105
1704,93400.0,0.2297109663486481,9.853643417358398,-0.19142580032348636
1705,93500.0,0.2297109663486481,9.853643417358398,-0.19142580032348636
1706,93600.0,0.2297109663486481,9.853643417358398,-0.19142580032348636
1707,93700.0,0.22492533922195435,9.853643417358398,-0.21774686872959134
1708,93800.0,0.22492533922195435,9.853643417358398,-0.21774686872959134
1709,93900.0,0.2440679222345352,9.80817985534668,-0.2321037948131561
1710,92500.0,0.1627119481563568,9.798608779907227,-0.18903298676013947
1711,92600.0,0.1627119481563568,9.798608779907227,-0.18903298676013947
1712,92700.0,0.1627119481563568,9.798608779907227,-0.18903298676013947
1713,92800.0,0.20099709928035736,9.817750930786133,-0.18424734473228452
1714,92900.0,0.20099709928035736,9.817750930786133,-0.18424734473228452
1715,93000.0,0.14835500717163086,9.817750930786133,-0.1698903888463974
1716,93100.0,0.14835500717163086,9.817750930786133,-0.1698903888463974
