,timestamp,ax,ay,az
0,7000.0,-8.896254539489746,-0.30047231912612915,3.690661907196045
1,7100.0,-8.896254539489746,-0.30047231912612915,3.690661907196045
2,7200.0,-8.896254539489746,-0.30047231912612915,3.690661907196045
3,7300.0,-8.89685344696045,-0.2621650993824005,3.706224203109741
4,7400.0,-8.877699851989746,-0.3052607178688049,3.67390251159668
5,7500.0,-8.877699851989746,-0.3052607178688049,3.67390251159668
6,7600.0,-8.899248123168945,-0.2382230758666992,3.7044286727905273
7,7700.0,-8.899248123168945,-0.2382230758666992,3.7044286727905273
8,7800.0,-9.009979248046877,-0.228047713637352,3.6086604595184326
9,7900.0,-9.009979248046877,-0.228047713637352,3.6086604595184326
10,8000.0,-8.799888610839844,-0.2382230758666992,3.7989995479583736
11,8100.0,-8.799888610839844,-0.2382230758666992,3.7989995479583736
12,8200.0,-8.899248123168945,-0.28371289372444153,3.6780924797058105
13,8300.0,-8.88907241821289,-0.2561795711517334,3.713406801223755
14,8400.0,-8.88907241821289,-0.2561795711517334,3.713406801223755
15,8500.0,-8.909422874450684,-0.2777273952960968,3.7229835987091056
16,8600.0,-8.909422874450684,-0.2777273952960968,3.7229835987091056
17,8700.0,-8.954314231872559,-0.27054479718208313,3.6355953216552734
18,8800.0,-8.954314231872559,-0.27054479718208313,3.6355953216552734
19,8900.0,-8.89685344696045,-0.2980781197547913,3.711012601852417
20,9000.0,-8.89685344696045,-0.2980781197547913,3.711012601852417
21,9100.0,-8.927379608154297,-0.28131869435310364,3.6762967109680176
22,9200.0,-8.925583839416504,-0.26815059781074524,3.700837373733521
23,9300.0,-8.925583839416504,-0.26815059781074524,3.700837373733521
24,9400.0,-8.89445972442627,-0.2651578485965729,3.751115560531616
25,9500.0,-8.89445972442627,-0.2651578485965729,3.751115560531616
26,9600.0,-8.939949035644531,-0.2495955228805542,3.693654775619507
27,9700.0,-8.939949035644531,-0.2495955228805542,3.693654775619507
28,9800.0,-8.884882926940918,-0.3232172429561615,3.7175967693328857
29,9900.0,-8.884882926940918,-0.3232172429561615,3.7175967693328857
30,8500.0,-8.909422874450684,-0.2777273952960968,3.7229835987091056
31,8600.0,-8.909422874450684,-0.2777273952960968,3.7229835987091056
32,8700.0,-8.954314231872559,-0.27054479718208313,3.6355953216552734
33,8800.0,-8.954314231872559,-0.27054479718208313,3.6355953216552734
34,8900.0,-8.89685344696045,-0.2980781197547913,3.711012601852417
35,9000.0,-8.89685344696045,-0.2980781197547913,3.711012601852417
36,9100.0,-8.927379608154297,-0.28131869435310364,3.6762967109680176
37,9200.0,-8.925583839416504,-0.26815059781074524,3.700837373733521
38,9300.0,-8.925583839416504,-0.26815059781074524,3.700837373733521
39,9400.0,-8.89445972442627,-0.2651578485965729,3.751115560531616
40,9500.0,-8.89445972442627,-0.2651578485965729,3.751115560531616
41,9600.0,-8.939949035644531,-0.2495955228805542,3.693654775619507
42,9700.0,-8.939949035644531,-0.2495955228805542,3.693654775619507
43,9800.0,-8.884882926940918,-0.3232172429561615,3.7175967693328857
44,9900.0,-8.884882926940918,-0.3232172429561615,3.7175967693328857
45,10000.0,-8.88907241821289,-0.2807201445102692,3.718195199966431
46,10100.0,-8.898050308227539,-0.2645592987537384,3.7229835987091056
47,10200.0,-8.898050308227539,-0.2645592987537384,3.7229835987091056
48,10300.0,-8.925583839416504,-0.2519897222518921,3.714603900909424
49,10400.0,-8.925583839416504,-0.2519897222518921,3.714603900909424
50,10500.0,-8.901641845703125,-0.1586158573627472,3.672106742858887
51,10600.0,-8.901641845703125,-0.1586158573627472,3.672106742858887
52,10700.0,-8.816049575805664,-0.35075053572654724,3.778648853302002
53,10800.0,-8.816049575805664,-0.35075053572654724,3.778648853302002
54,10900.0,-8.980650901794434,-0.2214636504650116,3.5709519386291504
55,11000.0,-8.83939266204834,-0.32441434264183044,3.7044286727905273
56,11100.0,-8.83939266204834,-0.32441434264183044,3.7044286727905273
57,11200.0,-8.933364868164062,-0.32680854201316833,3.6355953216552734
58,11300.0,-8.933364868164062,-0.32680854201316833,3.6355953216552734
59,11400.0,-8.81664752960205,-0.3800795078277588,3.777451753616333
60,10000.0,-8.88907241821289,-0.2807201445102692,3.718195199966431
61,10100.0,-8.898050308227539,-0.2645592987537384,3.7229835987091056
62,10200.0,-8.898050308227539,-0.2645592987537384,3.7229835987091056
63,10300.0,-8.925583839416504,-0.2519897222518921,3.714603900909424
64,10400.0,-8.925583839416504,-0.2519897222518921,3.714603900909424
65,10500.0,-8.901641845703125,-0.1586158573627472,3.672106742858887
66,10600.0,-8.901641845703125,-0.1586158573627472,3.672106742858887
67,10700.0,-8.816049575805664,-0.35075053572654724,3.778648853302002
68,10800.0,-8.816049575805664,-0.35075053572654724,3.778648853302002
69,10900.0,-8.980650901794434,-0.2214636504650116,3.5709519386291504
70,11000.0,-8.83939266204834,-0.32441434264183044,3.7044286727905273
71,11100.0,-8.83939266204834,-0.32441434264183044,3.7044286727905273
72,11200.0,-8.933364868164062,-0.32680854201316833,3.6355953216552734
73,11300.0,-8.933364868164062,-0.32680854201316833,3.6355953216552734
74,11400.0,-8.81664752960205,-0.3800795078277588,3.777451753616333
75,11500.0,-8.81664752960205,-0.3800795078277588,3.777451753616333
76,11600.0,-8.85675048828125,-0.03770867735147476,3.6577415466308594
77,11700.0,-8.85675048828125,-0.03770867735147476,3.6577415466308594
78,11800.0,-8.867524147033691,-0.3381809890270233,3.6170401573181152
79,11900.0,-8.809465408325195,-0.32620999217033386,3.626018524169922
80,12000.0,-8.809465408325195,-0.32620999217033386,3.626018524169922
81,12100.0,-8.901641845703125,-0.19213469326496124,3.603273630142212
82,12200.0,-8.901641845703125,-0.19213469326496124,3.603273630142212
83,12300.0,-8.969278335571289,-0.2645592987537384,3.553593873977661
84,12400.0,-8.969278335571289,-0.2645592987537384,3.553593873977661
85,12500.0,-8.936357498168945,-0.2603694200515747,3.6403837203979488
86,12600.0,-8.936357498168945,-0.2603694200515747,3.6403837203979488
87,12700.0,-8.974066734313965,-0.20530278980731964,3.535038709640503
88,12800.0,-8.936956405639648,-0.2064998894929886,3.700837373733521
89,12900.0,-8.936956405639648,-0.2064998894929886,3.700837373733521
90,11500.0,-8.81664752960205,-0.3800795078277588,3.777451753616333
91,11600.0,-8.85675048828125,-0.03770867735147476,3.6577415466308594
92,11700.0,-8.85675048828125,-0.03770867735147476,3.6577415466308594
93,11800.0,-8.867524147033691,-0.3381809890270233,3.6170401573181152
94,11900.0,-8.809465408325195,-0.32620999217033386,3.626018524169922
95,12000.0,-8.809465408325195,-0.32620999217033386,3.626018524169922
96,12100.0,-8.901641845703125,-0.19213469326496124,3.603273630142212
97,12200.0,-8.901641845703125,-0.19213469326496124,3.603273630142212
98,12300.0,-8.969278335571289,-0.2645592987537384,3.553593873977661
99,12400.0,-8.969278335571289,-0.2645592987537384,3.553593873977661
100,12500.0,-8.936357498168945,-0.2603694200515747,3.6403837203979488
101,12600.0,-8.936357498168945,-0.2603694200515747,3.6403837203979488
102,12700.0,-8.974066734313965,-0.20530278980731964,3.535038709640503
103,12800.0,-8.936956405639648,-0.2064998894929886,3.700837373733521
104,12900.0,-8.936956405639648,-0.2064998894929886,3.700837373733521
105,13000.0,-9.134477615356444,-0.323815792798996,3.6008794307708736
106,13100.0,-9.134477615356444,-0.323815792798996,3.6008794307708736
107,13200.0,-8.910021781921387,-0.27473464608192444,3.664924144744873
108,13300.0,-8.910021781921387,-0.27473464608192444,3.664924144744873
109,13400.0,-8.995614051818848,-0.24420857429504395,3.5691561698913574
110,13500.0,-8.995614051818848,-0.24420857429504395,3.5691561698913574
111,13600.0,-8.900444984436035,-0.2501940727233887,3.62302565574646
112,13700.0,-8.941744804382324,-0.25258827209472656,3.6068649291992183
113,13800.0,-8.941744804382324,-0.25258827209472656,3.6068649291992183
114,13900.0,-8.921394348144531,-0.2777273952960968,3.589506864547729
115,14000.0,-8.921394348144531,-0.2777273952960968,3.589506864547729
116,14100.0,-8.922591209411621,-0.27413609623909,3.6158430576324463
117,14200.0,-8.922591209411621,-0.27413609623909,3.6158430576324463
118,14300.0,-8.959701538085938,-0.25498247146606445,3.587112665176392
119,14400.0,-8.959701538085938,-0.25498247146606445,3.587112665176392
120,13000.0,-9.134477615356444,-0.323815792798996,3.6008794307708736
121,13100.0,-9.134477615356444,-0.323815792798996,3.6008794307708736
122,13200.0,-8.910021781921387,-0.27473464608192444,3.664924144744873
123,13300.0,-8.910021781921387,-0.27473464608192444,3.664924144744873
124,13400.0,-8.995614051818848,-0.24420857429504395,3.5691561698913574
125,13500.0,-8.995614051818848,-0.24420857429504395,3.5691561698913574
126,13600.0,-8.900444984436035,-0.2501940727233887,3.62302565574646
127,13700.0,-8.941744804382324,-0.25258827209472656,3.6068649291992183
128,13800.0,-8.941744804382324,-0.25258827209472656,3.6068649291992183
129,13900.0,-8.921394348144531,-0.2777273952960968,3.589506864547729
130,14000.0,-8.921394348144531,-0.2777273952960968,3.589506864547729
131,14100.0,-8.922591209411621,-0.27413609623909,3.6158430576324463
132,14200.0,-8.922591209411621,-0.27413609623909,3.6158430576324463
133,14300.0,-8.959701538085938,-0.25498247146606445,3.587112665176392
134,14400.0,-8.959701538085938,-0.25498247146606445,3.587112665176392
135,14500.0,-8.94773006439209,-0.30945056676864624,3.6116533279418954
136,14600.0,-8.950124740600586,-0.27473464608192444,3.5942952632904053
137,14700.0,-8.950124740600586,-0.27473464608192444,3.5942952632904053
138,14800.0,-8.939350128173828,-0.26994624733924866,3.5919010639190674
139,14900.0,-8.939350128173828,-0.26994624733924866,3.5919010639190674
140,15000.0,-8.956110000610352,-0.262763649225235,3.6050691604614262
141,15100.0,-8.956110000610352,-0.262763649225235,3.6050691604614262
142,15200.0,-8.948927879333496,-0.3100491166114807,3.60566782951355
143,15300.0,-8.948927879333496,-0.3100491166114807,3.60566782951355
144,15400.0,-8.9249849319458,-0.2561795711517334,3.6296098232269287
145,15500.0,-8.85675048828125,-0.2908954918384552,3.6505589485168457
146,15600.0,-8.85675048828125,-0.2908954918384552,3.6505589485168457
147,15700.0,-8.938153266906738,-0.2585737705230713,3.6290111541748047
148,15800.0,-8.938153266906738,-0.2585737705230713,3.6290111541748047
149,15900.0,-9.009381294250488,-0.22206220030784607,3.511695384979248
150,14500.0,-8.94773006439209,-0.30945056676864624,3.6116533279418954
151,14600.0,-8.950124740600586,-0.27473464608192444,3.5942952632904053
152,14700.0,-8.950124740600586,-0.27473464608192444,3.5942952632904053
153,14800.0,-8.939350128173828,-0.26994624733924866,3.5919010639190674
154,14900.0,-8.939350128173828,-0.26994624733924866,3.5919010639190674
155,15000.0,-8.956110000610352,-0.262763649225235,3.6050691604614262
156,15100.0,-8.956110000610352,-0.262763649225235,3.6050691604614262
157,15200.0,-8.948927879333496,-0.3100491166114807,3.60566782951355
158,15300.0,-8.948927879333496,-0.3100491166114807,3.60566782951355
159,15400.0,-8.9249849319458,-0.2561795711517334,3.6296098232269287
160,15500.0,-8.85675048828125,-0.2908954918384552,3.6505589485168457
161,15600.0,-8.85675048828125,-0.2908954918384552,3.6505589485168457
162,15700.0,-8.938153266906738,-0.2585737705230713,3.6290111541748047
163,15800.0,-8.938153266906738,-0.2585737705230713,3.6290111541748047
164,15900.0,-9.009381294250488,-0.22206220030784607,3.511695384979248
165,16000.0,-9.009381294250488,-0.22206220030784607,3.511695384979248
166,16100.0,-8.881291389465332,-0.292691171169281,3.7217864990234375
167,16200.0,-8.881291389465332,-0.292691171169281,3.7217864990234375
168,16300.0,-8.995614051818848,-0.2424129247665405,3.5278561115264893
169,16400.0,-8.873510360717773,-0.228047713637352,3.680486679077149
170,16500.0,-8.873510360717773,-0.228047713637352,3.680486679077149
171,16600.0,-8.942941665649414,-0.26336219906806946,3.601477861404419
172,16700.0,-8.942941665649414,-0.26336219906806946,3.601477861404419
173,16800.0,-8.920795440673828,-0.2621650993824005,3.6559460163116455
174,16900.0,-8.920795440673828,-0.2621650993824005,3.6559460163116455
175,17000.0,-8.956110000610352,-0.2501940727233887,3.573944568634033
176,17100.0,-8.956110000610352,-0.2501940727233887,3.573944568634033
177,17200.0,-8.975862503051758,-0.2424129247665405,3.6098575592041016
178,17300.0,-8.90762710571289,-0.2932897210121155,3.698443174362183
179,17400.0,-8.90762710571289,-0.2932897210121155,3.698443174362183
180,16000.0,-9.009381294250488,-0.22206220030784607,3.511695384979248
181,16100.0,-8.881291389465332,-0.292691171169281,3.7217864990234375
182,16200.0,-8.881291389465332,-0.292691171169281,3.7217864990234375
183,16300.0,-8.995614051818848,-0.2424129247665405,3.5278561115264893
184,16400.0,-8.873510360717773,-0.228047713637352,3.680486679077149
185,16500.0,-8.873510360717773,-0.228047713637352,3.680486679077149
186,16600.0,-8.942941665649414,-0.26336219906806946,3.601477861404419
187,16700.0,-8.942941665649414,-0.26336219906806946,3.601477861404419
188,16800.0,-8.920795440673828,-0.2621650993824005,3.6559460163116455
189,16900.0,-8.920795440673828,-0.2621650993824005,3.6559460163116455
190,17000.0,-8.956110000610352,-0.2501940727233887,3.573944568634033
191,17100.0,-8.956110000610352,-0.2501940727233887,3.573944568634033
192,17200.0,-8.975862503051758,-0.2424129247665405,3.6098575592041016
193,17300.0,-8.90762710571289,-0.2932897210121155,3.698443174362183
194,17400.0,-8.90762710571289,-0.2932897210121155,3.698443174362183
195,17500.0,-8.959701538085938,-0.2902969419956207,3.5374329090118413
196,17600.0,-8.959701538085938,-0.2902969419956207,3.5374329090118413
197,17700.0,-8.875904083251953,-0.2561795711517334,3.666719913482666
198,17800.0,-8.875904083251953,-0.2561795711517334,3.666719913482666
199,17900.0,-8.960299491882324,-0.28311434388160706,3.5817258358001713
200,18000.0,-8.960299491882324,-0.28311434388160706,3.5817258358001713
201,18100.0,-8.918999671936035,-0.3118447661399841,3.6367924213409424
202,18200.0,-8.928576469421387,-0.3046621680259705,3.618835926055908
203,18300.0,-8.928576469421387,-0.3046621680259705,3.618835926055908
204,18400.0,-8.927978515625,-0.2944868206977844,3.6302082538604736
205,18500.0,-8.927978515625,-0.2944868206977844,3.6302082538604736
206,18600.0,-8.944737434387207,-0.2968810200691223,3.62302565574646
207,18700.0,-8.944737434387207,-0.2968810200691223,3.62302565574646
208,18800.0,-8.899248123168945,-0.3124433159828186,3.6367924213409424
209,18900.0,-8.899248123168945,-0.3124433159828186,3.6367924213409424
210,17500.0,-8.959701538085938,-0.2902969419956207,3.5374329090118413
211,17600.0,-8.959701538085938,-0.2902969419956207,3.5374329090118413
212,17700.0,-8.875904083251953,-0.2561795711517334,3.666719913482666
213,17800.0,-8.875904083251953,-0.2561795711517334,3.666719913482666
214,17900.0,-8.960299491882324,-0.28311434388160706,3.5817258358001713
215,18000.0,-8.960299491882324,-0.28311434388160706,3.5817258358001713
216,18100.0,-8.918999671936035,-0.3118447661399841,3.6367924213409424
217,18200.0,-8.928576469421387,-0.3046621680259705,3.618835926055908
218,18300.0,-8.928576469421387,-0.3046621680259705,3.618835926055908
219,18400.0,-8.927978515625,-0.2944868206977844,3.6302082538604736
220,18500.0,-8.927978515625,-0.2944868206977844,3.6302082538604736
221,18600.0,-8.944737434387207,-0.2968810200691223,3.62302565574646
222,18700.0,-8.944737434387207,-0.2968810200691223,3.62302565574646
223,18800.0,-8.899248123168945,-0.3124433159828186,3.6367924213409424
224,18900.0,-8.899248123168945,-0.3124433159828186,3.6367924213409424
225,19000.0,-8.927379608154297,-0.30705636739730835,3.6361937522888175
226,19100.0,-8.950124740600586,-0.2819172441959381,3.6200330257415767
227,19200.0,-8.950124740600586,-0.2819172441959381,3.6200330257415767
228,19300.0,-8.932168006896973,-0.2789244949817657,3.626616954803467
229,19400.0,-8.932168006896973,-0.2789244949817657,3.626616954803467
230,19500.0,-8.947132110595703,-0.26336219906806946,3.6254198551177983
231,19600.0,-8.947132110595703,-0.26336219906806946,3.6254198551177983
232,19700.0,-8.908824920654297,-0.3208230137825012,3.62841272354126
233,19800.0,-8.908824920654297,-0.3208230137825012,3.62841272354126
234,19900.0,-8.916007041931152,-0.3076549172401428,3.624821424484253
235,20000.0,-8.941145896911621,-0.2920926213264465,3.633201122283936
236,20100.0,-8.941145896911621,-0.2920926213264465,3.633201122283936
237,20200.0,-8.88907241821289,-0.3112462162971497,3.667917013168335
238,20300.0,-8.88907241821289,-0.3112462162971497,3.667917013168335
239,20400.0,-8.91540813446045,-0.2801215946674347,3.658938646316528
240,19000.0,-8.927379608154297,-0.30705636739730835,3.6361937522888175
241,19100.0,-8.950124740600586,-0.2819172441959381,3.6200330257415767
242,19200.0,-8.950124740600586,-0.2819172441959381,3.6200330257415767
243,19300.0,-8.932168006896973,-0.2789244949817657,3.626616954803467
244,19400.0,-8.932168006896973,-0.2789244949817657,3.626616954803467
245,19500.0,-8.947132110595703,-0.26336219906806946,3.6254198551177983
246,19600.0,-8.947132110595703,-0.26336219906806946,3.6254198551177983
247,19700.0,-8.908824920654297,-0.3208230137825012,3.62841272354126
248,19800.0,-8.908824920654297,-0.3208230137825012,3.62841272354126
249,19900.0,-8.916007041931152,-0.3076549172401428,3.624821424484253
250,20000.0,-8.941145896911621,-0.2920926213264465,3.633201122283936
251,20100.0,-8.941145896911621,-0.2920926213264465,3.633201122283936
252,20200.0,-8.88907241821289,-0.3112462162971497,3.667917013168335
253,20300.0,-8.88907241821289,-0.3112462162971497,3.667917013168335
254,20400.0,-8.91540813446045,-0.2801215946674347,3.658938646316528
255,20500.0,-8.91540813446045,-0.2801215946674347,3.658938646316528
256,20600.0,-8.91421127319336,-0.2567781209945679,3.660734415054321
257,20700.0,-8.91421127319336,-0.2567781209945679,3.660734415054321
258,20800.0,-8.904634475708008,-0.3130418658256531,3.652953147888184
259,20900.0,-8.923788070678711,-0.28790274262428284,3.653551816940308
260,21000.0,-8.923788070678711,-0.28790274262428284,3.653551816940308
261,21100.0,-8.897452354431152,-0.3172317147254944,3.6481647491455083
262,21200.0,-8.897452354431152,-0.3172317147254944,3.6481647491455083
263,21300.0,-8.896254539489746,-0.2825157940387726,3.666121244430542
264,21400.0,-8.896254539489746,-0.2825157940387726,3.666121244430542
265,21500.0,-8.899846076965332,-0.2986766695976257,3.64577054977417
266,21600.0,-8.899846076965332,-0.2986766695976257,3.64577054977417
267,21700.0,-8.956110000610352,-0.3016694188117981,3.623624324798584
268,21800.0,-8.893860816955566,-0.3435679376125336,3.681085109710693
269,21900.0,-8.893860816955566,-0.3435679376125336,3.681085109710693
270,20500.0,-8.91540813446045,-0.2801215946674347,3.658938646316528
271,20600.0,-8.91421127319336,-0.2567781209945679,3.660734415054321
272,20700.0,-8.91421127319336,-0.2567781209945679,3.660734415054321
273,20800.0,-8.904634475708008,-0.3130418658256531,3.652953147888184
274,20900.0,-8.923788070678711,-0.28790274262428284,3.653551816940308
275,21000.0,-8.923788070678711,-0.28790274262428284,3.653551816940308
276,21100.0,-8.897452354431152,-0.3172317147254944,3.6481647491455083
277,21200.0,-8.897452354431152,-0.3172317147254944,3.6481647491455083
278,21300.0,-8.896254539489746,-0.2825157940387726,3.666121244430542
279,21400.0,-8.896254539489746,-0.2825157940387726,3.666121244430542
280,21500.0,-8.899846076965332,-0.2986766695976257,3.64577054977417
281,21600.0,-8.899846076965332,-0.2986766695976257,3.64577054977417
282,21700.0,-8.956110000610352,-0.3016694188117981,3.623624324798584
283,21800.0,-8.893860816955566,-0.3435679376125336,3.681085109710693
284,21900.0,-8.893860816955566,-0.3435679376125336,3.681085109710693
285,22000.0,-8.89445972442627,-0.2861070930957794,3.6481647491455083
286,22100.0,-8.89445972442627,-0.2861070930957794,3.6481647491455083
287,22200.0,-9.117119789123537,-0.3561375141143799,3.4302923679351807
288,22300.0,-9.117119789123537,-0.3561375141143799,3.4302923679351807
289,22400.0,-8.897452354431152,-0.21547815203666687,3.6110546588897705
290,22500.0,-8.897452354431152,-0.21547815203666687,3.6110546588897705
291,22600.0,-9.067440032958984,-0.4387374520301819,3.3674447536468506
292,22700.0,-9.067440032958984,-0.4387374520301819,3.3674447536468506
293,22800.0,-8.825626373291016,-0.25079262256622314,3.787028551101685
294,22900.0,-9.01895809173584,-0.30885201692581177,3.4829649925231934
295,23000.0,-9.01895809173584,-0.30885201692581177,3.4829649925231934
296,23100.0,-8.951920509338379,-0.4201824069023132,3.579331636428833
297,23200.0,-8.951920509338379,-0.4201824069023132,3.579331636428833
298,23300.0,-8.96269416809082,-0.4207809567451477,3.5398271083831787
299,23400.0,-8.96269416809082,-0.4207809567451477,3.5398271083831787
300,22000.0,-8.89445972442627,-0.2861070930957794,3.6481647491455083
301,22100.0,-8.89445972442627,-0.2861070930957794,3.6481647491455083
302,22200.0,-9.117119789123537,-0.3561375141143799,3.4302923679351807
303,22300.0,-9.117119789123537,-0.3561375141143799,3.4302923679351807
304,22400.0,-8.897452354431152,-0.21547815203666687,3.6110546588897705
305,22500.0,-8.897452354431152,-0.21547815203666687,3.6110546588897705
306,22600.0,-9.067440032958984,-0.4387374520301819,3.3674447536468506
307,22700.0,-9.067440032958984,-0.4387374520301819,3.3674447536468506
308,22800.0,-8.825626373291016,-0.25079262256622314,3.787028551101685
309,22900.0,-9.01895809173584,-0.30885201692581177,3.4829649925231934
310,23000.0,-9.01895809173584,-0.30885201692581177,3.4829649925231934
311,23100.0,-8.951920509338379,-0.4201824069023132,3.579331636428833
312,23200.0,-8.951920509338379,-0.4201824069023132,3.579331636428833
313,23300.0,-8.96269416809082,-0.4207809567451477,3.5398271083831787
314,23400.0,-8.96269416809082,-0.4207809567451477,3.5398271083831787
315,23500.0,-8.998008728027344,-0.4118026793003082,3.5368344783782963
316,23600.0,-8.998008728027344,-0.4118026793003082,3.5368344783782963
317,23700.0,-8.938153266906738,-0.4100070297718048,3.5637693405151367
318,23800.0,-8.951920509338379,-0.436343252658844,3.561973571777344
319,23900.0,-8.951920509338379,-0.436343252658844,3.561973571777344
320,24000.0,-8.949525833129883,-0.4106055796146393,3.5458126068115234
321,24100.0,-8.949525833129883,-0.4106055796146393,3.5458126068115234
322,24200.0,-8.981847763061523,-0.4183867573738098,3.554192304611206
323,24300.0,-8.981847763061523,-0.4183867573738098,3.554192304611206
324,24400.0,-8.937555313110352,-0.4207809567451477,3.5853171348571777
325,24500.0,-8.937555313110352,-0.4207809567451477,3.5853171348571777
326,24600.0,-8.987833023071289,-0.4141969084739685,3.5667619705200195
327,24700.0,-8.935160636901855,-0.4531026780605316,3.651756048202514
328,24800.0,-8.935160636901855,-0.4531026780605316,3.651756048202514
329,24900.0,-8.828020095825195,-0.3184288144111633,3.817554712295532
330,23500.0,-8.998008728027344,-0.4118026793003082,3.5368344783782963
331,23600.0,-8.998008728027344,-0.4118026793003082,3.5368344783782963
332,23700.0,-8.938153266906738,-0.4100070297718048,3.5637693405151367
333,23800.0,-8.951920509338379,-0.436343252658844,3.561973571777344
334,23900.0,-8.951920509338379,-0.436343252658844,3.561973571777344
335,24000.0,-8.949525833129883,-0.4106055796146393,3.5458126068115234
336,24100.0,-8.949525833129883,-0.4106055796146393,3.5458126068115234
337,24200.0,-8.981847763061523,-0.4183867573738098,3.554192304611206
338,24300.0,-8.981847763061523,-0.4183867573738098,3.554192304611206
339,24400.0,-8.937555313110352,-0.4207809567451477,3.5853171348571777
340,24500.0,-8.937555313110352,-0.4207809567451477,3.5853171348571777
341,24600.0,-8.987833023071289,-0.4141969084739685,3.5667619705200195
342,24700.0,-8.935160636901855,-0.4531026780605316,3.651756048202514
343,24800.0,-8.935160636901855,-0.4531026780605316,3.651756048202514
344,24900.0,-8.828020095825195,-0.3184288144111633,3.817554712295532
345,25000.0,-8.828020095825195,-0.3184288144111633,3.817554712295532
346,25100.0,-9.029132843017578,-0.3549404144287109,3.4883518218994136
347,25200.0,-9.029132843017578,-0.3549404144287109,3.4883518218994136
348,25300.0,-8.935160636901855,-0.30286651849746704,3.6756980419158936
349,25400.0,-8.935160636901855,-0.30286651849746704,3.6756980419158936
350,25500.0,-8.9249849319458,-0.43095630407333374,3.584120035171509
351,25600.0,-8.970475196838379,-0.3854664862155914,3.588908433914185
352,25700.0,-8.970475196838379,-0.3854664862155914,3.588908433914185
353,25800.0,-8.874707221984863,-0.3908534348011017,3.6756980419158936
354,25900.0,-8.874707221984863,-0.3908534348011017,3.6756980419158936
355,26000.0,-9.00160026550293,-0.4465186297893524,3.5506010055541988
356,26100.0,-9.00160026550293,-0.4465186297893524,3.5506010055541988
357,26200.0,-8.938752174377441,-0.4519055783748626,3.5865142345428467
358,26300.0,-8.938752174377441,-0.4519055783748626,3.5865142345428467
359,26400.0,-8.942343711853027,-0.4525041282176971,3.6050691604614262
360,25000.0,-8.828020095825195,-0.3184288144111633,3.817554712295532
361,25100.0,-9.029132843017578,-0.3549404144287109,3.4883518218994136
362,25200.0,-9.029132843017578,-0.3549404144287109,3.4883518218994136
363,25300.0,-8.935160636901855,-0.30286651849746704,3.6756980419158936
364,25400.0,-8.935160636901855,-0.30286651849746704,3.6756980419158936
365,25500.0,-8.9249849319458,-0.43095630407333374,3.584120035171509
366,25600.0,-8.970475196838379,-0.3854664862155914,3.588908433914185
367,25700.0,-8.970475196838379,-0.3854664862155914,3.588908433914185
368,25800.0,-8.874707221984863,-0.3908534348011017,3.6756980419158936
369,25900.0,-8.874707221984863,-0.3908534348011017,3.6756980419158936
370,26000.0,-9.00160026550293,-0.4465186297893524,3.5506010055541988
371,26100.0,-9.00160026550293,-0.4465186297893524,3.5506010055541988
372,26200.0,-8.938752174377441,-0.4519055783748626,3.5865142345428467
373,26300.0,-8.938752174377441,-0.4519055783748626,3.5865142345428467
374,26400.0,-8.942343711853027,-0.4525041282176971,3.6050691604614262
375,26500.0,-8.933963775634766,-0.395043283700943,3.599083662033081
376,26600.0,-8.933963775634766,-0.395043283700943,3.599083662033081
377,26700.0,-8.900444984436035,-0.4016273319721222,3.643975019454956
378,26800.0,-8.900444984436035,-0.4016273319721222,3.643975019454956
379,26900.0,-8.939949035644531,-0.4129997789859772,3.6170401573181152
380,27000.0,-8.939949035644531,-0.4129997789859772,3.6170401573181152
381,27100.0,-8.898050308227539,-0.4076128304004669,3.6852750778198238
382,27200.0,-8.898050308227539,-0.4076128304004669,3.6852750778198238
383,27300.0,-8.873510360717773,-0.36391866207122797,3.7014358043670654
384,27400.0,-8.918999671936035,-0.4141969084739685,3.6176388263702393
385,27500.0,-8.918999671936035,-0.4141969084739685,3.6176388263702393
386,27600.0,-8.914810180664062,-0.4327519536018372,3.6302082538604736
387,27700.0,-8.914810180664062,-0.4327519536018372,3.6302082538604736
388,27800.0,-8.916605949401855,-0.4207809567451477,3.67390251159668
389,27900.0,-8.916605949401855,-0.4207809567451477,3.67390251159668
390,26500.0,-8.933963775634766,-0.395043283700943,3.599083662033081
391,26600.0,-8.933963775634766,-0.395043283700943,3.599083662033081
392,26700.0,-8.900444984436035,-0.4016273319721222,3.643975019454956
393,26800.0,-8.900444984436035,-0.4016273319721222,3.643975019454956
394,26900.0,-8.939949035644531,-0.4129997789859772,3.6170401573181152
395,27000.0,-8.939949035644531,-0.4129997789859772,3.6170401573181152
396,27100.0,-8.898050308227539,-0.4076128304004669,3.6852750778198238
397,27200.0,-8.898050308227539,-0.4076128304004669,3.6852750778198238
398,27300.0,-8.873510360717773,-0.36391866207122797,3.7014358043670654
399,27400.0,-8.918999671936035,-0.4141969084739685,3.6176388263702393
400,27500.0,-8.918999671936035,-0.4141969084739685,3.6176388263702393
401,27600.0,-8.914810180664062,-0.4327519536018372,3.6302082538604736
402,27700.0,-8.914810180664062,-0.4327519536018372,3.6302082538604736
403,27800.0,-8.916605949401855,-0.4207809567451477,3.67390251159668
404,27900.0,-8.916605949401855,-0.4207809567451477,3.67390251159668
405,28000.0,-8.901641845703125,-0.4285621047019959,3.7038300037384033
406,28100.0,-8.901641845703125,-0.4285621047019959,3.7038300037384033
407,28200.0,-8.924386978149414,-0.4094084799289704,3.638587951660156
408,28300.0,-8.889671325683594,-0.414795458316803,3.642179250717163
409,28400.0,-8.889671325683594,-0.414795458316803,3.642179250717163
410,28500.0,-8.879495620727539,-0.4106055796146393,3.7672762870788574
411,28600.0,-8.879495620727539,-0.4106055796146393,3.7672762870788574
412,28700.0,-8.989628791809082,-0.3908534348011017,3.5470097064971924
413,28800.0,-8.989628791809082,-0.3908534348011017,3.5470097064971924
414,28900.0,-8.938153266906738,-0.4231751561164856,3.6445734500885014
415,29000.0,-8.938153266906738,-0.4231751561164856,3.6445734500885014
416,29100.0,-8.93037223815918,-0.4094084799289704,3.598485231399536
417,29200.0,-8.930971145629883,-0.406415730714798,3.642179250717163
418,29300.0,-8.930971145629883,-0.406415730714798,3.642179250717163
419,29400.0,-8.941744804382324,-0.4094084799289704,3.60566782951355
420,28000.0,-8.901641845703125,-0.4285621047019959,3.7038300037384033
421,28100.0,-8.901641845703125,-0.4285621047019959,3.7038300037384033
422,28200.0,-8.924386978149414,-0.4094084799289704,3.638587951660156
423,28300.0,-8.889671325683594,-0.414795458316803,3.642179250717163
424,28400.0,-8.889671325683594,-0.414795458316803,3.642179250717163
425,28500.0,-8.879495620727539,-0.4106055796146393,3.7672762870788574
426,28600.0,-8.879495620727539,-0.4106055796146393,3.7672762870788574
427,28700.0,-8.989628791809082,-0.3908534348011017,3.5470097064971924
428,28800.0,-8.989628791809082,-0.3908534348011017,3.5470097064971924
429,28900.0,-8.938153266906738,-0.4231751561164856,3.6445734500885014
430,29000.0,-8.938153266906738,-0.4231751561164856,3.6445734500885014
431,29100.0,-8.93037223815918,-0.4094084799289704,3.598485231399536
432,29200.0,-8.930971145629883,-0.406415730714798,3.642179250717163
433,29300.0,-8.930971145629883,-0.406415730714798,3.642179250717163
434,29400.0,-8.941744804382324,-0.4094084799289704,3.60566782951355
435,29500.0,-8.941744804382324,-0.4094084799289704,3.60566782951355
436,29600.0,-8.922591209411621,-0.4124012291431427,3.6164417266845694
437,29700.0,-8.922591209411621,-0.4124012291431427,3.6164417266845694
438,29800.0,-8.938752174377441,-0.4273650050163269,3.579930067062378
439,29900.0,-8.938752174377441,-0.4273650050163269,3.579930067062378
440,30000.0,-8.918401718139648,-0.3932476341724396,3.64577054977417
441,30100.0,-8.919598579406738,-0.4070142805576325,3.61225175857544
442,30200.0,-8.919598579406738,-0.4070142805576325,3.61225175857544
443,30300.0,-8.919598579406738,-0.4165911078453064,3.643376350402832
444,30400.0,-8.919598579406738,-0.4165911078453064,3.643376350402832
445,30500.0,-8.914810180664062,-0.3896563351154328,3.6092591285705566
446,30600.0,-8.914810180664062,-0.3896563351154328,3.6092591285705566
447,30700.0,-8.913613319396973,-0.4010287821292877,3.619434356689453
448,30800.0,-8.913613319396973,-0.4010287821292877,3.619434356689453
449,30900.0,-8.926780700683594,-0.4040215313434601,3.641580820083618
450,29500.0,-8.941744804382324,-0.4094084799289704,3.60566782951355
451,29600.0,-8.922591209411621,-0.4124012291431427,3.6164417266845694
452,29700.0,-8.922591209411621,-0.4124012291431427,3.6164417266845694
453,29800.0,-8.938752174377441,-0.4273650050163269,3.579930067062378
454,29900.0,-8.938752174377441,-0.4273650050163269,3.579930067062378
455,30000.0,-8.918401718139648,-0.3932476341724396,3.64577054977417
456,30100.0,-8.919598579406738,-0.4070142805576325,3.61225175857544
457,30200.0,-8.919598579406738,-0.4070142805576325,3.61225175857544
458,30300.0,-8.919598579406738,-0.4165911078453064,3.643376350402832
459,30400.0,-8.919598579406738,-0.4165911078453064,3.643376350402832
460,30500.0,-8.914810180664062,-0.3896563351154328,3.6092591285705566
461,30600.0,-8.914810180664062,-0.3896563351154328,3.6092591285705566
462,30700.0,-8.913613319396973,-0.4010287821292877,3.619434356689453
463,30800.0,-8.913613319396973,-0.4010287821292877,3.619434356689453
464,30900.0,-8.926780700683594,-0.4040215313434601,3.641580820083618
465,31000.0,-8.934561729431152,-0.3902548849582672,3.6320040225982666
466,31100.0,-8.934561729431152,-0.3902548849582672,3.6320040225982666
467,31200.0,-8.905233383178711,-0.4590881764888763,3.618835926055908
468,31300.0,-8.905233383178711,-0.4590881764888763,3.618835926055908
469,31400.0,-8.948328971862793,-0.42437225580215454,3.60566782951355
470,31500.0,-8.948328971862793,-0.42437225580215454,3.60566782951355
471,31600.0,-8.925583839416504,-0.3854664862155914,3.661332845687866
472,31700.0,-8.925583839416504,-0.3854664862155914,3.661332845687866
473,31800.0,-8.898649215698242,-0.3992331326007843,3.671508312225342
474,31900.0,-8.850166320800781,-0.4082113802433014,3.7038300037384033
475,32000.0,-8.850166320800781,-0.4082113802433014,3.7038300037384033
476,32100.0,-8.957306861877441,-0.3872621357440949,3.5930981636047363
477,32200.0,-8.957306861877441,-0.3872621357440949,3.5930981636047363
478,32300.0,-8.874707221984863,-0.4237737059593201,3.7026329040527344
479,32400.0,-8.874707221984863,-0.4237737059593201,3.7026329040527344
480,31000.0,-8.934561729431152,-0.3902548849582672,3.6320040225982666
481,31100.0,-8.934561729431152,-0.3902548849582672,3.6320040225982666
482,31200.0,-8.905233383178711,-0.4590881764888763,3.618835926055908
483,31300.0,-8.905233383178711,-0.4590881764888763,3.618835926055908
484,31400.0,-8.948328971862793,-0.42437225580215454,3.60566782951355
485,31500.0,-8.948328971862793,-0.42437225580215454,3.60566782951355
486,31600.0,-8.925583839416504,-0.3854664862155914,3.661332845687866
487,31700.0,-8.925583839416504,-0.3854664862155914,3.661332845687866
488,31800.0,-8.898649215698242,-0.3992331326007843,3.671508312225342
489,31900.0,-8.850166320800781,-0.4082113802433014,3.7038300037384033
490,32000.0,-8.850166320800781,-0.4082113802433014,3.7038300037384033
491,32100.0,-8.957306861877441,-0.3872621357440949,3.5930981636047363
492,32200.0,-8.957306861877441,-0.3872621357440949,3.5930981636047363
493,32300.0,-8.874707221984863,-0.4237737059593201,3.7026329040527344
494,32400.0,-8.874707221984863,-0.4237737059593201,3.7026329040527344
495,32500.0,-8.935759544372559,-0.3818751573562622,3.6170401573181152
496,32600.0,-8.935759544372559,-0.3818751573562622,3.6170401573181152
497,32700.0,-8.902240753173828,-0.4016273319721222,3.706224203109741
498,32800.0,-8.974066734313965,-0.4010287821292877,3.608062028884888
499,32900.0,-8.974066734313965,-0.4010287821292877,3.608062028884888
500,33000.0,-8.922591209411621,-0.4100070297718048,3.6774938106536874
501,33100.0,-8.922591209411621,-0.4100070297718048,3.6774938106536874
502,33200.0,-8.917203903198242,-0.3926490843296051,3.6373908519744873
503,33300.0,-8.917203903198242,-0.3926490843296051,3.6373908519744873
504,33400.0,-8.943540573120117,-0.37529110908508295,3.6571431159973145
505,33500.0,-8.943540573120117,-0.37529110908508295,3.6571431159973145
506,33600.0,-8.877699851989746,-0.3872621357440949,3.67928957939148
507,33700.0,-8.912415504455566,-0.4273650050163269,3.634996652603149
508,33800.0,-8.912415504455566,-0.4273650050163269,3.634996652603149
509,33900.0,-8.880692481994629,-0.40462008118629456,3.6703112125396733
510,32500.0,-8.935759544372559,-0.3818751573562622,3.6170401573181152
511,32600.0,-8.935759544372559,-0.3818751573562622,3.6170401573181152
512,32700.0,-8.902240753173828,-0.4016273319721222,3.706224203109741
513,32800.0,-8.974066734313965,-0.4010287821292877,3.608062028884888
514,32900.0,-8.974066734313965,-0.4010287821292877,3.608062028884888
515,33000.0,-8.922591209411621,-0.4100070297718048,3.6774938106536874
516,33100.0,-8.922591209411621,-0.4100070297718048,3.6774938106536874
517,33200.0,-8.917203903198242,-0.3926490843296051,3.6373908519744873
518,33300.0,-8.917203903198242,-0.3926490843296051,3.6373908519744873
519,33400.0,-8.943540573120117,-0.37529110908508295,3.6571431159973145
520,33500.0,-8.943540573120117,-0.37529110908508295,3.6571431159973145
521,33600.0,-8.877699851989746,-0.3872621357440949,3.67928957939148
522,33700.0,-8.912415504455566,-0.4273650050163269,3.634996652603149
523,33800.0,-8.912415504455566,-0.4273650050163269,3.634996652603149
524,33900.0,-8.880692481994629,-0.40462008118629456,3.6703112125396733
525,34000.0,-8.880692481994629,-0.40462008118629456,3.6703112125396733
526,34100.0,-8.959102630615234,-0.4028244316577912,3.6182372570037837
527,34200.0,-8.959102630615234,-0.4028244316577912,3.6182372570037837
528,34300.0,-8.89685344696045,-0.37828385829925537,3.6858735084533687
529,34400.0,-8.89685344696045,-0.37828385829925537,3.6858735084533687
530,34500.0,-8.910021781921387,-0.3878606855869293,3.691260576248169
531,34600.0,-8.893261909484863,-0.4016273319721222,3.6900634765625
532,34700.0,-8.893261909484863,-0.4016273319721222,3.6900634765625
533,34800.0,-8.875904083251953,-0.41120412945747375,3.6948518753051762
534,34900.0,-8.875904083251953,-0.41120412945747375,3.6948518753051762
535,35000.0,-8.922591209411621,-0.4022258818149567,3.691859006881714
536,35100.0,-8.922591209411621,-0.4022258818149567,3.691859006881714
537,35200.0,-8.904036521911621,-0.3908534348011017,3.6930561065673833
538,35300.0,-8.904036521911621,-0.3908534348011017,3.6930561065673833
539,35400.0,-8.900444984436035,-0.3872621357440949,3.654748916625977
540,34000.0,-8.880692481994629,-0.40462008118629456,3.6703112125396733
541,34100.0,-8.959102630615234,-0.4028244316577912,3.6182372570037837
542,34200.0,-8.959102630615234,-0.4028244316577912,3.6182372570037837
543,34300.0,-8.89685344696045,-0.37828385829925537,3.6858735084533687
544,34400.0,-8.89685344696045,-0.37828385829925537,3.6858735084533687
545,34500.0,-8.910021781921387,-0.3878606855869293,3.691260576248169
546,34600.0,-8.893261909484863,-0.4016273319721222,3.6900634765625
547,34700.0,-8.893261909484863,-0.4016273319721222,3.6900634765625
548,34800.0,-8.875904083251953,-0.41120412945747375,3.6948518753051762
549,34900.0,-8.875904083251953,-0.41120412945747375,3.6948518753051762
550,35000.0,-8.922591209411621,-0.4022258818149567,3.691859006881714
551,35100.0,-8.922591209411621,-0.4022258818149567,3.691859006881714
552,35200.0,-8.904036521911621,-0.3908534348011017,3.6930561065673833
553,35300.0,-8.904036521911621,-0.3908534348011017,3.6930561065673833
554,35400.0,-8.900444984436035,-0.3872621357440949,3.654748916625977
555,35500.0,-8.868123054504395,-0.3663128614425659,3.687669277191162
556,35600.0,-8.868123054504395,-0.3663128614425659,3.687669277191162
557,35700.0,-8.911218643188477,-0.4189853072166443,3.6828808784484863
558,35800.0,-8.911218643188477,-0.4189853072166443,3.6828808784484863
559,35900.0,-8.923788070678711,-0.36571431159973145,3.658938646316528
560,36000.0,-8.923788070678711,-0.36571431159973145,3.658938646316528
561,36100.0,-8.929773330688477,-0.395043283700943,3.6361937522888175
562,36200.0,-8.929773330688477,-0.395043283700943,3.6361937522888175
563,36300.0,-8.912415504455566,-0.4082113802433014,3.623624324798584
564,36400.0,-8.909422874450684,-0.3902548849582672,3.621230125427246
565,36500.0,-8.909422874450684,-0.3902548849582672,3.621230125427246
566,36600.0,-8.932766914367676,-0.4225766062736511,3.624821424484253
567,36700.0,-8.932766914367676,-0.4225766062736511,3.624821424484253
568,36800.0,-8.91540813446045,-0.4124012291431427,3.646967649459839
569,36900.0,-8.91540813446045,-0.4124012291431427,3.646967649459839
570,35500.0,-8.868123054504395,-0.3663128614425659,3.687669277191162
571,35600.0,-8.868123054504395,-0.3663128614425659,3.687669277191162
572,35700.0,-8.911218643188477,-0.4189853072166443,3.6828808784484863
573,35800.0,-8.911218643188477,-0.4189853072166443,3.6828808784484863
574,35900.0,-8.923788070678711,-0.36571431159973145,3.658938646316528
575,36000.0,-8.923788070678711,-0.36571431159973145,3.658938646316528
576,36100.0,-8.929773330688477,-0.395043283700943,3.6361937522888175
577,36200.0,-8.929773330688477,-0.395043283700943,3.6361937522888175
578,36300.0,-8.912415504455566,-0.4082113802433014,3.623624324798584
579,36400.0,-8.909422874450684,-0.3902548849582672,3.621230125427246
580,36500.0,-8.909422874450684,-0.3902548849582672,3.621230125427246
581,36600.0,-8.932766914367676,-0.4225766062736511,3.624821424484253
582,36700.0,-8.932766914367676,-0.4225766062736511,3.624821424484253
583,36800.0,-8.91540813446045,-0.4124012291431427,3.646967649459839
584,36900.0,-8.91540813446045,-0.4124012291431427,3.646967649459839
585,37000.0,-8.927978515625,-0.3944447338581085,3.6176388263702393
586,37100.0,-8.927978515625,-0.3944447338581085,3.6176388263702393
587,37200.0,-8.920795440673828,-0.4129997789859772,3.641580820083618
588,37300.0,-8.94533634185791,-0.4189853072166443,3.623624324798584
589,37400.0,-8.94533634185791,-0.4189853072166443,3.623624324798584
590,37500.0,-8.936956405639648,-0.4124012291431427,3.6116533279418954
591,37600.0,-8.936956405639648,-0.4124012291431427,3.6116533279418954
592,37700.0,-8.889671325683594,-0.3926490843296051,3.6571431159973145
593,37800.0,-8.889671325683594,-0.3926490843296051,3.6571431159973145
594,37900.0,-8.935759544372559,-0.405218631029129,3.6110546588897705
595,38000.0,-8.935759544372559,-0.405218631029129,3.6110546588897705
596,38100.0,-8.933963775634766,-0.3896563351154328,3.608062028884888
597,38200.0,-8.9249849319458,-0.4135983288288117,3.612850427627564
598,38300.0,-8.9249849319458,-0.4135983288288117,3.612850427627564
599,38400.0,-8.909422874450684,-0.4118026793003082,3.671508312225342
600,37000.0,-8.927978515625,-0.3944447338581085,3.6176388263702393
601,37100.0,-8.927978515625,-0.3944447338581085,3.6176388263702393
602,37200.0,-8.920795440673828,-0.4129997789859772,3.641580820083618
603,37300.0,-8.94533634185791,-0.4189853072166443,3.623624324798584
604,37400.0,-8.94533634185791,-0.4189853072166443,3.623624324798584
605,37500.0,-8.936956405639648,-0.4124012291431427,3.6116533279418954
606,37600.0,-8.936956405639648,-0.4124012291431427,3.6116533279418954
607,37700.0,-8.889671325683594,-0.3926490843296051,3.6571431159973145
608,37800.0,-8.889671325683594,-0.3926490843296051,3.6571431159973145
609,37900.0,-8.935759544372559,-0.405218631029129,3.6110546588897705
610,38000.0,-8.935759544372559,-0.405218631029129,3.6110546588897705
611,38100.0,-8.933963775634766,-0.3896563351154328,3.608062028884888
612,38200.0,-8.9249849319458,-0.4135983288288117,3.612850427627564
613,38300.0,-8.9249849319458,-0.4135983288288117,3.612850427627564
614,38400.0,-8.909422874450684,-0.4118026793003082,3.671508312225342
615,38500.0,-8.909422874450684,-0.4118026793003082,3.671508312225342
616,38600.0,-8.895057678222656,-0.4279635548591614,3.5883097648620605
617,38700.0,-8.895057678222656,-0.4279635548591614,3.5883097648620605
618,38800.0,-8.926780700683594,-0.3824737071990967,3.62841272354126
619,38900.0,-8.926780700683594,-0.3824737071990967,3.62841272354126
620,39000.0,-8.917203903198242,-0.4225766062736511,3.5859155654907227
621,39100.0,-8.94533634185791,-0.4399345517158508,3.5907039642333984
622,39200.0,-8.94533634185791,-0.4399345517158508,3.5907039642333984
623,39300.0,-8.918999671936035,-0.4070142805576325,3.6409821510314937
624,39400.0,-8.918999671936035,-0.4070142805576325,3.6409821510314937
625,39500.0,-8.904036521911621,-0.37828385829925537,3.581127166748047
626,39600.0,-8.904036521911621,-0.37828385829925537,3.581127166748047
627,39700.0,-8.882488250732422,-0.4207809567451477,3.709815502166748
628,39800.0,-8.882488250732422,-0.4207809567451477,3.709815502166748
629,39900.0,-8.944737434387207,-0.3860650360584259,3.580528736114502
630,38500.0,-8.909422874450684,-0.4118026793003082,3.671508312225342
631,38600.0,-8.895057678222656,-0.4279635548591614,3.5883097648620605
632,38700.0,-8.895057678222656,-0.4279635548591614,3.5883097648620605
633,38800.0,-8.926780700683594,-0.3824737071990967,3.62841272354126
634,38900.0,-8.926780700683594,-0.3824737071990967,3.62841272354126
635,39000.0,-8.917203903198242,-0.4225766062736511,3.5859155654907227
636,39100.0,-8.94533634185791,-0.4399345517158508,3.5907039642333984
637,39200.0,-8.94533634185791,-0.4399345517158508,3.5907039642333984
638,39300.0,-8.918999671936035,-0.4070142805576325,3.6409821510314937
639,39400.0,-8.918999671936035,-0.4070142805576325,3.6409821510314937
640,39500.0,-8.904036521911621,-0.37828385829925537,3.581127166748047
641,39600.0,-8.904036521911621,-0.37828385829925537,3.581127166748047
642,39700.0,-8.882488250732422,-0.4207809567451477,3.709815502166748
643,39800.0,-8.882488250732422,-0.4207809567451477,3.709815502166748
644,39900.0,-8.944737434387207,-0.3860650360584259,3.580528736114502
645,40000.0,-8.82442855834961,-0.3842693865299225,3.736151695251465
646,40100.0,-8.82442855834961,-0.3842693865299225,3.736151695251465
647,40200.0,-8.953716278076172,-0.406415730714798,3.622427225112915
648,40300.0,-8.953716278076172,-0.406415730714798,3.622427225112915
649,40400.0,-8.914810180664062,-0.4153940081596375,3.699640274047852
650,40500.0,-8.914810180664062,-0.4153940081596375,3.699640274047852
651,40600.0,-8.901641845703125,-0.3926490843296051,3.6481647491455083
652,40700.0,-8.901641845703125,-0.3926490843296051,3.6481647491455083
653,40800.0,-8.907029151916504,-0.3884592354297638,3.660135746002197
654,40900.0,-8.917802810668945,-0.4237737059593201,3.653551816940308
655,41000.0,-8.917802810668945,-0.4237737059593201,3.653551816940308
656,41100.0,-8.895057678222656,-0.3501519858837128,3.643376350402832
657,41200.0,-8.895057678222656,-0.3501519858837128,3.643376350402832
658,41300.0,-8.90762710571289,-0.4124012291431427,3.6930561065673833
659,41400.0,-8.90762710571289,-0.4124012291431427,3.6930561065673833
660,40000.0,-8.82442855834961,-0.3842693865299225,3.736151695251465
661,40100.0,-8.82442855834961,-0.3842693865299225,3.736151695251465
662,40200.0,-8.953716278076172,-0.406415730714798,3.622427225112915
663,40300.0,-8.953716278076172,-0.406415730714798,3.622427225112915
664,40400.0,-8.914810180664062,-0.4153940081596375,3.699640274047852
665,40500.0,-8.914810180664062,-0.4153940081596375,3.699640274047852
666,40600.0,-8.901641845703125,-0.3926490843296051,3.6481647491455083
667,40700.0,-8.901641845703125,-0.3926490843296051,3.6481647491455083
668,40800.0,-8.907029151916504,-0.3884592354297638,3.660135746002197
669,40900.0,-8.917802810668945,-0.4237737059593201,3.653551816940308
670,41000.0,-8.917802810668945,-0.4237737059593201,3.653551816940308
671,41100.0,-8.895057678222656,-0.3501519858837128,3.643376350402832
672,41200.0,-8.895057678222656,-0.3501519858837128,3.643376350402832
673,41300.0,-8.90762710571289,-0.4124012291431427,3.6930561065673833
674,41400.0,-8.90762710571289,-0.4124012291431427,3.6930561065673833
675,41500.0,-8.867524147033691,-0.3908534348011017,3.673303842544556
676,41600.0,-8.867524147033691,-0.3908534348011017,3.673303842544556
677,41700.0,-8.916605949401855,-0.3675099611282349,3.659537315368652
678,41800.0,-8.901641845703125,-0.3938461840152741,3.662529945373535
679,41900.0,-8.901641845703125,-0.3938461840152741,3.662529945373535
680,42000.0,-8.922591209411621,-0.3884592354297638,3.6840779781341553
681,42100.0,-8.922591209411621,-0.3884592354297638,3.6840779781341553
682,42200.0,-8.878896713256836,-0.38367083668708796,3.672106742858887
683,42300.0,-8.878896713256836,-0.38367083668708796,3.672106742858887
684,42400.0,-8.91421127319336,-0.3890577852725983,3.6846764087677
685,42500.0,-8.91421127319336,-0.3890577852725983,3.6846764087677
686,42600.0,-8.899846076965332,-0.38486793637275696,3.648763418197632
687,42700.0,-8.883087158203125,-0.3992331326007843,3.665522813796997
688,42800.0,-8.883087158203125,-0.3992331326007843,3.665522813796997
689,42900.0,-8.905233383178711,-0.3968389332294464,3.6290111541748047
690,41500.0,-8.867524147033691,-0.3908534348011017,3.673303842544556
691,41600.0,-8.867524147033691,-0.3908534348011017,3.673303842544556
692,41700.0,-8.916605949401855,-0.3675099611282349,3.659537315368652
693,41800.0,-8.901641845703125,-0.3938461840152741,3.662529945373535
694,41900.0,-8.901641845703125,-0.3938461840152741,3.662529945373535
695,42000.0,-8.922591209411621,-0.3884592354297638,3.6840779781341553
696,42100.0,-8.922591209411621,-0.3884592354297638,3.6840779781341553
697,42200.0,-8.878896713256836,-0.38367083668708796,3.672106742858887
698,42300.0,-8.878896713256836,-0.38367083668708796,3.672106742858887
699,42400.0,-8.91421127319336,-0.3890577852725983,3.6846764087677
700,42500.0,-8.91421127319336,-0.3890577852725983,3.6846764087677
701,42600.0,-8.899846076965332,-0.38486793637275696,3.648763418197632
702,42700.0,-8.883087158203125,-0.3992331326007843,3.665522813796997
703,42800.0,-8.883087158203125,-0.3992331326007843,3.665522813796997
704,42900.0,-8.905233383178711,-0.3968389332294464,3.6290111541748047
705,43000.0,-8.905233383178711,-0.3968389332294464,3.6290111541748047
706,43100.0,-8.905233383178711,-0.3794809579849243,3.6762967109680176
707,43200.0,-8.905233383178711,-0.3794809579849243,3.6762967109680176
708,43300.0,-8.89565658569336,-0.4195838570594788,3.647566318511963
709,43400.0,-8.89565658569336,-0.4195838570594788,3.647566318511963
710,43500.0,-8.929773330688477,-0.43754035234451294,3.6403837203979488
711,43600.0,-8.920196533203125,-0.4213795065879822,3.660135746002197
712,43700.0,-8.920196533203125,-0.4213795065879822,3.660135746002197
713,43800.0,-8.89026927947998,-0.396240383386612,3.67390251159668
714,43900.0,-8.89026927947998,-0.396240383386612,3.67390251159668
715,44000.0,-8.945934295654297,-0.37888240814208973,3.633799552917481
716,44100.0,-8.945934295654297,-0.37888240814208973,3.633799552917481
717,44200.0,-8.882488250732422,-0.3890577852725983,3.658340215682984
718,44300.0,-8.882488250732422,-0.3890577852725983,3.658340215682984
719,44400.0,-8.917802810668945,-0.37888240814208973,3.6930561065673833
720,43000.0,-8.905233383178711,-0.3968389332294464,3.6290111541748047
721,43100.0,-8.905233383178711,-0.3794809579849243,3.6762967109680176
722,43200.0,-8.905233383178711,-0.3794809579849243,3.6762967109680176
723,43300.0,-8.89565658569336,-0.4195838570594788,3.647566318511963
724,43400.0,-8.89565658569336,-0.4195838570594788,3.647566318511963
725,43500.0,-8.929773330688477,-0.43754035234451294,3.6403837203979488
726,43600.0,-8.920196533203125,-0.4213795065879822,3.660135746002197
727,43700.0,-8.920196533203125,-0.4213795065879822,3.660135746002197
728,43800.0,-8.89026927947998,-0.396240383386612,3.67390251159668
729,43900.0,-8.89026927947998,-0.396240383386612,3.67390251159668
730,44000.0,-8.945934295654297,-0.37888240814208973,3.633799552917481
731,44100.0,-8.945934295654297,-0.37888240814208973,3.633799552917481
732,44200.0,-8.882488250732422,-0.3890577852725983,3.658340215682984
733,44300.0,-8.882488250732422,-0.3890577852725983,3.658340215682984
734,44400.0,-8.917802810668945,-0.37888240814208973,3.6930561065673833
735,44500.0,-8.916007041931152,-0.3561375141143799,3.6373908519744873
736,44600.0,-8.916007041931152,-0.3561375141143799,3.6373908519744873
737,44700.0,-8.923190116882324,-0.3381809890270233,3.736750364303589
738,44800.0,-8.923190116882324,-0.3381809890270233,3.736750364303589
739,44900.0,-8.901042938232422,-0.4106055796146393,3.6505589485168457
740,45000.0,-8.901042938232422,-0.4106055796146393,3.6505589485168457
741,45100.0,-8.893261909484863,-0.35254621505737305,3.658340215682984
742,45200.0,-8.893261909484863,-0.35254621505737305,3.658340215682984
743,45300.0,-8.887276649475098,-0.38486793637275696,3.6631286144256587
744,45400.0,-8.887276649475098,-0.38486793637275696,3.6631286144256587
745,45500.0,-8.91181755065918,-0.38486793637275696,3.638587951660156
746,45600.0,-8.917203903198242,-0.3824737071990967,3.6272156238555913
747,45700.0,-8.917203903198242,-0.3824737071990967,3.6272156238555913
748,45800.0,-8.90762710571289,-0.3908534348011017,3.6703112125396733
749,45900.0,-8.90762710571289,-0.3908534348011017,3.6703112125396733
750,44500.0,-8.916007041931152,-0.3561375141143799,3.6373908519744873
751,44600.0,-8.916007041931152,-0.3561375141143799,3.6373908519744873
752,44700.0,-8.923190116882324,-0.3381809890270233,3.736750364303589
753,44800.0,-8.923190116882324,-0.3381809890270233,3.736750364303589
754,44900.0,-8.901042938232422,-0.4106055796146393,3.6505589485168457
755,45000.0,-8.901042938232422,-0.4106055796146393,3.6505589485168457
756,45100.0,-8.893261909484863,-0.35254621505737305,3.658340215682984
757,45200.0,-8.893261909484863,-0.35254621505737305,3.658340215682984
758,45300.0,-8.887276649475098,-0.38486793637275696,3.6631286144256587
759,45400.0,-8.887276649475098,-0.38486793637275696,3.6631286144256587
760,45500.0,-8.91181755065918,-0.38486793637275696,3.638587951660156
761,45600.0,-8.917203903198242,-0.3824737071990967,3.6272156238555913
762,45700.0,-8.917203903198242,-0.3824737071990967,3.6272156238555913
763,45800.0,-8.90762710571289,-0.3908534348011017,3.6703112125396733
764,45900.0,-8.90762710571289,-0.3908534348011017,3.6703112125396733
765,46000.0,-8.921992301940918,-0.3908534348011017,3.666121244430542
766,46100.0,-8.921992301940918,-0.3908534348011017,3.666121244430542
767,46200.0,-8.923788070678711,-0.3926490843296051,3.6403837203979488
768,46300.0,-8.923788070678711,-0.3926490843296051,3.6403837203979488
769,46400.0,-8.910021781921387,-0.3806780576705933,3.6511576175689697
770,46500.0,-8.902240753173828,-0.3711012601852417,3.693654775619507
771,46600.0,-8.902240753173828,-0.3711012601852417,3.693654775619507
772,46700.0,-8.914810180664062,-0.4100070297718048,3.6631286144256587
773,46800.0,-8.914810180664062,-0.4100070297718048,3.6631286144256587
774,46900.0,-8.927379608154297,-0.32620999217033386,3.6409821510314937
775,47000.0,-8.927379608154297,-0.32620999217033386,3.6409821510314937
776,47100.0,-8.907029151916504,-0.4369418025016785,3.687669277191162
777,47200.0,-8.933364868164062,-0.3519476354122162,3.634398221969605
778,47300.0,-8.933364868164062,-0.3519476354122162,3.634398221969605
779,47400.0,-8.89146614074707,-0.3663128614425659,3.681085109710693
780,46000.0,-8.921992301940918,-0.3908534348011017,3.666121244430542
781,46100.0,-8.921992301940918,-0.3908534348011017,3.666121244430542
782,46200.0,-8.923788070678711,-0.3926490843296051,3.6403837203979488
783,46300.0,-8.923788070678711,-0.3926490843296051,3.6403837203979488
784,46400.0,-8.910021781921387,-0.3806780576705933,3.6511576175689697
785,46500.0,-8.902240753173828,-0.3711012601852417,3.693654775619507
786,46600.0,-8.902240753173828,-0.3711012601852417,3.693654775619507
787,46700.0,-8.914810180664062,-0.4100070297718048,3.6631286144256587
788,46800.0,-8.914810180664062,-0.4100070297718048,3.6631286144256587
789,46900.0,-8.927379608154297,-0.32620999217033386,3.6409821510314937
790,47000.0,-8.927379608154297,-0.32620999217033386,3.6409821510314937
791,47100.0,-8.907029151916504,-0.4369418025016785,3.687669277191162
792,47200.0,-8.933364868164062,-0.3519476354122162,3.634398221969605
793,47300.0,-8.933364868164062,-0.3519476354122162,3.634398221969605
794,47400.0,-8.89146614074707,-0.3663128614425659,3.681085109710693
795,47500.0,-8.89146614074707,-0.3663128614425659,3.681085109710693
796,47600.0,-8.903437614440918,-0.3746925592422485,3.6565444469451904
797,47700.0,-8.903437614440918,-0.3746925592422485,3.6565444469451904
798,47800.0,-8.899846076965332,-0.37529110908508295,3.6703112125396733
799,47900.0,-8.899846076965332,-0.37529110908508295,3.6703112125396733
800,48000.0,-8.910021781921387,-0.3758896589279175,3.652354717254639
801,48100.0,-8.910021781921387,-0.3758896589279175,3.652354717254639
802,48200.0,-8.89026927947998,-0.3675099611282349,3.643975019454956
803,48300.0,-8.922591209411621,-0.3621230125427246,3.645172119140625
804,48400.0,-8.922591209411621,-0.3621230125427246,3.645172119140625
805,48500.0,-8.905233383178711,-0.3884592354297638,3.6553473472595215
806,48600.0,-8.905233383178711,-0.3884592354297638,3.6553473472595215
807,48700.0,-8.905831336975098,-0.3824737071990967,3.6379895210266113
808,48800.0,-8.905831336975098,-0.3824737071990967,3.6379895210266113
809,48900.0,-8.917203903198242,-0.3842693865299225,3.6631286144256587
810,47500.0,-8.89146614074707,-0.3663128614425659,3.681085109710693
811,47600.0,-8.903437614440918,-0.3746925592422485,3.6565444469451904
812,47700.0,-8.903437614440918,-0.3746925592422485,3.6565444469451904
813,47800.0,-8.899846076965332,-0.37529110908508295,3.6703112125396733
814,47900.0,-8.899846076965332,-0.37529110908508295,3.6703112125396733
815,48000.0,-8.910021781921387,-0.3758896589279175,3.652354717254639
816,48100.0,-8.910021781921387,-0.3758896589279175,3.652354717254639
817,48200.0,-8.89026927947998,-0.3675099611282349,3.643975019454956
818,48300.0,-8.922591209411621,-0.3621230125427246,3.645172119140625
819,48400.0,-8.922591209411621,-0.3621230125427246,3.645172119140625
820,48500.0,-8.905233383178711,-0.3884592354297638,3.6553473472595215
821,48600.0,-8.905233383178711,-0.3884592354297638,3.6553473472595215
822,48700.0,-8.905831336975098,-0.3824737071990967,3.6379895210266113
823,48800.0,-8.905831336975098,-0.3824737071990967,3.6379895210266113
824,48900.0,-8.917203903198242,-0.3842693865299225,3.6631286144256587
825,49000.0,-8.917203903198242,-0.3842693865299225,3.6631286144256587
826,49100.0,-8.917203903198242,-0.3818751573562622,3.652953147888184
827,49200.0,-8.904036521911621,-0.3734954595565796,3.6373908519744873
828,49300.0,-8.904036521911621,-0.3734954595565796,3.6373908519744873
829,49400.0,-8.917802810668945,-0.37828385829925537,3.6367924213409424
830,49500.0,-8.917802810668945,-0.37828385829925537,3.6367924213409424
831,49600.0,-8.88907241821289,-0.3884592354297638,3.6960489749908447
832,49700.0,-8.88907241821289,-0.3884592354297638,3.6960489749908447
833,49800.0,-8.951920509338379,-0.30705636739730835,3.63918662071228
834,49900.0,-8.951920509338379,-0.30705636739730835,3.63918662071228
835,50000.0,-8.898050308227539,-0.37229835987091053,3.691859006881714
836,50100.0,-8.892663955688477,-0.3621230125427246,3.664325714111328
837,50200.0,-8.892663955688477,-0.3621230125427246,3.664325714111328
838,50300.0,-8.923788070678711,-0.3705027103424072,3.634398221969605
839,50400.0,-8.923788070678711,-0.3705027103424072,3.634398221969605
840,49000.0,-8.917203903198242,-0.3842693865299225,3.6631286144256587
841,49100.0,-8.917203903198242,-0.3818751573562622,3.652953147888184
842,49200.0,-8.904036521911621,-0.3734954595565796,3.6373908519744873
843,49300.0,-8.904036521911621,-0.3734954595565796,3.6373908519744873
844,49400.0,-8.917802810668945,-0.37828385829925537,3.6367924213409424
845,49500.0,-8.917802810668945,-0.37828385829925537,3.6367924213409424
846,49600.0,-8.88907241821289,-0.3884592354297638,3.6960489749908447
847,49700.0,-8.88907241821289,-0.3884592354297638,3.6960489749908447
848,49800.0,-8.951920509338379,-0.30705636739730835,3.63918662071228
849,49900.0,-8.951920509338379,-0.30705636739730835,3.63918662071228
850,50000.0,-8.898050308227539,-0.37229835987091053,3.691859006881714
851,50100.0,-8.892663955688477,-0.3621230125427246,3.664325714111328
852,50200.0,-8.892663955688477,-0.3621230125427246,3.664325714111328
853,50300.0,-8.923788070678711,-0.3705027103424072,3.634398221969605
854,50400.0,-8.923788070678711,-0.3705027103424072,3.634398221969605
855,50500.0,-8.89685344696045,-0.3884592354297638,3.646369218826294
856,50600.0,-8.89685344696045,-0.3884592354297638,3.646369218826294
857,50700.0,-8.914810180664062,-0.37529110908508295,3.6828808784484863
858,50800.0,-8.914810180664062,-0.37529110908508295,3.6828808784484863
859,50900.0,-8.869918823242188,-0.345363587141037,3.660135746002197
860,51000.0,-8.921394348144531,-0.3740940093994141,3.658938646316528
861,51100.0,-8.921394348144531,-0.3740940093994141,3.658938646316528
862,51200.0,-8.921992301940918,-0.3681085109710693,3.643975019454956
863,51300.0,-8.921992301940918,-0.3681085109710693,3.643975019454956
864,51400.0,-8.890868186950684,-0.37529110908508295,3.6631286144256587
865,51500.0,-8.890868186950684,-0.37529110908508295,3.6631286144256587
866,51600.0,-8.97765827178955,-0.3830722570419312,3.633799552917481
867,51700.0,-8.97765827178955,-0.3830722570419312,3.633799552917481
868,51800.0,-8.90762710571289,-0.4016273319721222,3.627814054489136
869,51900.0,-8.873510360717773,-0.32261869311332697,3.687669277191162
870,50500.0,-8.89685344696045,-0.3884592354297638,3.646369218826294
871,50600.0,-8.89685344696045,-0.3884592354297638,3.646369218826294
872,50700.0,-8.914810180664062,-0.37529110908508295,3.6828808784484863
873,50800.0,-8.914810180664062,-0.37529110908508295,3.6828808784484863
874,50900.0,-8.869918823242188,-0.345363587141037,3.660135746002197
875,51000.0,-8.921394348144531,-0.3740940093994141,3.658938646316528
876,51100.0,-8.921394348144531,-0.3740940093994141,3.658938646316528
877,51200.0,-8.921992301940918,-0.3681085109710693,3.643975019454956
878,51300.0,-8.921992301940918,-0.3681085109710693,3.643975019454956
879,51400.0,-8.890868186950684,-0.37529110908508295,3.6631286144256587
880,51500.0,-8.890868186950684,-0.37529110908508295,3.6631286144256587
881,51600.0,-8.97765827178955,-0.3830722570419312,3.633799552917481
882,51700.0,-8.97765827178955,-0.3830722570419312,3.633799552917481
883,51800.0,-8.90762710571289,-0.4016273319721222,3.627814054489136
884,51900.0,-8.873510360717773,-0.32261869311332697,3.687669277191162
885,52000.0,-8.873510360717773,-0.32261869311332697,3.687669277191162
886,52100.0,-8.957905769348145,-0.3411737382411957,3.599682331085205
887,52200.0,-8.957905769348145,-0.3411737382411957,3.599682331085205
888,52300.0,-8.926182746887207,-0.3758896589279175,3.6379895210266113
889,52400.0,-8.926182746887207,-0.3758896589279175,3.6379895210266113
890,52500.0,-8.908226013183594,-0.3699041604995728,3.6098575592041016
891,52600.0,-8.908226013183594,-0.3699041604995728,3.6098575592041016
892,52700.0,-8.905233383178711,-0.4010287821292877,3.6290111541748047
893,52800.0,-8.944737434387207,-0.3998316824436188,3.5936968326568604
894,52900.0,-8.944737434387207,-0.3998316824436188,3.5936968326568604
895,53000.0,-8.872312545776367,-0.395043283700943,3.660135746002197
896,53100.0,-8.872312545776367,-0.395043283700943,3.660135746002197
897,53200.0,-8.98005199432373,-0.39803603291511536,3.5715503692626958
898,53300.0,-8.98005199432373,-0.39803603291511536,3.5715503692626958
899,53400.0,-8.834604263305664,-0.3890577852725983,3.7044286727905273
900,52000.0,-8.873510360717773,-0.32261869311332697,3.687669277191162
901,52100.0,-8.957905769348145,-0.3411737382411957,3.599682331085205
902,52200.0,-8.957905769348145,-0.3411737382411957,3.599682331085205
903,52300.0,-8.926182746887207,-0.3758896589279175,3.6379895210266113
904,52400.0,-8.926182746887207,-0.3758896589279175,3.6379895210266113
905,52500.0,-8.908226013183594,-0.3699041604995728,3.6098575592041016
906,52600.0,-8.908226013183594,-0.3699041604995728,3.6098575592041016
907,52700.0,-8.905233383178711,-0.4010287821292877,3.6290111541748047
908,52800.0,-8.944737434387207,-0.3998316824436188,3.5936968326568604
909,52900.0,-8.944737434387207,-0.3998316824436188,3.5936968326568604
910,53000.0,-8.872312545776367,-0.395043283700943,3.660135746002197
911,53100.0,-8.872312545776367,-0.395043283700943,3.660135746002197
912,53200.0,-8.98005199432373,-0.39803603291511536,3.5715503692626958
913,53300.0,-8.98005199432373,-0.39803603291511536,3.5715503692626958
914,53400.0,-8.834604263305664,-0.3890577852725983,3.7044286727905273
915,53500.0,-8.834604263305664,-0.3890577852725983,3.7044286727905273
916,53600.0,-8.965087890625,-0.3728969097137451,3.576937437057495
917,53700.0,-8.897452354431152,-0.4135983288288117,3.648763418197632
918,53800.0,-8.897452354431152,-0.4135983288288117,3.648763418197632
919,53900.0,-8.960898399353027,-0.4620809257030487,3.606266260147095
920,54000.0,-8.960898399353027,-0.4620809257030487,3.606266260147095
921,54100.0,-8.98005199432373,-0.38486793637275696,3.654748916625977
922,54200.0,-8.98005199432373,-0.38486793637275696,3.654748916625977
923,54300.0,-8.877100944519043,-0.3920505344867706,3.6780924797058105
924,54400.0,-8.877100944519043,-0.3920505344867706,3.6780924797058105
925,54500.0,-8.918401718139648,-0.3627215623855591,3.632602453231812
926,54600.0,-8.885480880737305,-0.3728969097137451,3.658938646316528
927,54700.0,-8.885480880737305,-0.3728969097137451,3.658938646316528
928,54800.0,-8.91181755065918,-0.3944447338581085,3.6565444469451904
929,54900.0,-8.91181755065918,-0.3944447338581085,3.6565444469451904
930,53500.0,-8.834604263305664,-0.3890577852725983,3.7044286727905273
931,53600.0,-8.965087890625,-0.3728969097137451,3.576937437057495
932,53700.0,-8.897452354431152,-0.4135983288288117,3.648763418197632
933,53800.0,-8.897452354431152,-0.4135983288288117,3.648763418197632
934,53900.0,-8.960898399353027,-0.4620809257030487,3.606266260147095
935,54000.0,-8.960898399353027,-0.4620809257030487,3.606266260147095
936,54100.0,-8.98005199432373,-0.38486793637275696,3.654748916625977
937,54200.0,-8.98005199432373,-0.38486793637275696,3.654748916625977
938,54300.0,-8.877100944519043,-0.3920505344867706,3.6780924797058105
939,54400.0,-8.877100944519043,-0.3920505344867706,3.6780924797058105
940,54500.0,-8.918401718139648,-0.3627215623855591,3.632602453231812
941,54600.0,-8.885480880737305,-0.3728969097137451,3.658938646316528
942,54700.0,-8.885480880737305,-0.3728969097137451,3.658938646316528
943,54800.0,-8.91181755065918,-0.3944447338581085,3.6565444469451904
944,54900.0,-8.91181755065918,-0.3944447338581085,3.6565444469451904
945,55000.0,-8.919598579406738,-0.3920505344867706,3.626018524169922
946,55100.0,-8.919598579406738,-0.3920505344867706,3.626018524169922
947,55200.0,-8.907029151916504,-0.3675099611282349,3.6176388263702393
948,55300.0,-8.907029151916504,-0.3675099611282349,3.6176388263702393
949,55400.0,-8.91421127319336,-0.3806780576705933,3.63918662071228
950,55500.0,-8.921992301940918,-0.3818751573562622,3.6367924213409424
951,55600.0,-8.921992301940918,-0.3818751573562622,3.6367924213409424
952,55700.0,-8.892663955688477,-0.3567360639572144,3.6493618488311768
953,55800.0,-8.892663955688477,-0.3567360639572144,3.6493618488311768
954,55900.0,-8.89565658569336,-0.3681085109710693,3.672106742858887
955,56000.0,-8.89565658569336,-0.3681085109710693,3.672106742858887
956,56100.0,-8.927379608154297,-0.39803603291511536,3.633201122283936
957,56200.0,-8.927379608154297,-0.39803603291511536,3.633201122283936
958,56300.0,-8.880094528198242,-0.3549404144287109,3.698443174362183
959,56400.0,-8.89026927947998,-0.4028244316577912,3.647566318511963
960,55000.0,-8.919598579406738,-0.3920505344867706,3.626018524169922
961,55100.0,-8.919598579406738,-0.3920505344867706,3.626018524169922
962,55200.0,-8.907029151916504,-0.3675099611282349,3.6176388263702393
963,55300.0,-8.907029151916504,-0.3675099611282349,3.6176388263702393
964,55400.0,-8.91421127319336,-0.3806780576705933,3.63918662071228
965,55500.0,-8.921992301940918,-0.3818751573562622,3.6367924213409424
966,55600.0,-8.921992301940918,-0.3818751573562622,3.6367924213409424
967,55700.0,-8.892663955688477,-0.3567360639572144,3.6493618488311768
968,55800.0,-8.892663955688477,-0.3567360639572144,3.6493618488311768
969,55900.0,-8.89565658569336,-0.3681085109710693,3.672106742858887
970,56000.0,-8.89565658569336,-0.3681085109710693,3.672106742858887
971,56100.0,-8.927379608154297,-0.39803603291511536,3.633201122283936
972,56200.0,-8.927379608154297,-0.39803603291511536,3.633201122283936
973,56300.0,-8.880094528198242,-0.3549404144287109,3.698443174362183
974,56400.0,-8.89026927947998,-0.4028244316577912,3.647566318511963
975,56500.0,-8.89026927947998,-0.4028244316577912,3.647566318511963
976,56600.0,-8.89146614074707,-0.3794809579849243,3.6673183441162114
977,56700.0,-8.89146614074707,-0.3794809579849243,3.6673183441162114
978,56800.0,-8.88907241821289,-0.4028244316577912,3.673303842544556
979,56900.0,-8.88907241821289,-0.4028244316577912,3.673303842544556
980,57000.0,-8.881889343261719,-0.3938461840152741,3.659537315368652
981,57100.0,-8.881889343261719,-0.3938461840152741,3.659537315368652
982,57200.0,-8.908226013183594,-0.3381809890270233,3.665522813796997
983,57300.0,-8.935759544372559,-0.3405751883983612,3.652354717254639
984,57400.0,-8.935759544372559,-0.3405751883983612,3.652354717254639
985,57500.0,-8.925583839416504,-0.3250128924846649,3.6158430576324463
986,57600.0,-8.925583839416504,-0.3250128924846649,3.6158430576324463
987,57700.0,-8.923788070678711,-0.3603273630142212,3.626018524169922
988,57800.0,-8.923788070678711,-0.3603273630142212,3.626018524169922
989,57900.0,-8.971074104309082,-0.3250128924846649,3.567360639572144
990,56500.0,-8.89026927947998,-0.4028244316577912,3.647566318511963
991,56600.0,-8.89146614074707,-0.3794809579849243,3.6673183441162114
992,56700.0,-8.89146614074707,-0.3794809579849243,3.6673183441162114
993,56800.0,-8.88907241821289,-0.4028244316577912,3.673303842544556
994,56900.0,-8.88907241821289,-0.4028244316577912,3.673303842544556
995,57000.0,-8.881889343261719,-0.3938461840152741,3.659537315368652
996,57100.0,-8.881889343261719,-0.3938461840152741,3.659537315368652
997,57200.0,-8.908226013183594,-0.3381809890270233,3.665522813796997
998,57300.0,-8.935759544372559,-0.3405751883983612,3.652354717254639
999,57400.0,-8.935759544372559,-0.3405751883983612,3.652354717254639
1000,57500.0,-8.925583839416504,-0.3250128924846649,3.6158430576324463
1001,57600.0,-8.925583839416504,-0.3250128924846649,3.6158430576324463
1002,57700.0,-8.923788070678711,-0.3603273630142212,3.626018524169922
1003,57800.0,-8.923788070678711,-0.3603273630142212,3.626018524169922
1004,57900.0,-8.971074104309082,-0.3250128924846649,3.567360639572144
1005,58000.0,-8.971074104309082,-0.3250128924846649,3.567360639572144
1006,58100.0,-8.916605949401855,-0.5267243981361389,3.6308069229125977
1007,58200.0,-8.983643531799316,-0.37888240814208973,3.5428199768066406
1008,58300.0,-8.983643531799316,-0.37888240814208973,3.5428199768066406
1009,58400.0,-8.916007041931152,-0.376488208770752,3.622427225112915
1010,58500.0,-8.916007041931152,-0.376488208770752,3.622427225112915
1011,58600.0,-8.917802810668945,-0.3734954595565796,3.6110546588897705
1012,58700.0,-8.917802810668945,-0.3734954595565796,3.6110546588897705
1013,58800.0,-8.944737434387207,-0.3860650360584259,3.589506864547729
1014,58900.0,-8.944737434387207,-0.3860650360584259,3.589506864547729
1015,59000.0,-8.916605949401855,-0.3728969097137451,3.633799552917481
1016,59100.0,-8.934561729431152,-0.345363587141037,3.579930067062378
1017,59200.0,-8.934561729431152,-0.345363587141037,3.579930067062378
1018,59300.0,-8.964489936828613,-0.41120412945747375,3.614047527313232
1019,59400.0,-8.964489936828613,-0.41120412945747375,3.614047527313232
1020,58000.0,-8.971074104309082,-0.3250128924846649,3.567360639572144
1021,58100.0,-8.916605949401855,-0.5267243981361389,3.6308069229125977
1022,58200.0,-8.983643531799316,-0.37888240814208973,3.5428199768066406
1023,58300.0,-8.983643531799316,-0.37888240814208973,3.5428199768066406
1024,58400.0,-8.916007041931152,-0.376488208770752,3.622427225112915
1025,58500.0,-8.916007041931152,-0.376488208770752,3.622427225112915
1026,58600.0,-8.917802810668945,-0.3734954595565796,3.6110546588897705
1027,58700.0,-8.917802810668945,-0.3734954595565796,3.6110546588897705
1028,58800.0,-8.944737434387207,-0.3860650360584259,3.589506864547729
1029,58900.0,-8.944737434387207,-0.3860650360584259,3.589506864547729
1030,59000.0,-8.916605949401855,-0.3728969097137451,3.633799552917481
1031,59100.0,-8.934561729431152,-0.345363587141037,3.579930067062378
1032,59200.0,-8.934561729431152,-0.345363587141037,3.579930067062378
1033,59300.0,-8.964489936828613,-0.41120412945747375,3.614047527313232
1034,59400.0,-8.964489936828613,-0.41120412945747375,3.614047527313232
1035,59500.0,-8.859145164489746,-0.4088099300861359,3.691260576248169
1036,59600.0,-8.859145164489746,-0.4088099300861359,3.691260576248169
1037,59700.0,-8.939350128173828,-0.3824737071990967,3.634996652603149
1038,59800.0,-8.939350128173828,-0.3824737071990967,3.634996652603149
1039,59900.0,-8.932168006896973,-0.3860650360584259,3.647566318511963
1040,60000.0,-8.950722694396973,-0.3669114112854004,3.6320040225982666
1041,60100.0,-8.950722694396973,-0.3669114112854004,3.6320040225982666
1042,60200.0,-8.862735748291016,-0.4195838570594788,3.687070608139038
1043,60300.0,-8.862735748291016,-0.4195838570594788,3.687070608139038
1044,60400.0,-8.890868186950684,-0.3794809579849243,3.665522813796997
1045,60500.0,-8.890868186950684,-0.3794809579849243,3.665522813796997
1046,60600.0,-8.965686798095703,-0.4776432514190674,3.552995204925537
1047,60700.0,-8.965686798095703,-0.4776432514190674,3.552995204925537
1048,60800.0,-9.598953247070312,-1.1198878288269043,3.22678542137146
1049,60900.0,-9.169194221496582,-0.4836287498474121,3.508104085922241
1050,59500.0,-8.859145164489746,-0.4088099300861359,3.691260576248169
1051,59600.0,-8.859145164489746,-0.4088099300861359,3.691260576248169
1052,59700.0,-8.939350128173828,-0.3824737071990967,3.634996652603149
1053,59800.0,-8.939350128173828,-0.3824737071990967,3.634996652603149
1054,59900.0,-8.932168006896973,-0.3860650360584259,3.647566318511963
1055,60000.0,-8.950722694396973,-0.3669114112854004,3.6320040225982666
1056,60100.0,-8.950722694396973,-0.3669114112854004,3.6320040225982666
1057,60200.0,-8.862735748291016,-0.4195838570594788,3.687070608139038
1058,60300.0,-8.862735748291016,-0.4195838570594788,3.687070608139038
1059,60400.0,-8.890868186950684,-0.3794809579849243,3.665522813796997
1060,60500.0,-8.890868186950684,-0.3794809579849243,3.665522813796997
1061,60600.0,-8.965686798095703,-0.4776432514190674,3.552995204925537
1062,60700.0,-8.965686798095703,-0.4776432514190674,3.552995204925537
1063,60800.0,-9.598953247070312,-1.1198878288269043,3.22678542137146
1064,60900.0,-9.169194221496582,-0.4836287498474121,3.508104085922241
1065,61000.0,-9.169194221496582,-0.4836287498474121,3.508104085922241
1066,61100.0,-8.81784439086914,-0.46627077460289,3.775057554244995
1067,61200.0,-8.81784439086914,-0.46627077460289,3.775057554244995
1068,61300.0,-8.82323169708252,-0.4267664551734924,3.64577054977417
1069,61400.0,-8.82323169708252,-0.4267664551734924,3.64577054977417
1070,61500.0,-8.913613319396973,-0.5111620426177979,3.678690910339356
1071,61600.0,-8.913613319396973,-0.5111620426177979,3.678690910339356
1072,61700.0,-8.983643531799316,-0.4608838260173798,3.6756980419158936
1073,61800.0,-8.825626373291016,-0.467467874288559,3.6840779781341553
1074,61900.0,-8.825626373291016,-0.467467874288559,3.6840779781341553
1075,62000.0,-8.884882926940918,-0.4890156984329224,3.7122097015380864
1076,62100.0,-8.884882926940918,-0.4890156984329224,3.7122097015380864
1077,62200.0,-8.899846076965332,-0.44831427931785583,3.6553473472595215
1078,62300.0,-8.899846076965332,-0.44831427931785583,3.6553473472595215
1079,62400.0,-8.956110000610352,-0.5045779943466187,3.5936968326568604
1080,61000.0,-9.169194221496582,-0.4836287498474121,3.508104085922241
1081,61100.0,-8.81784439086914,-0.46627077460289,3.775057554244995
1082,61200.0,-8.81784439086914,-0.46627077460289,3.775057554244995
1083,61300.0,-8.82323169708252,-0.4267664551734924,3.64577054977417
1084,61400.0,-8.82323169708252,-0.4267664551734924,3.64577054977417
1085,61500.0,-8.913613319396973,-0.5111620426177979,3.678690910339356
1086,61600.0,-8.913613319396973,-0.5111620426177979,3.678690910339356
1087,61700.0,-8.983643531799316,-0.4608838260173798,3.6756980419158936
1088,61800.0,-8.825626373291016,-0.467467874288559,3.6840779781341553
1089,61900.0,-8.825626373291016,-0.467467874288559,3.6840779781341553
1090,62000.0,-8.884882926940918,-0.4890156984329224,3.7122097015380864
1091,62100.0,-8.884882926940918,-0.4890156984329224,3.7122097015380864
1092,62200.0,-8.899846076965332,-0.44831427931785583,3.6553473472595215
1093,62300.0,-8.899846076965332,-0.44831427931785583,3.6553473472595215
1094,62400.0,-8.956110000610352,-0.5045779943466187,3.5936968326568604
1095,62500.0,-8.956110000610352,-0.5045779943466187,3.5936968326568604
1096,62600.0,-8.959102630615234,-0.5273229479789734,3.6379895210266113
1097,62700.0,-8.883087158203125,-0.5321113467216492,3.6858735084533687
1098,62800.0,-8.883087158203125,-0.5321113467216492,3.6858735084533687
1099,62900.0,-8.913613319396973,-0.4997895956039429,3.652953147888184
1100,63000.0,-8.913613319396973,-0.4997895956039429,3.652953147888184
1101,63100.0,-8.902240753173828,-0.456095427274704,3.643975019454956
1102,63200.0,-8.902240753173828,-0.456095427274704,3.643975019454956
1103,63300.0,-8.916007041931152,-0.5889736413955688,3.6200330257415767
1104,63400.0,-8.916007041931152,-0.5889736413955688,3.6200330257415767
1105,63500.0,-8.910619735717773,-0.4088099300861359,3.6481647491455083
1106,63600.0,-8.911218643188477,-0.09457096457481384,3.485957622528076
1107,63700.0,-8.911218643188477,-0.09457096457481384,3.485957622528076
1108,63800.0,-8.948927879333496,-0.4638765752315521,3.5470097064971924
1109,63900.0,-8.948927879333496,-0.4638765752315521,3.5470097064971924
1110,62500.0,-8.956110000610352,-0.5045779943466187,3.5936968326568604
1111,62600.0,-8.959102630615234,-0.5273229479789734,3.6379895210266113
1112,62700.0,-8.883087158203125,-0.5321113467216492,3.6858735084533687
1113,62800.0,-8.883087158203125,-0.5321113467216492,3.6858735084533687
1114,62900.0,-8.913613319396973,-0.4997895956039429,3.652953147888184
1115,63000.0,-8.913613319396973,-0.4997895956039429,3.652953147888184
1116,63100.0,-8.902240753173828,-0.456095427274704,3.643975019454956
1117,63200.0,-8.902240753173828,-0.456095427274704,3.643975019454956
1118,63300.0,-8.916007041931152,-0.5889736413955688,3.6200330257415767
1119,63400.0,-8.916007041931152,-0.5889736413955688,3.6200330257415767
1120,63500.0,-8.910619735717773,-0.4088099300861359,3.6481647491455083
1121,63600.0,-8.911218643188477,-0.09457096457481384,3.485957622528076
1122,63700.0,-8.911218643188477,-0.09457096457481384,3.485957622528076
1123,63800.0,-8.948927879333496,-0.4638765752315521,3.5470097064971924
1124,63900.0,-8.948927879333496,-0.4638765752315521,3.5470097064971924
1125,64000.0,-8.930971145629883,-0.2908954918384552,3.6361937522888175
1126,64100.0,-8.930971145629883,-0.2908954918384552,3.6361937522888175
1127,64200.0,-8.962095260620117,-0.3489548861980438,3.5679590702056885
1128,64300.0,-8.962095260620117,-0.3489548861980438,3.5679590702056885
1129,64400.0,-8.939350128173828,-0.4219780564308167,3.5823242664337163
1130,64500.0,-8.918999671936035,-0.4022258818149567,3.665522813796997
1131,64600.0,-8.918999671936035,-0.4022258818149567,3.665522813796997
1132,64700.0,-8.918999671936035,-0.3387795388698578,3.6110546588897705
1133,64800.0,-8.918999671936035,-0.3387795388698578,3.6110546588897705
1134,64900.0,-8.910021781921387,-0.3369838893413544,3.759495258331299
1135,65000.0,-8.910021781921387,-0.3369838893413544,3.759495258331299
1136,65100.0,-8.87410831451416,-0.5297171473503113,3.5039141178131104
1137,65200.0,-8.87410831451416,-0.5297171473503113,3.5039141178131104
1138,65300.0,-8.862137794494629,-0.3926490843296051,3.8211460113525386
1139,65400.0,-8.99860668182373,-0.3417722880840301,3.525461912155152
1140,64000.0,-8.930971145629883,-0.2908954918384552,3.6361937522888175
1141,64100.0,-8.930971145629883,-0.2908954918384552,3.6361937522888175
1142,64200.0,-8.962095260620117,-0.3489548861980438,3.5679590702056885
1143,64300.0,-8.962095260620117,-0.3489548861980438,3.5679590702056885
1144,64400.0,-8.939350128173828,-0.4219780564308167,3.5823242664337163
1145,64500.0,-8.918999671936035,-0.4022258818149567,3.665522813796997
1146,64600.0,-8.918999671936035,-0.4022258818149567,3.665522813796997
1147,64700.0,-8.918999671936035,-0.3387795388698578,3.6110546588897705
1148,64800.0,-8.918999671936035,-0.3387795388698578,3.6110546588897705
1149,64900.0,-8.910021781921387,-0.3369838893413544,3.759495258331299
1150,65000.0,-8.910021781921387,-0.3369838893413544,3.759495258331299
1151,65100.0,-8.87410831451416,-0.5297171473503113,3.5039141178131104
1152,65200.0,-8.87410831451416,-0.5297171473503113,3.5039141178131104
1153,65300.0,-8.862137794494629,-0.3926490843296051,3.8211460113525386
1154,65400.0,-8.99860668182373,-0.3417722880840301,3.525461912155152
1155,65500.0,-8.99860668182373,-0.3417722880840301,3.525461912155152
1156,65600.0,-8.958504676818848,-0.3501519858837128,3.5595793724060063
1157,65700.0,-8.958504676818848,-0.3501519858837128,3.5595793724060063
1158,65800.0,-8.842385292053223,-0.3130418658256531,3.7732617855072017
1159,65900.0,-8.842385292053223,-0.3130418658256531,3.7732617855072017
1160,66000.0,-8.957905769348145,-0.3034650683403015,3.729567766189575
1161,66100.0,-8.957905769348145,-0.3034650683403015,3.729567766189575
1162,66200.0,-8.875306129455566,-0.25258827209472656,3.739742994308472
1163,66300.0,-8.89685344696045,-0.22206220030784607,3.73016619682312
1164,66400.0,-8.89685344696045,-0.22206220030784607,3.73016619682312
1165,66500.0,-8.920795440673828,-0.25977087020874023,3.6631286144256587
1166,66600.0,-8.920795440673828,-0.25977087020874023,3.6631286144256587
1167,66700.0,-8.899248123168945,-0.3196259140968323,3.652953147888184
1168,66800.0,-8.899248123168945,-0.3196259140968323,3.652953147888184
1169,66900.0,-8.928576469421387,-0.27473464608192444,3.5727474689483643
1170,65500.0,-8.99860668182373,-0.3417722880840301,3.525461912155152
1171,65600.0,-8.958504676818848,-0.3501519858837128,3.5595793724060063
1172,65700.0,-8.958504676818848,-0.3501519858837128,3.5595793724060063
1173,65800.0,-8.842385292053223,-0.3130418658256531,3.7732617855072017
1174,65900.0,-8.842385292053223,-0.3130418658256531,3.7732617855072017
1175,66000.0,-8.957905769348145,-0.3034650683403015,3.729567766189575
1176,66100.0,-8.957905769348145,-0.3034650683403015,3.729567766189575
1177,66200.0,-8.875306129455566,-0.25258827209472656,3.739742994308472
1178,66300.0,-8.89685344696045,-0.22206220030784607,3.73016619682312
1179,66400.0,-8.89685344696045,-0.22206220030784607,3.73016619682312
1180,66500.0,-8.920795440673828,-0.25977087020874023,3.6631286144256587
1181,66600.0,-8.920795440673828,-0.25977087020874023,3.6631286144256587
1182,66700.0,-8.899248123168945,-0.3196259140968323,3.652953147888184
1183,66800.0,-8.899248123168945,-0.3196259140968323,3.652953147888184
1184,66900.0,-8.928576469421387,-0.27473464608192444,3.5727474689483643
1185,67000.0,-8.928576469421387,-0.27473464608192444,3.5727474689483643
1186,67100.0,-8.863334655761719,-0.2406172752380371,3.773860454559326
1187,67200.0,-8.863334655761719,-0.2406172752380371,3.773860454559326
1188,67300.0,-8.898050308227539,-0.32620999217033386,3.6296098232269287
1189,67400.0,-8.794501304626465,-0.3585317134857178,3.79840087890625
1190,67500.0,-8.794501304626465,-0.3585317134857178,3.79840087890625
1191,67600.0,-8.892663955688477,-0.35733461380004883,3.5954923629760738
1192,67700.0,-8.892663955688477,-0.35733461380004883,3.5954923629760738
1193,67800.0,-8.809465408325195,-0.36571431159973145,3.633201122283936
1194,67900.0,-8.809465408325195,-0.36571431159973145,3.633201122283936
1195,68000.0,-8.863933563232422,-0.32680854201316833,3.6493618488311768
1196,68100.0,-8.863933563232422,-0.32680854201316833,3.6493618488311768
1197,68200.0,-8.921394348144531,-0.39145198464393616,3.5924997329711914
1198,68300.0,-8.933364868164062,-0.3734954595565796,3.598485231399536
1199,68400.0,-8.933364868164062,-0.3734954595565796,3.598485231399536
1200,67000.0,-8.928576469421387,-0.27473464608192444,3.5727474689483643
1201,67100.0,-8.863334655761719,-0.2406172752380371,3.773860454559326
1202,67200.0,-8.863334655761719,-0.2406172752380371,3.773860454559326
1203,67300.0,-8.898050308227539,-0.32620999217033386,3.6296098232269287
1204,67400.0,-8.794501304626465,-0.3585317134857178,3.79840087890625
1205,67500.0,-8.794501304626465,-0.3585317134857178,3.79840087890625
1206,67600.0,-8.892663955688477,-0.35733461380004883,3.5954923629760738
1207,67700.0,-8.892663955688477,-0.35733461380004883,3.5954923629760738
1208,67800.0,-8.809465408325195,-0.36571431159973145,3.633201122283936
1209,67900.0,-8.809465408325195,-0.36571431159973145,3.633201122283936
1210,68000.0,-8.863933563232422,-0.32680854201316833,3.6493618488311768
1211,68100.0,-8.863933563232422,-0.32680854201316833,3.6493618488311768
1212,68200.0,-8.921394348144531,-0.39145198464393616,3.5924997329711914
1213,68300.0,-8.933364868164062,-0.3734954595565796,3.598485231399536
1214,68400.0,-8.933364868164062,-0.3734954595565796,3.598485231399536
1215,68500.0,-8.980650901794434,-0.3292027413845062,3.603273630142212
1216,68600.0,-8.980650901794434,-0.3292027413845062,3.603273630142212
1217,68700.0,-8.946533203125,-0.4165911078453064,3.5924997329711914
1218,68800.0,-8.946533203125,-0.4165911078453064,3.5924997329711914
1219,68900.0,-8.942941665649414,-0.3830722570419312,3.5853171348571777
1220,69000.0,-8.942941665649414,-0.3830722570419312,3.5853171348571777
1221,69100.0,-8.910021781921387,-0.3908534348011017,3.6164417266845694
1222,69200.0,-8.927978515625,-0.4219780564308167,3.579331636428833
1223,69300.0,-8.927978515625,-0.4219780564308167,3.579331636428833
1224,69400.0,-8.937555313110352,-0.4135983288288117,3.60566782951355
1225,69500.0,-8.937555313110352,-0.4135983288288117,3.60566782951355
1226,69600.0,-8.89565658569336,-0.3944447338581085,3.579930067062378
1227,69700.0,-8.89565658569336,-0.3944447338581085,3.579930067062378
1228,69800.0,-8.926182746887207,-0.3800795078277588,3.57753586769104
1229,69900.0,-8.866926193237305,-0.3471592366695404,3.651756048202514
1230,68500.0,-8.980650901794434,-0.3292027413845062,3.603273630142212
1231,68600.0,-8.980650901794434,-0.3292027413845062,3.603273630142212
1232,68700.0,-8.946533203125,-0.4165911078453064,3.5924997329711914
1233,68800.0,-8.946533203125,-0.4165911078453064,3.5924997329711914
1234,68900.0,-8.942941665649414,-0.3830722570419312,3.5853171348571777
1235,69000.0,-8.942941665649414,-0.3830722570419312,3.5853171348571777
1236,69100.0,-8.910021781921387,-0.3908534348011017,3.6164417266845694
1237,69200.0,-8.927978515625,-0.4219780564308167,3.579331636428833
1238,69300.0,-8.927978515625,-0.4219780564308167,3.579331636428833
1239,69400.0,-8.937555313110352,-0.4135983288288117,3.60566782951355
1240,69500.0,-8.937555313110352,-0.4135983288288117,3.60566782951355
1241,69600.0,-8.89565658569336,-0.3944447338581085,3.579930067062378
1242,69700.0,-8.89565658569336,-0.3944447338581085,3.579930067062378
1243,69800.0,-8.926182746887207,-0.3800795078277588,3.57753586769104
1244,69900.0,-8.866926193237305,-0.3471592366695404,3.651756048202514
1245,70000.0,-8.866926193237305,-0.3471592366695404,3.651756048202514
1246,70100.0,-8.90762710571289,-0.4040215313434601,3.5691561698913574
1247,70200.0,-8.90762710571289,-0.4040215313434601,3.5691561698913574
1248,70300.0,-8.99860668182373,-0.3555389642715454,3.535637378692627
1249,70400.0,-8.99860668182373,-0.3555389642715454,3.535637378692627
1250,70500.0,-8.907029151916504,-0.395043283700943,3.587112665176392
1251,70600.0,-8.907029151916504,-0.395043283700943,3.587112665176392
1252,70700.0,-8.89445972442627,-0.3597288131713867,3.5930981636047363
1253,70800.0,-8.89445972442627,-0.3597288131713867,3.5930981636047363
1254,70900.0,-8.93156909942627,-0.3908534348011017,3.579331636428833
1255,71000.0,-8.922591209411621,-0.3770867586135864,3.6044707298278813
1256,71100.0,-8.922591209411621,-0.3770867586135864,3.6044707298278813
1257,71200.0,-8.975263595581055,-0.4201824069023132,3.522469282150269
1258,71300.0,-8.975263595581055,-0.4201824069023132,3.522469282150269
1259,71400.0,-8.916007041931152,-0.3800795078277588,3.6565444469451904
1260,70000.0,-8.866926193237305,-0.3471592366695404,3.651756048202514
1261,70100.0,-8.90762710571289,-0.4040215313434601,3.5691561698913574
1262,70200.0,-8.90762710571289,-0.4040215313434601,3.5691561698913574
1263,70300.0,-8.99860668182373,-0.3555389642715454,3.535637378692627
1264,70400.0,-8.99860668182373,-0.3555389642715454,3.535637378692627
1265,70500.0,-8.907029151916504,-0.395043283700943,3.587112665176392
1266,70600.0,-8.907029151916504,-0.395043283700943,3.587112665176392
1267,70700.0,-8.89445972442627,-0.3597288131713867,3.5930981636047363
1268,70800.0,-8.89445972442627,-0.3597288131713867,3.5930981636047363
1269,70900.0,-8.93156909942627,-0.3908534348011017,3.579331636428833
1270,71000.0,-8.922591209411621,-0.3770867586135864,3.6044707298278813
1271,71100.0,-8.922591209411621,-0.3770867586135864,3.6044707298278813
1272,71200.0,-8.975263595581055,-0.4201824069023132,3.522469282150269
1273,71300.0,-8.975263595581055,-0.4201824069023132,3.522469282150269
1274,71400.0,-8.916007041931152,-0.3800795078277588,3.6565444469451904
1275,71500.0,-8.916007041931152,-0.3800795078277588,3.6565444469451904
1276,71600.0,-8.923788070678711,-0.3776853084564209,3.5470097064971924
1277,71700.0,-8.923788070678711,-0.3776853084564209,3.5470097064971924
1278,71800.0,-8.934561729431152,-0.3818751573562622,3.590105533599853
1279,71900.0,-8.941145896911621,-0.37529110908508295,3.587112665176392
1280,72000.0,-8.941145896911621,-0.37529110908508295,3.587112665176392
1281,72100.0,-8.949525833129883,-0.3740940093994141,3.5404257774353027
1282,72200.0,-8.949525833129883,-0.3740940093994141,3.5404257774353027
1283,72300.0,-8.90762710571289,-0.3621230125427246,3.5859155654907227
1284,72400.0,-8.90762710571289,-0.3621230125427246,3.5859155654907227
1285,72500.0,-8.928576469421387,-0.34596213698387146,3.575740337371826
1286,72600.0,-8.928576469421387,-0.34596213698387146,3.575740337371826
1287,72700.0,-8.94533634185791,-0.3567360639572144,3.574543237686157
1288,72800.0,-8.986037254333496,-0.3770867586135864,3.57753586769104
1289,72900.0,-8.986037254333496,-0.3770867586135864,3.57753586769104
1290,71500.0,-8.916007041931152,-0.3800795078277588,3.6565444469451904
1291,71600.0,-8.923788070678711,-0.3776853084564209,3.5470097064971924
1292,71700.0,-8.923788070678711,-0.3776853084564209,3.5470097064971924
1293,71800.0,-8.934561729431152,-0.3818751573562622,3.590105533599853
1294,71900.0,-8.941145896911621,-0.37529110908508295,3.587112665176392
1295,72000.0,-8.941145896911621,-0.37529110908508295,3.587112665176392
1296,72100.0,-8.949525833129883,-0.3740940093994141,3.5404257774353027
1297,72200.0,-8.949525833129883,-0.3740940093994141,3.5404257774353027
1298,72300.0,-8.90762710571289,-0.3621230125427246,3.5859155654907227
1299,72400.0,-8.90762710571289,-0.3621230125427246,3.5859155654907227
1300,72500.0,-8.928576469421387,-0.34596213698387146,3.575740337371826
1301,72600.0,-8.928576469421387,-0.34596213698387146,3.575740337371826
1302,72700.0,-8.94533634185791,-0.3567360639572144,3.574543237686157
1303,72800.0,-8.986037254333496,-0.3770867586135864,3.57753586769104
1304,72900.0,-8.986037254333496,-0.3770867586135864,3.57753586769104
1305,73000.0,-8.91540813446045,-0.3615244626998901,3.5865142345428467
1306,73100.0,-8.91540813446045,-0.3615244626998901,3.5865142345428467
1307,73200.0,-8.954913139343262,-0.3435679376125336,3.55479097366333
1308,73300.0,-8.954913139343262,-0.3435679376125336,3.55479097366333
1309,73400.0,-8.916007041931152,-0.4040215313434601,3.601477861404419
1310,73500.0,-8.916007041931152,-0.4040215313434601,3.601477861404419
1311,73600.0,-8.971074104309082,-0.3806780576705933,3.584120035171509
1312,73700.0,-8.917802810668945,-0.3627215623855591,3.6050691604614262
1313,73800.0,-8.917802810668945,-0.3627215623855591,3.6050691604614262
1314,73900.0,-8.969278335571289,-0.4010287821292877,3.5733461380004883
1315,74000.0,-8.969278335571289,-0.4010287821292877,3.5733461380004883
1316,74100.0,-8.893860816955566,-0.4058171808719635,3.6272156238555913
1317,74200.0,-8.893860816955566,-0.4058171808719635,3.6272156238555913
1318,74300.0,-8.96149730682373,-0.3824737071990967,3.5685577392578125
1319,74400.0,-8.96149730682373,-0.3824737071990967,3.5685577392578125
1320,73000.0,-8.91540813446045,-0.3615244626998901,3.5865142345428467
1321,73100.0,-8.91540813446045,-0.3615244626998901,3.5865142345428467
1322,73200.0,-8.954913139343262,-0.3435679376125336,3.55479097366333
1323,73300.0,-8.954913139343262,-0.3435679376125336,3.55479097366333
1324,73400.0,-8.916007041931152,-0.4040215313434601,3.601477861404419
1325,73500.0,-8.916007041931152,-0.4040215313434601,3.601477861404419
1326,73600.0,-8.971074104309082,-0.3806780576705933,3.584120035171509
1327,73700.0,-8.917802810668945,-0.3627215623855591,3.6050691604614262
1328,73800.0,-8.917802810668945,-0.3627215623855591,3.6050691604614262
1329,73900.0,-8.969278335571289,-0.4010287821292877,3.5733461380004883
1330,74000.0,-8.969278335571289,-0.4010287821292877,3.5733461380004883
1331,74100.0,-8.893860816955566,-0.4058171808719635,3.6272156238555913
1332,74200.0,-8.893860816955566,-0.4058171808719635,3.6272156238555913
1333,74300.0,-8.96149730682373,-0.3824737071990967,3.5685577392578125
1334,74400.0,-8.96149730682373,-0.3824737071990967,3.5685577392578125
1335,74500.0,-8.918401718139648,-0.4106055796146393,3.614645957946777
1336,74600.0,-8.939949035644531,-0.3926490843296051,3.584120035171509
1337,74700.0,-8.939949035644531,-0.3926490843296051,3.584120035171509
1338,74800.0,-8.932766914367676,-0.36511576175689703,3.5930981636047363
1339,74900.0,-8.932766914367676,-0.36511576175689703,3.5930981636047363
1340,75000.0,-8.899846076965332,-0.3740940093994141,3.633201122283936
1341,75100.0,-8.899846076965332,-0.3740940093994141,3.633201122283936
1342,75200.0,-8.932766914367676,-0.3932476341724396,3.57753586769104
1343,75300.0,-8.932766914367676,-0.3932476341724396,3.57753586769104
1344,75400.0,-8.89146614074707,-0.3998316824436188,3.6254198551177983
1345,75500.0,-8.954314231872559,-0.4465186297893524,3.5511996746063232
1346,75600.0,-8.954314231872559,-0.4465186297893524,3.5511996746063232
1347,75700.0,-8.93037223815918,-0.35254621505737305,3.5936968326568604
1348,75800.0,-8.93037223815918,-0.35254621505737305,3.5936968326568604
1349,75900.0,-8.874707221984863,-0.4088099300861359,3.645172119140625
1350,74500.0,-8.918401718139648,-0.4106055796146393,3.614645957946777
1351,74600.0,-8.939949035644531,-0.3926490843296051,3.584120035171509
1352,74700.0,-8.939949035644531,-0.3926490843296051,3.584120035171509
1353,74800.0,-8.932766914367676,-0.36511576175689703,3.5930981636047363
1354,74900.0,-8.932766914367676,-0.36511576175689703,3.5930981636047363
1355,75000.0,-8.899846076965332,-0.3740940093994141,3.633201122283936
1356,75100.0,-8.899846076965332,-0.3740940093994141,3.633201122283936
1357,75200.0,-8.932766914367676,-0.3932476341724396,3.57753586769104
1358,75300.0,-8.932766914367676,-0.3932476341724396,3.57753586769104
1359,75400.0,-8.89146614074707,-0.3998316824436188,3.6254198551177983
1360,75500.0,-8.954314231872559,-0.4465186297893524,3.5511996746063232
1361,75600.0,-8.954314231872559,-0.4465186297893524,3.5511996746063232
1362,75700.0,-8.93037223815918,-0.35254621505737305,3.5936968326568604
1363,75800.0,-8.93037223815918,-0.35254621505737305,3.5936968326568604
1364,75900.0,-8.874707221984863,-0.4088099300861359,3.645172119140625
1365,76000.0,-8.874707221984863,-0.4088099300861359,3.645172119140625
1366,76100.0,-8.972869873046875,-0.3274070918560028,3.5140895843505864
1367,76200.0,-8.972869873046875,-0.3274070918560028,3.5140895843505864
1368,76300.0,-8.914810180664062,-0.3471592366695404,3.6361937522888175
1369,76400.0,-9.053074836730957,-0.376488208770752,3.5488054752349854
1370,76500.0,-9.053074836730957,-0.376488208770752,3.5488054752349854
1371,76600.0,-8.865729331970215,-0.4082113802433014,3.6559460163116455
1372,76700.0,-8.865729331970215,-0.4082113802433014,3.6559460163116455
1373,76800.0,-8.976460456848145,-0.3860650360584259,3.535637378692627
1374,76900.0,-8.976460456848145,-0.3860650360584259,3.535637378692627
1375,77000.0,-8.921394348144531,-0.3926490843296051,3.6098575592041016
1376,77100.0,-8.921394348144531,-0.3926490843296051,3.6098575592041016
1377,77200.0,-8.963293075561523,-0.3872621357440949,3.5691561698913574
1378,77300.0,-8.944737434387207,-0.395043283700943,3.608062028884888
1379,77400.0,-8.944737434387207,-0.395043283700943,3.608062028884888
1380,76000.0,-8.874707221984863,-0.4088099300861359,3.645172119140625
1381,76100.0,-8.972869873046875,-0.3274070918560028,3.5140895843505864
1382,76200.0,-8.972869873046875,-0.3274070918560028,3.5140895843505864
1383,76300.0,-8.914810180664062,-0.3471592366695404,3.6361937522888175
1384,76400.0,-9.053074836730957,-0.376488208770752,3.5488054752349854
1385,76500.0,-9.053074836730957,-0.376488208770752,3.5488054752349854
1386,76600.0,-8.865729331970215,-0.4082113802433014,3.6559460163116455
1387,76700.0,-8.865729331970215,-0.4082113802433014,3.6559460163116455
1388,76800.0,-8.976460456848145,-0.3860650360584259,3.535637378692627
1389,76900.0,-8.976460456848145,-0.3860650360584259,3.535637378692627
1390,77000.0,-8.921394348144531,-0.3926490843296051,3.6098575592041016
1391,77100.0,-8.921394348144531,-0.3926490843296051,3.6098575592041016
1392,77200.0,-8.963293075561523,-0.3872621357440949,3.5691561698913574
1393,77300.0,-8.944737434387207,-0.395043283700943,3.608062028884888
1394,77400.0,-8.944737434387207,-0.395043283700943,3.608062028884888
1395,77500.0,-8.952518463134766,-0.3878606855869293,3.597886562347412
1396,77600.0,-8.952518463134766,-0.3878606855869293,3.597886562347412
1397,77700.0,-8.955511093139648,-0.3746925592422485,3.5859155654907227
1398,77800.0,-8.955511093139648,-0.3746925592422485,3.5859155654907227
1399,77900.0,-8.947132110595703,-0.3866635859012604,3.573944568634033
1400,78000.0,-8.947132110595703,-0.3866635859012604,3.573944568634033
1401,78100.0,-8.963293075561523,-0.3705027103424072,3.551798105239868
1402,78200.0,-8.904036521911621,-0.3699041604995728,3.5936968326568604
1403,78300.0,-8.904036521911621,-0.3699041604995728,3.5936968326568604
1404,78400.0,-8.927379608154297,-0.3758896589279175,3.5823242664337163
1405,78500.0,-8.927379608154297,-0.3758896589279175,3.5823242664337163
1406,78600.0,-8.944138526916504,-0.3417722880840301,3.60028076171875
1407,78700.0,-8.944138526916504,-0.3417722880840301,3.60028076171875
1408,78800.0,-8.98543930053711,-0.3627215623855591,3.532644510269165
1409,78900.0,-8.98543930053711,-0.3627215623855591,3.532644510269165
1410,77500.0,-8.952518463134766,-0.3878606855869293,3.597886562347412
1411,77600.0,-8.952518463134766,-0.3878606855869293,3.597886562347412
1412,77700.0,-8.955511093139648,-0.3746925592422485,3.5859155654907227
1413,77800.0,-8.955511093139648,-0.3746925592422485,3.5859155654907227
1414,77900.0,-8.947132110595703,-0.3866635859012604,3.573944568634033
1415,78000.0,-8.947132110595703,-0.3866635859012604,3.573944568634033
1416,78100.0,-8.963293075561523,-0.3705027103424072,3.551798105239868
1417,78200.0,-8.904036521911621,-0.3699041604995728,3.5936968326568604
1418,78300.0,-8.904036521911621,-0.3699041604995728,3.5936968326568604
1419,78400.0,-8.927379608154297,-0.3758896589279175,3.5823242664337163
1420,78500.0,-8.927379608154297,-0.3758896589279175,3.5823242664337163
1421,78600.0,-8.944138526916504,-0.3417722880840301,3.60028076171875
1422,78700.0,-8.944138526916504,-0.3417722880840301,3.60028076171875
1423,78800.0,-8.98543930053711,-0.3627215623855591,3.532644510269165
1424,78900.0,-8.98543930053711,-0.3627215623855591,3.532644510269165
1425,79000.0,-8.94533634185791,-0.3770867586135864,3.5865142345428467
1426,79100.0,-8.953716278076172,-0.3477577865123749,3.598485231399536
1427,79200.0,-8.953716278076172,-0.3477577865123749,3.598485231399536
1428,79300.0,-8.898649215698242,-0.3800795078277588,3.6164417266845694
1429,79400.0,-8.898649215698242,-0.3800795078277588,3.6164417266845694
1430,79500.0,-8.941744804382324,-0.4034229815006256,3.575740337371826
1431,79600.0,-8.941744804382324,-0.4034229815006256,3.575740337371826
1432,79700.0,-8.909422874450684,-0.37229835987091053,3.6445734500885014
1433,79800.0,-8.909422874450684,-0.37229835987091053,3.6445734500885014
1434,79900.0,-8.96389102935791,-0.40462008118629456,3.5553896427154537
1435,80000.0,-8.892065048217773,-0.36571431159973145,3.5972881317138667
1436,80100.0,-8.892065048217773,-0.36571431159973145,3.5972881317138667
1437,80200.0,-8.96389102935791,-0.3812766075134277,3.535038709640503
1438,80300.0,-8.96389102935791,-0.3812766075134277,3.535038709640503
1439,80400.0,-8.893261909484863,-0.4387374520301819,3.669712543487549
1440,79000.0,-8.94533634185791,-0.3770867586135864,3.5865142345428467
1441,79100.0,-8.953716278076172,-0.3477577865123749,3.598485231399536
1442,79200.0,-8.953716278076172,-0.3477577865123749,3.598485231399536
1443,79300.0,-8.898649215698242,-0.3800795078277588,3.6164417266845694
1444,79400.0,-8.898649215698242,-0.3800795078277588,3.6164417266845694
1445,79500.0,-8.941744804382324,-0.4034229815006256,3.575740337371826
1446,79600.0,-8.941744804382324,-0.4034229815006256,3.575740337371826
1447,79700.0,-8.909422874450684,-0.37229835987091053,3.6445734500885014
1448,79800.0,-8.909422874450684,-0.37229835987091053,3.6445734500885014
1449,79900.0,-8.96389102935791,-0.40462008118629456,3.5553896427154537
1450,80000.0,-8.892065048217773,-0.36571431159973145,3.5972881317138667
1451,80100.0,-8.892065048217773,-0.36571431159973145,3.5972881317138667
1452,80200.0,-8.96389102935791,-0.3812766075134277,3.535038709640503
1453,80300.0,-8.96389102935791,-0.3812766075134277,3.535038709640503
1454,80400.0,-8.893261909484863,-0.4387374520301819,3.669712543487549
1455,80500.0,-8.893261909484863,-0.4387374520301819,3.669712543487549
1456,80600.0,-9.031527519226074,-0.3806780576705933,3.423708438873291
1457,80700.0,-9.031527519226074,-0.3806780576705933,3.423708438873291
1458,80800.0,-8.787319183349611,-0.444722980260849,3.764283657073975
1459,80900.0,-9.029132843017578,-0.3938461840152741,3.4991257190704346
1460,81000.0,-9.029132843017578,-0.3938461840152741,3.4991257190704346
1461,81100.0,-8.926780700683594,-0.395043283700943,3.6170401573181152
1462,81200.0,-8.926780700683594,-0.395043283700943,3.6170401573181152
1463,81300.0,-8.986037254333496,-0.4195838570594788,3.5428199768066406
1464,81400.0,-8.986037254333496,-0.4195838570594788,3.5428199768066406
1465,81500.0,-8.791508674621582,-0.3956418335437775,3.6948518753051762
1466,81600.0,-8.791508674621582,-0.3956418335437775,3.6948518753051762
1467,81700.0,-9.05606746673584,-0.37229835987091053,3.3500866889953613
1468,81800.0,-9.05606746673584,-0.37229835987091053,3.3500866889953613
1469,81900.0,-8.89026927947998,-0.4321534037590027,3.713406801223755
1470,80500.0,-8.893261909484863,-0.4387374520301819,3.669712543487549
1471,80600.0,-9.031527519226074,-0.3806780576705933,3.423708438873291
1472,80700.0,-9.031527519226074,-0.3806780576705933,3.423708438873291
1473,80800.0,-8.787319183349611,-0.444722980260849,3.764283657073975
1474,80900.0,-9.029132843017578,-0.3938461840152741,3.4991257190704346
1475,81000.0,-9.029132843017578,-0.3938461840152741,3.4991257190704346
1476,81100.0,-8.926780700683594,-0.395043283700943,3.6170401573181152
1477,81200.0,-8.926780700683594,-0.395043283700943,3.6170401573181152
1478,81300.0,-8.986037254333496,-0.4195838570594788,3.5428199768066406
1479,81400.0,-8.986037254333496,-0.4195838570594788,3.5428199768066406
1480,81500.0,-8.791508674621582,-0.3956418335437775,3.6948518753051762
1481,81600.0,-8.791508674621582,-0.3956418335437775,3.6948518753051762
1482,81700.0,-9.05606746673584,-0.37229835987091053,3.3500866889953613
1483,81800.0,-9.05606746673584,-0.37229835987091053,3.3500866889953613
1484,81900.0,-8.89026927947998,-0.4321534037590027,3.713406801223755
1485,82000.0,-8.917802810668945,-0.4100070297718048,3.621828556060791
1486,82100.0,-8.917802810668945,-0.4100070297718048,3.621828556060791
1487,82200.0,-8.982446670532227,-0.4632780253887177,3.5212721824646
1488,82300.0,-8.982446670532227,-0.4632780253887177,3.5212721824646
1489,82400.0,-8.93156909942627,-0.42437225580215454,3.5272576808929443
1490,82500.0,-8.93156909942627,-0.42437225580215454,3.5272576808929443
1491,82600.0,-8.907029151916504,-0.4231751561164856,3.632602453231812
1492,82700.0,-8.9249849319458,-0.41778820753097534,3.4997243881225586
1493,82800.0,-8.9249849319458,-0.41778820753097534,3.4997243881225586
1494,82900.0,-8.880094528198242,-0.4040215313434601,3.6571431159973145
1495,83000.0,-8.880094528198242,-0.4040215313434601,3.6571431159973145
1496,83100.0,-8.96269416809082,-0.4088099300861359,3.516483783721924
1497,83200.0,-8.96269416809082,-0.4088099300861359,3.516483783721924
1498,83300.0,-8.960898399353027,-0.3687070608139038,3.558382272720337
1499,83400.0,-8.960898399353027,-0.3687070608139038,3.558382272720337
1500,82000.0,-8.917802810668945,-0.4100070297718048,3.621828556060791
1501,82100.0,-8.917802810668945,-0.4100070297718048,3.621828556060791
1502,82200.0,-8.982446670532227,-0.4632780253887177,3.5212721824646
1503,82300.0,-8.982446670532227,-0.4632780253887177,3.5212721824646
1504,82400.0,-8.93156909942627,-0.42437225580215454,3.5272576808929443
1505,82500.0,-8.93156909942627,-0.42437225580215454,3.5272576808929443
1506,82600.0,-8.907029151916504,-0.4231751561164856,3.632602453231812
1507,82700.0,-8.9249849319458,-0.41778820753097534,3.4997243881225586
1508,82800.0,-8.9249849319458,-0.41778820753097534,3.4997243881225586
1509,82900.0,-8.880094528198242,-0.4040215313434601,3.6571431159973145
1510,83000.0,-8.880094528198242,-0.4040215313434601,3.6571431159973145
1511,83100.0,-8.96269416809082,-0.4088099300861359,3.516483783721924
1512,83200.0,-8.96269416809082,-0.4088099300861359,3.516483783721924
1513,83300.0,-8.960898399353027,-0.3687070608139038,3.558382272720337
1514,83400.0,-8.960898399353027,-0.3687070608139038,3.558382272720337
1515,83500.0,-8.916007041931152,-0.3818751573562622,3.6379895210266113
1516,83600.0,-8.913613319396973,-0.3872621357440949,3.602674961090088
1517,83700.0,-8.913613319396973,-0.3872621357440949,3.602674961090088
1518,83800.0,-8.913613319396973,-0.4100070297718048,3.589506864547729
1519,83900.0,-8.913613319396973,-0.4100070297718048,3.589506864547729
1520,84000.0,-8.962095260620117,-0.436343252658844,3.6008794307708736
1521,84100.0,-8.962095260620117,-0.436343252658844,3.6008794307708736
1522,84200.0,-9.006388664245605,-0.3693056106567383,3.509899616241455
1523,84300.0,-9.006388664245605,-0.3693056106567383,3.509899616241455
1524,84400.0,-8.884882926940918,-0.37529110908508295,3.6954503059387207
1525,84500.0,-8.939949035644531,-0.36391866207122797,3.5930981636047363
1526,84600.0,-8.939949035644531,-0.36391866207122797,3.5930981636047363
1527,84700.0,-8.958504676818848,-0.3806780576705933,3.579331636428833
1528,84800.0,-8.958504676818848,-0.3806780576705933,3.579331636428833
1529,84900.0,-8.950124740600586,-0.3926490843296051,3.619434356689453
1530,83500.0,-8.916007041931152,-0.3818751573562622,3.6379895210266113
1531,83600.0,-8.913613319396973,-0.3872621357440949,3.602674961090088
1532,83700.0,-8.913613319396973,-0.3872621357440949,3.602674961090088
1533,83800.0,-8.913613319396973,-0.4100070297718048,3.589506864547729
1534,83900.0,-8.913613319396973,-0.4100070297718048,3.589506864547729
1535,84000.0,-8.962095260620117,-0.436343252658844,3.6008794307708736
1536,84100.0,-8.962095260620117,-0.436343252658844,3.6008794307708736
1537,84200.0,-9.006388664245605,-0.3693056106567383,3.509899616241455
1538,84300.0,-9.006388664245605,-0.3693056106567383,3.509899616241455
1539,84400.0,-8.884882926940918,-0.37529110908508295,3.6954503059387207
1540,84500.0,-8.939949035644531,-0.36391866207122797,3.5930981636047363
1541,84600.0,-8.939949035644531,-0.36391866207122797,3.5930981636047363
1542,84700.0,-8.958504676818848,-0.3806780576705933,3.579331636428833
1543,84800.0,-8.958504676818848,-0.3806780576705933,3.579331636428833
1544,84900.0,-8.950124740600586,-0.3926490843296051,3.619434356689453
1545,85000.0,-8.950124740600586,-0.3926490843296051,3.619434356689453
1546,85100.0,-8.912415504455566,-0.40462008118629456,3.6050691604614262
1547,85200.0,-8.912415504455566,-0.40462008118629456,3.6050691604614262
1548,85300.0,-8.899846076965332,-0.3998316824436188,3.619434356689453
1549,85400.0,-8.904036521911621,-0.3800795078277588,3.5835213661193848
1550,85500.0,-8.904036521911621,-0.3800795078277588,3.5835213661193848
1551,85600.0,-8.921394348144531,-0.4016273319721222,3.6116533279418954
1552,85700.0,-8.921394348144531,-0.4016273319721222,3.6116533279418954
1553,85800.0,-8.944138526916504,-0.3693056106567383,3.6008794307708736
1554,85900.0,-8.944138526916504,-0.3693056106567383,3.6008794307708736
1555,86000.0,-8.948927879333496,-0.3872621357440949,3.6098575592041016
1556,86100.0,-8.948927879333496,-0.3872621357440949,3.6098575592041016
1557,86200.0,-8.935759544372559,-0.3944447338581085,3.587112665176392
1558,86300.0,-8.940547943115234,-0.38486793637275696,3.5655648708343506
1559,86400.0,-8.940547943115234,-0.38486793637275696,3.5655648708343506
1560,85000.0,-8.950124740600586,-0.3926490843296051,3.619434356689453
1561,85100.0,-8.912415504455566,-0.40462008118629456,3.6050691604614262
1562,85200.0,-8.912415504455566,-0.40462008118629456,3.6050691604614262
1563,85300.0,-8.899846076965332,-0.3998316824436188,3.619434356689453
1564,85400.0,-8.904036521911621,-0.3800795078277588,3.5835213661193848
1565,85500.0,-8.904036521911621,-0.3800795078277588,3.5835213661193848
1566,85600.0,-8.921394348144531,-0.4016273319721222,3.6116533279418954
1567,85700.0,-8.921394348144531,-0.4016273319721222,3.6116533279418954
1568,85800.0,-8.944138526916504,-0.3693056106567383,3.6008794307708736
1569,85900.0,-8.944138526916504,-0.3693056106567383,3.6008794307708736
1570,86000.0,-8.948927879333496,-0.3872621357440949,3.6098575592041016
1571,86100.0,-8.948927879333496,-0.3872621357440949,3.6098575592041016
1572,86200.0,-8.935759544372559,-0.3944447338581085,3.587112665176392
1573,86300.0,-8.940547943115234,-0.38486793637275696,3.5655648708343506
1574,86400.0,-8.940547943115234,-0.38486793637275696,3.5655648708343506
1575,86500.0,-8.92917537689209,-0.3800795078277588,3.6182372570037837
1576,86600.0,-8.92917537689209,-0.3800795078277588,3.6182372570037837
1577,86700.0,-8.914810180664062,-0.3758896589279175,3.6379895210266113
1578,86800.0,-8.914810180664062,-0.3758896589279175,3.6379895210266113
1579,86900.0,-8.9249849319458,-0.35733461380004883,3.584120035171509
1580,87000.0,-8.9249849319458,-0.35733461380004883,3.584120035171509
1581,87100.0,-8.91301441192627,-0.3896563351154328,3.6308069229125977
1582,87200.0,-8.9249849319458,-0.3938461840152741,3.5930981636047363
1583,87300.0,-8.9249849319458,-0.3938461840152741,3.5930981636047363
1584,87400.0,-8.965686798095703,-0.36391866207122797,3.5733461380004883
1585,87500.0,-8.965686798095703,-0.36391866207122797,3.5733461380004883
1586,87600.0,-8.87171459197998,-0.3746925592422485,3.646967649459839
1587,87700.0,-8.87171459197998,-0.3746925592422485,3.646967649459839
1588,87800.0,-8.921992301940918,-0.3687070608139038,3.6098575592041016
1589,87900.0,-8.921992301940918,-0.3687070608139038,3.6098575592041016
1590,86500.0,-8.92917537689209,-0.3800795078277588,3.6182372570037837
1591,86600.0,-8.92917537689209,-0.3800795078277588,3.6182372570037837
1592,86700.0,-8.914810180664062,-0.3758896589279175,3.6379895210266113
1593,86800.0,-8.914810180664062,-0.3758896589279175,3.6379895210266113
1594,86900.0,-8.9249849319458,-0.35733461380004883,3.584120035171509
1595,87000.0,-8.9249849319458,-0.35733461380004883,3.584120035171509
1596,87100.0,-8.91301441192627,-0.3896563351154328,3.6308069229125977
1597,87200.0,-8.9249849319458,-0.3938461840152741,3.5930981636047363
1598,87300.0,-8.9249849319458,-0.3938461840152741,3.5930981636047363
1599,87400.0,-8.965686798095703,-0.36391866207122797,3.5733461380004883
1600,87500.0,-8.965686798095703,-0.36391866207122797,3.5733461380004883
1601,87600.0,-8.87171459197998,-0.3746925592422485,3.646967649459839
1602,87700.0,-8.87171459197998,-0.3746925592422485,3.646967649459839
1603,87800.0,-8.921992301940918,-0.3687070608139038,3.6098575592041016
1604,87900.0,-8.921992301940918,-0.3687070608139038,3.6098575592041016
1605,88000.0,-8.911218643188477,-0.3998316824436188,3.634996652603149
1606,88100.0,-8.911218643188477,-0.3998316824436188,3.634996652603149
1607,88200.0,-8.935160636901855,-0.41120412945747375,3.63918662071228
1608,88300.0,-8.890868186950684,-0.3974374830722809,3.587711334228516
1609,88400.0,-8.890868186950684,-0.3974374830722809,3.587711334228516
1610,88500.0,-8.960898399353027,-0.38486793637275696,3.598485231399536
1611,88600.0,-8.960898399353027,-0.38486793637275696,3.598485231399536
1612,88700.0,-8.89445972442627,-0.3770867586135864,3.608062028884888
1613,88800.0,-8.89445972442627,-0.3770867586135864,3.608062028884888
1614,88900.0,-8.959701538085938,-0.3728969097137451,3.574543237686157
1615,89000.0,-8.880692481994629,-0.3986345827579498,3.6499605178833012
1616,89100.0,-8.880692481994629,-0.3986345827579498,3.6499605178833012
1617,89200.0,-8.898050308227539,-0.4028244316577912,3.6709096431732178
1618,89300.0,-8.898050308227539,-0.4028244316577912,3.6709096431732178
1619,89400.0,-8.99621295928955,-0.3471592366695404,3.5332431793212886
1620,88000.0,-8.911218643188477,-0.3998316824436188,3.634996652603149
1621,88100.0,-8.911218643188477,-0.3998316824436188,3.634996652603149
1622,88200.0,-8.935160636901855,-0.41120412945747375,3.63918662071228
1623,88300.0,-8.890868186950684,-0.3974374830722809,3.587711334228516
1624,88400.0,-8.890868186950684,-0.3974374830722809,3.587711334228516
1625,88500.0,-8.960898399353027,-0.38486793637275696,3.598485231399536
1626,88600.0,-8.960898399353027,-0.38486793637275696,3.598485231399536
1627,88700.0,-8.89445972442627,-0.3770867586135864,3.608062028884888
1628,88800.0,-8.89445972442627,-0.3770867586135864,3.608062028884888
1629,88900.0,-8.959701538085938,-0.3728969097137451,3.574543237686157
1630,89000.0,-8.880692481994629,-0.3986345827579498,3.6499605178833012
1631,89100.0,-8.880692481994629,-0.3986345827579498,3.6499605178833012
1632,89200.0,-8.898050308227539,-0.4028244316577912,3.6709096431732178
1633,89300.0,-8.898050308227539,-0.4028244316577912,3.6709096431732178
1634,89400.0,-8.99621295928955,-0.3471592366695404,3.5332431793212886
1635,89500.0,-8.99621295928955,-0.3471592366695404,3.5332431793212886
1636,89600.0,-8.853158950805664,-0.3872621357440949,3.710414171218872
1637,89700.0,-8.853158950805664,-0.3872621357440949,3.710414171218872
1638,89800.0,-8.908824920654297,-0.4016273319721222,3.607463359832764
1639,89900.0,-8.908824920654297,-0.4016273319721222,3.607463359832764
1640,90000.0,-8.909422874450684,-0.35075053572654724,3.58292293548584
1641,90100.0,-8.89146614074707,-0.3447650372982025,3.6505589485168457
1642,90200.0,-8.89146614074707,-0.3447650372982025,3.6505589485168457
1643,90300.0,-8.864531517028809,-0.3124433159828186,3.6972460746765137
1644,90400.0,-8.864531517028809,-0.3124433159828186,3.6972460746765137
1645,90500.0,-8.939350128173828,-0.3615244626998901,3.5458126068115234
1646,90600.0,-8.939350128173828,-0.3615244626998901,3.5458126068115234
1647,90700.0,-8.917802810668945,-0.5195417404174805,3.6750996112823486
1648,90800.0,-8.917802810668945,-0.5195417404174805,3.6750996112823486
1649,90900.0,-8.953716278076172,-0.3118447661399841,3.561375141143799
1650,89500.0,-8.99621295928955,-0.3471592366695404,3.5332431793212886
1651,89600.0,-8.853158950805664,-0.3872621357440949,3.710414171218872
1652,89700.0,-8.853158950805664,-0.3872621357440949,3.710414171218872
1653,89800.0,-8.908824920654297,-0.4016273319721222,3.607463359832764
1654,89900.0,-8.908824920654297,-0.4016273319721222,3.607463359832764
1655,90000.0,-8.909422874450684,-0.35075053572654724,3.58292293548584
1656,90100.0,-8.89146614074707,-0.3447650372982025,3.6505589485168457
1657,90200.0,-8.89146614074707,-0.3447650372982025,3.6505589485168457
1658,90300.0,-8.864531517028809,-0.3124433159828186,3.6972460746765137
1659,90400.0,-8.864531517028809,-0.3124433159828186,3.6972460746765137
1660,90500.0,-8.939350128173828,-0.3615244626998901,3.5458126068115234
1661,90600.0,-8.939350128173828,-0.3615244626998901,3.5458126068115234
1662,90700.0,-8.917802810668945,-0.5195417404174805,3.6750996112823486
1663,90800.0,-8.917802810668945,-0.5195417404174805,3.6750996112823486
1664,90900.0,-8.953716278076172,-0.3118447661399841,3.561375141143799
1665,91000.0,-9.038111686706543,-0.3860650360584259,3.618835926055908
1666,91100.0,-9.038111686706543,-0.3860650360584259,3.618835926055908
1667,91200.0,-8.929773330688477,-0.3854664862155914,3.6050691604614262
1668,91300.0,-8.929773330688477,-0.3854664862155914,3.6050691604614262
1669,91400.0,-8.917203903198242,-0.4106055796146393,3.581127166748047
1670,91500.0,-8.917203903198242,-0.4106055796146393,3.581127166748047
1671,91600.0,-8.935160636901855,-0.3663128614425659,3.588908433914185
1672,91700.0,-8.935160636901855,-0.3663128614425659,3.588908433914185
1673,91800.0,-8.921394348144531,-0.3621230125427246,3.5883097648620605
1674,91900.0,-8.935759544372559,-0.4129997789859772,3.580528736114502
1675,92000.0,-8.935759544372559,-0.4129997789859772,3.580528736114502
1676,92100.0,-8.918999671936035,-0.3866635859012604,3.560776472091675
1677,92200.0,-8.918999671936035,-0.3866635859012604,3.560776472091675
1678,92300.0,-8.94533634185791,-0.3711012601852417,3.579331636428833
1679,92400.0,-8.94533634185791,-0.3711012601852417,3.579331636428833
1680,91000.0,-9.038111686706543,-0.3860650360584259,3.618835926055908
1681,91100.0,-9.038111686706543,-0.3860650360584259,3.618835926055908
1682,91200.0,-8.929773330688477,-0.3854664862155914,3.6050691604614262
1683,91300.0,-8.929773330688477,-0.3854664862155914,3.6050691604614262
1684,91400.0,-8.917203903198242,-0.4106055796146393,3.581127166748047
1685,91500.0,-8.917203903198242,-0.4106055796146393,3.581127166748047
1686,91600.0,-8.935160636901855,-0.3663128614425659,3.588908433914185
1687,91700.0,-8.935160636901855,-0.3663128614425659,3.588908433914185
1688,91800.0,-8.921394348144531,-0.3621230125427246,3.5883097648620605
1689,91900.0,-8.935759544372559,-0.4129997789859772,3.580528736114502
1690,92000.0,-8.935759544372559,-0.4129997789859772,3.580528736114502
1691,92100.0,-8.918999671936035,-0.3866635859012604,3.560776472091675
1692,92200.0,-8.918999671936035,-0.3866635859012604,3.560776472091675
1693,92300.0,-8.94533634185791,-0.3711012601852417,3.579331636428833
1694,92400.0,-8.94533634185791,-0.3711012601852417,3.579331636428833
1695,92500.0,-8.942941665649414,-0.3812766075134277,3.5661635398864746
1696,92600.0,-8.932766914367676,-0.4034229815006256,3.587112665176392
1697,92700.0,-8.932766914367676,-0.4034229815006256,3.587112665176392
1698,92800.0,-8.96389102935791,-0.4028244316577912,3.5853171348571777
1699,92900.0,-8.96389102935791,-0.4028244316577912,3.5853171348571777
1700,93000.0,-8.932168006896973,-0.4153940081596375,3.581127166748047
1701,93100.0,-8.932168006896973,-0.4153940081596375,3.581127166748047
1702,93200.0,-8.933364868164062,-0.3926490843296051,3.6008794307708736
1703,93300.0,-8.933364868164062,-0.3926490843296051,3.6008794307708736
1704,93400.0,-8.935759544372559,-0.3758896589279175,3.5667619705200195
1705,93500.0,-8.935759544372559,-0.3758896589279175,3.5667619705200195
1706,93600.0,-8.91421127319336,-0.3806780576705933,3.567360639572144
1707,93700.0,-8.918401718139648,-0.3818751573562622,3.603872060775757
1708,93800.0,-8.918401718139648,-0.3818751573562622,3.603872060775757
1709,93900.0,-8.963293075561523,-0.3872621357440949,3.587711334228516
1710,92500.0,-8.942941665649414,-0.3812766075134277,3.5661635398864746
1711,92600.0,-8.932766914367676,-0.4034229815006256,3.587112665176392
1712,92700.0,-8.932766914367676,-0.4034229815006256,3.587112665176392
1713,92800.0,-8.96389102935791,-0.4028244316577912,3.5853171348571777
1714,92900.0,-8.96389102935791,-0.4028244316577912,3.5853171348571777
1715,93000.0,-8.932168006896973,-0.4153940081596375,3.581127166748047
1716,93100.0,-8.932168006896973,-0.4153940081596375,3.581127166748047
1717,93200.0,-8.933364868164062,-0.3926490843296051,3.6008794307708736
1718,93300.0,-8.933364868164062,-0.3926490843296051,3.6008794307708736
1719,93400.0,-8.935759544372559,-0.3758896589279175,3.5667619705200195
1720,93500.0,-8.935759544372559,-0.3758896589279175,3.5667619705200195
1721,93600.0,-8.91421127319336,-0.3806780576705933,3.567360639572144
