,timestamp,ax,ay,az
0,0.0,4.374079704284668,6.695117950439452,-11.358729362487793
1,200.0,4.374079704284668,6.695117950439452,-11.358729362487793
2,400.0,-2.2923240661621094,-2.665604591369629,-6.405585765838622
3,600.0,0.15314064919948578,-4.1515469551086435,-8.183453559875487
4,800.0,0.03828516229987145,-5.749952793121338,-8.178668022155763
5,1000.0,0.5264209508895874,-4.893322467803955,-8.3629150390625
6,1200.0,-5.374279499053955,-2.4023938179016118,-8.84626579284668
7,1400.0,-3.1489543914794917,-2.203789472579956,-9.255437850952148
8,1600.0,-2.1966111660003658,-2.6536402702331543,-8.848658561706543
9,1800.0,-4.900500774383545,0.8087739944458008,-11.621939659118652
10,1000.0,0.5264209508895874,-4.893322467803955,-8.3629150390625
11,1200.0,-5.374279499053955,-2.4023938179016118,-8.84626579284668
12,1400.0,-3.1489543914794917,-2.203789472579956,-9.255437850952148
13,1600.0,-2.1966111660003658,-2.6536402702331543,-8.848658561706543
14,1800.0,-4.900500774383545,0.8087739944458008,-11.621939659118652
15,2000.0,-4.900500774383545,0.8087739944458008,-11.621939659118652
16,2200.0,-3.464807271957397,1.3639088869094849,-4.2137603759765625
17,2400.0,-1.674975872039795,4.912464618682861,-8.360522270202638
18,2600.0,-5.43170690536499,4.9842495918273935,-6.26440954208374
19,2800.0,-5.733203411102295,3.634697675704956,-7.992027282714844
20,2000.0,-4.900500774383545,0.8087739944458008,-11.621939659118652
21,2200.0,-3.464807271957397,1.3639088869094849,-4.2137603759765625
22,2400.0,-1.674975872039795,4.912464618682861,-8.360522270202638
23,2600.0,-5.43170690536499,4.9842495918273935,-6.26440954208374
24,2800.0,-5.733203411102295,3.634697675704956,-7.992027282714844
25,3000.0,-3.421736478805542,1.1413763761520386,-9.858428955078123
26,3200.0,-1.8472589254379272,6.484549045562744,-7.195217609405518
27,3400.0,-1.8472589254379272,6.484549045562744,-7.195217609405518
28,3600.0,-3.45045018196106,7.209574222564697,-6.113661766052246
29,3800.0,-2.4598214626312256,6.577868938446045,-6.474977493286133
30,3000.0,-3.421736478805542,1.1413763761520386,-9.858428955078123
31,3200.0,-1.8472589254379272,6.484549045562744,-7.195217609405518
32,3400.0,-1.8472589254379272,6.484549045562744,-7.195217609405518
33,3600.0,-3.45045018196106,7.209574222564697,-6.113661766052246
34,3800.0,-2.4598214626312256,6.577868938446045,-6.474977493286133
35,4000.0,-2.426322221755981,5.1014976501464835,-6.501298904418945
36,4200.0,-0.3445664942264557,4.448256969451903,-7.712067127227782
37,4400.0,-6.120840072631836,3.5844480991363525,-6.412764549255371
38,4600.0,-3.005385160446167,4.754538536071777,-9.020941734313963
39,4800.0,-3.5270204544067383,-1.2658032178878784,-8.793622970581055
40,4000.0,-2.426322221755981,5.1014976501464835,-6.501298904418945
41,4200.0,-0.3445664942264557,4.448256969451903,-7.712067127227782
42,4400.0,-6.120840072631836,3.5844480991363525,-6.412764549255371
43,4600.0,-3.005385160446167,4.754538536071777,-9.020941734313963
44,4800.0,-3.5270204544067383,-1.2658032178878784,-8.793622970581055
45,5000.0,-3.5270204544067383,-1.2658032178878784,-8.793622970581055
46,5200.0,-4.412364959716797,3.3427734375,-8.781659126281737
47,5400.0,-4.019941806793213,5.0368919372558585,-7.635497093200684
48,5600.0,-4.29750919342041,4.4721856117248535,-8.23130989074707
49,5800.0,-6.049055576324463,4.189832210540772,-4.438685894012451
50,5000.0,-3.5270204544067383,-1.2658032178878784,-8.793622970581055
51,5200.0,-4.412364959716797,3.3427734375,-8.781659126281737
52,5400.0,-4.019941806793213,5.0368919372558585,-7.635497093200684
53,5600.0,-4.29750919342041,4.4721856117248535,-8.23130989074707
54,5800.0,-6.049055576324463,4.189832210540772,-4.438685894012451
55,6000.0,-3.603590488433838,4.048655986785889,-9.054441452026367
56,6200.0,-3.603590488433838,4.048655986785889,-9.054441452026367
57,6400.0,-2.9383859634399414,0.4091726541519165,-8.922836303710938
58,6600.0,-3.933800458908081,0.41156551241874695,-8.499305725097656
59,6800.0,-6.149554252624513,1.722832441329956,-7.051648139953612
60,6000.0,-3.603590488433838,4.048655986785889,-9.054441452026367
61,6200.0,-3.603590488433838,4.048655986785889,-9.054441452026367
62,6400.0,-2.9383859634399414,0.4091726541519165,-8.922836303710938
63,6600.0,-3.933800458908081,0.41156551241874695,-8.499305725097656
64,6800.0,-6.149554252624513,1.722832441329956,-7.051648139953612
65,7000.0,-4.512863159179688,0.8781659603118896,-8.13798999786377
66,7200.0,-2.9671001434326167,2.888136863708496,-7.9728851318359375
67,7400.0,-3.292524099349976,10.112068176269533,-2.2061824798583984
68,7600.0,-3.292524099349976,10.112068176269533,-2.2061824798583984
69,7800.0,-2.0147566795349117,9.879963874816896,2.203789472579956
70,7000.0,-4.512863159179688,0.8781659603118896,-8.13798999786377
71,7200.0,-2.9671001434326167,2.888136863708496,-7.9728851318359375
72,7400.0,-3.292524099349976,10.112068176269533,-2.2061824798583984
73,7600.0,-3.292524099349976,10.112068176269533,-2.2061824798583984
74,7800.0,-2.0147566795349117,9.879963874816896,2.203789472579956
75,8000.0,-2.1966111660003658,9.186046600341797,4.25922441482544
76,8200.0,-2.9527432918548584,8.779266357421875,4.120440483093262
77,8400.0,-2.7804601192474365,7.740781307220459,3.366701364517212
78,8600.0,-3.469593048095703,11.078768730163574,2.187039852142334
79,8800.0,-4.0869412422180185,7.7455668449401855,-1.7874385118484497
80,8000.0,-2.1966111660003658,9.186046600341797,4.25922441482544
81,8200.0,-2.9527432918548584,8.779266357421875,4.120440483093262
82,8400.0,-2.7804601192474365,7.740781307220459,3.366701364517212
83,8600.0,-3.469593048095703,11.078768730163574,2.187039852142334
84,8800.0,-4.0869412422180185,7.7455668449401855,-1.7874385118484497
85,9000.0,-4.115654945373535,6.427121639251709,-6.570690631866455
86,9200.0,-4.115654945373535,6.427121639251709,-6.570690631866455
87,9400.0,-3.383451223373413,10.344171524047852,0.20099709928035736
88,9600.0,-2.455036163330078,10.499706268310547,3.871586799621582
89,9800.0,-3.005385160446167,8.616554260253906,4.833501815795898
90,9000.0,-4.115654945373535,6.427121639251709,-6.570690631866455
91,9200.0,-4.115654945373535,6.427121639251709,-6.570690631866455
92,9400.0,-3.383451223373413,10.344171524047852,0.20099709928035736
93,9600.0,-2.455036163330078,10.499706268310547,3.871586799621582
94,9800.0,-3.005385160446167,8.616554260253906,4.833501815795898
95,10000.0,-2.885744333267212,7.767102241516112,3.531806230545044
96,10200.0,-3.3547375202178955,10.296316146850586,4.840680122375488
97,10400.0,-2.8187451362609863,7.204789161682129,4.646861553192139
98,10600.0,-2.8187451362609863,7.204789161682129,4.646861553192139
99,10800.0,-4.192224979400635,8.61176872253418,1.3040882349014282
100,10000.0,-2.885744333267212,7.767102241516112,3.531806230545044
101,10200.0,-3.3547375202178955,10.296316146850586,4.840680122375488
102,10400.0,-2.8187451362609863,7.204789161682129,4.646861553192139
103,10600.0,-2.8187451362609863,7.204789161682129,4.646861553192139
104,10800.0,-4.192224979400635,8.61176872253418,1.3040882349014282
105,11000.0,-3.5557346343994136,8.980262756347656,-1.4811571836471558
106,11200.0,-3.488735675811768,9.24825954437256,-0.6005984544754028
107,11400.0,-3.5509488582611084,9.152545928955078,-0.5551348924636841
108,11600.0,-3.469593048095703,9.183652877807617,-0.7920243144035339
109,11800.0,-3.608376264572144,8.918049812316895,-0.5168496966362001
110,11000.0,-3.5557346343994136,8.980262756347656,-1.4811571836471558
111,11200.0,-3.488735675811768,9.24825954437256,-0.6005984544754028
112,11400.0,-3.5509488582611084,9.152545928955078,-0.5551348924636841
113,11600.0,-3.469593048095703,9.183652877807617,-0.7920243144035339
114,11800.0,-3.608376264572144,8.918049812316895,-0.5168496966362001
115,12000.0,-3.608376264572144,8.918049812316895,-0.5168496966362001
116,12200.0,-3.4073793888092037,9.346364974975586,-0.6388836503028871
117,12400.0,-3.517449140548706,9.145368576049805,-0.4881358444690704
118,12600.0,-3.2207393646240234,9.023333549499512,-1.5984054803848269
119,12800.0,-3.2207393646240234,9.176474571228027,-1.031306505203247
120,12000.0,-3.608376264572144,8.918049812316895,-0.5168496966362001
121,12200.0,-3.4073793888092037,9.346364974975586,-0.6388836503028871
122,12400.0,-3.517449140548706,9.145368576049805,-0.4881358444690704
123,12600.0,-3.2207393646240234,9.023333549499512,-1.5984054803848269
124,12800.0,-3.2207393646240234,9.176474571228027,-1.031306505203247
125,13000.0,-3.2829525470733643,9.174081802368164,-0.794417142868042
126,13200.0,-3.0149567127227783,9.449256896972656,-0.5551348924636841
127,13400.0,-3.0149567127227783,9.449256896972656,-0.5551348924636841
128,13600.0,-3.2207393646240234,9.284152030944824,-0.5072783827781677
129,13800.0,-3.1585259437561035,9.276973724365234,-0.6915256977081299
130,13000.0,-3.2829525470733643,9.174081802368164,-0.794417142868042
131,13200.0,-3.0149567127227783,9.449256896972656,-0.5551348924636841
132,13400.0,-3.0149567127227783,9.449256896972656,-0.5551348924636841
133,13600.0,-3.2207393646240234,9.284152030944824,-0.5072783827781677
134,13800.0,-3.1585259437561035,9.276973724365234,-0.6915256977081299
135,14000.0,-3.16331148147583,9.274580955505373,-0.6532405614852905
136,14200.0,-3.38823676109314,9.221939086914062,-0.6939185857772827
137,14400.0,-3.2207393646240234,9.231510162353516,-0.705882728099823
138,14600.0,-3.28773832321167,9.145368576049805,-0.6125625967979431
139,14800.0,-3.211168050765991,9.238687515258787,-0.6388836503028871
140,14000.0,-3.16331148147583,9.274580955505373,-0.6532405614852905
141,14200.0,-3.38823676109314,9.221939086914062,-0.6939185857772827
142,14400.0,-3.2207393646240234,9.231510162353516,-0.705882728099823
143,14600.0,-3.28773832321167,9.145368576049805,-0.6125625967979431
144,14800.0,-3.211168050765991,9.238687515258787,-0.6388836503028871
145,15000.0,-3.211168050765991,9.238687515258787,-0.6388836503028871
146,15200.0,-3.3403804302215576,9.028119087219238,-0.605384111404419
147,15400.0,-3.5605196952819824,9.305686950683594,-0.9499505758285522
148,15600.0,-4.364508152008057,9.74835968017578,-1.56969153881073
149,15800.0,-5.331209182739258,7.061219692230225,-3.938585996627808
150,15000.0,-3.211168050765991,9.238687515258787,-0.6388836503028871
151,15200.0,-3.3403804302215576,9.028119087219238,-0.605384111404419
152,15400.0,-3.5605196952819824,9.305686950683594,-0.9499505758285522
153,15600.0,-4.364508152008057,9.74835968017578,-1.56969153881073
154,15800.0,-5.331209182739258,7.061219692230225,-3.938585996627808
155,16000.0,-4.828716278076172,3.438485860824585,-7.144968032836914
156,16200.0,-4.6851468086242685,7.140182495117188,-5.44845724105835
157,16400.0,-3.73758864402771,9.772287368774414,-0.8374879360198975
158,16600.0,-3.73758864402771,9.772287368774414,-0.8374879360198975
159,16800.0,-2.943171739578247,10.147960662841797,0.3397807776927948
160,16000.0,-4.828716278076172,3.438485860824585,-7.144968032836914
161,16200.0,-4.6851468086242685,7.140182495117188,-5.44845724105835
162,16400.0,-3.73758864402771,9.772287368774414,-0.8374879360198975
163,16600.0,-3.73758864402771,9.772287368774414,-0.8374879360198975
164,16800.0,-2.943171739578247,10.147960662841797,0.3397807776927948
165,17000.0,-5.14456844329834,6.8075804710388175,-5.383851051330566
166,17200.0,-5.106283187866211,3.2997026443481445,-6.967899799346924
167,17400.0,-3.2255251407623287,-0.06460621207952501,-8.571090698242188
168,17600.0,-4.072584152221681,0.7537391781806946,-8.85105037689209
169,17800.0,-4.292723655700684,4.642076015472412,-6.154339790344237
170,17000.0,-5.14456844329834,6.8075804710388175,-5.383851051330566
171,17200.0,-5.106283187866211,3.2997026443481445,-6.967899799346924
172,17400.0,-3.2255251407623287,-0.06460621207952501,-8.571090698242188
173,17600.0,-4.072584152221681,0.7537391781806946,-8.85105037689209
174,17800.0,-4.292723655700684,4.642076015472412,-6.154339790344237
175,18000.0,-3.689732551574707,9.53779125213623,-2.514856576919556
176,18200.0,-3.689732551574707,9.53779125213623,-2.514856576919556
177,18400.0,-2.0865414142608643,9.611968994140623,3.184847116470337
178,18600.0,-2.7182462215423584,9.049654960632324,4.029513359069823
179,18800.0,-3.1537401676177983,9.96131992340088,4.632504463195801
180,18000.0,-3.689732551574707,9.53779125213623,-2.514856576919556
181,18200.0,-3.689732551574707,9.53779125213623,-2.514856576919556
182,18400.0,-2.0865414142608643,9.611968994140623,3.184847116470337
183,18600.0,-2.7182462215423584,9.049654960632324,4.029513359069823
184,18800.0,-3.1537401676177983,9.96131992340088,4.632504463195801
185,19000.0,-3.742374420166016,10.559525489807127,5.26899528503418
186,19200.0,-2.47896409034729,6.400800704956055,3.7902309894561768
187,19400.0,-2.47896409034729,6.400800704956055,3.7902309894561768
188,19600.0,-2.9288151264190674,6.242874622344972,3.7351961135864262
189,19800.0,-2.416750907897949,6.104090690612793,3.479164123535156
190,19000.0,-3.742374420166016,10.559525489807127,5.26899528503418
191,19200.0,-2.47896409034729,6.400800704956055,3.7902309894561768
192,19400.0,-2.47896409034729,6.400800704956055,3.7902309894561768
193,19600.0,-2.9288151264190674,6.242874622344972,3.7351961135864262
194,19800.0,-2.416750907897949,6.104090690612793,3.479164123535156
195,20000.0,-2.522034883499145,6.616154670715332,4.027120590209962
196,20200.0,-3.16331148147583,9.260223388671877,5.737988471984862
197,20400.0,-3.249453067779541,10.6504545211792,5.72123908996582
198,20600.0,-3.249453067779541,10.6504545211792,5.72123908996582
199,20800.0,-2.5459630489349365,9.602396965026855,5.61116886138916
200,20000.0,-2.522034883499145,6.616154670715332,4.027120590209962
201,20200.0,-3.16331148147583,9.260223388671877,5.737988471984862
202,20400.0,-3.249453067779541,10.6504545211792,5.72123908996582
203,20600.0,-3.249453067779541,10.6504545211792,5.72123908996582
204,20800.0,-2.5459630489349365,9.602396965026855,5.61116886138916
205,21000.0,-2.8378877639770512,7.77188777923584,4.603790760040283
206,21200.0,-2.68953275680542,7.642674922943115,4.47697114944458
207,21400.0,-2.244467735290528,8.681159973144531,4.687539577484131
208,21600.0,-2.6321046352386475,8.841480255126953,2.486142873764038
209,21800.0,-3.28773832321167,9.166903495788574,3.562912940979004
210,21000.0,-2.8378877639770512,7.77188777923584,4.603790760040283
211,21200.0,-2.68953275680542,7.642674922943115,4.47697114944458
212,21400.0,-2.244467735290528,8.681159973144531,4.687539577484131
213,21600.0,-2.6321046352386475,8.841480255126953,2.486142873764038
214,21800.0,-3.28773832321167,9.166903495788574,3.562912940979004
215,22000.0,-3.2446675300598145,9.049654960632324,2.2061824798583984
216,22200.0,-2.9623143672943115,9.401400566101074,1.6606187820434568
217,22400.0,-3.259024381637573,9.059226989746094,1.8520447015762331
218,22600.0,-3.259024381637573,9.059226989746094,1.8520447015762331
219,22800.0,-2.957528829574585,9.147761344909668,1.2681961059570312
220,22000.0,-3.2446675300598145,9.049654960632324,2.2061824798583984
221,22200.0,-2.9623143672943115,9.401400566101074,1.6606187820434568
222,22400.0,-3.259024381637573,9.059226989746094,1.8520447015762331
223,22600.0,-3.259024381637573,9.059226989746094,1.8520447015762331
224,22800.0,-2.957528829574585,9.147761344909668,1.2681961059570312
225,23000.0,-2.8378877639770512,9.475577354431152,1.4093725681304932
226,23200.0,-2.8713872432708736,9.4660062789917,1.129412293434143
227,23400.0,-3.847658634185791,8.511269569396973,1.0145567655563354
228,23600.0,-2.8666017055511475,9.434900283813477,-1.6725829839706419
229,23800.0,-2.8426735401153564,9.549755096435547,0.13878372311592102
230,23000.0,-2.8378877639770512,9.475577354431152,1.4093725681304932
231,23200.0,-2.8713872432708736,9.4660062789917,1.129412293434143
232,23400.0,-3.847658634185791,8.511269569396973,1.0145567655563354
233,23600.0,-2.8666017055511475,9.434900283813477,-1.6725829839706419
234,23800.0,-2.8426735401153564,9.549755096435547,0.13878372311592102
235,24000.0,-3.28773832321167,9.353544235229492,0.2464607357978821
236,24200.0,-2.8283162117004395,9.370293617248537,0.25842484831810003
237,24400.0,-2.8283162117004395,9.370293617248537,0.25842484831810003
238,24600.0,-2.9479575157165527,9.372685432434082,0.4378865361213684
239,24800.0,-2.8761727809906006,9.276973724365234,0.0813559740781784
240,24000.0,-3.28773832321167,9.353544235229492,0.2464607357978821
241,24200.0,-2.8283162117004395,9.370293617248537,0.25842484831810003
242,24400.0,-2.8283162117004395,9.370293617248537,0.25842484831810003
243,24600.0,-2.9479575157165527,9.372685432434082,0.4378865361213684
244,24800.0,-2.8761727809906006,9.276973724365234,0.0813559740781784
245,25000.0,-2.943171739578247,9.324830055236816,-0.002392822643741965
246,25200.0,-2.770888566970825,9.432506561279297,0.11246266961097716
247,25400.0,-2.957528829574585,9.40379238128662,0.7274181246757507
248,25600.0,-2.9240293502807617,9.360722541809082,0.4594219326972962
249,25800.0,-2.914458036422729,9.33440113067627,0.7585247755050659
250,25000.0,-2.943171739578247,9.324830055236816,-0.002392822643741965
251,25200.0,-2.770888566970825,9.432506561279297,0.11246266961097716
252,25400.0,-2.957528829574585,9.40379238128662,0.7274181246757507
253,25600.0,-2.9240293502807617,9.360722541809082,0.4594219326972962
254,25800.0,-2.914458036422729,9.33440113067627,0.7585247755050659
255,26000.0,-2.914458036422729,9.33440113067627,0.7585247755050659
256,26200.0,-2.943171739578247,9.253045082092283,0.9738788008689879
257,26400.0,-2.8953151702880864,9.336793899536133,0.9451649785041808
258,26600.0,-2.9718859195709233,9.573683738708496,0.8422735333442688
259,26800.0,-3.206382274627685,9.9469633102417,-0.011964112520217896
260,26000.0,-2.914458036422729,9.33440113067627,0.7585247755050659
261,26200.0,-2.943171739578247,9.253045082092283,0.9738788008689879
262,26400.0,-2.8953151702880864,9.336793899536133,0.9451649785041808
263,26600.0,-2.9718859195709233,9.573683738708496,0.8422735333442688
264,26800.0,-3.206382274627685,9.9469633102417,-0.011964112520217896
265,27000.0,-4.847858428955078,7.700103282928468,-1.7539390325546265
266,27200.0,-4.847858428955078,7.700103282928468,-1.7539390325546265
267,27400.0,-5.580062389373778,6.80040168762207,-4.914857387542725
268,27600.0,-4.953143119812012,6.781259536743164,-5.539384365081787
269,27800.0,-1.1676974296569824,2.4885356426239014,-7.970492362976074
270,27000.0,-4.847858428955078,7.700103282928468,-1.7539390325546265
271,27200.0,-4.847858428955078,7.700103282928468,-1.7539390325546265
272,27400.0,-5.580062389373778,6.80040168762207,-4.914857387542725
273,27600.0,-4.953143119812012,6.781259536743164,-5.539384365081787
274,27800.0,-1.1676974296569824,2.4885356426239014,-7.970492362976074
275,28000.0,-4.264009952545166,-1.2251251935958862,-8.453842163085938
276,28200.0,-4.35972261428833,-1.7994027137756348,-9.643074989318848
277,28400.0,-4.3166518211364755,-1.0815558433532717,-8.71466064453125
278,28600.0,-5.178067684173584,0.26081767678260803,-8.94676399230957
279,28800.0,-4.488935470581055,2.3401806354522705,-8.176274299621582
280,28000.0,-4.264009952545166,-1.2251251935958862,-8.453842163085938
281,28200.0,-4.35972261428833,-1.7994027137756348,-9.643074989318848
282,28400.0,-4.3166518211364755,-1.0815558433532717,-8.71466064453125
283,28600.0,-5.178067684173584,0.26081767678260803,-8.94676399230957
284,28800.0,-4.488935470581055,2.3401806354522705,-8.176274299621582
285,29000.0,-4.488935470581055,2.3401806354522705,-8.176274299621582
286,29200.0,-4.354937553405762,-0.2392822504043579,-8.465806007385254
287,29400.0,-3.9003009796142583,-0.935593605041504,-8.788837432861326
288,29600.0,-4.201796531677246,-0.6412764191627502,-7.932207107543945
289,29800.0,-3.369094133377075,1.921436548233032,-8.171488761901855
290,29000.0,-4.488935470581055,2.3401806354522705,-8.176274299621582
291,29200.0,-4.354937553405762,-0.2392822504043579,-8.465806007385254
292,29400.0,-3.9003009796142583,-0.935593605041504,-8.788837432861326
293,29600.0,-4.201796531677246,-0.6412764191627502,-7.932207107543945
294,29800.0,-3.369094133377075,1.921436548233032,-8.171488761901855
295,30000.0,-4.900500774383545,7.056434154510497,-6.537191867828369
296,30200.0,-4.465007305145264,7.278966426849365,-5.347958564758301
297,30400.0,-4.972285747528076,6.070591449737549,-6.0921263694763175
298,30600.0,-4.972285747528076,6.070591449737549,-6.0921263694763175
299,30800.0,-5.469992637634277,3.931407451629639,-7.15932559967041
300,30000.0,-4.900500774383545,7.056434154510497,-6.537191867828369
301,30200.0,-4.465007305145264,7.278966426849365,-5.347958564758301
302,30400.0,-4.972285747528076,6.070591449737549,-6.0921263694763175
303,30600.0,-4.972285747528076,6.070591449737549,-6.0921263694763175
304,30800.0,-5.469992637634277,3.931407451629639,-7.15932559967041
305,31000.0,-5.331209182739258,4.661218643188477,-6.896114826202393
306,31200.0,-5.594419479370117,4.051048755645752,-6.733402729034424
307,31400.0,-5.709274768829347,4.000799655914307,-6.829115867614746
308,31600.0,-6.082554817199707,4.500899314880371,-6.506085395812987
309,31800.0,-6.0538411140441895,4.180261135101318,-6.063412666320801
310,31000.0,-5.331209182739258,4.661218643188477,-6.896114826202393
311,31200.0,-5.594419479370117,4.051048755645752,-6.733402729034424
312,31400.0,-5.709274768829347,4.000799655914307,-6.829115867614746
313,31600.0,-6.082554817199707,4.500899314880371,-6.506085395812987
314,31800.0,-6.0538411140441895,4.180261135101318,-6.063412666320801
315,32000.0,-5.771488666534424,4.840680122375488,-6.546762466430664
316,32200.0,-5.771488666534424,4.840680122375488,-6.546762466430664
317,32400.0,-6.226124286651611,4.752145767211914,-5.8265228271484375
318,32600.0,-5.613561630249023,4.125226020812988,-6.458228588104247
319,32800.0,-5.402993679046631,4.589433670043945,-6.64486837387085
320,32000.0,-5.771488666534424,4.840680122375488,-6.546762466430664
321,32200.0,-5.771488666534424,4.840680122375488,-6.546762466430664
322,32400.0,-6.226124286651611,4.752145767211914,-5.8265228271484375
323,32600.0,-5.613561630249023,4.125226020812988,-6.458228588104247
324,32800.0,-5.402993679046631,4.589433670043945,-6.64486837387085
325,33000.0,-5.264209270477295,4.230510234832764,-7.58524751663208
326,33200.0,-4.2065820693969735,4.838287353515625,-7.207180976867676
327,33400.0,-4.144368648529054,4.747360229492188,-7.563712120056152
328,33600.0,-4.144368648529054,4.747360229492188,-7.563712120056152
329,33800.0,-4.522434711456299,4.790431022644043,-7.216752529144287
330,33000.0,-5.264209270477295,4.230510234832764,-7.58524751663208
331,33200.0,-4.2065820693969735,4.838287353515625,-7.207180976867676
332,33400.0,-4.144368648529054,4.747360229492188,-7.563712120056152
333,33600.0,-4.144368648529054,4.747360229492188,-7.563712120056152
334,33800.0,-4.522434711456299,4.790431022644043,-7.216752529144287
335,34000.0,-5.493920803070068,3.7184462547302246,-6.905685901641847
336,34200.0,-5.149354457855225,2.940778970718384,-7.008577823638916
337,34400.0,-4.6995038986206055,1.739582061767578,-8.109275817871094
338,34600.0,-3.924229145050049,6.372087001800537,-8.676375389099121
339,34800.0,-5.857630252838135,4.6061835289001465,-6.386443614959718
340,34000.0,-5.493920803070068,3.7184462547302246,-6.905685901641847
341,34200.0,-5.149354457855225,2.940778970718384,-7.008577823638916
342,34400.0,-4.6995038986206055,1.739582061767578,-8.109275817871094
343,34600.0,-3.924229145050049,6.372087001800537,-8.676375389099121
344,34800.0,-5.857630252838135,4.6061835289001465,-6.386443614959718
345,35000.0,-5.857630252838135,4.6061835289001465,-6.386443614959718
346,35200.0,-4.3310089111328125,-0.48574298620224,-7.913064479827881
347,35400.0,-4.551148891448975,0.48574298620224,-8.01356315612793
348,35600.0,-3.8668015003204346,5.678168296813965,-7.436892509460449
349,35800.0,-3.273381233215332,8.83669376373291,-2.51007080078125
350,35000.0,-5.857630252838135,4.6061835289001465,-6.386443614959718
351,35200.0,-4.3310089111328125,-0.48574298620224,-7.913064479827881
352,35400.0,-4.551148891448975,0.48574298620224,-8.01356315612793
353,35600.0,-3.8668015003204346,5.678168296813965,-7.436892509460449
354,35800.0,-3.273381233215332,8.83669376373291,-2.51007080078125
355,36000.0,-2.1726830005645748,9.71485996246338,3.036492109298706
356,36200.0,-2.1535403728485107,8.671588897705076,4.666004180908203
357,36400.0,-2.0673987865448002,8.48734188079834,4.867001533508301
358,36600.0,-2.0673987865448002,8.48734188079834,4.867001533508301
359,36800.0,-2.5459630489349365,11.042876243591307,3.160918712615967
360,36000.0,-2.1726830005645748,9.71485996246338,3.036492109298706
361,36200.0,-2.1535403728485107,8.671588897705076,4.666004180908203
362,36400.0,-2.0673987865448002,8.48734188079834,4.867001533508301
363,36600.0,-2.0673987865448002,8.48734188079834,4.867001533508301
364,36800.0,-2.5459630489349365,11.042876243591307,3.160918712615967
365,37000.0,-4.35972261428833,6.362515449523926,-5.257031440734863
366,37200.0,-4.800002098083496,0.4881358444690704,-7.111469268798827
367,37400.0,-2.5555346012115483,-1.3974084854125977,-8.841480255126953
368,37600.0,-3.804587841033936,3.5270204544067383,-8.590232849121094
369,37800.0,-2.407179594039917,9.238687515258787,-3.9744782447814937
370,37000.0,-4.35972261428833,6.362515449523926,-5.257031440734863
371,37200.0,-4.800002098083496,0.4881358444690704,-7.111469268798827
372,37400.0,-2.5555346012115483,-1.3974084854125977,-8.841480255126953
373,37600.0,-3.804587841033936,3.5270204544067383,-8.590232849121094
374,37800.0,-2.407179594039917,9.238687515258787,-3.9744782447814937
375,38000.0,-2.407179594039917,9.238687515258787,-3.9744782447814937
376,38200.0,-1.9094725847244265,8.992227554321289,2.2875385284423833
377,38400.0,-2.12961220741272,9.241080284118652,4.522434711456299
378,38600.0,-2.187039852142334,9.016156196594238,4.967499732971191
379,38800.0,-2.493321180343628,9.62393283843994,5.532205581665039
380,38000.0,-2.407179594039917,9.238687515258787,-3.9744782447814937
381,38200.0,-1.9094725847244265,8.992227554321289,2.2875385284423833
382,38400.0,-2.12961220741272,9.241080284118652,4.522434711456299
383,38600.0,-2.187039852142334,9.016156196594238,4.967499732971191
384,38800.0,-2.493321180343628,9.62393283843994,5.532205581665039
385,39000.0,-3.1489543914794917,9.643074989318848,5.735595226287843
386,39200.0,-3.192025184631348,8.382057189941406,5.1732821464538565
387,39400.0,-3.838087558746338,7.999206066131593,4.864608287811278
388,39600.0,-3.8524444103240967,7.8245296478271475,4.488935470581055
389,39800.0,-4.292723655700684,7.420143127441406,3.6251261234283447
390,39000.0,-3.1489543914794917,9.643074989318848,5.735595226287843
391,39200.0,-3.192025184631348,8.382057189941406,5.1732821464538565
392,39400.0,-3.838087558746338,7.999206066131593,4.864608287811278
393,39600.0,-3.8524444103240967,7.8245296478271475,4.488935470581055
394,39800.0,-4.292723655700684,7.420143127441406,3.6251261234283447
395,40000.0,-4.292723655700684,7.420143127441406,3.6251261234283447
396,40200.0,-3.531806230545044,7.027719974517822,3.608376264572144
397,40400.0,-3.680161237716675,9.090332984924316,4.816751956939697
398,40600.0,-3.177668571472168,8.47059154510498,4.051048755645752
399,40800.0,-2.699103832244873,8.71466064453125,4.271188735961913
400,40000.0,-4.292723655700684,7.420143127441406,3.6251261234283447
401,40200.0,-3.531806230545044,7.027719974517822,3.608376264572144
402,40400.0,-3.680161237716675,9.090332984924316,4.816751956939697
403,40600.0,-3.177668571472168,8.47059154510498,4.051048755645752
404,40800.0,-2.699103832244873,8.71466064453125,4.271188735961913
405,41000.0,-2.6081764698028564,8.394021987915039,4.469792366027832
406,41200.0,-2.957528829574585,8.185846328735353,4.25922441482544
407,41400.0,-2.407179594039917,8.606983184814451,3.5509488582611084
408,41600.0,-2.407179594039917,8.606983184814451,3.5509488582611084
409,41800.0,-1.8520447015762331,9.176474571228027,4.632504463195801
410,41000.0,-2.6081764698028564,8.394021987915039,4.469792366027832
411,41200.0,-2.957528829574585,8.185846328735353,4.25922441482544
412,41400.0,-2.407179594039917,8.606983184814451,3.5509488582611084
413,41600.0,-2.407179594039917,8.606983184814451,3.5509488582611084
414,41800.0,-1.8520447015762331,9.176474571228027,4.632504463195801
415,42000.0,-1.9908283948898315,9.868000030517578,0.27756744623184204
416,42200.0,-4.101297855377196,7.5014991760253915,-3.8213374614715576
417,42400.0,-4.613362312316895,5.536991596221924,-4.524827480316162
418,42600.0,-4.35972261428833,8.233702659606934,-3.103491306304932
419,42800.0,-3.948157548904419,9.300901412963867,-3.522234916687012
420,42000.0,-1.9908283948898315,9.868000030517578,0.27756744623184204
421,42200.0,-4.101297855377196,7.5014991760253915,-3.8213374614715576
422,42400.0,-4.613362312316895,5.536991596221924,-4.524827480316162
423,42600.0,-4.35972261428833,8.233702659606934,-3.103491306304932
424,42800.0,-3.948157548904419,9.300901412963867,-3.522234916687012
425,43000.0,-3.948157548904419,9.300901412963867,-3.522234916687012
426,43200.0,-3.962514162063599,8.47298526763916,-2.411965131759644
427,43400.0,-3.6514470577239986,8.958727836608887,-2.9790639877319336
428,43600.0,-4.149154186248778,8.475377082824707,-2.249253273010254
429,43800.0,-4.01037073135376,9.10229778289795,-2.4287149906158447
430,43000.0,-3.948157548904419,9.300901412963867,-3.522234916687012
431,43200.0,-3.962514162063599,8.47298526763916,-2.411965131759644
432,43400.0,-3.6514470577239986,8.958727836608887,-2.9790639877319336
433,43600.0,-4.149154186248778,8.475377082824707,-2.249253273010254
434,43800.0,-4.01037073135376,9.10229778289795,-2.4287149906158447
435,44000.0,-4.201796531677246,8.685946464538574,-2.5292134284973145
436,44200.0,-5.115854740142822,8.204988479614258,-2.933600425720215
437,44400.0,-5.115854740142822,8.204988479614258,-2.933600425720215
438,44600.0,-4.713860511779785,7.697710037231445,-2.177468776702881
439,44800.0,-5.651846885681152,7.99681282043457,-1.380658507347107
440,44000.0,-4.201796531677246,8.685946464538574,-2.5292134284973145
441,44200.0,-5.115854740142822,8.204988479614258,-2.933600425720215
442,44400.0,-5.115854740142822,8.204988479614258,-2.933600425720215
443,44600.0,-4.713860511779785,7.697710037231445,-2.177468776702881
444,44800.0,-5.651846885681152,7.99681282043457,-1.380658507347107
445,45000.0,-5.288137912750244,8.24566650390625,-1.4333008527755735
446,45200.0,-5.307280540466309,7.9728851318359375,-1.4620146751403809
447,45400.0,-5.288137912750244,8.221738815307617,-1.3304094076156616
448,45600.0,-5.551348686218262,8.135597229003906,-0.8350951075553894
449,45800.0,-5.4795637130737305,8.360522270202638,-1.105484127998352
450,45000.0,-5.288137912750244,8.24566650390625,-1.4333008527755735
451,45200.0,-5.307280540466309,7.9728851318359375,-1.4620146751403809
452,45400.0,-5.288137912750244,8.221738815307617,-1.3304094076156616
453,45600.0,-5.551348686218262,8.135597229003906,-0.8350951075553894
454,45800.0,-5.4795637130737305,8.360522270202638,-1.105484127998352
455,46000.0,-5.4795637130737305,8.360522270202638,-1.105484127998352
456,46200.0,-5.498706817626953,7.4703922271728525,-3.4289150238037114
457,46400.0,-6.116055011749268,6.3936219215393075,-4.5583271980285645
458,46600.0,-6.173482418060303,5.182853698730469,-5.44845724105835
459,46800.0,-5.69013261795044,7.168896198272705,-4.295116424560547
460,46000.0,-5.4795637130737305,8.360522270202638,-1.105484127998352
461,46200.0,-5.498706817626953,7.4703922271728525,-3.4289150238037114
462,46400.0,-6.116055011749268,6.3936219215393075,-4.5583271980285645
463,46600.0,-6.173482418060303,5.182853698730469,-5.44845724105835
464,46800.0,-5.69013261795044,7.168896198272705,-4.295116424560547
465,47000.0,-5.484349250793457,6.67836856842041,-4.319044589996338
466,47200.0,-4.919642925262451,7.389035701751709,-3.9122648239135738
467,47400.0,-4.919642925262451,7.389035701751709,-3.9122648239135738
468,47600.0,-4.804787635803223,7.664210796356201,-3.235095977783203
469,47800.0,-5.158926010131836,7.750352382659912,-2.4957141876220703
470,47000.0,-5.484349250793457,6.67836856842041,-4.319044589996338
471,47200.0,-4.919642925262451,7.389035701751709,-3.9122648239135738
472,47400.0,-4.919642925262451,7.389035701751709,-3.9122648239135738
473,47600.0,-4.804787635803223,7.664210796356201,-3.235095977783203
474,47800.0,-5.158926010131836,7.750352382659912,-2.4957141876220703
475,48000.0,-5.3551368713378915,8.489734649658201,-1.1940184831619265
476,48200.0,-5.436492443084717,8.12841796875,-1.584048628807068
477,48400.0,-5.326423168182373,8.078168869018555,-1.56969153881073
478,48600.0,-5.312066078186035,8.061419486999513,-1.5649060010910034
479,48800.0,-5.312066078186035,8.061419486999513,-1.5649060010910034
480,48000.0,-5.3551368713378915,8.489734649658201,-1.1940184831619265
481,48200.0,-5.436492443084717,8.12841796875,-1.584048628807068
482,48400.0,-5.326423168182373,8.078168869018555,-1.56969153881073
483,48600.0,-5.312066078186035,8.061419486999513,-1.5649060010910034
484,48800.0,-5.312066078186035,8.061419486999513,-1.5649060010910034
485,49000.0,-5.206782341003418,8.599804878234862,-0.9427721500396729
486,49200.0,-5.154139995574951,8.286344528198242,-0.7369893789291382
487,49400.0,-5.3551368713378915,8.154739379882812,-0.4426721632480621
488,49600.0,-5.575276851654053,7.616354942321777,1.7515461444854736
489,49800.0,-5.091926097869873,10.277173042297363,6.788437843322754
490,49000.0,-5.206782341003418,8.599804878234862,-0.9427721500396729
491,49200.0,-5.154139995574951,8.286344528198242,-0.7369893789291382
492,49400.0,-5.3551368713378915,8.154739379882812,-0.4426721632480621
493,49600.0,-5.575276851654053,7.616354942321777,1.7515461444854736
494,49800.0,-5.091926097869873,10.277173042297363,6.788437843322754
495,50000.0,-4.374079704284668,7.5014991760253915,-4.2376885414123535
496,50200.0,-5.178067684173584,6.206982612609862,-4.778466701507568
497,50400.0,-5.178067684173584,6.206982612609862,-4.778466701507568
498,50600.0,-5.230710506439209,6.386443614959718,-4.862215518951416
499,50800.0,-4.3405799865722665,7.144968032836914,-5.08953332901001
500,50000.0,-4.374079704284668,7.5014991760253915,-4.2376885414123535
501,50200.0,-5.178067684173584,6.206982612609862,-4.778466701507568
502,50400.0,-5.178067684173584,6.206982612609862,-4.778466701507568
503,50600.0,-5.230710506439209,6.386443614959718,-4.862215518951416
504,50800.0,-4.3405799865722665,7.144968032836914,-5.08953332901001
505,51000.0,-3.88594388961792,8.22413158416748,-4.354937553405762
506,51200.0,-4.737788677215576,7.051648139953612,-4.493720531463623
507,51400.0,-5.752345561981201,5.9198431968688965,-5.48674201965332
508,51600.0,-4.144368648529054,6.008377552032472,-5.498706817626953
509,51800.0,-4.144368648529054,6.008377552032472,-5.498706817626953
510,51000.0,-3.88594388961792,8.22413158416748,-4.354937553405762
511,51200.0,-4.737788677215576,7.051648139953612,-4.493720531463623
512,51400.0,-5.752345561981201,5.9198431968688965,-5.48674201965332
513,51600.0,-4.144368648529054,6.008377552032472,-5.498706817626953
514,51800.0,-4.144368648529054,6.008377552032472,-5.498706817626953
515,52000.0,-4.407578945159912,7.003791332244872,-5.340780735015869
516,52200.0,-3.8955152034759517,7.563712120056152,-4.876572608947754
517,52400.0,-4.23529577255249,8.233702659606934,-4.261617183685304
518,52600.0,-3.9529430866241455,8.075776100158691,-4.407578945159912
519,52800.0,-4.455435752868652,7.939385414123535,-4.484149932861328
520,52000.0,-4.407578945159912,7.003791332244872,-5.340780735015869
521,52200.0,-3.8955152034759517,7.563712120056152,-4.876572608947754
522,52400.0,-4.23529577255249,8.233702659606934,-4.261617183685304
523,52600.0,-3.9529430866241455,8.075776100158691,-4.407578945159912
524,52800.0,-4.455435752868652,7.939385414123535,-4.484149932861328
525,53000.0,-4.455435752868652,7.939385414123535,-4.484149932861328
526,53200.0,-4.871786594390869,7.692924976348878,-4.981856822967528
527,53400.0,-5.489135265350342,5.314458847045898,-5.929414749145508
528,53600.0,-5.948556900024414,2.423929214477539,-7.508677005767822
529,53800.0,-5.201996326446533,-0.17706887423992154,-7.922636032104492
530,53000.0,-4.455435752868652,7.939385414123535,-4.484149932861328
531,53200.0,-4.871786594390869,7.692924976348878,-4.981856822967528
532,53400.0,-5.489135265350342,5.314458847045898,-5.929414749145508
533,53600.0,-5.948556900024414,2.423929214477539,-7.508677005767822
534,53800.0,-5.201996326446533,-0.17706887423992154,-7.922636032104492
535,54000.0,-2.833101987838745,-1.938186287879944,-8.958727836608887
536,54200.0,-2.833101987838745,-1.938186287879944,-8.958727836608887
537,54400.0,-1.6654045581817627,-3.76151704788208,-8.489734649658201
538,54600.0,-3.818945169448853,-0.6867401003837585,-9.274580955505373
539,54800.0,-3.273381233215332,4.8095736503601065,-7.94177770614624
540,54000.0,-2.833101987838745,-1.938186287879944,-8.958727836608887
541,54200.0,-2.833101987838745,-1.938186287879944,-8.958727836608887
542,54400.0,-1.6654045581817627,-3.76151704788208,-8.489734649658201
543,54600.0,-3.818945169448853,-0.6867401003837585,-9.274580955505373
544,54800.0,-3.273381233215332,4.8095736503601065,-7.94177770614624
545,55000.0,-3.809373617172241,5.682953834533691,-7.049255847930907
546,55200.0,-4.168296813964844,5.1732821464538565,-6.826723098754883
547,55400.0,-4.6372904777526855,5.905486583709718,-6.63769006729126
548,55600.0,-4.431507587432861,5.587240695953369,-6.4462642669677725
549,55800.0,-4.618147850036621,5.536991596221924,-6.6927247047424325
550,55000.0,-3.809373617172241,5.682953834533691,-7.049255847930907
551,55200.0,-4.168296813964844,5.1732821464538565,-6.826723098754883
552,55400.0,-4.6372904777526855,5.905486583709718,-6.63769006729126
553,55600.0,-4.431507587432861,5.587240695953369,-6.4462642669677725
554,55800.0,-4.618147850036621,5.536991596221924,-6.6927247047424325
555,56000.0,-4.618147850036621,5.536991596221924,-6.6927247047424325
556,56200.0,-4.689932346343994,5.577669143676758,-6.51326322555542
557,56400.0,-4.599005222320557,6.041877269744872,-6.388835906982423
558,56600.0,-5.029713153839111,5.458028793334961,-6.417550563812256
559,56800.0,-4.934000015258789,5.333601474761963,-6.300302028656006
560,56000.0,-4.618147850036621,5.536991596221924,-6.6927247047424325
561,56200.0,-4.689932346343994,5.577669143676758,-6.51326322555542
562,56400.0,-4.599005222320557,6.041877269744872,-6.388835906982423
563,56600.0,-5.029713153839111,5.458028793334961,-6.417550563812256
564,56800.0,-4.934000015258789,5.333601474761963,-6.300302028656006
565,57000.0,-5.034498691558838,5.388636112213135,-6.3936219215393075
566,57200.0,-5.053641319274902,7.338787078857423,-5.039284706115723
567,57400.0,-5.053641319274902,7.338787078857423,-5.039284706115723
568,57600.0,-4.919642925262451,6.5180487632751465,-5.242674350738525
569,57800.0,-4.8095736503601065,6.096912384033202,-5.967699527740479
570,57000.0,-5.034498691558838,5.388636112213135,-6.3936219215393075
571,57200.0,-5.053641319274902,7.338787078857423,-5.039284706115723
572,57400.0,-5.053641319274902,7.338787078857423,-5.039284706115723
573,57600.0,-4.919642925262451,6.5180487632751465,-5.242674350738525
574,57800.0,-4.8095736503601065,6.096912384033202,-5.967699527740479
575,58000.0,-4.761716842651367,7.0540409088134775,-5.0871405601501465
576,58200.0,-6.0299134254455575,6.747759819030763,-4.321437358856201
577,58400.0,-4.73300313949585,5.276174068450928,-6.374479293823242
578,58600.0,-4.73300313949585,5.276174068450928,-6.374479293823242
579,58800.0,-2.12961220741272,4.766502857208252,-6.027520179748535
580,58000.0,-4.761716842651367,7.0540409088134775,-5.0871405601501465
581,58200.0,-6.0299134254455575,6.747759819030763,-4.321437358856201
582,58400.0,-4.73300313949585,5.276174068450928,-6.374479293823242
583,58600.0,-4.73300313949585,5.276174068450928,-6.374479293823242
584,58800.0,-2.12961220741272,4.766502857208252,-6.027520179748535
585,59000.0,-5.2115678787231445,9.705288887023926,-3.294916868209839
586,59200.0,-5.862415313720702,7.637890338897705,-2.2253248691558842
587,59400.0,-4.388436794281007,7.058826446533202,-5.443671703338623
588,59600.0,-4.273581027984618,6.015556335449219,-7.22153902053833
589,59800.0,-5.048855781555176,3.9003009796142583,-7.2813591957092285
590,59000.0,-5.2115678787231445,9.705288887023926,-3.294916868209839
591,59200.0,-5.862415313720702,7.637890338897705,-2.2253248691558842
592,59400.0,-4.388436794281007,7.058826446533202,-5.443671703338623
593,59600.0,-4.273581027984618,6.015556335449219,-7.22153902053833
594,59800.0,-5.048855781555176,3.9003009796142583,-7.2813591957092285
595,60000.0,-4.493720531463623,2.6464619636535645,-8.049454689025879
596,60200.0,-4.493720531463623,2.6464619636535645,-8.049454689025879
597,60400.0,-5.450850009918213,3.4408791065216064,-8.415557861328125
598,60600.0,-5.058426856994629,1.871187210083008,-6.31944465637207
599,60800.0,-3.3451659679412837,1.7467604875564575,-9.260223388671877
600,60000.0,-4.493720531463623,2.6464619636535645,-8.049454689025879
601,60200.0,-4.493720531463623,2.6464619636535645,-8.049454689025879
602,60400.0,-5.450850009918213,3.4408791065216064,-8.415557861328125
603,60600.0,-5.058426856994629,1.871187210083008,-6.31944465637207
604,60800.0,-3.3451659679412837,1.7467604875564575,-9.260223388671877
605,61000.0,-5.388636112213135,4.465007305145264,-9.31047248840332
606,61200.0,-5.130211353302002,4.570291519165039,-5.48674201965332
607,61400.0,-3.924229145050049,3.1106693744659424,-7.17368221282959
608,61600.0,-3.924229145050049,3.1106693744659424,-7.17368221282959
609,61800.0,-3.177668571472168,8.724230766296388,-3.6945178508758554
610,61000.0,-5.388636112213135,4.465007305145264,-9.31047248840332
611,61200.0,-5.130211353302002,4.570291519165039,-5.48674201965332
612,61400.0,-3.924229145050049,3.1106693744659424,-7.17368221282959
613,61600.0,-3.924229145050049,3.1106693744659424,-7.17368221282959
614,61800.0,-3.177668571472168,8.724230766296388,-3.6945178508758554
615,62000.0,-2.7038896083831787,10.26520824432373,-1.0695916414260864
616,62200.0,-2.7900311946868896,9.81057357788086,-1.6654045581817627
617,62400.0,-4.4506497383117685,7.6522464752197275,-3.5700912475585938
618,62600.0,-4.54636287689209,5.357529640197754,-6.479763507843018
619,62800.0,-3.6323046684265137,6.307480335235597,-6.135197162628174
620,62000.0,-2.7038896083831787,10.26520824432373,-1.0695916414260864
621,62200.0,-2.7900311946868896,9.81057357788086,-1.6654045581817627
622,62400.0,-4.4506497383117685,7.6522464752197275,-3.5700912475585938
623,62600.0,-4.54636287689209,5.357529640197754,-6.479763507843018
624,62800.0,-3.6323046684265137,6.307480335235597,-6.135197162628174
625,63000.0,-2.761317014694214,9.477970123291016,-2.256431579589844
626,63200.0,-2.761317014694214,9.477970123291016,-2.256431579589844
627,63400.0,-2.359323024749756,9.942178726196287,0.9427721500396729
628,63600.0,-1.9860427379608157,9.073582649230957,3.1968109607696533
629,63800.0,-1.919043779373169,8.623733520507812,4.074976921081543
630,63000.0,-2.761317014694214,9.477970123291016,-2.256431579589844
631,63200.0,-2.761317014694214,9.477970123291016,-2.256431579589844
632,63400.0,-2.359323024749756,9.942178726196287,0.9427721500396729
633,63600.0,-1.9860427379608157,9.073582649230957,3.1968109607696533
634,63800.0,-1.919043779373169,8.623733520507812,4.074976921081543
635,64000.0,-2.297109842300415,8.018348693847656,4.261617183685304
636,64200.0,-2.71346116065979,6.757331371307372,3.881158351898194
637,64400.0,-2.1391832828521733,6.685546875,3.335594892501831
638,64600.0,-2.4693927764892583,7.422535419464111,4.436293125152588
639,64800.0,-2.4693927764892583,7.422535419464111,4.436293125152588
640,64000.0,-2.297109842300415,8.018348693847656,4.261617183685304
641,64200.0,-2.71346116065979,6.757331371307372,3.881158351898194
642,64400.0,-2.1391832828521733,6.685546875,3.335594892501831
643,64600.0,-2.4693927764892583,7.422535419464111,4.436293125152588
644,64800.0,-2.4693927764892583,7.422535419464111,4.436293125152588
645,65000.0,-2.617748022079468,7.860422611236572,4.455435752868652
646,65200.0,-3.062812805175781,7.762316703796388,4.309473514556885
647,65400.0,-2.1391832828521733,9.812965393066406,4.859822750091553
648,65600.0,-3.5557346343994136,8.98265552520752,5.797809600830077
649,65800.0,-4.130012035369873,5.8337016105651855,-5.314458847045898
650,65000.0,-2.617748022079468,7.860422611236572,4.455435752868652
651,65200.0,-3.062812805175781,7.762316703796388,4.309473514556885
652,65400.0,-2.1391832828521733,9.812965393066406,4.859822750091553
653,65600.0,-3.5557346343994136,8.98265552520752,5.797809600830077
654,65800.0,-4.130012035369873,5.8337016105651855,-5.314458847045898
655,66000.0,-3.6562328338623047,6.975078105926514,-5.7619171142578125
656,66200.0,-3.6562328338623047,6.975078105926514,-5.7619171142578125
657,66400.0,-3.2446675300598145,10.401599884033203,-1.871187210083008
658,66600.0,-3.818945169448853,8.784051895141603,-2.1607186794281006
659,66800.0,-3.7040894031524663,7.386643409729004,-4.646861553192139
660,66000.0,-3.6562328338623047,6.975078105926514,-5.7619171142578125
661,66200.0,-3.6562328338623047,6.975078105926514,-5.7619171142578125
662,66400.0,-3.2446675300598145,10.401599884033203,-1.871187210083008
663,66600.0,-3.818945169448853,8.784051895141603,-2.1607186794281006
664,66800.0,-3.7040894031524663,7.386643409729004,-4.646861553192139
665,67000.0,-4.2065820693969735,7.128218650817871,-5.118247985839844
666,67200.0,-4.302295207977295,6.996613025665282,-5.2833523750305185
667,67400.0,-4.302295207977295,6.996613025665282,-5.2833523750305185
668,67600.0,-4.579862117767334,7.082754611968994,-4.716253280639648
669,67800.0,-5.221138954162598,7.154539585113525,-3.2039895057678223
670,67000.0,-4.2065820693969735,7.128218650817871,-5.118247985839844
671,67200.0,-4.302295207977295,6.996613025665282,-5.2833523750305185
672,67400.0,-4.302295207977295,6.996613025665282,-5.2833523750305185
673,67600.0,-4.579862117767334,7.082754611968994,-4.716253280639648
674,67800.0,-5.221138954162598,7.154539585113525,-3.2039895057678223
675,68000.0,-6.149554252624513,8.386843681335451,-2.517249345779419
676,68200.0,-3.522234916687012,8.147561073303223,-2.232503652572632
677,68400.0,-3.871586799621582,9.69093132019043,-1.0959126949310305
678,68600.0,-3.469593048095703,9.308080673217773,0.2632104754447937
679,68800.0,-3.598805427551269,9.22433090209961,0.397208571434021
680,68000.0,-6.149554252624513,8.386843681335451,-2.517249345779419
681,68200.0,-3.522234916687012,8.147561073303223,-2.232503652572632
682,68400.0,-3.871586799621582,9.69093132019043,-1.0959126949310305
683,68600.0,-3.469593048095703,9.308080673217773,0.2632104754447937
684,68800.0,-3.598805427551269,9.22433090209961,0.397208571434021
685,69000.0,-3.7040894031524663,8.891729354858398,0.6149553656578064
686,69200.0,-3.7040894031524663,8.891729354858398,0.6149553656578064
687,69400.0,-3.5509488582611084,8.944371223449707,0.22492533922195435
688,69600.0,-3.5461630821228027,9.365508079528807,0.00957129057496786
689,69800.0,-3.522234916687012,9.367900848388672,-0.02392822504043579
690,69000.0,-3.7040894031524663,8.891729354858398,0.6149553656578064
691,69200.0,-3.7040894031524663,8.891729354858398,0.6149553656578064
692,69400.0,-3.5509488582611084,8.944371223449707,0.22492533922195435
693,69600.0,-3.5461630821228027,9.365508079528807,0.00957129057496786
694,69800.0,-3.522234916687012,9.367900848388672,-0.02392822504043579
695,70000.0,-3.517449140548706,9.22433090209961,0.03828516229987145
696,70200.0,-3.2973096370697017,9.470791816711426,-0.09571290016174316
697,70400.0,-3.3403804302215576,9.238687515258787,0.08853443711996077
698,70600.0,-3.3403804302215576,9.238687515258787,0.08853443711996077
699,70800.0,-3.211168050765991,9.413363456726074,0.033499516546726234
700,70000.0,-3.517449140548706,9.22433090209961,0.03828516229987145
701,70200.0,-3.2973096370697017,9.470791816711426,-0.09571290016174316
702,70400.0,-3.3403804302215576,9.238687515258787,0.08853443711996077
703,70600.0,-3.3403804302215576,9.238687515258787,0.08853443711996077
704,70800.0,-3.211168050765991,9.413363456726074,0.033499516546726234
705,71000.0,-3.13938307762146,9.207581520080566,0.002392822643741965
706,71200.0,-3.2207393646240234,9.4660062789917,-0.3278167247772217
707,71400.0,-3.3164520263671875,9.1716890335083,-0.2416750937700272
708,71600.0,-3.369094133377075,9.097511291503906,-0.4977070987224579
709,71800.0,-3.2446675300598145,9.339186668395996,-0.5407779216766357
710,71000.0,-3.13938307762146,9.207581520080566,0.002392822643741965
711,71200.0,-3.2207393646240234,9.4660062789917,-0.3278167247772217
712,71400.0,-3.3164520263671875,9.1716890335083,-0.2416750937700272
713,71600.0,-3.369094133377075,9.097511291503906,-0.4977070987224579
714,71800.0,-3.2446675300598145,9.339186668395996,-0.5407779216766357
715,72000.0,-3.3164520263671875,9.183652877807617,-0.7585247755050659
716,72200.0,-3.3164520263671875,9.183652877807617,-0.7585247755050659
717,72400.0,-3.493520975112915,9.15493869781494,-0.5144568681716919
718,72600.0,-3.34995174407959,9.262616157531738,-0.18185453116893768
719,72800.0,-3.177668571472168,9.355937004089355,0.011964112520217896
720,72000.0,-3.3164520263671875,9.183652877807617,-0.7585247755050659
721,72200.0,-3.3164520263671875,9.183652877807617,-0.7585247755050659
722,72400.0,-3.493520975112915,9.15493869781494,-0.5144568681716919
723,72600.0,-3.34995174407959,9.262616157531738,-0.18185453116893768
724,72800.0,-3.177668571472168,9.355937004089355,0.011964112520217896
725,73000.0,-2.9862425327301025,9.42054271697998,0.413958340883255
726,73200.0,-2.7900311946868896,9.422935485839844,0.3445664942264557
727,73400.0,-2.6799612045288086,9.609575271606444,0.3110669553279877
728,73600.0,-2.6799612045288086,9.609575271606444,0.3110669553279877
729,73800.0,-2.8283162117004395,9.40379238128662,0.39960137009620667
730,73000.0,-2.9862425327301025,9.42054271697998,0.413958340883255
731,73200.0,-2.7900311946868896,9.422935485839844,0.3445664942264557
732,73400.0,-2.6799612045288086,9.609575271606444,0.3110669553279877
733,73600.0,-2.6799612045288086,9.609575271606444,0.3110669553279877
734,73800.0,-2.8283162117004395,9.40379238128662,0.39960137009620667
735,74000.0,-2.861815929412842,9.621540069580078,0.3182453811168671
736,74200.0,-2.7326035499572754,9.516255378723145,0.28953152894973755
737,74400.0,-2.665604591369629,9.489934921264648,0.3708875179290772
738,74600.0,-2.7278177738189697,9.650253295898438,0.2943171858787537
739,74800.0,-3.0245277881622314,9.20040225982666,0.03589234128594398
740,74000.0,-2.861815929412842,9.621540069580078,0.3182453811168671
741,74200.0,-2.7326035499572754,9.516255378723145,0.28953152894973755
742,74400.0,-2.665604591369629,9.489934921264648,0.3708875179290772
743,74600.0,-2.7278177738189697,9.650253295898438,0.2943171858787537
744,74800.0,-3.0245277881622314,9.20040225982666,0.03589234128594398
745,75000.0,-3.0245277881622314,9.20040225982666,0.03589234128594398
746,75200.0,-2.746960401535034,9.652647018432617,-0.12681959569454193
747,75400.0,-2.9240293502807617,9.18843936920166,-0.1220339611172676
748,75600.0,-2.809173583984375,9.391828536987305,-0.2105683833360672
749,75800.0,-2.746960401535034,9.322437286376953,0.2225324809551239
750,75000.0,-3.0245277881622314,9.20040225982666,0.03589234128594398
751,75200.0,-2.746960401535034,9.652647018432617,-0.12681959569454193
752,75400.0,-2.9240293502807617,9.18843936920166,-0.1220339611172676
753,75600.0,-2.809173583984375,9.391828536987305,-0.2105683833360672
754,75800.0,-2.746960401535034,9.322437286376953,0.2225324809551239
755,76000.0,-2.885744333267212,9.643074989318848,0.22013968229293826
756,76200.0,-3.034099102020264,9.238687515258787,0.13878372311592102
757,76400.0,-3.072384119033813,9.238687515258787,0.430708110332489
758,76600.0,-3.072384119033813,9.238687515258787,0.430708110332489
759,76800.0,-3.1058835983276367,9.463613510131836,0.3278167247772217
760,76000.0,-2.885744333267212,9.643074989318848,0.22013968229293826
761,76200.0,-3.034099102020264,9.238687515258787,0.13878372311592102
762,76400.0,-3.072384119033813,9.238687515258787,0.430708110332489
763,76600.0,-3.072384119033813,9.238687515258787,0.430708110332489
764,76800.0,-3.1058835983276367,9.463613510131836,0.3278167247772217
765,77000.0,-3.522234916687012,10.05703353881836,-0.1052841916680336
766,77200.0,-4.25922441482544,8.276773452758789,-2.522034883499145
767,77400.0,-4.766502857208252,7.75753116607666,-3.988835573196411
768,77600.0,-4.737788677215576,6.805188179016112,-5.127819538116455
769,77800.0,-4.90528678894043,6.656832218170166,-5.790630340576173
770,77000.0,-3.522234916687012,10.05703353881836,-0.1052841916680336
771,77200.0,-4.25922441482544,8.276773452758789,-2.522034883499145
772,77400.0,-4.766502857208252,7.75753116607666,-3.988835573196411
773,77600.0,-4.737788677215576,6.805188179016112,-5.127819538116455
774,77800.0,-4.90528678894043,6.656832218170166,-5.790630340576173
775,78000.0,-5.398207664489746,5.434100151062012,-5.986842632293701
776,78200.0,-5.398207664489746,5.434100151062012,-5.986842632293701
777,78400.0,-5.063212871551514,4.130012035369873,-6.888936519622803
778,78600.0,-3.603590488433838,2.6943180561065674,-7.829315185546875
779,78800.0,-3.5700912475585938,7.6522464752197275,-5.783452033996582
780,78000.0,-5.398207664489746,5.434100151062012,-5.986842632293701
781,78200.0,-5.398207664489746,5.434100151062012,-5.986842632293701
782,78400.0,-5.063212871551514,4.130012035369873,-6.888936519622803
783,78600.0,-3.603590488433838,2.6943180561065674,-7.829315185546875
784,78800.0,-3.5700912475585938,7.6522464752197275,-5.783452033996582
785,79000.0,-3.0484561920166016,9.384650230407717,-1.3304094076156616
786,79200.0,-2.756531953811645,9.097511291503906,2.1200408935546875
787,79400.0,-2.4358932971954346,9.09272575378418,3.479164123535156
788,79600.0,-2.502892255783081,8.807979583740234,4.23529577255249
789,79800.0,-2.8187451362609863,8.149953842163086,4.536791324615479
790,79000.0,-3.0484561920166016,9.384650230407717,-1.3304094076156616
791,79200.0,-2.756531953811645,9.097511291503906,2.1200408935546875
792,79400.0,-2.4358932971954346,9.09272575378418,3.479164123535156
793,79600.0,-2.502892255783081,8.807979583740234,4.23529577255249
794,79800.0,-2.8187451362609863,8.149953842163086,4.536791324615479
795,80000.0,-2.8187451362609863,8.149953842163086,4.536791324615479
796,80200.0,-2.9527432918548584,7.506284713745117,3.9792640209198
797,80400.0,-3.0005996227264404,6.589833736419678,3.5748770236968994
798,80600.0,-2.5938196182250977,6.960721015930176,3.5509488582611084
799,80800.0,-2.4023938179016118,7.063612461090088,3.809373617172241
800,80000.0,-2.8187451362609863,8.149953842163086,4.536791324615479
801,80200.0,-2.9527432918548584,7.506284713745117,3.9792640209198
802,80400.0,-3.0005996227264404,6.589833736419678,3.5748770236968994
803,80600.0,-2.5938196182250977,6.960721015930176,3.5509488582611084
804,80800.0,-2.4023938179016118,7.063612461090088,3.809373617172241
805,81000.0,-2.4646072387695312,7.948956489562987,4.998606204986572
806,81200.0,-3.0149567127227783,8.858229637145996,5.532205581665039
807,81400.0,-3.0149567127227783,8.858229637145996,5.532205581665039
808,81600.0,-2.809173583984375,9.501898765563963,5.659025192260742
809,81800.0,-3.1489543914794917,7.963313579559326,5.422136306762695
810,81000.0,-2.4646072387695312,7.948956489562987,4.998606204986572
811,81200.0,-3.0149567127227783,8.858229637145996,5.532205581665039
812,81400.0,-3.0149567127227783,8.858229637145996,5.532205581665039
813,81600.0,-2.809173583984375,9.501898765563963,5.659025192260742
814,81800.0,-3.1489543914794917,7.963313579559326,5.422136306762695
815,82000.0,-3.2446675300598145,7.5014991760253915,5.37188720703125
816,82200.0,-3.5126638412475586,7.101897716522218,5.161318302154541
817,82400.0,-3.45045018196106,9.990034103393556,6.496513843536378
818,82600.0,-2.861815929412842,6.037091255187987,3.905086755752564
819,82800.0,-3.919443368911743,8.236095428466799,5.32403039932251
820,82000.0,-3.2446675300598145,7.5014991760253915,5.37188720703125
821,82200.0,-3.5126638412475586,7.101897716522218,5.161318302154541
822,82400.0,-3.45045018196106,9.990034103393556,6.496513843536378
823,82600.0,-2.861815929412842,6.037091255187987,3.905086755752564
824,82800.0,-3.919443368911743,8.236095428466799,5.32403039932251
825,83000.0,-3.029313325881958,9.590433120727539,5.01296329498291
826,83200.0,-3.029313325881958,9.590433120727539,5.01296329498291
827,83400.0,-2.8043880462646484,7.922636032104492,6.5108704566955575
828,83600.0,-2.210968255996704,9.336793899536133,0.4522434771060944
829,83800.0,-3.1202406883239746,7.135397434234619,0.19621144235134125
830,83000.0,-3.029313325881958,9.590433120727539,5.01296329498291
831,83200.0,-3.029313325881958,9.590433120727539,5.01296329498291
832,83400.0,-2.8043880462646484,7.922636032104492,6.5108704566955575
833,83600.0,-2.210968255996704,9.336793899536133,0.4522434771060944
834,83800.0,-3.1202406883239746,7.135397434234619,0.19621144235134125
835,84000.0,-2.3545374870300293,8.439485549926758,3.1106693744659424
836,84200.0,-2.809173583984375,8.104490280151367,3.811766624450684
837,84400.0,-3.259024381637573,9.978070259094238,5.678168296813965
838,84600.0,-3.522234916687012,7.7072815895080575,4.8741798400878915
839,84800.0,-3.522234916687012,7.7072815895080575,4.8741798400878915
840,84000.0,-2.3545374870300293,8.439485549926758,3.1106693744659424
841,84200.0,-2.809173583984375,8.104490280151367,3.811766624450684
842,84400.0,-3.259024381637573,9.978070259094238,5.678168296813965
843,84600.0,-3.522234916687012,7.7072815895080575,4.8741798400878915
844,84800.0,-3.522234916687012,7.7072815895080575,4.8741798400878915
845,85000.0,-2.3258235454559326,8.358129501342772,3.230310440063477
846,85200.0,-2.9718859195709233,9.375079154968262,6.434299945831299
847,85400.0,-3.0245277881622314,7.322037220001222,-1.940579175949097
848,85600.0,-3.981656789779663,7.314858913421631,-3.9912283420562735
849,85800.0,-4.35972261428833,8.350951194763184,-2.5986053943634038
850,85000.0,-2.3258235454559326,8.358129501342772,3.230310440063477
851,85200.0,-2.9718859195709233,9.375079154968262,6.434299945831299
852,85400.0,-3.0245277881622314,7.322037220001222,-1.940579175949097
853,85600.0,-3.981656789779663,7.314858913421631,-3.9912283420562735
854,85800.0,-4.35972261428833,8.350951194763184,-2.5986053943634038
855,86000.0,-5.1637115478515625,8.3629150390625,-1.7036896944046018
856,86200.0,-5.1637115478515625,8.3629150390625,-1.7036896944046018
857,86400.0,-3.809373617172241,8.324630737304688,-3.689732551574707
858,86600.0,-3.168097257614136,9.726823806762695,-0.7609176039695741
859,86800.0,-2.8953151702880864,9.343972206115724,1.4261221885681152
860,86000.0,-5.1637115478515625,8.3629150390625,-1.7036896944046018
861,86200.0,-5.1637115478515625,8.3629150390625,-1.7036896944046018
862,86400.0,-3.809373617172241,8.324630737304688,-3.689732551574707
863,86600.0,-3.168097257614136,9.726823806762695,-0.7609176039695741
864,86800.0,-2.8953151702880864,9.343972206115724,1.4261221885681152
865,87000.0,-2.7278177738189697,9.169296264648438,1.9621145725250244
866,87200.0,-2.909672498703003,8.903693199157715,1.9262222051620483
867,87400.0,-3.1345977783203125,9.212367057800293,1.65583336353302
868,87600.0,-3.1345977783203125,9.212367057800293,1.65583336353302
869,87800.0,-3.0963122844696045,9.42054271697998,1.2490534782409668
870,87000.0,-2.7278177738189697,9.169296264648438,1.9621145725250244
871,87200.0,-2.909672498703003,8.903693199157715,1.9262222051620483
872,87400.0,-3.1345977783203125,9.212367057800293,1.65583336353302
873,87600.0,-3.1345977783203125,9.212367057800293,1.65583336353302
874,87800.0,-3.0963122844696045,9.42054271697998,1.2490534782409668
875,88000.0,-3.1489543914794917,9.166903495788574,1.2729815244674685
876,88200.0,-3.2829525470733643,9.260223388671877,1.3878371715545654
877,88400.0,-3.1202406883239746,9.236295700073242,1.306481122970581
878,88600.0,-3.0005996227264404,9.365508079528807,0.97148597240448
879,88800.0,-3.1345977783203125,9.4061861038208,1.1198409795761108
880,88000.0,-3.1489543914794917,9.166903495788574,1.2729815244674685
881,88200.0,-3.2829525470733643,9.260223388671877,1.3878371715545654
882,88400.0,-3.1202406883239746,9.236295700073242,1.306481122970581
883,88600.0,-3.0005996227264404,9.365508079528807,0.97148597240448
884,88800.0,-3.1345977783203125,9.4061861038208,1.1198409795761108
885,89000.0,-3.13938307762146,9.276973724365234,0.9475577473640442
886,89200.0,-3.28773832321167,9.126225471496582,0.9140582084655762
887,89400.0,-3.4121649265289307,9.332008361816406,0.8997013568878174
888,89600.0,-3.4121649265289307,9.332008361816406,0.8997013568878174
889,89800.0,-3.938585996627808,9.643074989318848,-0.0047856452874839315
890,89000.0,-3.13938307762146,9.276973724365234,0.9475577473640442
891,89200.0,-3.28773832321167,9.126225471496582,0.9140582084655762
892,89400.0,-3.4121649265289307,9.332008361816406,0.8997013568878174
893,89600.0,-3.4121649265289307,9.332008361816406,0.8997013568878174
894,89800.0,-3.938585996627808,9.643074989318848,-0.0047856452874839315
895,90000.0,-4.924428939819336,6.970292568206787,-4.768895626068115
896,90200.0,-4.364508152008057,5.319244384765625,-5.917449951171875
897,90400.0,-4.632504463195801,5.838487148284912,-6.307480335235597
898,90600.0,-6.034698486328125,3.684947013854981,-5.950949668884277
899,90800.0,-5.66620397567749,4.383650779724121,-6.31944465637207
900,90000.0,-4.924428939819336,6.970292568206787,-4.768895626068115
901,90200.0,-4.364508152008057,5.319244384765625,-5.917449951171875
902,90400.0,-4.632504463195801,5.838487148284912,-6.307480335235597
903,90600.0,-6.034698486328125,3.684947013854981,-5.950949668884277
904,90800.0,-5.66620397567749,4.383650779724121,-6.31944465637207
905,91000.0,-4.876572608947754,4.302295207977295,-7.1090760231018075
906,91200.0,-4.876572608947754,4.302295207977295,-7.1090760231018075
907,91400.0,-5.115854740142822,4.4506497383117685,-7.534998416900635
908,91600.0,-2.7038896083831787,6.434299945831299,-9.20997428894043
909,91800.0,-5.469992637634277,4.35254430770874,-6.845865249633789
910,91000.0,-4.876572608947754,4.302295207977295,-7.1090760231018075
911,91200.0,-4.876572608947754,4.302295207977295,-7.1090760231018075
912,91400.0,-5.115854740142822,4.4506497383117685,-7.534998416900635
913,91600.0,-2.7038896083831787,6.434299945831299,-9.20997428894043
914,91800.0,-5.469992637634277,4.35254430770874,-6.845865249633789
915,92000.0,-5.8959150314331055,3.089133977890014,-6.049055576324463
916,92200.0,-5.077569961547852,1.093519926071167,-7.422535419464111
917,92400.0,-5.039284706115723,2.0171494483947754,-8.269595146179201
918,92600.0,-4.570291519165039,2.806780815124512,-7.630711555480957
919,92800.0,-3.976871252059937,5.800201892852782,-6.618547439575195
920,92000.0,-5.8959150314331055,3.089133977890014,-6.049055576324463
921,92200.0,-5.077569961547852,1.093519926071167,-7.422535419464111
922,92400.0,-5.039284706115723,2.0171494483947754,-8.269595146179201
923,92600.0,-4.570291519165039,2.806780815124512,-7.630711555480957
924,92800.0,-3.976871252059937,5.800201892852782,-6.618547439575195
925,93000.0,-3.976871252059937,5.800201892852782,-6.618547439575195
926,93200.0,-3.3068809509277344,9.506684303283693,-2.493321180343628
927,93400.0,-2.8283162117004395,9.485149383544922,0.9427721500396729
928,93600.0,-3.0005996227264404,9.542576789855957,2.3162522315979004
929,93800.0,-3.488735675811768,8.941977500915527,2.610569477081299
930,93000.0,-3.976871252059937,5.800201892852782,-6.618547439575195
931,93200.0,-3.3068809509277344,9.506684303283693,-2.493321180343628
932,93400.0,-2.8283162117004395,9.485149383544922,0.9427721500396729
933,93600.0,-3.0005996227264404,9.542576789855957,2.3162522315979004
934,93800.0,-3.488735675811768,8.941977500915527,2.610569477081299
935,94000.0,-3.1968109607696533,7.22871732711792,2.368894338607788
936,94200.0,-3.689732551574707,10.707880973815918,3.4193434715271
937,94400.0,-3.292524099349976,10.968698501586914,4.2448673248291025
938,94600.0,-3.292524099349976,10.968698501586914,4.2448673248291025
939,94800.0,-2.368894338607788,6.939186096191406,3.739981651306152
940,94000.0,-3.1968109607696533,7.22871732711792,2.368894338607788
941,94200.0,-3.689732551574707,10.707880973815918,3.4193434715271
942,94400.0,-3.292524099349976,10.968698501586914,4.2448673248291025
943,94600.0,-3.292524099349976,10.968698501586914,4.2448673248291025
944,94800.0,-2.368894338607788,6.939186096191406,3.739981651306152
945,95000.0,-2.4358932971954346,6.580262184143066,4.462614059448242
946,95200.0,-2.8666017055511475,8.38444995880127,5.166104316711426
947,95400.0,-3.3547375202178955,7.678568363189697,4.840680122375488
948,95600.0,-2.9527432918548584,7.623533248901367,4.871786594390869
949,95800.0,-2.359323024749756,7.994420051574707,5.094319343566895
950,95000.0,-2.4358932971954346,6.580262184143066,4.462614059448242
951,95200.0,-2.8666017055511475,8.38444995880127,5.166104316711426
952,95400.0,-3.3547375202178955,7.678568363189697,4.840680122375488
953,95600.0,-2.9527432918548584,7.623533248901367,4.871786594390869
954,95800.0,-2.359323024749756,7.994420051574707,5.094319343566895
955,96000.0,-2.359323024749756,7.994420051574707,5.094319343566895
956,96200.0,-2.885744333267212,8.745766639709473,4.90528678894043
957,96400.0,-3.177668571472168,9.717252731323242,0.7992027401924133
958,96600.0,-4.254438400268556,7.767102241516112,-2.380858421325684
959,96800.0,-3.0963122844696045,7.965706348419189,-6.843472957611084
960,96000.0,-2.359323024749756,7.994420051574707,5.094319343566895
961,96200.0,-2.885744333267212,8.745766639709473,4.90528678894043
962,96400.0,-3.177668571472168,9.717252731323242,0.7992027401924133
963,96600.0,-4.254438400268556,7.767102241516112,-2.380858421325684
964,96800.0,-3.0963122844696045,7.965706348419189,-6.843472957611084
965,97000.0,-4.168296813964844,5.625525951385498,-5.850451469421388
966,97200.0,-5.168497085571289,3.785445213317871,-7.111469268798827
967,97400.0,-4.8813581466674805,4.651647090911865,-6.463014125823975
968,97600.0,-4.8813581466674805,4.651647090911865,-6.463014125823975
969,97800.0,-2.885744333267212,5.5968122482299805,-8.315058708190918
970,97000.0,-4.168296813964844,5.625525951385498,-5.850451469421388
971,97200.0,-5.168497085571289,3.785445213317871,-7.111469268798827
972,97400.0,-4.8813581466674805,4.651647090911865,-6.463014125823975
973,97600.0,-4.8813581466674805,4.651647090911865,-6.463014125823975
974,97800.0,-2.885744333267212,5.5968122482299805,-8.315058708190918
975,98000.0,-4.364508152008057,2.8139593601226807,-8.453842163085938
976,98200.0,-5.359922409057617,3.0005996227264404,-7.0851478576660165
977,98400.0,-5.302494525909424,3.3068809509277344,-6.6281185150146475
978,98600.0,-4.3405799865722665,3.598805427551269,-8.456235885620117
979,98800.0,-4.3405799865722665,3.5126638412475586,-8.669197082519531
980,98000.0,-4.364508152008057,2.8139593601226807,-8.453842163085938
981,98200.0,-5.359922409057617,3.0005996227264404,-7.0851478576660165
982,98400.0,-5.302494525909424,3.3068809509277344,-6.6281185150146475
983,98600.0,-4.3405799865722665,3.598805427551269,-8.456235885620117
984,98800.0,-4.3405799865722665,3.5126638412475586,-8.669197082519531
985,99000.0,-5.575276851654053,1.7491532564163208,-6.27876615524292
986,99200.0,-5.575276851654053,1.7491532564163208,-6.27876615524292
987,99400.0,-4.0869412422180185,3.460021495819092,-7.599604606628418
988,99600.0,-5.556134223937988,3.754338502883911,-5.869593620300293
989,99800.0,-4.627718925476074,4.620540142059326,-8.068597793579103
990,99000.0,-5.575276851654053,1.7491532564163208,-6.27876615524292
991,99200.0,-5.575276851654053,1.7491532564163208,-6.27876615524292
992,99400.0,-4.0869412422180185,3.460021495819092,-7.599604606628418
993,99600.0,-5.556134223937988,3.754338502883911,-5.869593620300293
994,99800.0,-4.627718925476074,4.620540142059326,-8.068597793579103
995,100000.0,-3.847658634185791,2.7804601192474365,-7.302894115447997
996,100200.0,-3.594019651412964,2.8378877639770512,-8.255237579345701
997,100400.0,-3.594019651412964,2.8378877639770512,-8.255237579345701
998,100600.0,-4.321437358856201,4.130012035369873,-9.379864692687988
999,100800.0,-5.39342212677002,1.902293920516968,-6.7070817947387695
1000,100000.0,-3.847658634185791,2.7804601192474365,-7.302894115447997
1001,100200.0,-3.594019651412964,2.8378877639770512,-8.255237579345701
1002,100400.0,-3.594019651412964,2.8378877639770512,-8.255237579345701
1003,100600.0,-4.321437358856201,4.130012035369873,-9.379864692687988
1004,100800.0,-5.39342212677002,1.902293920516968,-6.7070817947387695
1005,101000.0,-2.091326951980591,9.375079154968262,-3.7040894031524663
1006,101200.0,-2.47896409034729,8.22413158416748,-6.463014125823975
1007,101400.0,-2.7038896083831787,7.113861560821532,-5.43170690536499
1008,101600.0,-1.8424735069274905,7.116254806518555,-6.350551128387451
1009,101800.0,-1.6701902151107788,8.633303642272951,-2.581855773925781
1010,101000.0,-2.091326951980591,9.375079154968262,-3.7040894031524663
1011,101200.0,-2.47896409034729,8.22413158416748,-6.463014125823975
1012,101400.0,-2.7038896083831787,7.113861560821532,-5.43170690536499
1013,101600.0,-1.8424735069274905,7.116254806518555,-6.350551128387451
1014,101800.0,-1.6701902151107788,8.633303642272951,-2.581855773925781
1015,102000.0,-1.6701902151107788,8.633303642272951,-2.581855773925781
1016,102200.0,-1.8759729862213133,11.284551620483398,0.5168496966362001
1017,102400.0,-1.8664016723632808,10.023534774780273,-1.2227323055267334
1018,102600.0,-3.493520975112915,7.714460372924805,-4.632504463195801
1019,102800.0,-3.924229145050049,4.266402721405028,-6.965506553649902
1020,102000.0,-1.6701902151107788,8.633303642272951,-2.581855773925781
1021,102200.0,-1.8759729862213133,11.284551620483398,0.5168496966362001
1022,102400.0,-1.8664016723632808,10.023534774780273,-1.2227323055267334
1023,102600.0,-3.493520975112915,7.714460372924805,-4.632504463195801
1024,102800.0,-3.924229145050049,4.266402721405028,-6.965506553649902
1025,103000.0,-2.4885356426239014,3.1657044887542725,-8.934800148010254
1026,103200.0,-3.713660717010498,1.0456634759902954,-8.743373870849611
1027,103400.0,-3.713660717010498,1.0456634759902954,-8.743373870849611
1028,103600.0,-4.053441524505615,0.430708110332489,-8.10688304901123
1029,103800.0,-2.8953151702880864,-0.4211367666721344,-9.119047164916992
1030,103000.0,-2.4885356426239014,3.1657044887542725,-8.934800148010254
1031,103200.0,-3.713660717010498,1.0456634759902954,-8.743373870849611
1032,103400.0,-3.713660717010498,1.0456634759902954,-8.743373870849611
1033,103600.0,-4.053441524505615,0.430708110332489,-8.10688304901123
1034,103800.0,-2.8953151702880864,-0.4211367666721344,-9.119047164916992
1035,104000.0,-2.71346116065979,4.922036170959473,-7.417750358581543
1036,104200.0,-3.32602334022522,9.91585636138916,-3.5676987171173096
1037,104400.0,-2.919243574142456,8.863015174865723,0.4689932465553284
1038,104600.0,-2.9814569950103764,8.879764556884766,2.730210542678833
1039,104800.0,-2.258824586868286,8.767301559448242,4.077369689941406
1040,104000.0,-2.71346116065979,4.922036170959473,-7.417750358581543
1041,104200.0,-3.32602334022522,9.91585636138916,-3.5676987171173096
1042,104400.0,-2.919243574142456,8.863015174865723,0.4689932465553284
1043,104600.0,-2.9814569950103764,8.879764556884766,2.730210542678833
1044,104800.0,-2.258824586868286,8.767301559448242,4.077369689941406
1045,105000.0,-2.258824586868286,8.767301559448242,4.077369689941406
1046,105200.0,-2.1056838035583496,8.111669540405272,5.288137912750244
1047,105400.0,-1.5984054803848269,7.010970115661621,6.429513931274414
1048,105600.0,-1.6797614097595217,6.367300987243652,7.917850017547607
1049,105800.0,-1.5409778356552124,5.32403039932251,7.70249605178833
1050,105000.0,-2.258824586868286,8.767301559448242,4.077369689941406
1051,105200.0,-2.1056838035583496,8.111669540405272,5.288137912750244
1052,105400.0,-1.5984054803848269,7.010970115661621,6.429513931274414
1053,105600.0,-1.6797614097595217,6.367300987243652,7.917850017547607
1054,105800.0,-1.5409778356552124,5.32403039932251,7.70249605178833
1055,106000.0,-1.6510475873947144,4.871786594390869,8.61894702911377
1056,106200.0,-1.4691929817199707,4.642076015472412,8.886943817138672
1057,106400.0,-1.2825528383255005,5.328815937042236,8.157133102416992
1058,106600.0,-1.3543376922607422,5.438885688781738,7.9106712341308585
1059,106800.0,-1.4021940231323242,5.9342002868652335,7.781459331512451
1060,106000.0,-1.6510475873947144,4.871786594390869,8.61894702911377
1061,106200.0,-1.4691929817199707,4.642076015472412,8.886943817138672
1062,106400.0,-1.2825528383255005,5.328815937042236,8.157133102416992
1063,106600.0,-1.3543376922607422,5.438885688781738,7.9106712341308585
1064,106800.0,-1.4021940231323242,5.9342002868652335,7.781459331512451
1065,107000.0,-1.4021940231323242,5.9342002868652335,7.781459331512451
1066,107200.0,-1.550549030303955,5.874379634857178,7.776673316955566
1067,107400.0,-1.3160523176193235,6.199803352355957,7.795816421508789
1068,107600.0,-1.373480200767517,6.620940208435059,7.087540626525879
1069,107800.0,-1.8281164169311523,8.784051895141603,5.376672744750977
1070,107000.0,-1.4021940231323242,5.9342002868652335,7.781459331512451
1071,107200.0,-1.550549030303955,5.874379634857178,7.776673316955566
1072,107400.0,-1.3160523176193235,6.199803352355957,7.795816421508789
1073,107600.0,-1.373480200767517,6.620940208435059,7.087540626525879
1074,107800.0,-1.8281164169311523,8.784051895141603,5.376672744750977
1075,108000.0,-1.8376877307891848,9.298508644104004,-1.4093725681304932
1076,108200.0,-1.8376877307891848,9.298508644104004,-1.4093725681304932
1077,108400.0,-2.675175428390503,8.973085403442383,-4.589433670043945
1078,108600.0,-4.3453660011291495,5.328815937042236,-5.436492443084717
1079,108800.0,-4.378865718841554,2.210968255996704,-7.326822757720947
1080,108000.0,-1.8376877307891848,9.298508644104004,-1.4093725681304932
1081,108200.0,-1.8376877307891848,9.298508644104004,-1.4093725681304932
1082,108400.0,-2.675175428390503,8.973085403442383,-4.589433670043945
1083,108600.0,-4.3453660011291495,5.328815937042236,-5.436492443084717
1084,108800.0,-4.378865718841554,2.210968255996704,-7.326822757720947
1085,109000.0,-3.464807271957397,0.5790630578994751,-9.614361763000488
1086,109200.0,-2.861815929412842,6.56829833984375,-6.307480335235597
1087,109400.0,-2.1631116867065434,10.26760196685791,0.08614162355661392
1088,109600.0,-1.8999011516571045,9.470791816711426,3.45045018196106
1089,109800.0,-1.8999011516571045,9.470791816711426,3.45045018196106
1090,109000.0,-3.464807271957397,0.5790630578994751,-9.614361763000488
1091,109200.0,-2.861815929412842,6.56829833984375,-6.307480335235597
1092,109400.0,-2.1631116867065434,10.26760196685791,0.08614162355661392
1093,109600.0,-1.8999011516571045,9.470791816711426,3.45045018196106
1094,109800.0,-1.8999011516571045,9.470791816711426,3.45045018196106
1095,110000.0,-2.0961124897003174,8.248059272766112,4.627718925476074
1096,110200.0,-2.3258235454559326,7.901099681854247,5.752345561981201
1097,110400.0,-2.9527432918548584,7.403393745422362,5.893522262573242
1098,110600.0,-3.6131620407104488,7.341179370880128,5.2905311584472665
1099,110800.0,-3.1824538707733154,8.879764556884766,6.056234359741211
1100,110000.0,-2.0961124897003174,8.248059272766112,4.627718925476074
1101,110200.0,-2.3258235454559326,7.901099681854247,5.752345561981201
1102,110400.0,-2.9527432918548584,7.403393745422362,5.893522262573242
1103,110600.0,-3.6131620407104488,7.341179370880128,5.2905311584472665
1104,110800.0,-3.1824538707733154,8.879764556884766,6.056234359741211
1105,111000.0,-3.3020951747894287,7.836494445800781,5.259423732757568
1106,111200.0,-3.3020951747894287,7.836494445800781,5.259423732757568
1107,111400.0,-2.8666017055511475,6.149554252624513,4.096512317657472
1108,111600.0,-2.5555346012115483,6.324230670928955,4.0390844345092765
1109,111800.0,-3.369094133377075,8.279166221618652,5.4077792167663565
1110,111000.0,-3.3020951747894287,7.836494445800781,5.259423732757568
1111,111200.0,-3.3020951747894287,7.836494445800781,5.259423732757568
1112,111400.0,-2.8666017055511475,6.149554252624513,4.096512317657472
1113,111600.0,-2.5555346012115483,6.324230670928955,4.0390844345092765
1114,111800.0,-3.369094133377075,8.279166221618652,5.4077792167663565
1115,112000.0,-2.5507488250732417,7.018148422241211,4.740181922912598
1116,112200.0,-2.416750907897949,8.752944946289062,5.450850009918213
1117,112400.0,-2.833101987838745,7.645068168640138,5.266602516174316
1118,112600.0,-2.833101987838745,7.645068168640138,5.266602516174316
1119,112800.0,-2.483749866485596,7.630711555480957,4.754538536071777
1120,112000.0,-2.5507488250732417,7.018148422241211,4.740181922912598
1121,112200.0,-2.416750907897949,8.752944946289062,5.450850009918213
1122,112400.0,-2.833101987838745,7.645068168640138,5.266602516174316
1123,112600.0,-2.833101987838745,7.645068168640138,5.266602516174316
1124,112800.0,-2.483749866485596,7.630711555480957,4.754538536071777
1125,113000.0,-1.765903115272522,9.133403778076172,4.110869407653809
1126,113200.0,-2.483749866485596,8.93240737915039,2.857030153274536
1127,113400.0,-3.45045018196106,8.939584732055664,-1.8233308792114256
1128,113600.0,-3.4169507026672363,9.12383270263672,-2.0458633899688716
1129,113800.0,-3.4169507026672363,9.12383270263672,-2.0458633899688716
1130,113000.0,-1.765903115272522,9.133403778076172,4.110869407653809
1131,113200.0,-2.483749866485596,8.93240737915039,2.857030153274536
1132,113400.0,-3.45045018196106,8.939584732055664,-1.8233308792114256
1133,113600.0,-3.4169507026672363,9.12383270263672,-2.0458633899688716
1134,113800.0,-3.4169507026672363,9.12383270263672,-2.0458633899688716
1135,114000.0,-3.665804386138916,9.099905014038086,-1.8065810203552248
1136,114200.0,-3.464807271957397,9.193224906921387,-2.258824586868286
1137,114400.0,-3.708875179290772,8.731410026550293,-2.062613010406494
1138,114600.0,-3.847658634185791,8.891729354858398,-1.8592231273651123
1139,114800.0,-3.981656789779663,8.71944522857666,-2.091326951980591
1140,114000.0,-3.665804386138916,9.099905014038086,-1.8065810203552248
1141,114200.0,-3.464807271957397,9.193224906921387,-2.258824586868286
1142,114400.0,-3.708875179290772,8.731410026550293,-2.062613010406494
1143,114600.0,-3.847658634185791,8.891729354858398,-1.8592231273651123
1144,114800.0,-3.981656789779663,8.71944522857666,-2.091326951980591
1145,115000.0,-3.919443368911743,8.657232284545897,-2.050648927688598
1146,115200.0,-3.919443368911743,8.657232284545897,-2.050648927688598
1147,115400.0,-3.933800458908081,8.635696411132812,-2.1224336624145512
1148,115600.0,-4.101297855377196,8.645268440246582,-2.1655044555664062
1149,115800.0,-4.139583110809326,8.645268440246582,-2.3401806354522705
1150,115000.0,-3.919443368911743,8.657232284545897,-2.050648927688598
1151,115200.0,-3.919443368911743,8.657232284545897,-2.050648927688598
1152,115400.0,-3.933800458908081,8.635696411132812,-2.1224336624145512
1153,115600.0,-4.101297855377196,8.645268440246582,-2.1655044555664062
1154,115800.0,-4.139583110809326,8.645268440246582,-2.3401806354522705
1155,116000.0,-3.9146575927734375,8.72662353515625,-2.5459630489349365
1156,116200.0,-4.23529577255249,8.901299476623535,-1.871187210083008
1157,116400.0,-4.091726779937743,8.86780071258545,-1.940579175949097
1158,116600.0,-3.76151704788208,8.812766075134277,-1.9453648328781128
1159,116800.0,-3.814159393310547,8.740981101989746,-1.6103696823120115
1160,116000.0,-3.9146575927734375,8.72662353515625,-2.5459630489349365
1161,116200.0,-4.23529577255249,8.901299476623535,-1.871187210083008
1162,116400.0,-4.091726779937743,8.86780071258545,-1.940579175949097
1163,116600.0,-3.76151704788208,8.812766075134277,-1.9453648328781128
1164,116800.0,-3.814159393310547,8.740981101989746,-1.6103696823120115
1165,117000.0,-3.579662799835205,8.997013092041016,-1.2562319040298462
1166,117200.0,-3.6131620407104488,9.183652877807617,-1.1198409795761108
1167,117400.0,-3.6131620407104488,9.183652877807617,-1.1198409795761108
1168,117600.0,-3.7567315101623535,9.09272575378418,-0.7417750358581543
1169,117800.0,-3.6610186100006095,8.807979583740234,-1.0743772983551023
1170,117000.0,-3.579662799835205,8.997013092041016,-1.2562319040298462
1171,117200.0,-3.6131620407104488,9.183652877807617,-1.1198409795761108
1172,117400.0,-3.6131620407104488,9.183652877807617,-1.1198409795761108
1173,117600.0,-3.7567315101623535,9.09272575378418,-0.7417750358581543
1174,117800.0,-3.6610186100006095,8.807979583740234,-1.0743772983551023
1175,118000.0,-3.88594388961792,9.030512809753418,-1.2346963882446291
1176,118200.0,-3.608376264572144,9.250652313232422,-1.495514154434204
1177,118400.0,-4.106083393096924,8.71226692199707,-1.3974084854125977
1178,118600.0,-4.364508152008057,8.539983749389647,-1.4907284975051882
1179,118800.0,-4.364508152008057,8.539983749389647,-1.4907284975051882
1180,118000.0,-3.88594388961792,9.030512809753418,-1.2346963882446291
1181,118200.0,-3.608376264572144,9.250652313232422,-1.495514154434204
1182,118400.0,-4.106083393096924,8.71226692199707,-1.3974084854125977
1183,118600.0,-4.364508152008057,8.539983749389647,-1.4907284975051882
1184,118800.0,-4.364508152008057,8.539983749389647,-1.4907284975051882
1185,119000.0,-4.383650779724121,8.276773452758789,-1.423729419708252
1186,119200.0,-4.3453660011291495,8.82951545715332,-1.3112668991088867
1187,119400.0,-4.3166518211364755,8.796016693115233,-1.1341978311538696
1188,119600.0,-4.23529577255249,8.767301559448242,-0.8877372145652771
1189,119800.0,-4.225724697113037,8.767301559448242,-0.9475577473640442
1190,119000.0,-4.383650779724121,8.276773452758789,-1.423729419708252
1191,119200.0,-4.3453660011291495,8.82951545715332,-1.3112668991088867
1192,119400.0,-4.3166518211364755,8.796016693115233,-1.1341978311538696
1193,119600.0,-4.23529577255249,8.767301559448242,-0.8877372145652771
1194,119800.0,-4.225724697113037,8.767301559448242,-0.9475577473640442
1195,120000.0,-4.19701099395752,9.03290557861328,-1.1126624345779421
1196,120200.0,-4.2448673248291025,8.585447311401367,-1.1772687435150146
1197,120400.0,-4.2448673248291025,8.585447311401367,-1.1772687435150146
1198,120600.0,-4.326223373413087,9.1716890335083,-0.8303093910217285
1199,120800.0,-4.302295207977295,8.750552177429201,-2.0554347038269043
1200,120000.0,-4.19701099395752,9.03290557861328,-1.1126624345779421
1201,120200.0,-4.2448673248291025,8.585447311401367,-1.1772687435150146
1202,120400.0,-4.2448673248291025,8.585447311401367,-1.1772687435150146
1203,120600.0,-4.326223373413087,9.1716890335083,-0.8303093910217285
1204,120800.0,-4.302295207977295,8.750552177429201,-2.0554347038269043
1205,121000.0,-5.45563554763794,7.056434154510497,-2.9168508052825928
1206,121200.0,-5.886343479156494,6.764510154724121,-2.2683956623077397
1207,121400.0,-7.838886737823486,8.066205024719237,-0.9451649785041808
1208,121600.0,-4.321437358856201,7.568498134613037,0.7226324081420898
1209,121800.0,-4.321437358856201,7.568498134613037,0.7226324081420898
1210,121000.0,-5.45563554763794,7.056434154510497,-2.9168508052825928
1211,121200.0,-5.886343479156494,6.764510154724121,-2.2683956623077397
1212,121400.0,-7.838886737823486,8.066205024719237,-0.9451649785041808
1213,121600.0,-4.321437358856201,7.568498134613037,0.7226324081420898
1214,121800.0,-4.321437358856201,7.568498134613037,0.7226324081420898
1215,122000.0,-4.474578380584717,8.561518669128418,0.12921242415905002
1216,122200.0,-3.6323046684265137,9.391828536987305,0.6221339106559753
1217,122400.0,-3.603590488433838,9.391828536987305,1.9860427379608157
1218,122600.0,-3.809373617172241,9.193224906921387,2.3497519493103027
1219,122800.0,-3.847658634185791,8.549554824829103,2.6416761875152592
1220,122000.0,-4.474578380584717,8.561518669128418,0.12921242415905002
1221,122200.0,-3.6323046684265137,9.391828536987305,0.6221339106559753
1222,122400.0,-3.603590488433838,9.391828536987305,1.9860427379608157
1223,122600.0,-3.809373617172241,9.193224906921387,2.3497519493103027
1224,122800.0,-3.847658634185791,8.549554824829103,2.6416761875152592
1225,123000.0,-3.129812002182007,8.73619556427002,1.801795244216919
1226,123200.0,-3.129812002182007,8.73619556427002,1.801795244216919
1227,123400.0,-3.641876220703125,8.511269569396973,2.0171494483947754
1228,123600.0,-3.062812805175781,8.662017822265625,3.3236305713653564
1229,123800.0,-3.058027505874634,9.018548011779783,3.4743783473968506
1230,123000.0,-3.129812002182007,8.73619556427002,1.801795244216919
1231,123200.0,-3.129812002182007,8.73619556427002,1.801795244216919
1232,123400.0,-3.641876220703125,8.511269569396973,2.0171494483947754
1233,123600.0,-3.062812805175781,8.662017822265625,3.3236305713653564
1234,123800.0,-3.058027505874634,9.018548011779783,3.4743783473968506
1235,124000.0,-3.3451659679412837,8.678767204284668,2.5746772289276123
1236,124200.0,-3.2159535884857178,9.07119083404541,3.426522016525269
1237,124400.0,-3.2829525470733643,9.013763427734377,3.28773832321167
1238,124600.0,-3.4983065128326416,8.817551612854004,3.6011981964111333
1239,124800.0,-3.4983065128326416,8.817551612854004,3.6011981964111333
1240,124000.0,-3.3451659679412837,8.678767204284668,2.5746772289276123
1241,124200.0,-3.2159535884857178,9.07119083404541,3.426522016525269
1242,124400.0,-3.2829525470733643,9.013763427734377,3.28773832321167
1243,124600.0,-3.4983065128326416,8.817551612854004,3.6011981964111333
1244,124800.0,-3.4983065128326416,8.817551612854004,3.6011981964111333
1245,125000.0,-3.6131620407104488,8.791230201721191,3.012563943862915
1246,125200.0,-3.4983065128326416,8.401200294494629,3.2542388439178467
1247,125400.0,-3.2542388439178467,8.693124771118164,3.192025184631348
1248,125600.0,-3.029313325881958,8.650053977966309,3.45045018196106
1249,125800.0,-2.7182462215423584,8.939584732055664,3.3786656856536865
1250,125000.0,-3.6131620407104488,8.791230201721191,3.012563943862915
1251,125200.0,-3.4983065128326416,8.401200294494629,3.2542388439178467
1252,125400.0,-3.2542388439178467,8.693124771118164,3.192025184631348
1253,125600.0,-3.029313325881958,8.650053977966309,3.45045018196106
1254,125800.0,-2.7182462215423584,8.939584732055664,3.3786656856536865
1255,126000.0,-2.756531953811645,9.075976371765137,3.1106693744659424
1256,126200.0,-2.531606435775757,9.111868858337402,2.7589242458343506
1257,126400.0,-2.531606435775757,9.111868858337402,2.7589242458343506
1258,126600.0,-2.4023938179016118,9.147761344909668,2.9671001434326167
1259,126800.0,-2.359323024749756,9.26740264892578,2.957528829574585
1260,126000.0,-2.756531953811645,9.075976371765137,3.1106693744659424
1261,126200.0,-2.531606435775757,9.111868858337402,2.7589242458343506
1262,126400.0,-2.531606435775757,9.111868858337402,2.7589242458343506
1263,126600.0,-2.4023938179016118,9.147761344909668,2.9671001434326167
1264,126800.0,-2.359323024749756,9.26740264892578,2.957528829574585
1265,127000.0,-2.3976082801818848,9.135796546936037,2.914458036422729
1266,127200.0,-2.455036163330078,9.269794464111328,3.0317063331604004
1267,127400.0,-2.823530912399292,8.803194999694824,2.900100946426392
1268,127600.0,-2.665604591369629,9.109475135803224,2.931207656860352
1269,127800.0,-2.665604591369629,9.109475135803224,2.931207656860352
1270,127000.0,-2.3976082801818848,9.135796546936037,2.914458036422729
1271,127200.0,-2.455036163330078,9.269794464111328,3.0317063331604004
1272,127400.0,-2.823530912399292,8.803194999694824,2.900100946426392
1273,127600.0,-2.665604591369629,9.109475135803224,2.931207656860352
1274,127800.0,-2.665604591369629,9.109475135803224,2.931207656860352
1275,128000.0,-2.857030153274536,8.863015174865723,2.9048867225646973
1276,128200.0,-2.746960401535034,9.035298347473145,2.8713872432708736
1277,128400.0,-2.7661027908325195,9.059226989746094,3.10109806060791
1278,128600.0,-2.861815929412842,8.968299865722656,3.0101709365844727
1279,128800.0,-3.0101709365844727,8.697910308837889,3.259024381637573
1280,128000.0,-2.857030153274536,8.863015174865723,2.9048867225646973
1281,128200.0,-2.746960401535034,9.035298347473145,2.8713872432708736
1282,128400.0,-2.7661027908325195,9.059226989746094,3.10109806060791
1283,128600.0,-2.861815929412842,8.968299865722656,3.0101709365844727
1284,128800.0,-3.0101709365844727,8.697910308837889,3.259024381637573
1285,129000.0,-2.9862425327301025,8.872586250305176,3.2255251407623287
1286,129200.0,-2.9862425327301025,8.872586250305176,3.2255251407623287
1287,129400.0,-3.383451223373413,10.552348136901855,3.400200843811035
1288,129600.0,-5.111069202423097,5.304887294769287,-4.790431022644043
1289,129800.0,-5.2115678787231445,5.72841739654541,-5.0201416015625
1290,129000.0,-2.9862425327301025,8.872586250305176,3.2255251407623287
1291,129200.0,-2.9862425327301025,8.872586250305176,3.2255251407623287
1292,129400.0,-3.383451223373413,10.552348136901855,3.400200843811035
1293,129600.0,-5.111069202423097,5.304887294769287,-4.790431022644043
1294,129800.0,-5.2115678787231445,5.72841739654541,-5.0201416015625
1295,130000.0,-5.326423168182373,6.38165807723999,-5.206782341003418
1296,130200.0,-5.297709465026856,6.604190349578857,-4.8574299812316895
1297,130400.0,-5.187639236450195,6.898508071899414,-3.996013641357422
1298,130600.0,-4.981856822967528,8.188239097595215,-1.8448662757873533
1299,130800.0,-5.412564754486084,7.032505512237549,-4.048655986785889
1300,130000.0,-5.326423168182373,6.38165807723999,-5.206782341003418
1301,130200.0,-5.297709465026856,6.604190349578857,-4.8574299812316895
1302,130400.0,-5.187639236450195,6.898508071899414,-3.996013641357422
1303,130600.0,-4.981856822967528,8.188239097595215,-1.8448662757873533
1304,130800.0,-5.412564754486084,7.032505512237549,-4.048655986785889
1305,131000.0,-5.412564754486084,7.032505512237549,-4.048655986785889
1306,131200.0,-4.2065820693969735,6.343372344970702,-5.520241737365723
1307,131400.0,-4.0869412422180185,5.367101192474365,-5.288137912750244
1308,131600.0,-3.507878065109253,9.853643417358398,-1.8592231273651123
1309,131800.0,-3.0245277881622314,9.458827018737793,0.16031910479068756
1310,131000.0,-5.412564754486084,7.032505512237549,-4.048655986785889
1311,131200.0,-4.2065820693969735,6.343372344970702,-5.520241737365723
1312,131400.0,-4.0869412422180185,5.367101192474365,-5.288137912750244
1313,131600.0,-3.507878065109253,9.853643417358398,-1.8592231273651123
1314,131800.0,-3.0245277881622314,9.458827018737793,0.16031910479068756
1315,132000.0,-3.455235719680786,9.15493869781494,-0.8566305041313171
1316,132200.0,-3.206382274627685,9.205188751220703,-0.7800601720809937
1317,132400.0,-3.206382274627685,9.205188751220703,-0.7800601720809937
1318,132600.0,-2.995814085006714,9.379864692687988,0.00957129057496786
1319,132800.0,-3.1106693744659424,9.8871431350708,-0.413958340883255
1320,132000.0,-3.455235719680786,9.15493869781494,-0.8566305041313171
1321,132200.0,-3.206382274627685,9.205188751220703,-0.7800601720809937
1322,132400.0,-3.206382274627685,9.205188751220703,-0.7800601720809937
1323,132600.0,-2.995814085006714,9.379864692687988,0.00957129057496786
1324,132800.0,-3.1106693744659424,9.8871431350708,-0.413958340883255
1325,133000.0,-4.4027934074401855,7.81974458694458,-1.179661512374878
1326,133200.0,-5.010570526123047,8.549554824829103,-0.7609176039695741
1327,133400.0,-5.8337016105651855,8.080562591552733,2.5052852630615234
1328,133600.0,-5.656632423400879,6.465407371520996,1.643869161605835
1329,133800.0,-5.656632423400879,6.465407371520996,1.643869161605835
1330,133000.0,-4.4027934074401855,7.81974458694458,-1.179661512374878
1331,133200.0,-5.010570526123047,8.549554824829103,-0.7609176039695741
1332,133400.0,-5.8337016105651855,8.080562591552733,2.5052852630615234
1333,133600.0,-5.656632423400879,6.465407371520996,1.643869161605835
1334,133800.0,-5.656632423400879,6.465407371520996,1.643869161605835
1335,134000.0,-5.508277893066406,7.98963451385498,4.522434711456299
1336,134200.0,-5.4795637130737305,7.286144733428955,1.526620864868164
1337,134400.0,-5.800201892852782,7.300501823425293,-2.1942183971405034
1338,134600.0,-5.278566360473633,4.299902439117432,-6.527620315551758
1339,134800.0,-4.421936511993408,3.562912940979004,-7.898707389831543
1340,134000.0,-5.508277893066406,7.98963451385498,4.522434711456299
1341,134200.0,-5.4795637130737305,7.286144733428955,1.526620864868164
1342,134400.0,-5.800201892852782,7.300501823425293,-2.1942183971405034
1343,134600.0,-5.278566360473633,4.299902439117432,-6.527620315551758
1344,134800.0,-4.421936511993408,3.562912940979004,-7.898707389831543
1345,135000.0,-4.728217601776123,3.2757742404937744,-7.956134796142577
1346,135200.0,-4.728217601776123,3.2757742404937744,-7.956134796142577
1347,135400.0,-5.201996326446533,4.364508152008057,-7.0851478576660165
1348,135600.0,-4.680361270904541,3.620340585708618,-7.003791332244872
1349,135800.0,-3.799802303314209,1.1533405780792236,-8.812766075134277
1350,135000.0,-4.728217601776123,3.2757742404937744,-7.956134796142577
1351,135200.0,-4.728217601776123,3.2757742404937744,-7.956134796142577
1352,135400.0,-5.201996326446533,4.364508152008057,-7.0851478576660165
1353,135600.0,-4.680361270904541,3.620340585708618,-7.003791332244872
1354,135800.0,-3.799802303314209,1.1533405780792236,-8.812766075134277
1355,136000.0,-3.488735675811768,3.5341989994049072,-7.484748840332031
1356,136200.0,-2.699103832244873,9.74835968017578,-2.7876384258270264
1357,136400.0,-2.3306093215942383,10.286745071411133,1.0480562448501587
1358,136600.0,-2.1535403728485107,9.528220176696776,2.050648927688598
1359,136800.0,-2.569891452789306,9.20279598236084,3.0005996227264404
1360,136000.0,-3.488735675811768,3.5341989994049072,-7.484748840332031
1361,136200.0,-2.699103832244873,9.74835968017578,-2.7876384258270264
1362,136400.0,-2.3306093215942383,10.286745071411133,1.0480562448501587
1363,136600.0,-2.1535403728485107,9.528220176696776,2.050648927688598
1364,136800.0,-2.569891452789306,9.20279598236084,3.0005996227264404
1365,137000.0,-2.3880369663238525,10.00439167022705,3.1058835983276367
1366,137200.0,-2.3880369663238525,10.00439167022705,3.1058835983276367
1367,137400.0,-2.6799612045288086,10.152746200561523,2.8977081775665283
1368,137600.0,-3.818945169448853,6.972684860229492,-5.154139995574951
1369,137800.0,-5.608776092529297,4.366901397705078,-4.8741798400878915
1370,137000.0,-2.3880369663238525,10.00439167022705,3.1058835983276367
1371,137200.0,-2.3880369663238525,10.00439167022705,3.1058835983276367
1372,137400.0,-2.6799612045288086,10.152746200561523,2.8977081775665283
1373,137600.0,-3.818945169448853,6.972684860229492,-5.154139995574951
1374,137800.0,-5.608776092529297,4.366901397705078,-4.8741798400878915
1375,138000.0,-2.5938196182250977,8.25284481048584,-5.417350769042969
1376,138200.0,-2.1056838035583496,9.446864128112793,-4.9435715675354
1377,138400.0,-2.4741785526275635,8.499305725097656,-3.7782666683197017
1378,138600.0,-2.7661027908325195,10.28913688659668,-1.0959126949310305
1379,138800.0,-2.7661027908325195,10.28913688659668,-1.0959126949310305
1380,138000.0,-2.5938196182250977,8.25284481048584,-5.417350769042969
1381,138200.0,-2.1056838035583496,9.446864128112793,-4.9435715675354
1382,138400.0,-2.4741785526275635,8.499305725097656,-3.7782666683197017
1383,138600.0,-2.7661027908325195,10.28913688659668,-1.0959126949310305
1384,138800.0,-2.7661027908325195,10.28913688659668,-1.0959126949310305
1385,139000.0,-3.1441688537597656,9.11426067352295,0.5048855543136597
1386,139200.0,-2.9527432918548584,9.470791816711426,0.7728817462921143
1387,139400.0,-3.431307554244995,9.81535816192627,-0.7824530005455017
1388,139600.0,-4.000799655914307,7.240681171417236,-6.405585765838622
1389,139800.0,-4.053441524505615,2.8809585571289062,-7.657032012939452
1390,139000.0,-3.1441688537597656,9.11426067352295,0.5048855543136597
1391,139200.0,-2.9527432918548584,9.470791816711426,0.7728817462921143
1392,139400.0,-3.431307554244995,9.81535816192627,-0.7824530005455017
1393,139600.0,-4.000799655914307,7.240681171417236,-6.405585765838622
1394,139800.0,-4.053441524505615,2.8809585571289062,-7.657032012939452
1395,140000.0,-4.053441524505615,2.8809585571289062,-7.657032012939452
1396,140200.0,-2.5363922119140625,1.3830513954162598,-8.516055107116701
1397,140400.0,-1.6701902151107788,6.068198204040527,-6.501298904418945
1398,140600.0,-1.9286150932312007,10.439885139465332,-0.5048855543136597
1399,140800.0,-1.6510475873947144,9.619147300720217,3.936193227767944
1400,140000.0,-4.053441524505615,2.8809585571289062,-7.657032012939452
1401,140200.0,-2.5363922119140625,1.3830513954162598,-8.516055107116701
1402,140400.0,-1.6701902151107788,6.068198204040527,-6.501298904418945
1403,140600.0,-1.9286150932312007,10.439885139465332,-0.5048855543136597
1404,140800.0,-1.6510475873947144,9.619147300720217,3.936193227767944
1405,141000.0,-1.0671988725662231,8.408378601074219,5.450850009918213
1406,141200.0,-1.373480200767517,7.752745151519775,6.439085483551025
1407,141400.0,-1.5409778356552124,6.266802310943604,6.443871021270753
1408,141600.0,-1.5409778356552124,6.266802310943604,6.443871021270753
1409,141800.0,-1.244267821311951,6.27876615524292,7.944170951843263
1410,141000.0,-1.0671988725662231,8.408378601074219,5.450850009918213
1411,141200.0,-1.373480200767517,7.752745151519775,6.439085483551025
1412,141400.0,-1.5409778356552124,6.266802310943604,6.443871021270753
1413,141600.0,-1.5409778356552124,6.266802310943604,6.443871021270753
1414,141800.0,-1.244267821311951,6.27876615524292,7.944170951843263
1415,142000.0,-1.2538390159606934,6.159125804901122,7.4608211517333975
1416,142200.0,-1.196411371231079,6.903293132781982,7.369894027709961
1417,142400.0,-1.4165509939193726,6.853044033050537,6.795616626739503
1418,142600.0,-1.4261221885681152,7.094719409942628,6.659225463867188
1419,142800.0,-1.3208380937576294,8.226524353027344,6.02512788772583
1420,142000.0,-1.2538390159606934,6.159125804901122,7.4608211517333975
1421,142200.0,-1.196411371231079,6.903293132781982,7.369894027709961
1422,142400.0,-1.4165509939193726,6.853044033050537,6.795616626739503
1423,142600.0,-1.4261221885681152,7.094719409942628,6.659225463867188
1424,142800.0,-1.3208380937576294,8.226524353027344,6.02512788772583
1425,143000.0,-2.321038007736206,9.279366493225098,1.2490534782409668
1426,143200.0,-2.321038007736206,9.279366493225098,1.2490534782409668
1427,143400.0,-1.636690616607666,8.087740898132324,-4.989035129547119
1428,143600.0,-2.9623143672943115,7.286144733428955,-5.525027275085449
1429,143800.0,-3.680161237716675,4.488935470581055,-6.802794933319093
1430,143000.0,-2.321038007736206,9.279366493225098,1.2490534782409668
1431,143200.0,-2.321038007736206,9.279366493225098,1.2490534782409668
1432,143400.0,-1.636690616607666,8.087740898132324,-4.989035129547119
1433,143600.0,-2.9623143672943115,7.286144733428955,-5.525027275085449
1434,143800.0,-3.680161237716675,4.488935470581055,-6.802794933319093
1435,144000.0,-2.5124638080596924,1.7778673171997068,-8.568697929382324
1436,144200.0,-2.919243574142456,4.9435715675354,-7.549355506896973
1437,144400.0,-2.2157537937164307,9.882357597351074,-0.4498506784439087
1438,144600.0,-2.2157537937164307,9.882357597351074,-0.4498506784439087
1439,144800.0,-1.9142580032348635,9.418149948120117,2.2755744457244877
1440,144000.0,-2.5124638080596924,1.7778673171997068,-8.568697929382324
1441,144200.0,-2.919243574142456,4.9435715675354,-7.549355506896973
1442,144400.0,-2.2157537937164307,9.882357597351074,-0.4498506784439087
1443,144600.0,-2.2157537937164307,9.882357597351074,-0.4498506784439087
1444,144800.0,-1.9142580032348635,9.418149948120117,2.2755744457244877
1445,145000.0,-3.426522016525269,10.25802993774414,-0.6245267391204834
1446,145200.0,-3.976871252059937,4.417150497436523,-6.558726787567139
1447,145400.0,-4.034298896789552,2.390429735183716,-8.173882484436035
1448,145600.0,-2.1104695796966557,2.562713146209717,-9.774680137634276
1449,145800.0,-2.263610363006592,6.891329765319824,-6.369694232940674
1450,145000.0,-3.426522016525269,10.25802993774414,-0.6245267391204834
1451,145200.0,-3.976871252059937,4.417150497436523,-6.558726787567139
1452,145400.0,-4.034298896789552,2.390429735183716,-8.173882484436035
1453,145600.0,-2.1104695796966557,2.562713146209717,-9.774680137634276
1454,145800.0,-2.263610363006592,6.891329765319824,-6.369694232940674
1455,146000.0,-1.5122638940811155,10.138389587402344,0.5431707501411438
1456,146200.0,-1.5122638940811155,10.138389587402344,0.5431707501411438
1457,146400.0,-1.6989041566848757,8.879764556884766,2.8809585571289062
1458,146600.0,-1.6797614097595217,8.752944946289062,4.852644443511963
1459,146800.0,-2.0243279933929443,7.427321434020996,5.352744102478027
1460,146000.0,-1.5122638940811155,10.138389587402344,0.5431707501411438
1461,146200.0,-1.5122638940811155,10.138389587402344,0.5431707501411438
1462,146400.0,-1.6989041566848757,8.879764556884766,2.8809585571289062
1463,146600.0,-1.6797614097595217,8.752944946289062,4.852644443511963
1464,146800.0,-2.0243279933929443,7.427321434020996,5.352744102478027
1465,147000.0,-2.2061824798583984,9.327221870422363,5.687739372253418
1466,147200.0,-2.531606435775757,8.884550094604492,5.56331205368042
1467,147400.0,-2.2923240661621094,9.22433090209961,5.412564754486084
1468,147600.0,-2.2923240661621094,9.22433090209961,5.412564754486084
1469,147800.0,-2.522034883499145,9.238687515258787,5.553741931915283
1470,147000.0,-2.2061824798583984,9.327221870422363,5.687739372253418
1471,147200.0,-2.531606435775757,8.884550094604492,5.56331205368042
1472,147400.0,-2.2923240661621094,9.22433090209961,5.412564754486084
1473,147600.0,-2.2923240661621094,9.22433090209961,5.412564754486084
1474,147800.0,-2.522034883499145,9.238687515258787,5.553741931915283
1475,148000.0,-2.612962245941162,9.20279598236084,5.637490272521973
1476,148200.0,-2.445464611053467,9.162117958068848,5.307280540466309
1477,148400.0,-2.3018953800201416,10.088139533996582,6.857830047607423
1478,148600.0,-2.426322221755981,6.613761901855469,4.469792366027832
1479,148800.0,-2.6464619636535645,7.47517728805542,5.187639236450195
1480,148000.0,-2.612962245941162,9.20279598236084,5.637490272521973
1481,148200.0,-2.445464611053467,9.162117958068848,5.307280540466309
1482,148400.0,-2.3018953800201416,10.088139533996582,6.857830047607423
1483,148600.0,-2.426322221755981,6.613761901855469,4.469792366027832
1484,148800.0,-2.6464619636535645,7.47517728805542,5.187639236450195
1485,149000.0,-2.6464619636535645,7.47517728805542,5.187639236450195
1486,149200.0,-3.1585259437561035,7.9513492584228525,4.869394302368164
1487,149400.0,-2.4741785526275635,8.997013092041016,4.036691665649413
1488,149600.0,-3.292524099349976,8.949156761169434,4.280759334564209
1489,149800.0,-3.206382274627685,8.700303077697754,-1.871187210083008
1490,149000.0,-2.6464619636535645,7.47517728805542,5.187639236450195
1491,149200.0,-3.1585259437561035,7.9513492584228525,4.869394302368164
1492,149400.0,-2.4741785526275635,8.997013092041016,4.036691665649413
1493,149600.0,-3.292524099349976,8.949156761169434,4.280759334564209
1494,149800.0,-3.206382274627685,8.700303077697754,-1.871187210083008
1495,150000.0,-3.747160196304321,8.752944946289062,-1.6677974462509155
1496,150200.0,-3.747160196304321,8.752944946289062,-1.6677974462509155
1497,150400.0,-3.7280178070068364,8.798408508300781,-1.526620864868164
1498,150600.0,-3.5748770236968994,9.477970123291016,-2.0554347038269043
1499,150800.0,-4.043870449066162,8.798408508300781,-1.294516921043396
1500,150000.0,-3.747160196304321,8.752944946289062,-1.6677974462509155
1501,150200.0,-3.747160196304321,8.752944946289062,-1.6677974462509155
1502,150400.0,-3.7280178070068364,8.798408508300781,-1.526620864868164
1503,150600.0,-3.5748770236968994,9.477970123291016,-2.0554347038269043
1504,150800.0,-4.043870449066162,8.798408508300781,-1.294516921043396
1505,151000.0,-3.775874137878418,9.332008361816406,-1.5601203441619873
1506,151200.0,-3.905086755752564,8.678767204284668,-2.3617160320281982
1507,151400.0,-4.388436794281007,8.396414756774902,-1.94297194480896
1508,151600.0,-4.3166518211364755,8.853443145751953,-1.5385849475860596
1509,151800.0,-4.3166518211364755,8.853443145751953,-1.5385849475860596
1510,151000.0,-3.775874137878418,9.332008361816406,-1.5601203441619873
1511,151200.0,-3.905086755752564,8.678767204284668,-2.3617160320281982
1512,151400.0,-4.388436794281007,8.396414756774902,-1.94297194480896
1513,151600.0,-4.3166518211364755,8.853443145751953,-1.5385849475860596
1514,151800.0,-4.3166518211364755,8.853443145751953,-1.5385849475860596
1515,152000.0,-4.211367607116698,8.669197082519531,-1.6989041566848757
1516,152200.0,-4.3070807456970215,8.683552742004395,-1.5098710060119631
1517,152400.0,-4.254438400268556,8.743373870849611,-1.6342979669570925
1518,152600.0,-4.23529577255249,8.805586814880371,-1.7012970447540283
1519,152800.0,-4.130012035369873,8.690732002258299,-1.813759446144104
1520,152000.0,-4.211367607116698,8.669197082519531,-1.6989041566848757
1521,152200.0,-4.3070807456970215,8.683552742004395,-1.5098710060119631
1522,152400.0,-4.254438400268556,8.743373870849611,-1.6342979669570925
1523,152600.0,-4.23529577255249,8.805586814880371,-1.7012970447540283
1524,152800.0,-4.130012035369873,8.690732002258299,-1.813759446144104
1525,153000.0,-4.35972261428833,8.731410026550293,-1.765903115272522
1526,153200.0,-4.35972261428833,8.731410026550293,-1.765903115272522
1527,153400.0,-4.292723655700684,8.752944946289062,-1.727617859840393
1528,153600.0,-4.273581027984618,8.580661773681639,-1.8281164169311523
1529,153800.0,-4.407578945159912,8.537590980529785,-1.7730815410614014
1530,153000.0,-4.35972261428833,8.731410026550293,-1.765903115272522
1531,153200.0,-4.35972261428833,8.731410026550293,-1.765903115272522
1532,153400.0,-4.292723655700684,8.752944946289062,-1.727617859840393
1533,153600.0,-4.273581027984618,8.580661773681639,-1.8281164169311523
1534,153800.0,-4.407578945159912,8.537590980529785,-1.7730815410614014
1535,154000.0,-4.2687954902648935,8.872586250305176,-1.6773687601089478
1536,154200.0,-4.3310089111328125,8.525627136230469,-1.5050854682922363
1537,154400.0,-3.6610186100006095,8.374878883361816,-1.2921242713928225
1538,154600.0,-3.6610186100006095,8.374878883361816,-1.2921242713928225
1539,154800.0,-3.2973096370697017,9.899106979370117,-0.016749758273363113
1540,154000.0,-4.2687954902648935,8.872586250305176,-1.6773687601089478
1541,154200.0,-4.3310089111328125,8.525627136230469,-1.5050854682922363
1542,154400.0,-3.6610186100006095,8.374878883361816,-1.2921242713928225
1543,154600.0,-3.6610186100006095,8.374878883361816,-1.2921242713928225
1544,154800.0,-3.2973096370697017,9.899106979370117,-0.016749758273363113
1545,155000.0,-3.3308091163635254,9.480363845825195,-0.04785645008087158
1546,155200.0,-3.3308091163635254,9.375079154968262,0.2751745879650116
1547,155400.0,-3.2255251407623287,9.4660062789917,0.9834501147270204
1548,155600.0,-3.268595933914185,9.135796546936037,1.8616160154342647
1549,155800.0,-3.3068809509277344,9.05683422088623,2.3856441974639893
1550,155000.0,-3.3308091163635254,9.480363845825195,-0.04785645008087158
1551,155200.0,-3.3308091163635254,9.375079154968262,0.2751745879650116
1552,155400.0,-3.2255251407623287,9.4660062789917,0.9834501147270204
1553,155600.0,-3.268595933914185,9.135796546936037,1.8616160154342647
1554,155800.0,-3.3068809509277344,9.05683422088623,2.3856441974639893
1555,156000.0,-3.517449140548706,8.807979583740234,2.3736801147460938
1556,156200.0,-3.5030922889709477,9.001798629760742,2.522034883499145
1557,156400.0,-3.5030922889709477,9.001798629760742,2.522034883499145
1558,156600.0,-3.421736478805542,9.06401252746582,2.452643394470215
1559,156800.0,-3.421736478805542,8.994620323181152,2.0769701004028316
1560,156000.0,-3.517449140548706,8.807979583740234,2.3736801147460938
1561,156200.0,-3.5030922889709477,9.001798629760742,2.522034883499145
1562,156400.0,-3.5030922889709477,9.001798629760742,2.522034883499145
1563,156600.0,-3.421736478805542,9.06401252746582,2.452643394470215
1564,156800.0,-3.421736478805542,8.994620323181152,2.0769701004028316
1565,157000.0,-3.0963122844696045,9.284152030944824,2.5986053943634038
1566,157200.0,-4.512863159179688,11.32522964477539,1.940579175949097
1567,157400.0,-4.469792366027832,3.0077781677246094,-6.8099732398986825
1568,157600.0,-2.4741785526275635,2.945564746856689,-8.169095993041992
1569,157800.0,-2.526820659637451,2.6081764698028564,-8.556733131408691
1570,157000.0,-3.0963122844696045,9.284152030944824,2.5986053943634038
1571,157200.0,-4.512863159179688,11.32522964477539,1.940579175949097
1572,157400.0,-4.469792366027832,3.0077781677246094,-6.8099732398986825
1573,157600.0,-2.4741785526275635,2.945564746856689,-8.169095993041992
1574,157800.0,-2.526820659637451,2.6081764698028564,-8.556733131408691
1575,158000.0,-2.526820659637451,2.6081764698028564,-8.556733131408691
1576,158200.0,-3.747160196304321,2.644068956375122,-6.477370738983153
1577,158400.0,-1.9238293170928955,4.7234320640563965,-9.891928672790527
1578,158600.0,-4.613362312316895,3.603590488433838,-5.66620397567749
1579,158800.0,-2.2157537937164307,5.733203411102295,-8.843873023986816
1580,158000.0,-2.526820659637451,2.6081764698028564,-8.556733131408691
1581,158200.0,-3.747160196304321,2.644068956375122,-6.477370738983153
1582,158400.0,-1.9238293170928955,4.7234320640563965,-9.891928672790527
1583,158600.0,-4.613362312316895,3.603590488433838,-5.66620397567749
1584,158800.0,-2.2157537937164307,5.733203411102295,-8.843873023986816
1585,159000.0,-4.627718925476074,4.60857629776001,-5.3551368713378915
1586,159200.0,-5.986842632293701,6.719045639038086,-3.627518892288208
1587,159400.0,-5.986842632293701,6.719045639038086,-3.627518892288208
1588,159600.0,-4.929214477539063,6.541977405548097,-6.764510154724121
1589,159800.0,-5.661418437957764,3.716053485870361,-6.123232841491699
1590,159000.0,-4.627718925476074,4.60857629776001,-5.3551368713378915
1591,159200.0,-5.986842632293701,6.719045639038086,-3.627518892288208
1592,159400.0,-5.986842632293701,6.719045639038086,-3.627518892288208
1593,159600.0,-4.929214477539063,6.541977405548097,-6.764510154724121
1594,159800.0,-5.661418437957764,3.716053485870361,-6.123232841491699
1595,160000.0,-5.158926010131836,5.041677951812744,-7.121039390563965
1596,160200.0,-4.484149932861328,5.386244297027588,-6.087340831756593
1597,160400.0,-5.005784511566162,5.6997032165527335,-7.424928665161133
1598,160600.0,-4.666004180908203,5.565705299377441,-6.80040168762207
1599,160800.0,-4.603790760040283,5.218745708465576,-6.798008918762207
1600,160000.0,-5.158926010131836,5.041677951812744,-7.121039390563965
1601,160200.0,-4.484149932861328,5.386244297027588,-6.087340831756593
1602,160400.0,-5.005784511566162,5.6997032165527335,-7.424928665161133
1603,160600.0,-4.666004180908203,5.565705299377441,-6.80040168762207
1604,160800.0,-4.603790760040283,5.218745708465576,-6.798008918762207
1605,161000.0,-4.8574299812316895,4.23529577255249,-6.482156753540039
1606,161200.0,-5.929414749145508,5.460421085357666,-3.7639100551605225
1607,161400.0,-5.929414749145508,5.460421085357666,-3.7639100551605225
1608,161600.0,-4.53200626373291,9.104689598083496,0.42831525206565857
1609,161800.0,-4.211367607116698,9.554540634155273,0.34217363595962524
1610,161000.0,-4.8574299812316895,4.23529577255249,-6.482156753540039
1611,161200.0,-5.929414749145508,5.460421085357666,-3.7639100551605225
1612,161400.0,-5.929414749145508,5.460421085357666,-3.7639100551605225
1613,161600.0,-4.53200626373291,9.104689598083496,0.42831525206565857
1614,161800.0,-4.211367607116698,9.554540634155273,0.34217363595962524
1615,162000.0,-3.7663028240203857,9.20040225982666,1.368694543838501
1616,162200.0,-3.541377305984497,9.518648147583008,2.167897224426269
1617,162400.0,-4.862215518951416,9.607183456420898,1.835294842720032
1618,162600.0,-5.450850009918213,5.304887294769287,-4.508078098297119
1619,162800.0,-5.450850009918213,5.304887294769287,-4.508078098297119
1620,162000.0,-3.7663028240203857,9.20040225982666,1.368694543838501
1621,162200.0,-3.541377305984497,9.518648147583008,2.167897224426269
1622,162400.0,-4.862215518951416,9.607183456420898,1.835294842720032
1623,162600.0,-5.450850009918213,5.304887294769287,-4.508078098297119
1624,162800.0,-5.450850009918213,5.304887294769287,-4.508078098297119
1625,163000.0,-4.029513359069823,7.424928665161133,-5.008177757263184
1626,163200.0,-3.5557346343994136,5.682953834533691,-6.675975322723389
1627,163400.0,-4.890929222106934,6.27158784866333,-4.929214477539063
1628,163600.0,-4.737788677215576,8.446663856506348,-1.761117458343506
1629,163800.0,-3.531806230545044,9.973284721374512,0.8518448472023009
1630,163000.0,-4.029513359069823,7.424928665161133,-5.008177757263184
1631,163200.0,-3.5557346343994136,5.682953834533691,-6.675975322723389
1632,163400.0,-4.890929222106934,6.27158784866333,-4.929214477539063
1633,163600.0,-4.737788677215576,8.446663856506348,-1.761117458343506
1634,163800.0,-3.531806230545044,9.973284721374512,0.8518448472023009
1635,164000.0,-3.13938307762146,8.989834785461426,1.8951154947280884
1636,164200.0,-3.0005996227264404,7.891529560089111,2.0817556381225586
1637,164400.0,-2.71346116065979,8.659625053405763,3.0149567127227783
1638,164600.0,-2.71346116065979,8.659625053405763,3.0149567127227783
1639,164800.0,-2.9479575157165527,8.585447311401367,4.0941195487976065
1640,164000.0,-3.13938307762146,8.989834785461426,1.8951154947280884
1641,164200.0,-3.0005996227264404,7.891529560089111,2.0817556381225586
1642,164400.0,-2.71346116065979,8.659625053405763,3.0149567127227783
1643,164600.0,-2.71346116065979,8.659625053405763,3.0149567127227783
1644,164800.0,-2.9479575157165527,8.585447311401367,4.0941195487976065
1645,165000.0,-2.263610363006592,9.116654396057127,4.4721856117248535
1646,165200.0,-2.2205395698547363,7.5469627380371085,5.651846885681152
1647,165400.0,-2.2205395698547363,6.661618232727051,6.2500529289245605
1648,165600.0,-1.9764715433120728,6.453442573547362,6.752545356750487
1649,165800.0,-1.9286150932312007,6.647261142730713,7.152146816253662
1650,165000.0,-2.263610363006592,9.116654396057127,4.4721856117248535
1651,165200.0,-2.2205395698547363,7.5469627380371085,5.651846885681152
1652,165400.0,-2.2205395698547363,6.661618232727051,6.2500529289245605
1653,165600.0,-1.9764715433120728,6.453442573547362,6.752545356750487
1654,165800.0,-1.9286150932312007,6.647261142730713,7.152146816253662
1655,166000.0,-1.9286150932312007,7.2813591957092285,6.51326322555542
1656,166200.0,-1.9286150932312007,7.2813591957092285,6.51326322555542
1657,166400.0,-1.9238293170928955,7.8006019592285165,5.704488754272461
1658,166600.0,-1.8616160154342647,8.839086532592773,4.015156269073486
1659,166800.0,-2.7326035499572754,9.408578872680664,-0.19621144235134125
1660,166000.0,-1.9286150932312007,7.2813591957092285,6.51326322555542
1661,166200.0,-1.9286150932312007,7.2813591957092285,6.51326322555542
1662,166400.0,-1.9238293170928955,7.8006019592285165,5.704488754272461
1663,166600.0,-1.8616160154342647,8.839086532592773,4.015156269073486
1664,166800.0,-2.7326035499572754,9.408578872680664,-0.19621144235134125
1665,167000.0,-4.417150497436523,7.269395351409912,-5.61116886138916
1666,167200.0,-4.5032920837402335,3.936193227767944,-6.740581512451173
1667,167400.0,-3.9529430866241455,2.4047868251800537,-7.908278465270996
1668,167600.0,-3.9529430866241455,2.4047868251800537,-7.908278465270996
1669,167800.0,-3.9720854759216313,2.12961220741272,-8.197811126708983
1670,167000.0,-4.417150497436523,7.269395351409912,-5.61116886138916
1671,167200.0,-4.5032920837402335,3.936193227767944,-6.740581512451173
1672,167400.0,-3.9529430866241455,2.4047868251800537,-7.908278465270996
1673,167600.0,-3.9529430866241455,2.4047868251800537,-7.908278465270996
1674,167800.0,-3.9720854759216313,2.12961220741272,-8.197811126708983
1675,168000.0,-3.7184462547302246,6.654439926147461,-6.570690631866455
1676,168200.0,-3.201596736907959,9.169296264648438,-3.086741209030152
1677,168400.0,-2.9766712188720703,9.23390293121338,-1.5170495510101318
1678,168600.0,-2.9479575157165527,9.413363456726074,-0.7585247755050659
1679,168800.0,-3.062812805175781,9.468399047851562,-0.27278175950050354
1680,168000.0,-3.7184462547302246,6.654439926147461,-6.570690631866455
1681,168200.0,-3.201596736907959,9.169296264648438,-3.086741209030152
1682,168400.0,-2.9766712188720703,9.23390293121338,-1.5170495510101318
1683,168600.0,-2.9479575157165527,9.413363456726074,-0.7585247755050659
1684,168800.0,-3.062812805175781,9.468399047851562,-0.27278175950050354
1685,169000.0,-3.6945178508758554,8.85105037689209,-0.27756744623184204
1686,169200.0,-3.6945178508758554,8.85105037689209,-0.27756744623184204
1687,169400.0,-3.6753754615783687,9.652647018432617,-0.20578275620937347
1688,169600.0,-3.4983065128326416,9.817750930786133,-0.5551348924636841
1689,169800.0,-3.828516006469727,9.286543846130373,-0.6436693072319031
1690,169000.0,-3.6945178508758554,8.85105037689209,-0.27756744623184204
1691,169200.0,-3.6945178508758554,8.85105037689209,-0.27756744623184204
1692,169400.0,-3.6753754615783687,9.652647018432617,-0.20578275620937347
1693,169600.0,-3.4983065128326416,9.817750930786133,-0.5551348924636841
1694,169800.0,-3.828516006469727,9.286543846130373,-0.6436693072319031
1695,170000.0,-3.1489543914794917,9.53779125213623,-0.3158525824546814
1696,170200.0,-3.4073793888092037,8.779266357421875,-0.17946170270442965
1697,170400.0,-3.4073793888092037,8.779266357421875,-0.17946170270442965
1698,170600.0,-3.2446675300598145,8.784051895141603,2.431107759475708
1699,170800.0,-3.249453067779541,7.616354942321777,4.3860440254211435
1700,170000.0,-3.1489543914794917,9.53779125213623,-0.3158525824546814
1701,170200.0,-3.4073793888092037,8.779266357421875,-0.17946170270442965
1702,170400.0,-3.4073793888092037,8.779266357421875,-0.17946170270442965
1703,170600.0,-3.2446675300598145,8.784051895141603,2.431107759475708
1704,170800.0,-3.249453067779541,7.616354942321777,4.3860440254211435
1705,171000.0,-2.89052963256836,8.271987915039062,4.3932223320007315
1706,171200.0,-2.900100946426392,8.48016357421875,4.773681163787842
1707,171400.0,-3.2973096370697017,7.731209754943848,5.391028881072998
1708,171600.0,-2.8187451362609863,7.6522464752197275,4.689932346343994
1709,171800.0,-2.6560330390930176,8.973085403442383,6.434299945831299
1710,171000.0,-2.89052963256836,8.271987915039062,4.3932223320007315
1711,171200.0,-2.900100946426392,8.48016357421875,4.773681163787842
1712,171400.0,-3.2973096370697017,7.731209754943848,5.391028881072998
1713,171600.0,-2.8187451362609863,7.6522464752197275,4.689932346343994
1714,171800.0,-2.6560330390930176,8.973085403442383,6.434299945831299
1715,172000.0,-2.6560330390930176,8.973085403442383,6.434299945831299
1716,172200.0,-3.0101709365844727,8.84626579284668,1.325623631477356
1717,172400.0,-3.5700912475585938,9.020941734313963,0.9284151792526244
1718,172600.0,-3.34995174407959,9.365508079528807,0.5982056856155396
1719,172800.0,-4.110869407653809,8.748159408569336,0.4570291042327881
1720,172000.0,-2.6560330390930176,8.973085403442383,6.434299945831299
1721,172200.0,-3.0101709365844727,8.84626579284668,1.325623631477356
1722,172400.0,-3.5700912475585938,9.020941734313963,0.9284151792526244
1723,172600.0,-3.34995174407959,9.365508079528807,0.5982056856155396
1724,172800.0,-4.110869407653809,8.748159408569336,0.4570291042327881
1725,173000.0,-4.867001533508301,8.00638484954834,0.552742063999176
1726,173200.0,-4.742574691772461,7.355536937713622,-1.964507341384888
1727,173400.0,-4.29750919342041,8.755338668823242,-1.0360921621322632
1728,173600.0,-4.29750919342041,8.755338668823242,-1.0360921621322632
1729,173800.0,-4.163511276245116,8.949156761169434,-0.5048855543136597
1730,173000.0,-4.867001533508301,8.00638484954834,0.552742063999176
1731,173200.0,-4.742574691772461,7.355536937713622,-1.964507341384888
1732,173400.0,-4.29750919342041,8.755338668823242,-1.0360921621322632
1733,173600.0,-4.29750919342041,8.755338668823242,-1.0360921621322632
1734,173800.0,-4.163511276245116,8.949156761169434,-0.5048855543136597
1735,174000.0,-4.125226020812988,9.006584167480469,-0.2153540551662445
1736,174200.0,-3.9720854759216313,9.104689598083496,-0.002392822643741965
