timestamp,ax,ay,az
1475498775521,-2.9041666984558105,2.0847511291503906,8.69095230102539
1475498775521,-2.93888258934021,2.036268472671509,8.89146614074707
1475498775521,-3.7870285511016846,1.6753426790237427,8.383895874023438
1475498775693,-4.802768707275391,1.146224021911621,9.706093788146973
1475498775874,-2.478597402572632,1.711255669593811,8.910021781921387
1475498776067,-3.5224692821502686,0.790086567401886,7.215525150299072
1475498776259,-3.336320161819458,-0.9044097065925598,4.505289077758789
1475498776413,-2.807201385498047,-0.43694180250167847,10.423755645751953
1475498776594,-3.2980127334594727,0.7553706169128418,9.281721115112305
1475498776774,-2.9712042808532715,0.28371289372444153,8.394669532775879
1475498776954,-3.0166940689086914,0.06643909960985184,8.902240753173828
1475498777135,-3.9636008739471436,0.3794809579849243,9.028534889221191
1475498777316,-3.927687883377075,0.29568392038345337,7.822455406188965
1475498777497,-5.207987308502197,-0.38546648621559143,2.764704465866089
1475498777677,-10.955866813659668,-1.0205284357070923,1.269525408744812
1475498777858,-8.185775756835938,0.09696517139673233,4.810549736022949
1475498778040,-8.69334602355957,-0.19273324310779572,4.214992046356201
1475498778219,-8.973467826843262,0.13527239859104156,3.998915433883667
1475498778400,-8.53532886505127,-0.1149216815829277,4.326322555541992
1475498778577,-8.549694061279297,0.09876082092523575,4.271255970001221
1475498778760,-8.675390243530273,0.09516951441764832,4.288015365600586
1475498778937,-8.554482460021973,-0.06524199992418289,4.401141166687012
1475498779118,-8.614337921142578,0.005386953707784414,4.356249809265137
1475498779300,-8.546701431274414,0.06883329898118973,4.31135892868042
1475498779479,-8.557475090026855,-0.06404489278793335,4.353855609893799
1475498779658,-8.416815757751465,0.15981295704841614,4.458601951599121
1475498779842,-9.01476764678955,0.26396074891090393,3.9217023849487305
1475498780021,-7.4333977699279785,-0.3902548849582672,4.816535472869873
1475498780197,-7.463325023651123,0.13108254969120026,3.778648853302002
1475498780382,-10.277111053466797,0.33698388934135437,3.008314371109009
1475498780561,-8.133103370666504,-0.5003881454467773,3.7840356826782227
1475498780742,-7.5417351722717285,-1.0696096420288086,5.2672438621521
1475498780923,-8.51557731628418,-1.037886381149292,3.4805707931518555
1475498781106,-8.529942512512207,-0.9756371974945068,4.148552894592285
1475498781282,-8.558073997497559,-0.5650315880775452,4.194641590118408
1475498781463,-8.26358699798584,-0.8720879554748535,4.015674591064453
1475498781643,-8.765172004699707,-0.9870096445083618,3.6152446269989014
1475498781822,-8.262989044189453,-0.8649053573608398,3.936067581176758
1475498782003,-8.559869766235352,-1.3838485479354858,4.158129692077637
1475498782180,-8.62391471862793,-0.5015852451324463,4.173692226409912
1475498782364,-8.443750381469727,-1.2922704219818115,4.225766181945801
1475498782543,-8.623315811157227,-0.9864110946655273,4.302978992462158
1475498782723,-8.592789649963379,-1.0480618476867676,4.244320869445801
1475498782903,-8.544905662536621,-1.0336965322494507,4.279036998748779
1475498783085,-8.563461303710938,-1.0313023328781128,4.212597846984863
1475498783264,-8.58381175994873,-0.973242998123169,4.284423828125
1475498783445,-8.571242332458496,-1.0785878896713257,4.2515034675598145
1475498783627,-8.593987464904785,-1.0576386451721191,4.260481834411621
1475498783803,-8.559869766235352,-0.9487023949623108,4.285022258758545
1475498783984,-8.59997272491455,-1.0642226934432983,4.215590476989746
1475498784164,-8.54909610748291,-1.0755951404571533,4.2742486000061035
1475498784346,-8.575431823730469,-1.0247182846069336,4.258686065673828
1475498784525,-8.590993881225586,-1.1019313335418701,4.2293572425842285
1475498784702,-8.56765079498291,-1.094150185585022,4.265270233154297
1475498784884,-8.573038101196289,-1.0247182846069336,4.269460201263428
1475498785066,-8.552088737487793,-1.1366472244262695,4.261080265045166
1475498785244,-8.557475090026855,-1.0402805805206299,4.229955673217773
1475498785426,-8.53532886505127,-1.0420763492584229,4.238335609436035
1475498785606,-8.5903959274292,-1.0145429372787476,4.274847030639648
1475498785787,-8.564059257507324,-1.0749965906143188,4.288613796234131
1475498785967,-8.573038101196289,-1.01753568649292,4.266467571258545
1475498786149,-8.574234962463379,-1.0654197931289673,4.261080265045166
1475498786352,-8.609549522399902,-0.9906009435653687,4.216787815093994
1475498786507,-8.526948928833008,-1.0043675899505615,4.262876033782959
1475498786684,-8.591592788696289,-1.0480618476867676,4.183867454528809
1475498786868,-8.53532886505127,-1.170764684677124,4.244320869445801
1475498787047,-8.586804389953613,-1.1103110313415527,4.201225280761719
1475498787226,-8.564059257507324,-1.0336965322494507,4.211400985717773
1475498787407,-8.596980094909668,-1.0522516965866089,4.267664432525635
1475498787588,-8.51677417755127,-1.0905588865280151,4.219780445098877
1475498787767,-8.684368133544922,-1.0534487962722778,4.226963043212891
1475498787949,-8.49941635131836,-1.0313023328781128,4.213196277618408
1475498788128,-8.615534782409668,-1.060032844543457,4.19344425201416
1475498788308,-8.584410667419434,-1.1683704853057861,4.236539840698242
1475498788489,-8.58620548248291,-1.0402805805206299,4.222174644470215
1475498788666,-8.532336235046387,-1.0648212432861328,4.235941410064697
1475498788850,-8.630498886108398,-1.0606313943862915,4.241926670074463
1475498789028,-8.544307708740234,-1.0654197931289673,4.243124008178711
1475498789207,-8.627506256103516,-1.1294646263122559,4.20421838760376
1475498789388,-8.539519309997559,-1.171961784362793,4.203619480133057
1475498789574,-8.392873764038086,-1.0875661373138428,4.41969633102417
1475498789747,-8.696338653564453,-1.1025298833847046,4.144362926483154
1475498789931,-8.473678588867188,-1.0558429956436157,4.4077253341674805
1475498790110,-8.669404029846191,-1.1456254720687866,4.215590476989746
1475498790292,-8.489839553833008,-1.0779893398284912,4.410119533538818
1475498790470,-8.579023361206055,-1.1815385818481445,4.250306606292725
1475498790653,-8.550890922546387,-1.128267526626587,4.314351558685303
1475498790832,-8.669404029846191,-1.2132617235183716,4.241328239440918
1475498791012,-8.446743965148926,-0.9672574996948242,4.367023944854736
1475498791188,-8.55268669128418,-1.1540051698684692,4.23893404006958
1475498791373,-8.534730911254883,-1.1402385234832764,4.262876033782959
1475498791550,-8.520365715026855,-1.1348515748977661,4.284423828125
1475498791730,-8.575431823730469,-1.1546037197113037,4.19344425201416
1475498791911,-8.547300338745117,-1.184531331062317,4.28322696685791
1475498792093,-8.581417083740234,-1.1426327228546143,4.23893404006958
1475498792269,-8.585607528686523,-1.013944387435913,4.3173441886901855
1475498792453,-8.62391471862793,-1.1755530834197998,4.176684856414795
1475498792630,-8.517372131347656,-1.1180921792984009,4.303577423095703
1475498792811,-8.76577091217041,-0.993593692779541,4.220378875732422
1475498792990,-8.560467720031738,-1.1420341730117798,4.304176330566406
1475498793173,-8.58381175994873,-1.136048674583435,4.2951979637146
1475498793353,-8.529343605041504,-1.2557587623596191,4.257489204406738
1475498793533,-8.613739013671875,-1.0013748407363892,4.211400985717773
1475498793711,-8.513182640075684,-1.1342530250549316,4.26826286315918
1475498793893,-8.64246940612793,-1.0630255937576294,4.225167274475098
1475498794074,-8.435371398925781,-1.1001356840133667,4.249109268188477
1475498794252,-8.637083053588867,-1.1097124814987183,4.241926670074463
1475498794434,-8.532336235046387,-1.1815385818481445,4.277241230010986
1475498794615,-8.608352661132813,-1.016338586807251,4.306570529937744
1475498794792,-8.494627952575684,-1.2102689743041992,4.2993879318237305
1475498794980,-8.573038101196289,-1.0761936902999878,4.250306606292725
1475498795156,-8.549694061279297,-1.1569979190826416,4.258087635040283
1475498795334,-8.580819129943848,-1.104325532913208,4.2544965744018555
1475498795516,-8.595782279968262,-1.0672154426574707,4.229955673217773
1475498795696,-8.544307708740234,-1.1563993692398071,4.279635429382324
1475498795876,-8.570643424987793,-1.047463297843933,4.235941410064697
1475498796056,-8.51677417755127,-1.1635819673538208,4.223371982574463
1475498796233,-8.588001251220703,-1.0732009410858154,4.268861770629883
1475498796416,-8.516175270080566,-1.2084733247756958,4.246715068817139
1475498796597,-8.58500862121582,-1.094150185585022,4.2515034675598145
1475498796773,-8.560467720031738,-1.1091139316558838,4.263474464416504
1475498796955,-8.571242332458496,-1.1581950187683105,4.285621166229248
1475498797136,-8.64366626739502,-1.0307037830352783,4.288613796234131
1475498797318,-8.526350975036621,-1.183334231376648,4.294599533081055
1475498797497,-8.561066627502441,-1.1085153818130493,4.246715068817139
1475498797678,-8.556278228759766,-1.1180921792984009,4.279635429382324
1475498797857,-8.541314125061035,-1.0642226934432983,4.23773717880249
1475498798038,-8.559270858764648,-1.146224021911621,4.225766181945801
1475498798223,-8.540117263793945,-1.0893617868423462,4.270657062530518
1475498798398,-8.553285598754883,-1.193509578704834,4.268861770629883
1475498798576,-8.56765079498291,-1.148618221282959,4.2724528312683105
1475498798755,-8.571840286254883,-1.1204863786697388,4.204816818237305
1475498798938,-8.523956298828125,-1.1982979774475098,4.259284973144531
1475498799117,-8.579023361206055,-1.0660183429718018,4.258686065673828
1475498799297,-8.504802703857422,-1.1797429323196411,4.23893404006958
1475498799478,-8.574234962463379,-1.0720038414001465,4.278438568115234
1475498799660,-8.555679321289063,-1.062427043914795,4.258087635040283
1475498799836,-8.56645393371582,-1.091755986213684,4.289810657501221
1475498800020,-8.62630844116211,-1.1264718770980835,4.267664432525635
1475498800199,-8.53293514251709,-1.1013327836990356,4.275445461273193
1475498800381,-8.544307708740234,-1.215057373046875,4.252102375030518
1475498800558,-8.564059257507324,-1.1174936294555664,4.2509050369262695
1475498800741,-8.577826499938965,-1.104325532913208,4.246116638183594
1475498800920,-8.553285598754883,-1.1797429323196411,4.268861770629883
1475498801100,-8.613141059875488,-1.028908133506775,4.315548419952393
1475498801278,-8.531139373779297,-1.1755530834197998,4.256890773773193
1475498801461,-8.573038101196289,-1.0989385843276978,4.2550950050354
1475498801641,-8.558672904968262,-1.092953085899353,4.260481834411621
1475498801817,-8.485051155090332,-1.1162965297698975,4.2515034675598145
1475498802000,-8.591592788696289,-1.114500880241394,4.253897666931152
1475498802183,-8.549694061279297,-1.1426327228546143,4.276642799377441
1475498802362,-8.58500862121582,-1.1079168319702148,4.250306606292725
1475498802542,-8.60236644744873,-1.095347285270691,4.302380561828613
1475498802722,-8.598176956176758,-1.062427043914795,4.236539840698242
1475498802901,-8.533533096313477,-1.1222820281982422,4.2760443687438965
1475498803082,-8.58919906616211,-1.1737574338912964,4.206612586975098
1475498803261,-8.562263488769531,-1.1240776777267456,4.25629186630249
1475498803442,-8.562862396240234,-1.1180921792984009,4.282628059387207
1475498803623,-8.544307708740234,-1.1881226301193237,4.253299236297607
1475498803800,-8.560467720031738,-1.0319008827209473,4.255693435668945
1475498803983,-8.529942512512207,-1.1893197298049927,4.24970817565918
1475498804163,-8.531737327575684,-1.1162965297698975,4.274847030639648
1475498804342,-8.602965354919434,-0.9762357473373413,4.293402194976807
1475498804523,-8.50061321258545,-1.148618221282959,4.224568843841553
1475498804704,-8.593388557434082,-1.139639973640442,4.286818027496338
1475498804883,-8.596980094909668,-1.105522632598877,4.260481834411621
1475498805063,-8.591592788696289,-1.0857704877853394,4.262876033782959
1475498805244,-8.500014305114746,-1.1378443241119385,4.2730512619018555
1475498805425,-8.593388557434082,-1.0636241436004639,4.2742486000061035
1475498805604,-8.501810073852539,-1.1019313335418701,4.2730512619018555
1475498805782,-8.625710487365723,-1.0797849893569946,4.247912406921387
1475498805964,-8.507795333862305,-1.0893617868423462,4.261679172515869
1475498806146,-8.598775863647461,-1.138442873954773,4.207211017608643
1475498806322,-8.529942512512207,-1.1186907291412354,4.288015365600586
1475498806505,-8.607154846191406,-1.0456676483154297,4.243124008178711
1475498806686,-8.532336235046387,-1.1342530250549316,4.332906723022461
1475498806863,-8.650849342346191,-1.0959458351135254,4.277241230010986
1475498807046,-8.631096839904785,-1.236605167388916,4.14915132522583
1475498807226,-8.537124633789063,-1.0636241436004639,4.211400985717773
1475498807407,-8.67598819732666,-1.149815320968628,4.2293572425842285
1475498807586,-8.559270858764648,-1.1534066200256348,4.285022258758545
1475498807764,-8.60236644744873,-1.1713632345199585,4.1862616539001465
1475498807946,-8.562263488769531,-1.2186486721038818,4.271255970001221
1475498808127,-8.60236644744873,-1.1001356840133667,4.229955673217773
1475498808305,-8.628104209899902,-1.1061211824417114,4.241926670074463
1475498808488,-8.564059257507324,-1.1516109704971313,4.226963043212891
1475498808667,-8.579023361206055,-1.260547161102295,4.194042682647705
1475498808845,-8.580819129943848,-1.1522095203399658,4.3179426193237305
1475498809028,-8.624512672424316,-1.1264718770980835,4.23773717880249
1475498809207,-8.538321495056152,-1.1689690351486206,4.271854400634766
1475498809386,-8.689156532287598,-1.0791864395141602,4.2724528312683105
1475498809568,-8.42160415649414,-1.1438298225402832,4.268861770629883
1475498809748,-8.529942512512207,-1.1647791862487793,4.192845821380615
1475498809929,-8.558672904968262,-1.1228805780410767,4.305373191833496
1475498810108,-8.570643424987793,-1.0684125423431396,4.3406877517700195
1475498810287,-8.5287446975708,-1.2372037172317505,4.282628059387207
1475498810468,-8.531737327575684,-1.1988965272903442,4.2975921630859375
1475498810649,-8.468291282653809,-1.1366472244262695,4.258087635040283
1475498810826,-8.364742279052734,-1.1438298225402832,4.383184909820557
1475498811009,-8.664017677307129,-1.1629834175109863,4.226963043212891
1475498811189,-8.3707275390625,-1.204882025718689,4.466981887817383
1475498811367,-8.559869766235352,-1.1540051698684692,4.217984676361084
1475498811548,-8.517372131347656,-1.138442873954773,4.36343240737915
1475498811732,-8.443750381469727,-1.1192892789840698,4.357447147369385
1475498811908,-8.595782279968262,-1.1480196714401245,4.344278812408447
1475498812090,-8.40843677520752,-0.9989806413650513,4.445434093475342
1475498812271,-8.623315811157227,-1.1917139291763306,4.171896457672119
1475498812451,-8.700529098510742,-1.2384008169174194,4.091092109680176
1475498812632,-8.471283912658691,-1.0977414846420288,4.49870491027832
1475498812818,-8.552088737487793,-0.9068039059638977,4.213795185089111
1475498812989,-8.614935874938965,-1.4712369441986084,4.018667697906494
1475498813175,-8.595184326171875,-0.9720458984375,4.337695121765137
1475498813349,-8.493430137634277,-1.025316834449768,4.19224739074707
1475498813533,-8.652645111083984,-1.456871747970581,4.064755916595459
1475498813712,-8.665214538574219,-1.2527660131454468,3.9031472206115723
1475498813889,-8.245630264282227,-1.1408370733261108,4.526238441467285
1475498814071,-8.694543838500977,-1.1354501247406006,4.265270233154297
1475498814253,-8.297704696655273,-1.3754688501358032,4.44782829284668
1475498814430,-8.527547836303711,-1.1492167711257935,4.423287868499756
1475498814612,-8.620922088623047,-1.1982979774475098,4.355651378631592
1475498814793,-8.146869659423828,-1.27191960811615,4.434061527252197
1475498814973,-8.75080680847168,-1.37906014919281,4.388571739196777
1475498815153,-8.474276542663574,-1.2234370708465576,4.426280498504639
1475498815331,-8.7669677734375,-1.347337007522583,3.801992416381836
1475498815513,-8.577826499938965,-1.325789213180542,4.090493679046631
1475498815694,-8.590993881225586,-0.9792284965515137,3.997119665145874
1475498815871,-8.105569839477539,-1.0259153842926025,4.124610900878906
1475498816054,-8.78432559967041,-1.2330138683319092,4.165910720825195
1475498816234,-8.882488250732422,-1.1210849285125732,4.001908302307129
1475498816413,-9.174580574035645,-1.4586673974990845,4.173093795776367
1475498816594,-8.734646797180176,-0.7122750282287598,3.6727054119110107
1475498816775,-8.346785545349121,-1.7310078144073486,3.95641827583313
1475498816958,-8.67718505859375,-1.2838906049728394,4.077325344085693
1475498817135,-8.224681854248047,-1.4502876996994019,3.8821980953216553
1475498817317,-6.991667747497559,-1.5921441316604614,3.821744441986084
1475498817496,-8.984241485595703,-1.2934675216674805,4.730942726135254
1475498817675,-8.634688377380371,-1.6873136758804321,4.524442672729492
1475498817853,-8.550890922546387,-1.5855600833892822,3.843292236328125
1475498818036,-8.71369743347168,-1.3868412971496582,4.315548419952393
1475498818217,-8.547300338745117,-1.7764976024627686,4.039616584777832
1475498818393,-8.583212852478027,-1.0678139925003052,4.148552894592285
1475498818576,-8.869319915771484,-1.7513585090637207,3.979761838912964
1475498818756,-8.988431930541992,-1.688510775566101,3.375824451446533
1475498818935,-8.22228717803955,-1.3210008144378662,4.393958568572998
1475498819117,-8.900444984436035,-1.4814122915267944,3.9707834720611572
1475498819297,-8.416815757751465,-1.6759412288665771,4.160523891448975
1475498819478,-8.750208854675293,-1.5538369417190552,4.006696701049805
1475498819658,-8.4108304977417,-1.3551181554794312,4.524442672729492
1475498819835,-8.684967041015625,-1.3251906633377075,4.220378875732422
1475498820015,-8.191162109375,-1.1941081285476685,4.422090530395508
1475498820194,-8.36953067779541,-1.2336124181747437,4.401739597320557
1475498820374,-8.285733222961426,-1.260547161102295,4.538209438323975
1475498820556,-8.647856712341309,-2.278681516647339,4.432864665985107
1475498820739,-8.695740699768066,-1.3946224451065063,4.103063106536865
1475498820916,-8.558672904968262,-1.7423802614212036,3.716399669647217
1475498821099,-8.370129585266113,-1.8309657573699951,4.004900932312012
1475498821278,-8.30249309539795,-1.7220295667648315,4.0970778465271
1475498821457,-8.884284019470215,-1.8716671466827393,4.115034103393555
1475498821639,-9.151836395263672,-1.4867992401123047,3.7636849880218506
1475498821820,-8.91301441192627,-1.8453309535980225,3.442862033843994
1475498821998,-7.745242595672607,-1.6962919235229492,3.6577415466308594
1475498822180,-9.170391082763672,-1.5257049798965454,3.843890905380249
1475498822362,-8.431779861450195,-1.7711106538772583,3.93367338180542
1475498822542,-8.224082946777344,-2.2870612144470215,4.019864559173584
1475498822720,-8.467693328857422,-1.7118542194366455,4.0964789390563965
1475498822899,-8.60655689239502,-1.7016788721084595,4.16531229019165
1475498823079,-8.425195693969727,-2.1541829109191895,4.000710964202881
1475498823260,-8.073247909545898,-1.857301950454712,4.549582004547119
1475498823439,-8.491036415100098,-1.8818424940109253,4.277241230010986
1475498823619,-8.220491409301758,-1.9129672050476074,4.519654273986816
1475498823802,-8.407238960266113,-1.9303251504898071,4.19344425201416
1475498823978,-8.3120698928833,-1.9357120990753174,4.420893669128418
1475498824163,-8.387487411499023,-1.9608511924743652,4.340089321136475
1475498824342,-8.365341186523438,-1.856104850769043,4.462193489074707
1475498824525,-8.352770805358887,-1.9806033372879028,4.359242916107178
1475498824702,-8.386289596557617,-1.9093759059906006,4.348468780517578
1475498824897,-8.367136001586914,-1.954267144203186,4.321534156799316
1475498825059,-8.348581314086914,-1.9476830959320068,4.367023944854736
1475498825245,-8.372523307800293,-1.9410990476608276,4.359242916107178
1475498825420,-8.29710578918457,-1.7220295667648315,4.204816818237305
1475498825603,-8.605957984924316,-1.6639702320098877,4.355052947998047
1475498825783,-8.22348403930664,-1.9524714946746826,4.374804973602295
1475498825960,-8.398261070251465,-1.7938556671142578,4.4077253341674805
1475498826142,-8.3521728515625,-2.0183119773864746,4.370016574859619
1475498826323,-8.33840560913086,-1.7920600175857544,4.432265758514404
1475498826502,-8.33720874786377,-1.9590555429458618,4.359242916107178
1475498826684,-8.310873031616211,-1.92134690284729,4.309563159942627
1475498826864,-8.407238960266113,-2.0171148777008057,4.291007995605469
1475498827044,-8.383296966552734,-1.8584990501403809,4.355651378631592
1475498827224,-8.463502883911133,-1.8950105905532837,4.372410774230957
1475498827404,-8.291120529174805,-2.032078742980957,4.451419353485107
1475498827583,-8.347982406616211,-1.9231425523757935,4.373009204864502
1475498827763,-8.15764331817627,-2.1314380168914795,4.476558685302734
1475498827948,-8.662819862365723,-1.932719349861145,4.301782131195068
1475498828125,-8.254609107971191,-2.0147206783294678,4.398148536682129
1475498828305,-8.456320762634277,-1.886630892753601,4.344278812408447
1475498828482,-8.29710578918457,-2.006340980529785,4.411915302276611
1475498828666,-8.227075576782227,-1.9267338514328003,4.43585729598999
1475498828845,-8.324040412902832,-1.890222191810608,4.373608112335205
1475498829023,-8.438364028930664,-1.86508309841156,4.389768600463867
1475498829204,-8.29830265045166,-1.909974455833435,4.454412460327148
1475498829388,-8.422801971435547,-1.9841946363449097,4.322731018066406
1475498829565,-8.339004516601563,-1.9506758451461792,4.4508209228515625
1475498829747,-8.434772491455078,-1.965639591217041,4.361637115478516
1475498829925,-8.347982406616211,-1.9434932470321655,4.39036750793457
1475498830108,-8.380304336547852,-1.9752163887023926,4.334103584289551
1475498830284,-8.402450561523438,-1.8842366933822632,4.434061527252197
1475498830474,-8.367734909057617,-1.965639591217041,4.36343240737915
1475498830646,-8.373122215270996,-1.9345149993896484,4.3640313148498535
1475498830828,-8.382699012756348,-1.8848352432250977,4.3861775398254395
1475498831005,-8.355764389038086,-1.9039889574050903,4.429871559143066
1475498831189,-8.388684272766113,-1.9195512533187866,4.392761707305908
1475498831368,-8.335412979125977,-1.9500772953033447,4.377199172973633
1475498831545,-8.396465301513672,-1.9512743949890137,4.31255578994751
1475498831729,-8.33720874786377,-1.9722236394882202,4.37420654296875
1475498831908,-8.389283180236816,-1.9285295009613037,4.36343240737915
1475498832088,-8.365341186523438,-1.9255367517471313,4.37420654296875
1475498832267,-8.325238227844238,-1.9333178997039795,4.3209357261657715
1475498832450,-8.35336971282959,-1.9632453918457031,4.352060317993164
1475498832626,-8.339603424072266,-1.9105730056762695,4.351461410522461
1475498832810,-8.35097599029541,-1.9853917360305786,4.343680381774902
1475498832987,-8.374917984008789,-1.9321208000183105,4.381987571716309
1475498833199,-8.398859977722168,-1.9039889574050903,4.352060317993164
1475498833351,-8.35456657409668,-1.92134690284729,4.373608112335205
1475498833527,-8.404845237731934,-1.954267144203186,4.298190593719482
1475498833715,-8.358158111572266,-1.9602526426315308,4.370615005493164
1475498833890,-8.387487411499023,-1.9231425523757935,4.357447147369385
1475498834069,-8.362347602844238,-1.9470845460891724,4.357447147369385
1475498834252,-8.335412979125977,-1.9273324012756348,4.3209357261657715
1475498834432,-8.376712799072266,-1.9716250896453857,4.332307815551758
1475498834611,-8.377311706542969,-1.9285295009613037,4.352658748626709
1475498834792,-8.435969352722168,-1.886630892753601,4.379593372344971
1475498834971,-8.340201377868652,-1.9662381410598755,4.376002311706543
1475498835153,-8.376712799072266,-1.9219454526901245,4.347271919250488
1475498835328,-8.361749649047852,-1.9620482921600342,4.351461410522461
1475498835509,-8.389881134033203,-1.9117701053619385,4.392761707305908
1475498835692,-8.380304336547852,-1.8932149410247803,4.3394904136657715
1475498835873,-8.333019256591797,-2.0039467811584473,4.351461410522461
1475498836049,-8.380304336547852,-1.8896236419677734,4.41969633102417
1475498836233,-8.346187591552734,-1.9698294401168823,4.343081951141357
1475498836413,-8.348581314086914,-1.9165585041046143,4.376600742340088
1475498836592,-8.356362342834473,-1.9716250896453857,4.3406877517700195
1475498836773,-8.374917984008789,-1.933916449546814,4.352658748626709
1475498836956,-8.399457931518555,-1.9261353015899658,4.340089321136475
1475498837133,-8.355764389038086,-1.956661343574524,4.3825860023498535
1475498837314,-8.417414665222168,-1.9422961473464966,4.314949989318848
1475498837511,-8.373122215270996,-1.9674352407455444,4.355651378631592
1475498837673,-8.38569164276123,-1.9261353015899658,4.378396511077881
1475498837853,-8.374917984008789,-1.988384485244751,4.353855609893799
1475498838032,-8.376712799072266,-1.8812439441680908,4.439448356628418
1475498838215,-8.357559204101563,-1.9800047874450684,4.334702014923096
1475498838394,-8.339004516601563,-1.9410990476608276,4.361637115478516
1475498838574,-8.367734909057617,-1.9596540927886963,4.367023944854736
1475498838753,-8.31326675415039,-1.9363106489181519,4.304176330566406
1475498838935,-8.33601188659668,-1.9674352407455444,4.334702014923096
1475498839114,-8.407238960266113,-2.0165164470672607,4.359841346740723
1475498839294,-8.374319076538086,-1.92134690284729,4.3610382080078125
1475498839476,-8.355764389038086,-1.9446903467178345,4.310760021209717
1475498839655,-8.3120698928833,-1.978209137916565,4.367023944854736
1475498839836,-8.356362342834473,-1.9147628545761108,4.377797603607178
1475498840013,-8.373720169067383,-1.899200439453125,4.377797603607178
1475498840197,-8.307281494140625,-1.9309237003326416,4.371213912963867
1475498840376,-8.374319076538086,-1.9482816457748413,4.368220806121826
1475498840554,-8.350377082824707,-1.9363106489181519,4.366425514221191
1475498840736,-8.340201377868652,-1.998559832572937,4.329315185546875
1475498840917,-8.347982406616211,-1.9818004369735718,4.354454517364502
1475498841094,-8.366538047790527,-1.92134690284729,4.305971622467041
1475498841278,-8.325836181640625,-2.007538080215454,4.371213912963867
1475498841457,-8.383895874023438,-1.8351556062698364,4.420893669128418
1475498841636,-8.365341186523438,-1.9650410413742065,4.381389141082764
1475498841817,-8.362347602844238,-1.935113549232483,4.393958568572998
1475498841995,-8.375515937805176,-1.9045875072479248,4.356249809265137
1475498842176,-8.310274124145508,-1.9393033981323242,4.333505153656006
1475498842357,-8.38688850402832,-1.9476830959320068,4.31255578994751
1475498842539,-8.359354972839355,-1.9249382019042969,4.357447147369385
1475498842718,-8.307879447937012,-2.0189106464385986,4.338293552398682
1475498842898,-8.38449478149414,-1.9422961473464966,4.334702014923096
1475498843076,-8.333617210388184,-1.9470845460891724,4.371812343597412
1475498843258,-8.359953880310059,-2.0045454502105713,4.35804557800293
1475498843439,-8.467693328857422,-1.9081788063049316,4.370615005493164
1475498843620,-8.345588684082031,-2.0027496814727783,4.35684871673584
1475498843797,-8.27855110168457,-1.9638439416885376,4.355651378631592
1475498843980,-8.331223487854004,-1.977012038230896,4.3424835205078125
1475498844159,-8.245630264282227,-1.9794062376022339,4.3628339767456055
1475498844341,-8.435969352722168,-1.9584569931030273,4.321534156799316
1475498844520,-8.382699012756348,-1.8944120407104492,4.398746967315674
1475498844700,-8.373122215270996,-2.0434510707855225,4.296993732452393
1475498844880,-8.355764389038086,-1.9590555429458618,4.381389141082764
1475498845058,-8.412027359008789,-1.9171570539474487,4.336497783660889
1475498845242,-8.291719436645508,-2.0422539710998535,4.380191802978516
1475498845419,-8.328828811645508,-1.913565754890442,4.4304704666137695
1475498845598,-8.31326675415039,-1.9572598934173584,4.393360137939453
1475498845783,-8.328230857849121,-1.96683669090271,4.361637115478516
1475498845962,-8.328230857849121,-1.955464243888855,4.416105270385742
1475498846140,-8.289324760437012,-1.9345149993896484,4.345476150512695
1475498846323,-8.325836181640625,-2.0231003761291504,4.3394904136657715
1475498846502,-8.327631950378418,-1.9434932470321655,4.40233850479126
1475498846682,-8.385092735290527,-1.9704279899597168,4.369418144226074
1475498846863,-8.26119327545166,-1.9303251504898071,4.399944305419922
1475498847044,-8.330026626586914,-2.0189106464385986,4.35804557800293
1475498847224,-8.327033042907715,-1.9650410413742065,4.410717964172363
1475498847403,-8.345588684082031,-1.9949685335159302,4.370016574859619
1475498847580,-8.267777442932129,-1.922544002532959,4.373608112335205
1475498847763,-8.365939140319824,-2.050633668899536,4.357447147369385
1475498847944,-8.276755332946777,-1.9548656940460205,4.441244125366211
1475498848121,-8.33840560913086,-1.922544002532959,4.377199172973633
1475498848301,-8.403648376464844,-1.935113549232483,4.4304704666137695
1475498848484,-8.434173583984375,-2.006340980529785,4.329315185546875
1475498848661,-8.321646690368652,-2.0171148777008057,4.360439777374268
1475498848844,-8.44554615020752,-1.9129672050476074,4.389170169830322
1475498849026,-8.26358699798584,-1.933916449546814,4.420893669128418
1475498849203,-8.455122947692871,-1.945288896560669,4.270657062530518
1475498849385,-8.221090316772461,-2.01232647895813,4.477755546569824
1475498849564,-8.464101791381836,-2.0410568714141846,4.275445461273193
1475498849746,-8.270770072937012,-1.9087773561477661,4.4975080490112305
1475498849925,-8.382100105285645,-2.005143880844116,4.315548419952393
1475498850102,-8.283937454223633,-1.954267144203186,4.40892219543457
1475498850285,-8.307281494140625,-1.954267144203186,4.35804557800293
1475498850467,-8.33720874786377,-2.053626537322998,4.353257179260254
1475498850644,-8.294113159179688,-1.9788076877593994,4.43705415725708
1475498850827,-8.347384452819824,-2.029684543609619,4.379593372344971
1475498851006,-8.310873031616211,-1.98958158493042,4.409521102905273
1475498851183,-8.385092735290527,-1.9518729448318481,4.351461410522461
1475498851367,-8.310274124145508,-2.0679917335510254,4.336497783660889
1475498851547,-8.296507835388184,-1.9399019479751587,4.462791919708252
1475498851728,-8.310873031616211,-1.9357120990753174,4.426878929138184
1475498851907,-8.40185260772705,-2.0416555404663086,4.349666118621826
1475498852090,-8.268375396728516,-1.9458874464035034,4.445434093475342
1475498852267,-8.341997146606445,-1.9764134883880615,4.32871675491333
1475498852448,-8.344989776611328,-1.9967641830444336,4.344278812408447
1475498852625,-8.27974796295166,-1.974617838859558,4.444835662841797
1475498852808,-8.400056838989258,-1.954267144203186,4.355052947998047
1475498852987,-8.30249309539795,-1.9560627937316895,4.41969633102417
1475498853164,-8.382100105285645,-1.9482816457748413,4.39156436920166
1475498853344,-8.311470985412598,-1.9698294401168823,4.420294761657715
1475498853525,-8.355165481567383,-1.9776105880737305,4.399944305419922
1475498853707,-8.383296966552734,-1.9482816457748413,4.420294761657715
1475498853888,-8.3707275390625,-1.997362732887268,4.39156436920166
1475498854067,-8.312667846679688,-1.9877859354019165,4.3843817710876465
1475498854249,-8.361749649047852,-2.0392613410949707,4.379593372344971
1475498854428,-8.361150741577148,-1.955464243888855,4.443638324737549
1475498854606,-8.402450561523438,-1.9506758451461792,4.384980201721191
1475498854785,-8.301894187927246,-1.978209137916565,4.4041337966918945
1475498854966,-8.331223487854004,-2.0374655723571777,4.376600742340088
1475498855146,-8.389881134033203,-1.9626468420028687,4.379593372344971
1475498855331,-8.377311706542969,-1.9141643047332764,4.390965938568115
1475498855508,-8.325238227844238,-1.9590555429458618,4.392162799835205
1475498855687,-8.347384452819824,-1.9698294401168823,4.400542736053467
1475498855868,-8.390480041503906,-1.9422961473464966,4.397550106048584
1475498856050,-8.359354972839355,-1.9393033981323242,4.397550106048584
1475498856229,-8.312667846679688,-1.9919757843017578,4.3843817710876465
1475498856412,-8.339004516601563,-1.9979612827301025,4.376600742340088
1475498856592,-8.38569164276123,-1.9752163887023926,4.399345397949219
1475498856772,-8.374319076538086,-1.9333178997039795,4.409521102905273
1475498856950,-8.3521728515625,-1.9584569931030273,4.409521102905273
1475498857132,-8.310274124145508,-2.036867141723633,4.343081951141357
1475498857312,-8.322244644165039,-1.9937714338302612,4.39156436920166
1475498857493,-8.367734909057617,-1.9434932470321655,4.366425514221191
1475498857669,-8.339603424072266,-1.9596540927886963,4.399944305419922
1475498857853,-8.361749649047852,-1.9800047874450684,4.353257179260254
1475498858033,-8.32104778289795,-2.0219032764434814,4.383184909820557
1475498858211,-8.322244644165039,-1.9027918577194214,4.441842555999756
1475498858390,-8.377910614013672,-1.9692308902740479,4.325125217437744
1475498858574,-8.331223487854004,-1.9381062984466553,4.511873245239258
1475498858750,-8.322244644165039,-1.9955670833587646,4.400542736053467
1475498858934,-8.333617210388184,-1.9949685335159302,4.3861775398254395
1475498859115,-8.339603424072266,-1.9375077486038208,4.380191802978516
1475498859295,-8.300697326660156,-1.9375077486038208,4.365826606750488
1475498859474,-8.340800285339355,-1.9847931861877441,4.370016574859619
1475498859650,-8.336610794067383,-1.9955670833587646,4.399944305419922
1475498859835,-8.358757019042969,-1.922544002532959,4.388571739196777
1475498860014,-8.346785545349121,-1.964442491531372,4.420893669128418
1475498860193,-8.379107475280762,-1.9285295009613037,4.3843817710876465
1475498860374,-8.315062522888184,-1.9572598934173584,4.40233850479126
1475498860555,-8.292317390441895,-2.0159177780151367,4.392761707305908
1475498860732,-8.395866394042969,-1.9740192890167236,4.365228176116943
1475498860916,-8.3707275390625,-1.9255367517471313,4.413711071014404
1475498861092,-8.31985092163086,-1.9919757843017578,4.392761707305908
1475498861275,-8.361749649047852,-1.977012038230896,4.399345397949219
1475498861456,-8.377311706542969,-1.9273324012756348,4.421492099761963
1475498861637,-8.418611526489258,-1.9518729448318481,4.35804557800293
1475498861814,-8.311470985412598,-1.977012038230896,4.398148536682129
1475498861996,-8.360552787780762,-1.9620482921600342,4.392761707305908
1475498862175,-8.343194007873535,-1.9512743949890137,4.428076267242432
1475498862357,-8.429984092712402,-1.9273324012756348,4.373009204864502
1475498862536,-8.306682586669922,-1.9800047874450684,4.417302131652832
1475498862714,-8.38569164276123,-1.9045875072479248,4.368220806121826
1475498862898,-8.327033042907715,-1.9740192890167236,4.428076267242432
1475498863078,-8.397064208984375,-1.9722236394882202,4.371213912963867
1475498863254,-8.327033042907715,-1.9536685943603516,4.389768600463867
1475498863437,-8.358158111572266,-1.9063831567764282,4.392162799835205
1475498863617,-8.346187591552734,-1.9722236394882202,4.41849946975708
1475498863799,-8.382100105285645,-1.974617838859558,4.376600742340088
1475498863978,-8.324040412902832,-1.9476830959320068,4.4041337966918945
1475498864157,-8.340201377868652,-1.9476830959320068,4.402936935424805
1475498864338,-8.30129623413086,-1.975814938545227,4.37540340423584
1475498864519,-8.349180221557617,-1.9949685335159302,4.336497783660889
1475498864696,-8.309077262878418,-1.9913772344589233,4.3640313148498535
1475498864880,-8.371326446533203,-1.968033790588379,4.383783340454102
1475498865059,-8.273762702941895,-1.9728221893310547,4.378396511077881
1475498865237,-8.318055152893066,-1.9979612827301025,4.323928356170654
1475498865419,-8.309077262878418,-1.999756932258606,4.406527996063232
1475498865600,-8.382699012756348,-2.0045454502105713,4.3394904136657715
1475498865776,-8.276755332946777,-1.9835960865020752,4.377199172973633
1475498865958,-8.319252014160156,-2.103306293487549,4.316147327423096
1475498866139,-8.31985092163086,-1.9841946363449097,4.413711071014404
1475498866320,-8.352770805358887,-1.9399019479751587,4.365228176116943
1475498866502,-8.29830265045166,-2.0452468395233154,4.331709384918213
1475498866687,-8.29590892791748,-2.029085874557495,4.335300922393799
1475498866861,-8.347384452819824,-1.9716250896453857,4.4059295654296875
1475498867041,-8.341997146606445,-1.9488801956176758,4.398148536682129
1475498867218,-8.305485725402832,-1.9590555429458618,4.3640313148498535
1475498867401,-8.387487411499023,-1.9788076877593994,4.319738388061523
1475498867582,-8.322244644165039,-1.978209137916565,4.423886299133301
1475498867758,-8.35456657409668,-1.9075802564620972,4.398148536682129
1475498867941,-8.280346870422363,-1.946485996246338,4.392761707305908
1475498868126,-8.38688850402832,-1.9003976583480835,4.379593372344971
1475498868302,-8.33182144165039,-1.985990285873413,4.392761707305908
1475498868483,-8.31865406036377,-1.9171570539474487,4.4059295654296875
1475498868663,-8.349180221557617,-1.9638439416885376,4.381389141082764
1475498868842,-8.37192440032959,-1.985990285873413,4.371213912963867
1475498869022,-8.29471206665039,-1.987187385559082,4.420294761657715
1475498869211,-8.372523307800293,-1.8974047899246216,4.346673011779785
1475498869384,-8.307281494140625,-1.9375077486038208,4.438849925994873
1475498869563,-8.404845237731934,-1.987187385559082,4.4071269035339355
1475498869742,-8.271368026733398,-1.9602526426315308,4.413711071014404
1475498869923,-8.304288864135742,-1.9291280508041382,4.426878929138184
1475498870104,-8.363545417785645,-1.9608511924743652,4.370016574859619
1475498870281,-8.35336971282959,-1.9369091987609863,4.408323764801025
1475498870465,-8.343194007873535,-1.9937714338302612,4.359242916107178
1475498870644,-8.342596054077148,-1.898003339767456,4.436455726623535
1475498870826,-8.343194007873535,-1.977012038230896,4.393958568572998
1475498871004,-8.38808536529541,-1.935113549232483,4.402936935424805
1475498871182,-8.316259384155273,-1.9692308902740479,4.393360137939453
1475498871366,-8.286332130432129,-2.0620062351226807,4.3861775398254395
1475498871545,-8.329427719116211,-1.9806033372879028,4.377199172973633
1475498871722,-8.341997146606445,-1.956661343574524,4.361637115478516
1475498871906,-8.310274124145508,-1.9674352407455444,4.419097900390625
1475498872084,-8.36833381652832,-2.0225019454956055,4.332307815551758
1475498872264,-8.317456245422363,-1.98958158493042,4.405331134796143
1475498872445,-8.337807655334473,-1.9728221893310547,4.373608112335205
1475498872626,-8.32104778289795,-1.9572598934173584,4.442441463470459
1475498872803,-8.36833381652832,-2.009333848953247,4.367023944854736
1475498872987,-8.323442459106445,-1.9650410413742065,4.412513732910156
1475498873164,-8.350377082824707,-1.92134690284729,4.378994941711426
1475498873348,-8.345588684082031,-2.036867141723633,4.373009204864502
1475498873524,-8.36953067779541,-1.9045875072479248,4.488529682159424
1475498873707,-8.355165481567383,-1.9943699836730957,4.378396511077881
1475498873885,-8.335412979125977,-1.9949685335159302,4.367023944854736
1475498874068,-8.344391822814941,-1.9375077486038208,4.3843817710876465
1475498874245,-8.306682586669922,-1.9482816457748413,4.336497783660889
1475498874428,-8.365939140319824,-2.0272903442382813,4.370615005493164
1475498874606,-8.343792915344238,-1.9901801347732544,4.373009204864502
1475498874786,-8.374917984008789,-2.033275842666626,4.322731018066406
1475498874967,-8.35097599029541,-2.0272903442382813,4.359841346740723
1475498875147,-8.362347602844238,-1.8812439441680908,4.366425514221191
1475498875327,-8.345588684082031,-2.014122247695923,4.32991361618042
1475498875509,-8.332420349121094,-2.0254945755004883,4.3610382080078125
1475498875689,-8.334216117858887,-2.0207061767578125,4.380790710449219
1475498875866,-8.33481502532959,-1.9512743949890137,4.377797603607178
1475498876050,-8.376114845275879,-2.0045454502105713,4.355651378631592
1475498876232,-8.377311706542969,-1.9812018871307373,4.3610382080078125
1475498876409,-8.333019256591797,-1.998559832572937,4.356249809265137
1475498876590,-8.345588684082031,-1.9698294401168823,4.395155906677246
1475498876766,-8.383296966552734,-1.954267144203186,4.393360137939453
1475498876950,-8.374917984008789,-2.012925148010254,4.335899353027344
1475498877130,-8.327631950378418,-2.0027496814727783,4.387973308563232
1475498877308,-8.340201377868652,-1.965639591217041,4.378396511077881
1475498877488,-8.381501197814941,-2.0015525817871094,4.365826606750488
1475498877672,-8.363545417785645,-1.98958158493042,4.359242916107178
1475498877851,-8.328828811645508,-2.011129379272461,4.37540340423584
1475498878030,-8.309675216674805,-1.9141643047332764,4.401141166687012
1475498878209,-8.351573944091797,-1.975814938545227,4.383184909820557
1475498878389,-8.347982406616211,-2.02848744392395,4.35684871673584
1475498878569,-8.312667846679688,-1.9853917360305786,4.400542736053467
1475498878749,-8.339004516601563,-1.955464243888855,4.34607458114624
1475498878929,-8.340800285339355,-1.9961656332015991,4.384980201721191
1475498879110,-8.407238960266113,-2.006939649581909,4.352658748626709
1475498879290,-8.333019256591797,-1.9853917360305786,4.369418144226074
1475498879470,-8.327631950378418,-1.9650410413742065,4.386775970458984
1475498879650,-8.341997146606445,-2.015319347381592,4.371812343597412
1475498879831,-8.397662162780762,-1.9345149993896484,4.434061527252197
1475498880012,-8.328828811645508,-1.9823989868164063,4.401739597320557
1475498880189,-8.33182144165039,-1.9596540927886963,4.392761707305908
1475498880371,-8.322244644165039,-2.0171148777008057,4.217386245727539
1475498880551,-8.355764389038086,-1.9865888357162476,4.376600742340088
1475498880732,-8.383296966552734,-1.9333178997039795,4.401739597320557
1475498880912,-8.213907241821289,-1.9949685335159302,4.387973308563232
1475498881093,-8.4108304977417,-1.9405004978179932,4.306570529937744
1475498881277,-8.29830265045166,-2.115875720977783,4.41969633102417
1475498881453,-8.333019256591797,-2.0386626720428467,4.35804557800293
1475498881633,-8.3707275390625,-2.0159177780151367,4.397550106048584
1475498881812,-8.33182144165039,-1.965639591217041,4.396951198577881
1475498881993,-8.335412979125977,-1.9818004369735718,4.41969633102417
1475498882172,-8.349180221557617,-1.9901801347732544,4.394556999206543
1475498882353,-8.31326675415039,-2.0225019454956055,4.401739597320557
1475498882533,-8.374319076538086,-1.9692308902740479,4.399944305419922
1475498882716,-8.349180221557617,-1.985990285873413,4.417900562286377
1475498882893,-8.334216117858887,-1.9877859354019165,4.401739597320557
1475498883076,-8.303689956665039,-1.944091796875,4.370615005493164
1475498883254,-8.326435089111328,-2.011728048324585,4.364629745483398
1475498883438,-8.347982406616211,-1.9788076877593994,4.3825860023498535
1475498883617,-8.05050277709961,-2.2260091304779053,4.267664432525635
1475498883803,-8.429984092712402,-2.0254945755004883,4.285022258758545
1475498883978,-8.332420349121094,-2.030881643295288,4.392761707305908
1475498884155,-8.340800285339355,-1.9608511924743652,4.401739597320557
1475498884335,-8.337807655334473,-1.9518729448318481,4.410717964172363
1475498884516,-8.318055152893066,-2.0003554821014404,4.4077253341674805
1475498884699,-8.33840560913086,-2.0003554821014404,4.388571739196777
1475498884874,-8.374319076538086,-1.9285295009613037,4.460996150970459
1475498885058,-8.321646690368652,-1.997362732887268,4.4071269035339355
1475498885237,-8.3521728515625,-2.006340980529785,4.384980201721191
1475498885418,-8.332420349121094,-1.86508309841156,4.455609321594238
1475498885598,-8.371326446533203,-2.0703859329223633,4.395754337310791
1475498885778,-8.368931770324707,-1.955464243888855,4.397550106048584
1475498885958,-8.322843551635742,-1.965639591217041,4.425083160400391
1475498886137,-8.345588684082031,-1.9297266006469727,4.428674697875977
1475498886322,-8.308478355407715,-2.0165164470672607,4.376600742340088
1475498886498,-8.330026626586914,-1.9626468420028687,4.3843817710876465
1475498886678,-8.322843551635742,-2.0225019454956055,4.367023944854736
1475498886856,-8.328828811645508,-1.997362732887268,4.4077253341674805
1475498887036,-8.341997146606445,-1.9704279899597168,4.3861775398254395
1475498887219,-8.343194007873535,-1.9506758451461792,4.4059295654296875
1475498887397,-8.289324760437012,-1.974617838859558,4.383783340454102
1475498887580,-8.344391822814941,-2.0009541511535645,4.358644008636475
1475498887759,-8.315661430358887,-1.9788076877593994,4.416703701019287
1475498887939,-8.31985092163086,-2.0177135467529297,4.392162799835205
1475498888120,-8.344989776611328,-2.0021512508392334,4.402936935424805
1475498888302,-8.345588684082031,-1.9578584432601929,4.388571739196777
1475498888478,-8.340201377868652,-1.9823989868164063,4.381389141082764
1475498888662,-8.29830265045166,-2.054224967956543,4.374804973602295
1475498888838,-8.312667846679688,-1.9937714338302612,4.399944305419922
1475498889021,-8.345588684082031,-1.9482816457748413,4.377797603607178
1475498889199,-8.343194007873535,-1.997362732887268,4.401141166687012
1475498889379,-8.374917984008789,-1.9877859354019165,4.337695121765137
1475498889562,-8.268974304199219,-1.9823989868164063,4.420893669128418
1475498889743,-8.29830265045166,-2.013523578643799,4.378994941711426
1475498889919,-8.286332130432129,-1.9943699836730957,4.377797603607178
1475498890099,-8.389881134033203,-1.9919757843017578,4.271255970001221
1475498890283,-8.33840560913086,-2.0464439392089844,4.379593372344971
1475498890462,-8.383895874023438,-2.0183119773864746,4.296993732452393
1475498890642,-8.447341918945313,-1.953070044517517,4.325724124908447
1475498890822,-8.504802703857422,-1.6992846727371216,4.462791919708252
1475498891003,-8.30249309539795,-2.18770170211792,4.304774761199951
1475498891184,-8.26478385925293,-1.7381904125213623,4.396951198577881
1475498891361,-8.315661430358887,-2.11946702003479,4.326920986175537
1475498891544,-8.44315242767334,-1.8441338539123535,4.34607458114624
1475498891723,-8.351573944091797,-1.9955670833587646,4.40892219543457
1475498891900,-8.377910614013672,-1.9967641830444336,4.341884613037109
1475498892084,-8.359354972839355,-1.9117701053619385,4.355052947998047
1475498892262,-8.42818832397461,-2.1266496181488037,4.394556999206543
1475498892442,-8.356362342834473,-2.1990742683410645,4.325724124908447
1475498892625,-8.337807655334473,-1.900996208190918,4.504690647125244
1475498892804,-8.414422035217285,-2.1595699787139893,4.384980201721191
1475498892986,-8.27974796295166,-2.0039467811584473,4.353855609893799
1475498893163,-8.355165481567383,-2.1104888916015625,4.34487771987915
1475498893345,-8.30129623413086,-2.0715830326080322,4.434061527252197
1475498893525,-8.362946510314941,-1.9919757843017578,4.395155906677246
1475498893706,-8.292916297912598,-2.0614075660705566,4.3628339767456055
1475498893883,-8.326435089111328,-2.078166961669922,4.376002311706543
1475498894067,-8.325238227844238,-2.049436569213867,4.398746967315674
1475498894244,-8.337807655334473,-1.999756932258606,4.389170169830322
1475498894424,-8.270770072937012,-2.0638017654418945,4.380191802978516
1475498894604,-8.350377082824707,-2.072780132293701,4.371213912963867
1475498894786,-8.29830265045166,-2.0673930644989014,4.420294761657715
1475498894967,-8.337807655334473,-1.9943699836730957,4.3610382080078125
1475498895146,-8.30249309539795,-2.056020736694336,4.352658748626709
1475498895327,-8.336610794067383,-2.081159830093384,4.3424835205078125
1475498895508,-8.313865661621094,-2.0817582607269287,4.396352767944336
1475498895687,-8.346785545349121,-1.9907786846160889,4.365826606750488
1475498895866,-8.301894187927246,-2.05123233795166,4.416105270385742
1475498896045,-8.374319076538086,-2.0266916751861572,4.400542736053467
1475498896227,-8.316259384155273,-2.0691888332366943,4.381987571716309
1475498896406,-8.325238227844238,-2.0171148777008057,4.3855791091918945
1475498896588,-8.3306245803833,-2.0392613410949707,4.425682067871094
1475498896767,-8.349180221557617,-2.0195090770721436,4.424484729766846
1475498896945,-8.311470985412598,-2.0715830326080322,4.39036750793457
1475498897129,-8.33601188659668,-2.0231003761291504,4.412513732910156
1475498897307,-8.341997146606445,-2.050035238265991,4.417302131652832
1475498897490,-8.3521728515625,-2.055422067642212,4.401739597320557
1475498897669,-8.309077262878418,-2.0835540294647217,4.402936935424805
1475498897852,-8.295310020446777,-2.0488381385803223,4.402936935424805
1475498898029,-8.290521621704102,-2.0464439392089844,4.390965938568115
1475498898210,-8.345588684082031,-2.03507137298584,4.359841346740723
1475498898387,-8.322843551635742,-2.101510524749756,4.37540340423584
1475498898572,-8.270770072937012,-2.075772762298584,4.378994941711426
1475498898750,-8.329427719116211,-2.0853497982025146,4.325724124908447
1475498898929,-8.291120529174805,-2.297835111618042,4.425083160400391
1475498899110,-8.373720169067383,-1.9219454526901245,4.2742486000061035
1475498899294,-8.216301918029785,-2.0889410972595215,4.41849946975708
1475498899468,-8.344989776611328,-2.006340980529785,4.416703701019287
1475498899652,-8.3306245803833,-2.103306293487549,4.387374401092529
1475498899831,-8.33720874786377,-2.0027496814727783,4.389768600463867
1475498900012,-8.340201377868652,-2.0632033348083496,4.347870349884033
1475498900192,-8.277952194213867,-2.100313425064087,4.410717964172363
1475498900369,-8.272565841674805,-2.0231003761291504,4.34607458114624
1475498900551,-8.341399192810059,-2.0703859329223633,4.305373191833496
1475498900733,-8.313865661621094,-2.191891670227051,4.3843817710876465
1475498900909,-8.31985092163086,-2.1152772903442383,4.376002311706543
1475498901093,-8.48205852508545,-1.8806453943252563,4.369418144226074
1475498901272,-8.303689956665039,-2.118269920349121,4.428076267242432
1475498901451,-8.395268440246582,-1.9818004369735718,4.285621166229248
1475498901632,-8.340800285339355,-1.9841946363449097,4.3424835205078125
1475498901812,-8.341399192810059,-1.999756932258606,4.348468780517578
1475498901990,-8.416217803955078,-2.0159177780151367,4.291606426239014
1475498902177,-8.29590892791748,-1.9728221893310547,4.397550106048584
1475498902353,-8.419808387756348,-2.142810583114624,4.318541526794434
1475498902534,-8.355764389038086,-2.10210919380188,4.2993879318237305
1475498902714,-8.295310020446777,-2.1098902225494385,4.389768600463867
1475498902894,-8.446145057678223,-2.033874273300171,4.264073371887207
1475498903074,-8.31446361541748,-1.9710265398025513,4.479551315307617
1475498903260,-8.375515937805176,-2.101510524749756,4.302978992462158
1475498903430,-8.35456657409668,-1.964442491531372,4.35684871673584
1475498903614,-8.357559204101563,-2.053626537322998,4.32991361618042
1475498903792,-8.4293851852417,-2.01232647895813,4.310161590576172
1475498903972,-8.489839553833008,-2.1104888916015625,4.332307815551758
1475498904156,-8.33182144165039,-2.033874273300171,4.325125217437744
1475498904334,-8.093599319458008,-2.1553800106048584,4.408323764801025
1475498904516,-8.483853340148926,-2.008136749267578,4.289212226867676
1475498904695,-8.285135269165039,-2.121262788772583,4.422688961029053
1475498904876,-8.300697326660156,-1.856104850769043,4.3843817710876465
1475498905055,-8.35336971282959,-2.056020736694336,4.380790710449219
1475498905235,-8.286931037902832,-2.009333848953247,4.40892219543457
1475498905420,-8.35456657409668,-2.0009541511535645,4.359841346740723
1475498905597,-8.289324760437012,-2.033874273300171,4.323928356170654
1475498905776,-8.340201377868652,-2.0159177780151367,4.35804557800293
1475498905955,-8.321646690368652,-2.0464439392089844,4.355651378631592
1475498906136,-8.325238227844238,-2.031480073928833,4.352658748626709
1475498906317,-8.301894187927246,-1.9943699836730957,4.367023944854736
1475498906494,-8.319252014160156,-2.0697872638702393,4.370615005493164
1475498906677,-8.33182144165039,-2.007538080215454,4.398746967315674
1475498906856,-8.347384452819824,-2.0715830326080322,4.3406877517700195
1475498907036,-8.29710578918457,-1.9919757843017578,4.3825860023498535
1475498907217,-8.361749649047852,-2.099116325378418,4.334702014923096
1475498907397,-8.29830265045166,-2.01232647895813,4.410119533538818
1475498907579,-8.38808536529541,-2.050633668899536,4.3412861824035645
1475498907756,-8.36833381652832,-1.9788076877593994,4.468777656555176
1475498907938,-8.330026626586914,-1.9788076877593994,4.401141166687012
1475498908118,-8.365341186523438,-1.9470845460891724,4.380790710449219
1475498908298,-8.315661430358887,-2.0446481704711914,4.3855791091918945
1475498908476,-8.407238960266113,-2.052429437637329,4.32991361618042
1475498908659,-8.30249309539795,-1.9937714338302612,4.423886299133301
1475498908840,-8.318055152893066,-2.049436569213867,4.360439777374268
1475498909017,-8.304886817932129,-1.999756932258606,4.39156436920166
1475498909198,-8.31446361541748,-2.0859482288360596,4.37420654296875
1475498909377,-8.345588684082031,-2.0386626720428467,4.3861775398254395
1475498909560,-8.362347602844238,-1.9548656940460205,4.3861775398254395
1475498909740,-8.31326675415039,-2.0386626720428467,4.396951198577881
1475498909918,-8.323442459106445,-1.9967641830444336,4.394556999206543
1475498910100,-8.367136001586914,-2.0398597717285156,4.370016574859619
1475498910282,-8.356362342834473,-1.9919757843017578,4.436455726623535
1475498910458,-8.358757019042969,-2.0691888332366943,4.351461410522461
1475498910641,-8.310873031616211,-2.0482394695281982,4.405331134796143
1475498910819,-8.289923667907715,-1.9794062376022339,4.325724124908447
1475498910999,-8.29830265045166,-2.0883424282073975,4.378994941711426
1475498911180,-8.323442459106445,-2.0147206783294678,4.367023944854736
1475498911360,-8.358757019042969,-2.0416555404663086,4.361637115478516
1475498911539,-8.361150741577148,-2.011129379272461,4.371812343597412
1475498911722,-8.3521728515625,-2.051830768585205,4.367023944854736
1475498911903,-8.284536361694336,-2.050633668899536,4.432864665985107
1475498912082,-8.365341186523438,-2.0189106464385986,4.355651378631592
1475498912263,-8.300098419189453,-2.0823569297790527,4.355651378631592
1475498912443,-8.304886817932129,-2.0266916751861572,4.386775970458984
1475498912622,-8.379706382751465,-1.9979612827301025,4.327519416809082
1475498912802,-8.29710578918457,-2.0165164470672607,4.423886299133301
1475498912980,-8.387487411499023,-2.0177135467529297,4.368220806121826
1475498913164,-8.284536361694336,-2.013523578643799,4.3825860023498535
1475498913345,-8.325238227844238,-2.0655975341796875,4.316147327423096
1475498913522,-8.319252014160156,-2.0015525817871094,4.411316394805908
1475498913704,-8.3521728515625,-2.0488381385803223,4.357447147369385
1475498913886,-8.340201377868652,-1.964442491531372,4.4532151222229
1475498914064,-8.331223487854004,-2.0464439392089844,4.393360137939453
1475498914245,-8.33182144165039,-2.015319347381592,4.389170169830322
1475498914424,-8.322843551635742,-2.0039467811584473,4.364629745483398
1475498914605,-8.321646690368652,-2.0380642414093018,4.350264549255371
1475498914784,-8.285733222961426,-1.9955670833587646,4.3610382080078125
1475498914971,-8.322843551635742,-2.0260932445526123,4.350862979888916
1475498915145,-8.357559204101563,-2.01232647895813,4.361637115478516
1475498915327,-8.287528991699219,-2.0805611610412598,4.373009204864502
1475498915502,-8.353968620300293,-2.0404584407806396,4.359242916107178
1475498915686,-8.349778175354004,-1.9943699836730957,4.381987571716309
1475498915865,-8.31865406036377,-2.0661959648132324,4.365228176116943
1475498916043,-8.357559204101563,-1.9584569931030273,4.386775970458984
1475498916226,-8.382699012756348,-1.9692308902740479,4.4310688972473145
1475498916407,-8.379706382751465,-1.9572598934173584,4.396951198577881
1475498916586,-8.285135269165039,-2.010530948638916,4.3861775398254395
1475498916767,-8.341399192810059,-2.0015525817871094,4.372410774230957
1475498916945,-8.361749649047852,-1.974617838859558,4.389170169830322
1475498917127,-8.396465301513672,-1.9812018871307373,4.37540340423584
1475498917307,-8.33840560913086,-2.02848744392395,4.37420654296875
1475498917484,-8.334216117858887,-2.0195090770721436,4.399345397949219
1475498917665,-8.373122215270996,-2.0236990451812744,4.376600742340088
1475498917847,-8.356961250305176,-1.9847931861877441,4.400542736053467
1475498918025,-8.339603424072266,-2.033275842666626,4.351461410522461
1475498918204,-8.357559204101563,-2.0452468395233154,4.314351558685303
1475498918384,-8.341399192810059,-2.02848744392395,4.3622355461120605
1475498918564,-8.324040412902832,-2.032078742980957,4.338293552398682
1475498918745,-8.27974796295166,-2.0003554821014404,4.410119533538818
1475498918928,-8.365939140319824,-1.9638439416885376,4.3394904136657715
1475498919108,-8.29471206665039,-2.03507137298584,4.423287868499756
1475498919288,-8.370129585266113,-2.009932279586792,4.336497783660889
1475498919468,-8.31446361541748,-2.0386626720428467,4.377797603607178
1475498919650,-8.373720169067383,-1.9955670833587646,4.3640313148498535
1475498919829,-8.373122215270996,-1.9578584432601929,4.368819713592529
1475498920007,-8.286332130432129,-2.0590133666992188,4.388571739196777
1475498920189,-8.367734909057617,-1.955464243888855,4.414907932281494
1475498920371,-8.334216117858887,-2.0392613410949707,4.355052947998047
1475498920547,-8.341399192810059,-2.0195090770721436,4.368220806121826
1475498920728,-8.366538047790527,-1.9632453918457031,4.344278812408447
1475498920910,-8.334216117858887,-2.0021512508392334,4.39156436920166
1475498921089,-8.416815757751465,-1.9740192890167236,4.377199172973633
1475498921272,-8.316858291625977,-1.9943699836730957,4.397550106048584
1475498921452,-8.315062522888184,-2.0871453285217285,4.334103584289551
1475498921631,-8.319252014160156,-2.0446481704711914,4.369418144226074
1475498921812,-8.347982406616211,-1.978209137916565,4.355052947998047
1475498921999,-8.337807655334473,-2.014122247695923,4.356249809265137
1475498922175,-8.304886817932129,-2.0679917335510254,4.359242916107178
1475498922351,-8.310873031616211,-2.0236990451812744,4.350264549255371
1475498922529,-8.335412979125977,-1.9937714338302612,4.3622355461120605
1475498922712,-8.317456245422363,-2.0272903442382813,4.360439777374268
1475498922893,-8.327631950378418,-2.054224967956543,4.379593372344971
1475498923069,-8.382699012756348,-1.9800047874450684,4.37420654296875
1475498923277,-8.355165481567383,-1.978209137916565,4.3640313148498535
1475498923431,-8.310873031616211,-2.0410568714141846,4.374804973602295
1475498923610,-8.375515937805176,-1.9961656332015991,4.37420654296875
1475498923792,-8.349778175354004,-1.985990285873413,4.419097900390625
1475498923973,-8.395268440246582,-1.9901801347732544,4.39156436920166
1475498924154,-8.31985092163086,-2.010530948638916,4.369418144226074
1475498924331,-8.37192440032959,-1.9692308902740479,4.368220806121826
1475498924514,-8.324040412902832,-1.954267144203186,4.387973308563232
1475498924694,-8.393472671508789,-2.033874273300171,4.332307815551758
1475498924877,-8.303689956665039,-2.0207061767578125,4.36343240737915
1475498925051,-8.348581314086914,-1.985990285873413,4.35804557800293
1475498925234,-8.341399192810059,-2.0213048458099365,4.325125217437744
1475498925414,-8.306682586669922,-2.0416555404663086,4.350264549255371
1475498925593,-8.3306245803833,-2.0213048458099365,4.356249809265137
1475498925774,-8.33840560913086,-1.9961656332015991,4.376600742340088
1475498925956,-8.312667846679688,-1.9506758451461792,4.333505153656006
1475498926132,-8.342596054077148,-2.0195090770721436,4.334103584289551
1475498926315,-8.333617210388184,-2.036867141723633,4.35684871673584
1475498926495,-8.307281494140625,-2.0446481704711914,4.353257179260254
1475498926676,-8.29590892791748,-2.007538080215454,4.367023944854736
1475498926856,-8.276755332946777,-2.057217836380005,4.322731018066406
1475498927045,-8.339603424072266,-2.0236990451812744,4.359841346740723
1475498927214,-8.342596054077148,-2.0422539710998535,4.348468780517578
1475498927397,-8.315661430358887,-1.9823989868164063,4.434061527252197
1475498927573,-8.35336971282959,-2.0260932445526123,4.389768600463867
1475498927757,-8.340201377868652,-2.0189106464385986,4.36343240737915
1475498927937,-8.347982406616211,-2.0392613410949707,4.367023944854736
1475498928115,-8.4293851852417,-1.9303251504898071,4.425682067871094
1475498928295,-8.353968620300293,-2.0248961448669434,4.380790710449219
1475498928476,-8.33481502532959,-2.0003554821014404,4.393360137939453
1475498928655,-8.343792915344238,-2.008735179901123,4.389768600463867
1475498928837,-8.422801971435547,-1.9728221893310547,4.378396511077881
1475498929017,-8.3120698928833,-2.0392613410949707,4.392162799835205
1475498929199,-8.359953880310059,-2.0045454502105713,4.378994941711426
1475498929378,-8.331223487854004,-1.9967641830444336,4.416105270385742
1475498929566,-8.382699012756348,-2.008136749267578,4.325125217437744
1475498929738,-8.320449829101563,-2.0039467811584473,4.368819713592529
1475498929917,-8.327631950378418,-2.0147206783294678,4.364629745483398
1475498930096,-8.35097599029541,-2.012925148010254,4.367023944854736
1475498930278,-8.33840560913086,-2.05123233795166,4.326322555541992
1475498930457,-8.300697326660156,-2.02848744392395,4.378994941711426
1475498930637,-8.342596054077148,-2.0254945755004883,4.343081951141357
1475498930819,-8.332420349121094,-2.006340980529785,4.376002311706543
1475498931000,-8.331223487854004,-2.0931308269500732,4.338293552398682
1475498931178,-8.261791229248047,-2.0655975341796875,4.399345397949219
1475498931361,-8.382100105285645,-1.9907786846160889,4.326322555541992
1475498931540,-8.31446361541748,-2.029684543609619,4.374804973602295
1475498931720,-8.347982406616211,-2.0632033348083496,4.367023944854736
1475498931902,-8.356961250305176,-2.011728048324585,4.381987571716309
1475498932077,-8.391676902770996,-1.9835960865020752,4.371213912963867
1475498932262,-8.315062522888184,-2.033275842666626,4.367622375488281
1475498932441,-8.344989776611328,-2.01232647895813,4.365228176116943
1475498932633,-8.310274124145508,-2.029085874557495,4.336497783660889
1475498932802,-8.328230857849121,-2.0021512508392334,4.340089321136475
1475498932983,-8.333617210388184,-2.0171148777008057,4.359841346740723
1475498933159,-8.319252014160156,-2.0446481704711914,4.377199172973633
1475498933343,-8.381501197814941,-1.9638439416885376,4.4310688972473145
1475498933519,-8.308478355407715,-2.0386626720428467,4.373009204864502
1475498933703,-8.355165481567383,-2.0165164470672607,4.352060317993164
1475498933881,-8.341997146606445,-2.0147206783294678,4.390965938568115
1475498934061,-8.359354972839355,-2.0219032764434814,4.313753128051758
1475498934240,-8.343194007873535,-2.0207061767578125,4.377199172973633
1475498934423,-8.29830265045166,-2.033275842666626,4.3209357261657715
1475498934600,-8.326435089111328,-2.005143880844116,4.378396511077881
1475498934784,-8.346187591552734,-2.0380642414093018,4.370615005493164
1475498934961,-8.359953880310059,-2.0021512508392334,4.367622375488281
1475498935143,-8.388684272766113,-1.9853917360305786,4.355651378631592
1475498935323,-8.299500465393066,-2.012925148010254,4.390965938568115
1475498935503,-8.368931770324707,-1.9704279899597168,4.3843817710876465
1475498935680,-8.29471206665039,-2.0213048458099365,4.314949989318848
1475498935862,-8.33720874786377,-2.081159830093384,4.298190593719482
1475498936044,-8.254609107971191,-2.0392613410949707,4.408323764801025
1475498936223,-8.3922758102417,-2.0272903442382813,4.3179426193237305
1475498936404,-8.407837867736816,-1.931522250175476,4.468178749084473
1475498936584,-8.340800285339355,-2.032677173614502,4.389768600463867
1475498936765,-8.35456657409668,-2.030881643295288,4.374804973602295
1475498936946,-8.332420349121094,-1.9734207391738892,4.390965938568115
1475498937122,-8.312667846679688,-2.0596120357513428,4.344278812408447
1475498937304,-8.327033042907715,-2.0398597717285156,4.365826606750488
1475498937483,-8.340201377868652,-1.9692308902740479,4.359242916107178
1475498937664,-8.306682586669922,-2.0219032764434814,4.39036750793457
1475498937846,-8.380304336547852,-1.9375077486038208,4.376600742340088
1475498938026,-8.298901557922363,-2.011728048324585,4.412513732910156
1475498938203,-8.391077995300293,-2.012925148010254,4.334103584289551
1475498938386,-8.303091049194336,-2.0404584407806396,4.367622375488281
1475498938567,-8.346187591552734,-2.0213048458099365,4.36343240737915
1475498938744,-8.262989044189453,-2.0242974758148193,4.322731018066406
1475498938927,-8.332420349121094,-2.054224967956543,4.356249809265137
1475498939107,-8.346187591552734,-2.009932279586792,4.380191802978516
1475498939286,-8.307281494140625,-2.0165164470672607,4.358644008636475
1475498939468,-8.367136001586914,-1.9841946363449097,4.437653064727783
1475498939645,-8.313865661621094,-2.03507137298584,4.426878929138184
1475498939826,-8.374917984008789,-1.988384485244751,4.3628339767456055
1475498940005,-8.332420349121094,-2.03507137298584,4.354454517364502
1475498940184,-8.343194007873535,-1.953070044517517,4.443638324737549
1475498940369,-8.339004516601563,-2.0272903442382813,4.384980201721191
1475498940547,-8.322244644165039,-2.0027496814727783,4.380191802978516
1475498940728,-8.333019256591797,-2.0039467811584473,4.344278812408447
1475498940908,-8.310873031616211,-1.9800047874450684,4.432265758514404
1475498941089,-8.32104778289795,-2.0404584407806396,4.397550106048584
1475498941269,-8.347384452819824,-2.012925148010254,4.370016574859619
1475498941447,-8.330026626586914,-2.051830768585205,4.350264549255371
1475498941634,-8.288127899169922,-1.9812018871307373,4.388571739196777
1475498941809,-8.324040412902832,-2.0380642414093018,4.3861775398254395
1475498941990,-8.33601188659668,-2.0165164470672607,4.383184909820557
1475498942166,-8.349180221557617,-2.0404584407806396,4.3412861824035645
1475498942350,-8.398859977722168,-1.9967641830444336,4.352658748626709
1475498942529,-8.304288864135742,-2.012925148010254,4.377797603607178
1475498942708,-8.355764389038086,-2.0236990451812744,4.368819713592529
1475498942889,-8.3120698928833,-1.932719349861145,4.371812343597412
1475498943071,-8.339603424072266,-2.1362264156341553,4.305373191833496
1475498943248,-8.313865661621094,-1.997362732887268,4.381987571716309
1475498943432,-8.323442459106445,-1.999756932258606,4.3209357261657715
1475498943612,-8.304288864135742,-2.0434510707855225,4.381987571716309
1475498943791,-8.361150741577148,-1.9949685335159302,4.358644008636475
1475498943972,-8.347982406616211,-1.9907786846160889,4.410717964172363
1475498944149,-8.406641006469727,-2.056020736694336,4.341884613037109
1475498944333,-8.281543731689453,-2.0236990451812744,4.413112163543701
1475498944515,-8.365341186523438,-2.0458452701568604,4.3209357261657715
1475498944690,-8.241440773010254,-2.010530948638916,4.34607458114624
1475498944868,-8.315062522888184,-2.0225019454956055,4.335899353027344
1475498945052,-8.3521728515625,-2.0452468395233154,4.367023944854736
1475498945230,-8.323442459106445,-2.029085874557495,4.36343240737915
1475498945412,-8.345588684082031,-1.9578584432601929,4.431667327880859
1475498945593,-8.38449478149414,-2.0398597717285156,4.303577423095703
1475498945774,-8.332420349121094,-2.030282974243164,4.376600742340088
1475498945953,-8.154650688171387,-1.9470845460891724,4.489726543426514
1475498946134,-8.297704696655273,-2.121861219406128,4.321534156799316
1475498946311,-8.44554615020752,-2.0464439392089844,4.31255578994751
1475498946493,-8.256404876708984,-1.9818004369735718,4.4274773597717285
1475498946671,-8.497021675109863,-1.9584569931030273,4.438849925994873
1475498946854,-8.297704696655273,-2.0895395278930664,4.420294761657715
1475498947032,-8.457517623901367,-1.9333178997039795,4.399944305419922
1475498947212,-8.348581314086914,-1.964442491531372,4.390965938568115
1475498947393,-8.376712799072266,-1.9363106489181519,4.468777656555176
1475498947578,-8.437167167663574,-1.8986018896102905,4.532223701477051
1475498947752,-8.376114845275879,-2.005143880844116,4.354454517364502
1475498947935,-7.964910507202148,-1.9375077486038208,4.73573112487793
1475498948116,-8.289923667907715,-2.031480073928833,4.6070427894592285
1475498948295,-8.233659744262695,-1.6196774244308472,4.666299343109131
1475498948476,-8.634089469909668,-2.01232647895813,4.100070476531982
1475498948655,-8.328230857849121,-2.1122844219207764,4.380191802978516
1475498948837,-8.649652481079102,-1.8100165128707886,4.420893669128418
1475498949016,-8.483255386352539,-1.977012038230896,4.554370403289795
1475498949193,-8.537723541259766,-1.7926585674285889,4.545392036437988
1475498949377,-8.327033042907715,-1.688510775566101,4.422688961029053
1475498949556,-8.255207061767578,-1.7196353673934937,4.359841346740723
1475498949734,-8.51677417755127,-1.8710685968399048,4.285621166229248
1475498949916,-8.45931339263916,-1.9405004978179932,4.094683647155762
1475498950098,-8.471283912658691,-1.6861165761947632,4.467580318450928
1475498950275,-8.547300338745117,-2.077568531036377,3.974973440170288
1475498950457,-8.513781547546387,-1.8692729473114014,4.544793605804443
1475498950637,-8.296507835388184,-1.768117904663086,4.487931251525879
1475498950817,-8.395866394042969,-1.8656816482543945,4.541202068328857
1475498950996,-8.362946510314941,-1.8698714971542358,4.371213912963867
1475498951178,-7.942165374755859,-1.777694821357727,4.503493309020996
1475498951358,-8.60116958618164,-1.853710651397705,4.428076267242432
1475498951537,-8.268375396728516,-2.032078742980957,4.443638324737549
1475498951717,-8.471283912658691,-1.9949685335159302,4.143764495849609
1475498951897,-8.331223487854004,-1.9500772953033447,4.504091739654541
1475498952079,-8.529942512512207,-2.009333848953247,4.248510837554932
1475498952256,-8.285733222961426,-2.051830768585205,4.3394904136657715
1475498952440,-8.38688850402832,-2.054224967956543,4.262876033782959
1475498952617,-8.33840560913086,-2.141613483428955,4.24970817565918
1475498952800,-8.295310020446777,-2.0195090770721436,4.355052947998047
1475498952979,-8.324040412902832,-2.0596120357513428,4.352060317993164
1475498953161,-8.443750381469727,-2.05123233795166,4.2329487800598145
1475498953340,-8.26239013671875,-2.0380642414093018,4.387973308563232
1475498953522,-8.402450561523438,-1.9835960865020752,4.40353536605835
1475498953706,-8.325238227844238,-2.101510524749756,4.296993732452393
1475498953881,-8.33720874786377,-2.0620062351226807,4.318541526794434
1475498954060,-8.349180221557617,-2.0260932445526123,4.294599533081055
1475498954237,-8.305485725402832,-2.078166961669922,4.307168960571289
1475498954421,-8.36953067779541,-2.0649988651275635,4.31135892868042
1475498954602,-8.341399192810059,-2.053027868270874,4.320336818695068
1475498954778,-8.349180221557617,-2.1308395862579346,4.211999416351318
1475498954963,-8.349778175354004,-2.079962730407715,4.309563159942627
1475498955142,-8.365939140319824,-2.007538080215454,4.282628059387207
1475498955322,-8.281543731689453,-2.1769278049468994,4.302380561828613
1475498955501,-8.463502883911133,-1.9470845460891724,4.31255578994751
1475498955683,-8.22348403930664,-2.1278467178344727,4.395754337310791
1475498955862,-8.447341918945313,-2.0392613410949707,4.198831081390381
1475498956043,-8.306084632873535,-2.0644004344940186,4.377797603607178
1475498956220,-8.415019989013672,-2.0488381385803223,4.264671802520752
1475498956404,-8.362347602844238,-2.0649988651275635,4.343680381774902
1475498956583,-8.351573944091797,-2.096123695373535,4.299986362457275
1475498956761,-8.446743965148926,-1.977012038230896,4.292803764343262
1475498956943,-8.335412979125977,-2.1057004928588867,4.296993732452393
1475498957125,-8.356362342834473,-2.0805611610412598,4.332307815551758
1475498957301,-8.353968620300293,-2.0829553604125977,4.259883403778076
1475498957484,-8.33601188659668,-2.0889410972595215,4.234145641326904
1475498957664,-8.225279808044434,-2.161964178085327,4.2993879318237305
1475498957846,-8.483255386352539,-2.008735179901123,4.207211017608643
1475498958024,-8.257002830505371,-2.0937294960021973,4.310760021209717
1475498958205,-8.42579460144043,-2.081159830093384,4.278438568115234
1475498958384,-8.357559204101563,-2.1326351165771484,4.340089321136475
1475498958566,-8.358158111572266,-2.0673930644989014,4.335300922393799
1475498958742,-8.423399925231934,-2.0272903442382813,4.308964729309082
1475498958926,-8.300098419189453,-2.103306293487549,4.294599533081055
1475498959105,-8.346187591552734,-2.094327926635742,4.304176330566406
1475498959284,-8.366538047790527,-2.0817582607269287,4.315548419952393
1475498959467,-8.328230857849121,-2.0470423698425293,4.288015365600586
1475498959649,-8.322843551635742,-2.1092917919158936,4.2724528312683105
1475498959823,-8.362946510314941,-2.07397723197937,4.307767391204834
1475498960006,-8.343194007873535,-2.10210919380188,4.3173441886901855
1475498960186,-8.325238227844238,-2.033275842666626,4.301183223724365
1475498960368,-8.326435089111328,-2.118868589401245,4.278438568115234
1475498960546,-8.32104778289795,-2.035670042037964,4.373009204864502
1475498960728,-8.389881134033203,-2.095525026321411,4.234744071960449
1475498960905,-8.371326446533203,-2.0673930644989014,4.355052947998047
1475498961088,-8.379706382751465,-2.102707624435425,4.302380561828613
1475498961264,-8.356362342834473,-2.053626537322998,4.307168960571289
1475498961448,-8.359953880310059,-2.1074960231781006,4.2963948249816895
1475498961627,-8.38449478149414,-2.052429437637329,4.243124008178711
1475498961806,-8.33840560913086,-2.097320795059204,4.308964729309082
1475498961985,-8.373720169067383,-2.0614075660705566,4.275445461273193
1475498962167,-8.358158111572266,-2.073378562927246,4.315548419952393
1475498962345,-8.35097599029541,-2.0907366275787354,4.279036998748779
1475498962528,-8.35456657409668,-2.076969861984253,4.31135892868042
1475498962709,-8.375515937805176,-2.05781626701355,4.311957359313965
1475498962886,-8.378508567810059,-2.0859482288360596,4.310161590576172
1475498963073,-8.38688850402832,-2.052429437637329,4.301183223724365
1475498963249,-8.340800285339355,-2.079364061355591,4.294000625610352
1475498963427,-8.344391822814941,-2.0374655723571777,4.308964729309082
1475498963610,-8.342596054077148,-2.100912094116211,4.304774761199951
1475498963787,-8.409034729003906,-1.9955670833587646,4.356249809265137
1475498963970,-8.35336971282959,-2.1074960231781006,4.3394904136657715
1475498964150,-8.358757019042969,-2.0476410388946533,4.314949989318848
1475498964328,-8.360552787780762,-2.0919337272644043,4.310760021209717
1475498964509,-8.307281494140625,-2.0614075660705566,4.2742486000061035
1475498964690,-8.333019256591797,-2.117072820663452,4.285621166229248
1475498964868,-8.377910614013672,-2.0470423698425293,4.313154220581055
1475498965051,-8.357559204101563,-2.053626537322998,4.322132587432861
1475498965231,-8.306084632873535,-2.0416555404663086,4.274847030639648
1475498965413,-8.343792915344238,-2.1051018238067627,4.264073371887207
1475498965592,-8.340201377868652,-2.074575662612915,4.31255578994751
1475498965774,-8.379706382751465,-2.049436569213867,4.309563159942627
1475498965952,-8.333019256591797,-2.077568531036377,4.292205333709717
1475498966130,-8.3120698928833,-2.1134815216064453,4.26826286315918
1475498966309,-8.357559204101563,-2.054823637008667,4.331110954284668
1475498966490,-8.380903244018555,-2.052429437637329,4.307168960571289
1475498966673,-8.313865661621094,-2.0458452701568604,4.313753128051758
1475498966850,-8.373122215270996,-2.0937294960021973,4.2951979637146
1475498967034,-8.360552787780762,-2.055422067642212,4.31255578994751
1475498967213,-8.372523307800293,-2.054224967956543,4.2963948249816895
1475498967393,-8.306084632873535,-2.0392613410949707,4.248510837554932
1475498967574,-8.348581314086914,-2.121262788772583,4.253299236297607
1475498967753,-8.352770805358887,-2.079962730407715,4.310161590576172
1475498967934,-8.357559204101563,-2.0374655723571777,4.28322696685791
1475498968113,-8.326435089111328,-2.0673930644989014,4.333505153656006
1475498968301,-8.421006202697754,-2.0853497982025146,4.280832767486572
1475498968473,-8.339603424072266,-2.0673930644989014,4.310760021209717
1475498968653,-8.368931770324707,-2.0919337272644043,4.280233860015869
1475498968832,-8.366538047790527,-2.0703859329223633,4.280233860015869
1475498969015,-8.38808536529541,-2.053027868270874,4.306570529937744
1475498969192,-8.340201377868652,-2.0715830326080322,4.304176330566406
1475498969373,-8.3707275390625,-2.0835540294647217,4.309563159942627
1475498969555,-8.373720169067383,-2.058414936065674,4.299986362457275
1475498969735,-8.402450561523438,-2.035670042037964,4.294000625610352
1475498969915,-8.320449829101563,-2.0859482288360596,4.325125217437744
1475498970095,-8.380304336547852,-2.0272903442382813,4.308964729309082
1475498970275,-8.393472671508789,-2.0626046657562256,4.326322555541992
1475498970457,-8.412027359008789,-2.0632033348083496,4.319738388061523
1475498970636,-8.355764389038086,-2.094926595687866,4.294000625610352
1475498970819,-8.317456245422363,-1.9590555429458618,4.34607458114624
1475498970996,-8.3306245803833,-2.0883424282073975,4.215590476989746
1475498971177,-8.296507835388184,-2.0458452701568604,4.292205333709717
1475498971354,-8.362347602844238,-2.097320795059204,4.237138271331787
1475498971537,-8.346187591552734,-2.036268472671509,4.304176330566406
1475498971714,-8.298901557922363,-2.0835540294647217,4.2329487800598145
1475498971894,-8.340800285339355,-2.099116325378418,4.281431198120117
1475498972078,-8.376114845275879,-2.0715830326080322,4.2957963943481445
1475498972255,-8.380304336547852,-2.0177135467529297,4.284423828125
1475498972438,-8.341997146606445,-2.0847511291503906,4.302978992462158
1475498972617,-8.415618896484375,-2.081159830093384,4.2957963943481445
1475498972798,-8.347982406616211,-2.05123233795166,4.302380561828613
1475498972979,-8.375515937805176,-2.0231003761291504,4.304774761199951
1475498973158,-8.344391822814941,-2.0697872638702393,4.302978992462158
1475498973347,-8.385092735290527,-2.0685901641845703,4.298190593719482
1475498973517,-8.3306245803833,-2.0661959648132324,4.298190593719482
1475498973698,-8.364742279052734,-2.0428526401519775,4.307168960571289
1475498973876,-8.361749649047852,-2.0835540294647217,4.322132587432861
1475498974058,-8.401253700256348,-2.0590133666992188,4.291007995605469
1475498974239,-8.370129585266113,-2.0853497982025146,4.31255578994751
1475498974417,-8.370129585266113,-2.031480073928833,4.316147327423096
1475498974599,-8.36833381652832,-2.0488381385803223,4.323329925537109
1475498974781,-8.402450561523438,-2.0883424282073975,4.2993879318237305
1475498974959,-8.363545417785645,-2.0596120357513428,4.321534156799316
1475498975139,-8.382699012756348,-2.054823637008667,4.293402194976807
1475498975322,-8.324040412902832,-2.072780132293701,4.307168960571289
1475498975502,-8.409034729003906,-2.0805611610412598,4.299986362457275
1475498975684,-8.355165481567383,-2.0644004344940186,4.332906723022461
1475498975860,-8.368931770324707,-2.054823637008667,4.28322696685791
1475498976040,-8.286931037902832,-2.074575662612915,4.298190593719482
1475498976222,-8.38688850402832,-2.081159830093384,4.269460201263428
1475498976398,-8.343194007873535,-2.058414936065674,4.323329925537109
1475498976583,-8.387487411499023,-2.0901381969451904,4.286219596862793
1475498976762,-8.418611526489258,-2.075772762298584,4.306570529937744
1475498976940,-8.355165481567383,-2.0913352966308594,4.28322696685791
1475498977122,-8.359354972839355,-2.0398597717285156,4.313154220581055
1475498977299,-8.37192440032959,-2.100912094116211,4.282628059387207
1475498977482,-8.348581314086914,-2.0847511291503906,4.327519416809082
1475498977663,-8.402450561523438,-2.0691888332366943,4.310760021209717
1475498977844,-8.38808536529541,-2.055422067642212,4.3179426193237305
1475498978024,-8.340201377868652,-2.0901381969451904,4.325125217437744
1475498978203,-8.349778175354004,-2.0159177780151367,4.309563159942627
1475498978379,-8.332420349121094,-2.0847511291503906,4.316147327423096
1475498978563,-8.368931770324707,-2.0853497982025146,4.298789024353027
1475498978744,-8.377311706542969,-2.0667946338653564,4.332906723022461
1475498978921,-8.364742279052734,-2.094926595687866,4.31255578994751
1475498979105,-8.30129623413086,-2.050035238265991,4.264073371887207
1475498979282,-8.325836181640625,-2.1146786212921143,4.24970817565918
1475498979463,-8.333019256591797,-2.0655975341796875,4.307767391204834
1475498979644,-8.358158111572266,-2.074575662612915,4.308964729309082
1475498979825,-8.300697326660156,-2.031480073928833,4.328118324279785
1475498980003,-8.303091049194336,-2.0590133666992188,4.399345397949219
1475498980185,-8.311470985412598,-2.0703859329223633,4.371213912963867
1475498980363,-8.306682586669922,-2.073378562927246,4.368819713592529
1475498980546,-8.295310020446777,-2.079962730407715,4.361637115478516
1475498980724,-8.320449829101563,-2.1314380168914795,4.302978992462158
1475498980902,-8.283937454223633,-2.0626046657562256,4.384980201721191
1475498981084,-8.380304336547852,-2.117671489715576,4.383184909820557
1475498981266,-8.337807655334473,-2.0667946338653564,4.361637115478516
1475498981442,-8.367734909057617,-2.0847511291503906,4.350862979888916
1475498981627,-8.284536361694336,-2.0883424282073975,4.395754337310791
1475498981806,-8.313865661621094,-2.162562608718872,4.326920986175537
1475498981985,-8.310873031616211,-2.102707624435425,4.388571739196777
1475498982166,-8.349778175354004,-2.078166961669922,4.34607458114624
1475498982347,-8.284536361694336,-2.1296424865722656,4.370615005493164
1475498982525,-8.374917984008789,-2.0817582607269287,4.337096214294434
1475498982708,-8.289324760437012,-2.1152772903442383,4.378994941711426
1475498982894,-8.31326675415039,-2.0859482288360596,4.349067211151123
1475498983068,-8.307879447937012,-2.1254525184631348,4.370016574859619
1475498983247,-8.379706382751465,-2.05123233795166,4.39036750793457
1475498983425,-8.284536361694336,-2.143409013748169,4.350862979888916
1475498983608,-8.300098419189453,-2.058414936065674,4.383184909820557
1475498983788,-8.335412979125977,-2.1356279850006104,4.3412861824035645
1475498983965,-8.37192440032959,-2.0380642414093018,4.411316394805908
1475498984148,-8.287528991699219,-2.123058319091797,4.359841346740723
1475498984328,-8.310873031616211,-2.0817582607269287,4.367023944854736
1475498984507,-8.316858291625977,-2.123656988143921,4.347870349884033
1475498984688,-8.29710578918457,-2.035670042037964,4.408323764801025
1475498984868,-8.307879447937012,-2.1284453868865967,4.353257179260254
1475498985049,-8.310274124145508,-2.075772762298584,4.356249809265137
1475498985230,-8.327033042907715,-2.121861219406128,4.338293552398682
1475498985412,-8.267178535461426,-2.0410568714141846,4.393360137939453
1475498985589,-8.311470985412598,-2.118868589401245,4.338891983032227
1475498985769,-8.307879447937012,-2.0697872638702393,4.3825860023498535
1475498985948,-8.364742279052734,-2.095525026321411,4.331110954284668
1475498986130,-8.340800285339355,-2.10210919380188,4.345476150512695
1475498986312,-8.316259384155273,-2.1164743900299072,4.37420654296875
1475498986488,-8.286332130432129,-2.0691888332366943,4.379593372344971
1475498986672,-8.333617210388184,-2.1092917919158936,4.359841346740723
1475498986851,-8.309675216674805,-2.1272482872009277,4.340089321136475
1475498987032,-8.308478355407715,-2.09672212600708,4.381389141082764
1475498987209,-8.300098419189453,-2.0596120357513428,4.36343240737915
1475498987392,-8.299500465393066,-2.120065689086914,4.35684871673584
1475498987569,-8.33840560913086,-2.054224967956543,4.387374401092529
1475498987753,-8.360552787780762,-2.0655975341796875,4.366425514221191
1475498987929,-8.35097599029541,-2.054224967956543,4.365228176116943
1475498988114,-8.276156425476074,-2.1110873222351074,4.380790710449219
1475498988292,-8.400654792785645,-2.0632033348083496,4.335899353027344
1475498988470,-8.40544319152832,-2.1511902809143066,4.247313976287842
1475498988652,-8.309675216674805,-2.056619167327881,4.352060317993164
1475498988834,-8.395866394042969,-2.144007682800293,4.277241230010986
1475498989010,-8.411429405212402,-2.1051018238067627,4.523245334625244
1475498989194,-8.667010307312012,-1.8806453943252563,4.137779235839844
1475498989373,-7.953537940979004,-2.2188265323638916,4.438251495361328
1475498989554,-8.194753646850586,-1.9536685943603516,4.420294761657715
1475498989733,-7.805097579956055,-2.2661118507385254,4.4532151222229
1475498989915,-8.269572257995605,-2.1104888916015625,4.525639533996582
1475498990095,-8.10437297821045,-2.213439464569092,4.684255599975586
1475498990274,-8.359953880310059,-2.1511902809143066,4.614225387573242
1475498990451,-8.20612621307373,-2.2026655673980713,4.547786235809326
1475498990634,-8.194753646850586,-2.1703438758850098,4.61781644821167
1475498990814,-8.20732307434082,-2.1104888916015625,4.6070427894592285
1475498990992,-8.13789176940918,-2.1948843002319336,4.596268653869629
1475498991175,-8.195352554321289,-2.1475989818573,4.584896087646484
1475498991353,-8.134300231933594,-2.1787235736846924,4.606443881988525
1475498991535,-8.166622161865234,-2.144606113433838,4.586691856384277
1475498991715,-8.148066520690918,-2.2002713680267334,4.599261283874512
1475498991896,-8.177994728088379,-2.1098902225494385,4.662707805633545
1475498992075,-8.13789176940918,-2.2469582557678223,4.632780075073242
1475498992254,-8.205527305603027,-2.1553800106048584,4.624400615692139
1475498992436,-8.1325044631958,-2.189497470855713,4.601057052612305
1475498992617,-8.145073890686035,-2.095525026321411,4.617218017578125
1475498992797,-8.130708694458008,-2.233790159225464,4.586691856384277
1475498992974,-8.15764331817627,-2.1727380752563477,4.593276023864746
1475498993156,-8.173206329345703,-2.163161277770996,4.586691856384277
1475498993339,-8.101380348205566,-2.147000312805176,4.5609540939331055
1475498993515,-8.149862289428711,-2.211045265197754,4.55616569519043
1475498993697,-8.119935035705566,-2.1811177730560303,4.609436988830566
1475498993877,-8.150461196899414,-2.1045033931732178,4.616020679473877
1475498994055,-8.12053394317627,-2.2002713680267334,4.596867084503174
1475498994237,-8.179191589355469,-2.1990742683410645,4.58310079574585
1475498994418,-8.127118110656738,-2.1577742099761963,4.61661958694458
1475498994596,-8.18757152557373,-2.117072820663452,4.622604846954346
1475498994779,-8.145073890686035,-2.1960813999176025,4.631583213806152
1475498994957,-8.197746276855469,-2.1553800106048584,4.622006416320801
1475498995139,-8.134899139404297,-2.205059766769409,4.620809078216553
1475498995319,-8.175002098083496,-2.141014814376831,4.6070427894592285
1475498995496,-8.15764331817627,-2.186504602432251,4.64594841003418
1475498995679,-8.20732307434082,-2.169146776199341,4.640561580657959
1475498995857,-8.116942405700684,-2.2020668983459473,4.635773181915283
1475498996036,-8.178592681884766,-2.190095901489258,4.596867084503174
1475498996220,-8.143278121948242,-2.168548107147217,4.653131008148193
1475498996399,-8.210315704345703,-2.145803213119507,4.60165548324585
1475498996577,-8.12292766571045,-2.166752576828003,4.624400615692139
1475498996760,-8.172607421875,-2.1362264156341553,4.587889194488525
1475498996941,-8.121131896972656,-2.212242364883423,4.607641220092773
1475498997122,-8.166023254394531,-2.188300371170044,4.58968448638916
1475498997297,-8.139687538146973,-2.184110403060913,4.61661958694458
1475498997478,-8.175002098083496,-2.163759708404541,4.619013786315918
1475498997663,-8.101978302001953,-2.1709423065185547,4.55496883392334
1475498997841,-8.163629531860352,-2.20924973487854,4.548384666442871
1475498998018,-8.125322341918945,-2.1577742099761963,4.619013786315918
1475498998201,-8.182184219360352,-2.1769278049468994,4.587290287017822
1475498998383,-8.09659194946289,-2.1517887115478516,4.587889194488525
1475498998559,-8.144475936889648,-2.206256866455078,4.569932460784912
1475498998743,-8.13370132446289,-2.1709423065185547,4.621407985687256
1475498998920,-8.176198959350586,-2.1733365058898926,4.6273932456970215
1475498999100,-8.094197273254395,-2.1332337856292725,4.586691856384277
1475498999282,-8.118139266967773,-2.2230162620544434,4.5825018882751465
1475498999463,-8.142680168151855,-2.1499931812286377,4.614823818206787
1475498999652,-8.152256965637207,-2.190095901489258,4.626794815063477
1475498999824,-8.116942405700684,-2.1290438175201416,4.617218017578125
1475499000018,-8.10018253326416,-2.2200236320495605,4.616020679473877
1475499000182,-8.17141056060791,-2.1787235736846924,4.624999046325684
1475499000362,-8.161833763122559,-2.1948843002319336,4.6058454513549805
1475499000542,-8.12053394317627,-2.1739351749420166,4.638765811920166
1475499000723,-8.14028549194336,-2.2194249629974365,4.611232280731201
1475499000904,-8.154650688171387,-2.181716203689575,4.626196384429932
1475499001081,-8.161833763122559,-2.2038626670837402,4.58968448638916
1475499001262,-8.158841133117676,-2.120664119720459,4.69682502746582
1475499001446,-8.127716064453125,-2.213439464569092,4.620210647583008
1475499001623,-8.143877029418945,-2.1787235736846924,4.636371612548828
1475499001805,-8.167220115661621,-2.2176294326782227,4.595071792602539
1475499001984,-8.188169479370117,-2.1308395862579346,4.692635536193848
1475499002166,-8.136096000671387,-2.2020668983459473,4.616020679473877
1475499002342,-8.133103370666504,-2.1805191040039063,4.63517427444458
1475499002528,-8.176796913146973,-2.1960813999176025,4.6058454513549805
1475499002704,-8.192359924316406,-2.142810583114624,4.647744178771973
1475499002884,-8.139687538146973,-2.1781249046325684,4.612429618835449
1475499003063,-8.119935035705566,-2.189497470855713,4.595071792602539
1475499003246,-8.164826393127441,-2.1739351749420166,4.6052470207214355
1475499003423,-8.163030624389648,-2.23199462890625,4.593874454498291
1475499003603,-8.127716064453125,-2.1990742683410645,4.592677593231201
1475499003787,-8.145073890686035,-2.1302409172058105,4.608239650726318
1475499003965,-8.143278121948242,-2.184709072113037,4.623802185058594
1475499004148,-8.142081260681152,-2.2260091304779053,4.612429618835449
1475499004324,-8.175002098083496,-2.1362264156341553,4.657919406890869
1475499004508,-8.208520889282227,-2.1499931812286377,4.581305027008057
1475499004685,-8.094197273254395,-2.1715409755706787,4.634575843811035
1475499004868,-8.191162109375,-2.0715830326080322,4.61661958694458
1475499005045,-8.12292766571045,-2.1912930011749268,4.627991676330566
1475499005227,-8.198944091796875,-2.1745336055755615,4.614225387573242
1475499005409,-8.122329711914063,-2.166752576828003,4.622006416320801
1475499005585,-8.163030624389648,-2.1805191040039063,4.594472885131836
1475499005768,-8.087613105773926,-2.145803213119507,4.578312397003174
1475499005948,-8.160636901855469,-2.2415714263916016,4.545990467071533
1475499006127,-8.127118110656738,-2.1583728790283203,4.641160011291504
1475499006308,-8.151658058166504,-2.212841033935547,4.5836992263793945
1475499006489,-8.119935035705566,-2.1320366859436035,4.656722068786621
1475499006668,-8.083423614501953,-2.2397756576538086,4.599261283874512
1475499006848,-8.142680168151855,-2.1296424865722656,4.632181644439697
1475499007029,-8.175600051879883,-2.210446834564209,4.595071792602539
1475499007211,-8.20373249053955,-2.100912094116211,4.699219226837158
1475499007387,-8.147468566894531,-2.211045265197754,4.614225387573242
1475499007567,-8.137292861938477,-2.1511902809143066,4.622604846954346
1475499007750,-8.18757152557373,-2.1984755992889404,4.614823818206787
1475499007930,-8.196549415588379,-2.1559786796569824,4.652532577514648
1475499008107,-8.118139266967773,-2.2038626670837402,4.620809078216553
1475499008291,-8.15524959564209,-2.1811177730560303,4.609436988830566
1475499008472,-8.153453826904297,-2.184709072113037,4.611831188201904
1475499008648,-8.197746276855469,-2.1733365058898926,4.602254390716553
1475499008831,-8.128912925720215,-2.188300371170044,4.6058454513549805
1475499009011,-8.108562469482422,-2.161964178085327,4.613028049468994
1475499009192,-8.145672798156738,-2.2014684677124023,4.58968448638916
1475499009369,-8.224082946777344,-2.144007682800293,4.547786235809326
1475499009553,-8.168417930603027,-2.1110873222351074,4.641160011291504
1475499009732,-8.148066520690918,-2.230797529220581,4.568136692047119
1475499009916,-8.086416244506836,-2.233790159225464,4.592078685760498
1475499010089,-8.35097599029541,-2.2882583141326904,4.546588897705078
1475499010273,-8.043320655822754,-2.188300371170044,4.742913722991943
1475499010452,-8.267777442932129,-2.1721394062042236,4.521450042724609
1475499010631,-8.073247909545898,-2.1972784996032715,4.659715175628662
1475499010813,-8.158841133117676,-2.183511972427368,4.637568473815918
1475499010993,-8.189367294311523,-2.1715409755706787,4.6070427894592285
1475499011170,-8.124124526977539,-2.2008697986602783,4.647744178771973
1475499011354,-8.18876838684082,-2.1799206733703613,4.57232666015625
1475499011533,-8.111555099487305,-2.2002713680267334,4.634575843811035
1475499011713,-8.145672798156738,-2.145803213119507,4.58968448638916
1475499011893,-8.134899139404297,-2.2038626670837402,4.620809078216553
1475499012074,-8.197148323059082,-2.11946702003479,4.687847137451172
1475499012254,-8.111555099487305,-2.2385785579681396,4.6058454513549805
1475499012432,-8.138489723205566,-2.1781249046325684,4.635773181915283
1475499012612,-8.150461196899414,-2.20924973487854,4.587290287017822
1475499012795,-8.114547729492188,-2.1098902225494385,4.668094635009766
1475499012975,-8.10437297821045,-2.233191728591919,4.613626480102539
1475499013153,-8.153453826904297,-2.1793220043182373,4.642356872558594
1475499013360,-8.152256965637207,-2.1715409755706787,4.596867084503174
1475499013516,-8.090007781982422,-2.1589713096618652,4.574122428894043
1475499013693,-8.136096000671387,-2.2206220626831055,4.604648590087891
1475499013876,-8.146271705627441,-2.167351007461548,4.630385875701904
1475499014056,-8.158242225646973,-2.1942858695983887,4.598064422607422
1475499014236,-8.089408874511719,-2.1140801906585693,4.608239650726318
1475499014414,-8.114547729492188,-2.2469582557678223,4.579509258270264
1475499014603,-8.149264335632324,-2.1715409755706787,4.633378982543945
1475499014776,-8.17021369934082,-2.1697452068328857,4.58968448638916
1475499014958,-8.214506149291992,-2.1104888916015625,4.677073001861572
1475499015134,-8.108562469482422,-2.209848165512085,4.641160011291504
1475499015314,-8.165425300598145,-2.161365509033203,4.6285905838012695
1475499015497,-8.134300231933594,-2.1978771686553955,4.6058454513549805
1475499015675,-8.20492935180664,-2.099714994430542,4.687847137451172
1475499015857,-8.11634349822998,-2.212242364883423,4.637568473815918
1475499016036,-8.129511833190918,-2.185307502746582,4.629787445068359
1475499016216,-8.172008514404297,-2.2212207317352295,4.604648590087891
1475499016397,-8.131307601928711,-2.138620615005493,4.654327869415283
1475499016578,-8.121131896972656,-2.1799206733703613,4.641160011291504
1475499016759,-8.150461196899414,-2.1703438758850098,4.632780075073242
1475499016937,-8.139687538146973,-2.188300371170044,4.622006416320801
1475499017119,-8.18876838684082,-2.120065689086914,4.669291973114014
1475499017296,-8.13669490814209,-2.1960813999176025,4.629787445068359
1475499017480,-8.127118110656738,-2.1487960815429688,4.610035419464111
1475499017656,-8.158242225646973,-2.204461097717285,4.607641220092773
1475499017840,-8.139687538146973,-2.2451627254486084,4.58310079574585
1475499018018,-8.129511833190918,-2.166153907775879,4.624999046325684
1475499018198,-8.105569839477539,-2.1517887115478516,4.6058454513549805
1475499018379,-8.130708694458008,-2.190694570541382,4.619013786315918
1475499018561,-8.116942405700684,-2.181716203689575,4.631583213806152
1475499018739,-8.17380428314209,-2.183511972427368,4.623203277587891
1475499018922,-8.161833763122559,-2.144007682800293,4.638765811920166
1475499019100,-8.135497093200684,-2.2146365642547607,4.590283393859863
1475499019282,-8.127716064453125,-2.1080946922302246,4.645349979400635
1475499019461,-8.136096000671387,-2.187103271484375,4.52803373336792
1475499019640,-8.125322341918945,-2.2224178314208984,4.602254390716553
1475499019821,-8.118139266967773,-2.1799206733703613,4.599860191345215
1475499020001,-8.138489723205566,-2.188898801803589,4.595071792602539
1475499020179,-8.158242225646973,-2.117671489715576,4.684854030609131
1475499020363,-8.144475936889648,-2.2176294326782227,4.636970043182373
1475499020542,-8.150461196899414,-2.1074960231781006,4.659116744995117
1475499020720,-8.078036308288574,-2.1481974124908447,4.653131008148193
1475499020903,-8.259995460510254,-2.2194249629974365,4.51067590713501
1475499021084,-8.019378662109375,-2.18770170211792,4.698620796203613
1475499021262,-8.231863975524902,-2.1565771102905273,4.550778865814209
1475499021443,-8.066065788269043,-2.1697452068328857,4.6489410400390625
1475499021623,-8.185775756835938,-2.1122844219207764,4.611831188201904
1475499021804,-8.085219383239746,-2.1775264739990234,4.639962673187256
1475499021982,-8.183979988098145,-2.1942858695983887,4.58848762512207
1475499022161,-8.148066520690918,-2.1769278049468994,4.627991676330566
1475499022343,-8.160636901855469,-2.1793220043182373,4.613028049468994
1475499022525,-8.18757152557373,-2.0931308269500732,4.704606533050537
1475499022701,-8.130708694458008,-2.2170307636260986,4.620210647583008
1475499022884,-8.165425300598145,-2.1763293743133545,4.642356872558594
1475499023064,-8.140884399414063,-2.190095901489258,4.61661958694458
1475499023243,-8.116942405700684,-2.2427685260772705,4.607641220092773
1475499023424,-8.161234855651855,-2.1709423065185547,4.593276023864746
1475499023605,-8.210914611816406,-2.271498918533325,4.55616569519043
1475499023785,-8.26358699798584,-2.3798365592956543,4.614823818206787
1475499023965,-8.066065788269043,-2.1799206733703613,4.607641220092773
1475499024147,-8.173206329345703,-2.0871453285217285,4.666299343109131
1475499024326,-8.08282470703125,-2.181716203689575,4.656722068786621
1475499024505,-8.20612621307373,-2.189497470855713,4.619013786315918
1475499024683,-8.112154006958008,-2.211045265197754,4.60165548324585
1475499024866,-8.209717750549316,-2.207453966140747,4.524442672729492
1475499025046,-8.352770805358887,-2.405574083328247,4.744709014892578
1475499025223,-8.275558471679688,-2.2409727573394775,4.4957122802734375
1475499025407,-7.796119213104248,-2.3098061084747314,4.800972938537598
1475499025586,-8.307281494140625,-2.1811177730560303,4.292205333709717
1475499025764,-7.948749542236328,-2.123058319091797,4.549582004547119
1475499025946,-7.597400665283203,-2.2619221210479736,4.671686172485352
1475499026127,-8.696937561035156,-2.0374655723571777,4.489128112792969
1475499026307,-8.02536392211914,-2.210446834564209,4.578312397003174
1475499026488,-8.130708694458008,-2.1493945121765137,4.60165548324585
1475499026667,-8.201337814331055,-2.0937294960021973,4.565742492675781
1475499026847,-7.984064102172852,-2.4378957748413086,4.8704047203063965
1475499027033,-8.310274124145508,-2.0201077461242676,4.511873245239258
1475499027205,-7.996035099029541,-2.315192937850952,4.754884719848633
1475499027389,-8.183979988098145,-2.190095901489258,4.6291890144348145
1475499027568,-8.081028938293457,-2.183511972427368,4.702212333679199
1475499027746,-8.093000411987305,-2.214038133621216,4.6914381980896
1475499027928,-8.134300231933594,-2.212841033935547,4.672883033752441
1475499028109,-8.06546688079834,-2.1984755992889404,4.684854030609131
1475499028287,-8.160636901855469,-2.2170307636260986,4.642356872558594
1475499028469,-8.234856605529785,-2.20924973487854,4.589086055755615
1475499028649,-8.198345184326172,-2.1350293159484863,4.3825860023498535
1475499028829,-8.69873332977295,-1.7016788721084595,4.067150115966797
1475499029008,-8.621520042419434,-1.9572598934173584,4.044404983520508
1475499029190,-8.541314125061035,-1.646013617515564,3.9049429893493652
1475499029370,-7.9451584815979,-2.007538080215454,4.480149745941162
1475499029552,-8.458115577697754,-2.0177135467529297,4.32871675491333
1475499029727,-8.988431930541992,-2.0638017654418945,4.264073371887207
1475499029912,-8.418611526489258,-2.190095901489258,4.4274773597717285
1475499030088,-8.167819023132324,-2.448669672012329,4.5388078689575195
1475499030269,-8.288127899169922,-2.3068132400512695,4.327519416809082
1475499030449,-8.08402156829834,-2.4241292476654053,4.620210647583008
1475499030632,-8.150461196899414,-2.384026288986206,4.522048473358154
1475499030809,-8.101380348205566,-2.3983914852142334,4.5423994064331055
1475499030990,-8.102577209472656,-2.3792378902435303,4.545990467071533
1475499031173,-8.111555099487305,-2.430713176727295,4.564545631408691
1475499031351,-8.127716064453125,-2.3965959548950195,4.573523998260498
1475499031533,-8.128912925720215,-2.3780407905578613,4.553771495819092
1475499031715,-8.056488990783691,-2.4594438076019287,4.623203277587891
1475499031893,-8.14028549194336,-2.4151508808135986,4.550180435180664
1475499032073,-8.034342765808105,-2.279878616333008,4.640561580657959
1475499032251,-8.13370132446289,-2.4025814533233643,4.547786235809326
1475499032432,-8.167220115661621,-2.4025814533233643,4.567538261413574
1475499032614,-8.06666374206543,-2.4019827842712402,4.590283393859863
1475499032790,-8.126519203186035,-2.3361423015594482,4.550180435180664
1475499032974,-8.085817337036133,-2.4127566814422607,4.548384666442871
1475499033152,-8.143877029418945,-2.3924059867858887,4.527435302734375
1475499033333,-8.13908863067627,-2.4384944438934326,4.54299783706665
1475499033511,-8.06666374206543,-2.319382905960083,4.651933670043945
1475499033692,-8.115745544433594,-2.4630351066589355,4.522048473358154
1475499033875,-8.08282470703125,-2.411559581756592,4.544793605804443
1475499034054,-8.09778881072998,-2.4151508808135986,4.547786235809326
1475499034233,-8.111555099487305,-2.338536500930786,4.595071792602539
1475499034414,-8.081028938293457,-2.4001872539520264,4.531625270843506
1475499034596,-8.155848503112793,-2.406172752380371,4.548983097076416
1475499034772,-8.087015151977539,-2.3989901542663574,4.586093425750732
1475499034956,-8.112752914428711,-2.380434989929199,4.5842976570129395
1475499035135,-8.087015151977539,-2.390610456466675,4.531026840209961
1475499035313,-8.104970932006836,-2.450465440750122,4.507084846496582
1475499035497,-8.078036308288574,-2.411559581756592,4.566341400146484
1475499035678,-8.146271705627441,-2.360084295272827,4.587889194488525
1475499035855,-8.061875343322754,-2.3948001861572266,4.5154643058776855
1475499036037,-8.127716064453125,-2.453458309173584,4.486733913421631
1475499036218,-8.066065788269043,-2.364872694015503,4.595071792602539
1475499036397,-8.143278121948242,-2.4887726306915283,4.530427932739258
1475499036575,-8.087613105773926,-2.3271639347076416,4.611831188201904
1475499036754,-8.11634349822998,-2.411559581756592,4.581903457641602
1475499036937,-8.106168746948242,-2.410362482070923,4.598064422607422
1475499037118,-8.13908863067627,-2.387617588043213,4.55616569519043
1475499037294,-8.071452140808105,-2.4594438076019287,4.5190558433532715
1475499037477,-8.081028938293457,-2.3965959548950195,4.563348293304443
1475499037657,-8.130708694458008,-2.3792378902435303,4.564545631408691
1475499037837,-8.104970932006836,-2.390011787414551,4.599261283874512
1475499038018,-8.124124526977539,-2.339733600616455,4.5825018882751465
1475499038198,-8.078635215759277,-2.4217350482940674,4.555567264556885
1475499038377,-8.128314971923828,-2.425924777984619,4.528632640838623
1475499038559,-8.08162784576416,-2.3983914852142334,4.575319290161133
1475499038737,-8.106766700744629,-2.4205379486083984,4.531625270843506
1475499038919,-8.167220115661621,-2.3684639930725098,4.592677593231201
1475499039099,-8.112752914428711,-2.4223334789276123,4.569334030151367
1475499039276,-8.113350868225098,-2.3798365592956543,4.593874454498291
1475499039459,-8.102577209472656,-2.405574083328247,4.574122428894043
1475499039637,-8.091204643249512,-2.431311845779419,4.563348293304443
1475499039817,-8.127118110656738,-2.4450783729553223,4.594472885131836
1475499040000,-8.123526573181152,-2.3792378902435303,4.6058454513549805
1475499040180,-8.09778881072998,-2.4157495498657227,4.577115058898926
1475499040358,-8.098387718200684,-2.412158250808716,4.5842976570129395
1475499040540,-8.078036308288574,-2.3756465911865234,4.593276023864746
1475499040722,-8.121131896972656,-2.4444799423217773,4.57232666015625
1475499040900,-8.107964515686035,-2.385223388671875,4.58310079574585
1475499041081,-8.093599319458008,-2.406771183013916,4.577713489532471
1475499041265,-8.147468566894531,-2.390011787414551,4.54419469833374
1475499041443,-8.068459510803223,-2.434903144836426,4.568136692047119
1475499041621,-8.115745544433594,-2.3493103981018066,4.557961463928223
1475499041799,-8.12173080444336,-2.3918075561523438,4.5388078689575195
1475499041981,-8.058284759521484,-2.4414870738983154,4.545392036437988
1475499042163,-8.087015151977539,-2.4229321479797363,4.546588897705078
1475499042339,-8.091803550720215,-2.3912088871002197,4.556764602661133
1475499042524,-8.10437297821045,-2.42472767829895,4.581903457641602
1475499042702,-8.106766700744629,-2.409764051437378,4.594472885131836
1475499042883,-8.117541313171387,-2.3995885848999023,4.627991676330566
1475499043060,-8.161234855651855,-2.380434989929199,4.577713489532471
1475499043243,-8.106766700744629,-2.4151508808135986,4.591480255126953
1475499043423,-8.125322341918945,-2.3912088871002197,4.584896087646484
1475499043604,-8.094197273254395,-2.366668462753296,4.50947904586792
1475499043785,-8.090007781982422,-2.4414870738983154,4.520851135253906
1475499043963,-8.06666374206543,-2.3971943855285645,4.5825018882751465
1475499044143,-8.125322341918945,-2.4235305786132813,4.534617900848389
1475499044322,-8.175600051879883,-2.3487119674682617,4.613028049468994
1475499044504,-8.093000411987305,-2.40736985206604,4.586093425750732
1475499044685,-8.11514663696289,-2.4019827842712402,4.577713489532471
1475499044862,-8.1325044631958,-2.4133553504943848,4.577115058898926
1475499045044,-8.088212013244629,-2.2194249629974365,4.610035419464111
1475499045224,-8.183381080627441,-2.4013843536376953,4.626794815063477
