timestamp,ax,ay,az
1483788769335,-5.646724700927734,3.2130186557769775,6.435015678405762
1483788769525,-5.992088317871094,3.354276657104492,6.631938934326172
1483788769695,-4.994903087615967,3.359663486480713,5.721543312072754
1483788769876,-10.178948402404785,0.9702502489089966,6.909666061401367
1483788770060,-5.281609058380127,1.9333178997039795,6.733692169189453
1483788770239,-5.116408824920654,-1.8830395936965942,8.174403190612793
1483788770419,-6.905476093292236,3.005920171737671,5.37438440322876
1483788770601,-6.434417247772217,2.186504602432251,6.797737121582031
1483788770781,-6.327276706695557,2.5731682777404785,6.576871871948242
1483788770961,-6.501454830169678,2.452261209487915,6.465541839599609
1483788771147,-5.784989833831787,2.4133553504943848,7.0587053298950195
1483788771318,-6.590638637542725,2.5468320846557617,6.649296760559082
1483788771498,-6.221333026885986,2.4205379486083984,6.856395244598389
1483788771679,-6.303933143615723,2.449268341064453,6.748656272888184
1483788771860,-6.24587345123291,2.433107376098633,6.780379295349121
1483788772042,-6.275202751159668,2.4660277366638184,6.787561893463135
1483788772223,-6.28896951675415,2.451063871383667,6.806117057800293
1483788772398,-6.2853779792785645,2.4600422382354736,6.778583526611328
1483788772582,-6.2835822105407715,2.4438812732696533,6.785167694091797
1483788772763,-6.296750545501709,2.4660277366638184,6.774393558502197
1483788772941,-6.292560577392578,2.449268341064453,6.813299655914307
1483788773132,-6.27400541305542,2.470816135406494,6.7923502922058105
1483788773303,-6.3051300048828125,2.448669672012329,6.7696051597595215
1483788773483,-6.265625953674316,2.4588451385498047,6.7749924659729
1483788773664,-6.272210121154785,2.455852508544922,6.78816032409668
1483788773844,-6.308721542358398,2.408566951751709,6.770204067230225
1483788774024,-6.259640216827393,2.455852508544922,6.798934459686279
1483788774208,-6.2847795486450195,2.454655408859253,6.764816761016846
1483788774385,-6.294954776763916,2.4648306369781494,6.7935471534729
1483788774565,-6.285976409912109,2.4438812732696533,6.765415668487549
1483788774745,-6.2847795486450195,2.4408886432647705,6.7510504722595215
1483788774924,-6.275801181793213,2.4450783729553223,6.789357662200928
1483788775105,-6.285976409912109,2.4582467079162598,6.791751861572266
1483788775285,-6.294356346130371,2.4468741416931152,6.770204067230225
1483788775464,-6.280589580535889,2.410362482070923,6.761824131011963
1483788775646,-6.25664758682251,2.456450939178467,6.780977725982666
1483788775826,-6.2835822105407715,2.455253839492798,6.762422561645508
1483788776006,-6.260837554931641,2.44747257232666,6.795342922210693
1483788776185,-6.291363716125488,2.4684219360351563,6.778583526611328
1483788776365,-6.25664758682251,2.4576480388641357,6.775590896606445
1483788776547,-6.252457618713379,2.472611904144287,6.782175064086914
1483788776727,-6.304531574249268,2.403778553009033,6.7696051597595215
1483788776908,-6.264428615570068,2.453458309173584,6.761225700378418
1483788777085,-6.318896770477295,2.43011474609375,6.769006729125977
1483788777265,-6.2392897605896,2.474407434463501,6.775590896606445
1483788777444,-6.278793811798096,2.448669672012329,6.769006729125977
1483788777628,-6.315305709838867,2.40736985206604,6.780977725982666
1483788777808,-6.273406982421875,2.4654293060302734,6.778583526611328
1483788777989,-6.299743175506592,2.455852508544922,6.782773494720459
1483788778169,-6.281188011169434,2.4355015754699707,6.7935471534729
1483788778345,-6.268618583679199,2.4420857429504395,6.727108001708984
1483788778528,-6.291962146759033,2.4426841735839844,6.770204067230225
1483788778709,-6.281188011169434,2.453458309173584,6.783970355987549
1483788778889,-6.29016637802124,2.434903144836426,6.7492547035217285
1483788779072,-6.275801181793213,2.455852508544922,6.761824131011963
1483788779249,-6.321290969848633,2.448669672012329,6.780977725982666
1483788779429,-6.298546314239502,2.455253839492798,6.785766124725342
1483788779610,-6.281786918640137,2.4642322063446045,6.800131320953369
1483788779790,-6.267421722412109,2.4456770420074463,6.783371925354004
1483788779970,-6.293757915496826,2.428318977355957,6.781576156616211
1483788780144,-6.297348976135254,2.430713176727295,6.7714009284973145
1483788780331,-6.291363716125488,2.453458309173584,6.773795127868652
1483788780509,-6.301538944244385,2.44747257232666,6.768408298492432
1483788780690,-6.269217014312744,2.4582467079162598,6.775590896606445
1483788780871,-6.31949520111084,2.4660277366638184,6.776787757873535
1483788781049,-6.314706802368164,2.409165382385254,6.782773494720459
1483788781230,-6.279392719268799,2.4594438076019287,6.778583526611328
1483788781409,-6.2865753173828125,2.4444799423217773,6.780379295349121
1483788781591,-6.287173748016357,2.497152328491211,6.827065944671631
1483788781770,-6.446986675262451,2.404376983642578,6.691195011138916
1483788781949,-6.2201361656188965,2.5103204250335693,6.819883346557617
1483788782127,-6.325480937957764,2.4426841735839844,6.7935471534729
1483788782312,-6.267421722412109,2.449268341064453,6.7941460609436035
1483788782487,-6.31949520111084,2.4684219360351563,6.775590896606445
1483788782672,-6.291363716125488,2.4444799423217773,6.753444671630859
1483788782852,-6.271611213684082,2.452261209487915,6.783970355987549
1483788783033,-6.291962146759033,2.426523447036743,6.752247333526611
1483788783213,-6.323685169219971,2.4205379486083984,6.754641532897949
1483788783394,-6.260837554931641,2.4624364376068115,6.777386665344238
1483788783573,-6.294356346130371,2.4396915435791016,6.733692169189453
1483788783753,-6.275801181793213,2.450465440750122,6.718728542327881
1483788783935,-6.30094051361084,2.3989901542663574,6.746262073516846
1483788784113,-6.289567947387695,2.4396915435791016,6.76002836227417
1483788784294,-6.3284735679626465,2.429516077041626,6.746262073516846
1483788784469,-6.29016637802124,2.454655408859253,6.778583526611328
1483788784654,-6.299743175506592,2.448071241378784,6.785766124725342
1483788784832,-6.31829833984375,2.4366986751556396,6.790554523468018
1483788785012,-6.290764808654785,2.452261209487915,6.767210960388184
1483788785194,-6.312911510467529,2.4390928745269775,6.765415668487549
1483788785375,-6.296152114868164,2.4456770420074463,6.750451564788818
1483788785555,-6.315904140472412,2.4241292476654053,6.746262073516846
1483788785735,-6.279392719268799,2.407968282699585,6.727108001708984
1483788785915,-6.3063273429870605,2.4187421798706055,6.751648902893066
1483788786095,-6.294954776763916,2.4444799423217773,6.755239963531494
1483788786276,-6.326079368591309,2.4378957748413086,6.746860504150391
1483788786451,-6.3081231117248535,2.4378957748413086,6.761824131011963
1483788786635,-6.338050365447998,2.43011474609375,6.764218330383301
1483788786816,-6.30213737487793,2.427121877670288,6.779780864715576
1483788786996,-6.3051300048828125,2.454056739807129,6.782175064086914
1483788787176,-6.309918403625488,2.4468741416931152,6.781576156616211
1483788787357,-6.278195381164551,2.4355015754699707,6.7749924659729
1483788787532,-6.279991149902344,2.453458309173584,6.779181957244873
1483788787717,-6.272210121154785,2.454056739807129,6.766014099121094
1483788787897,-6.326079368591309,2.4157495498657227,6.774393558502197
1483788788077,-6.291962146759033,2.4378957748413086,6.754641532897949
1483788788255,-6.310517311096191,2.4361002445220947,6.761225700378418
1483788788438,-6.310517311096191,2.4007856845855713,6.757634162902832
1483788788615,-6.33565616607666,2.4432828426361084,6.755239963531494
1483788788799,-6.30094051361084,2.425924777984619,6.748656272888184
1483788788976,-6.288370609283447,2.454655408859253,6.752247333526611
1483788789154,-6.313509941101074,2.4133553504943848,6.754043102264404
1483788789339,-6.303334712982178,2.425326347351074,6.76002836227417
1483788789517,-6.321290969848633,2.4013843536376953,6.7725982666015625
1483788789698,-6.279991149902344,2.4468741416931152,6.7708024978637695
1483788789879,-6.302735805511475,2.449268341064453,6.737283706665039
1483788790060,-6.3069257736206055,2.4229321479797363,6.756437301635742
1483788790239,-6.3063273429870605,2.433706045150757,6.745663166046143
1483788790418,-6.291962146759033,2.4426841735839844,6.765415668487549
1483788790597,-6.282983779907227,2.4456770420074463,6.745663166046143
1483788790780,-6.3296709060668945,2.40736985206604,6.7480573654174805
1483788790960,-6.275202751159668,2.427720546722412,6.745064735412598
1483788791140,-6.30094051361084,2.449268341064453,6.738480567932129
1483788791320,-6.30752420425415,2.4187421798706055,6.77618932723999
1483788791499,-6.303933143615723,2.449268341064453,6.746860504150391
1483788791681,-6.303334712982178,2.4384944438934326,6.737882137298584
1483788791861,-6.308721542358398,2.428917646408081,6.743268966674805
1483788792039,-6.3051300048828125,2.4355015754699707,6.763619899749756
1483788792248,-6.296152114868164,2.433706045150757,6.741473197937012
1483788792400,-6.278793811798096,2.4366986751556396,6.743268966674805
1483788792581,-6.2650275230407715,2.454056739807129,6.753444671630859
1483788792761,-6.3302693367004395,2.3942017555236816,6.766014099121094
1483788792938,-6.296152114868164,2.450465440750122,6.757634162902832
1483788793122,-6.311714172363281,2.4205379486083984,6.7492547035217285
1483788793302,-6.301538944244385,2.408566951751709,6.751648902893066
1483788793482,-6.303933143615723,2.4402899742126465,6.744466304779053
1483788793659,-6.321889400482178,2.432508945465088,6.750451564788818
1483788793843,-6.2847795486450195,2.4660277366638184,6.765415668487549
1483788794023,-6.314108371734619,2.4133553504943848,6.757634162902832
1483788794203,-6.291962146759033,2.4372973442077637,6.763619899749756
1483788794383,-6.278793811798096,2.476203203201294,6.763619899749756
1483788794563,-6.2853779792785645,2.455253839492798,6.778583526611328
1483788794743,-6.339846134185791,2.43011474609375,6.767809867858887
1483788794923,-6.287173748016357,2.4366986751556396,6.764218330383301
1483788795104,-6.313509941101074,2.430713176727295,6.761824131011963
1483788795283,-6.30213737487793,2.3971943855285645,6.755239963531494
1483788795464,-6.289567947387695,2.4343044757843018,6.72531270980835
1483788795644,-6.308721542358398,2.4187421798706055,6.768408298492432
1483788795824,-6.31949520111084,2.448669672012329,6.74267053604126
1483788796004,-6.339846134185791,2.43011474609375,6.769006729125977
1483788796185,-6.311115741729736,2.4181437492370605,6.782773494720459
1483788796365,-6.3302693367004395,2.428318977355957,6.74267053604126
1483788796545,-6.314108371734619,2.4666264057159424,6.767809867858887
1483788796725,-6.33445930480957,2.4612393379211426,6.774393558502197
1483788796905,-6.300341606140137,2.42472767829895,6.764816761016846
1483788797086,-6.260239124298096,2.429516077041626,6.806715488433838
1483788797266,-6.274604320526123,2.44747257232666,6.766612529754639
1483788797444,-6.272210121154785,2.4241292476654053,6.748656272888184
1483788797626,-6.236296653747559,2.390011787414551,6.823474884033203
1483788797806,-6.294356346130371,2.446275472640991,6.762422561645508
1483788797984,-6.3266777992248535,2.430713176727295,6.760627269744873
1483788798167,-6.304531574249268,2.4372973442077637,6.753444671630859
1483788798347,-6.315904140472412,2.427720546722412,6.753444671630859
1483788798523,-6.314706802368164,2.4361002445220947,6.7474589347839355
1483788798707,-6.303334712982178,2.454056739807129,6.777985095977783
1483788798887,-6.311714172363281,2.43011474609375,6.754641532897949
1483788799068,-6.31949520111084,2.4384944438934326,6.757035732269287
1483788799248,-6.335057735443115,2.45285964012146,6.773196697235107
1483788799425,-6.296750545501709,2.411559581756592,6.783371925354004
1483788799609,-6.278195381164551,2.448071241378784,6.7480573654174805
1483788799786,-6.322488307952881,2.4151508808135986,6.749853134155273
1483788799969,-6.30213737487793,2.446275472640991,6.782175064086914
1483788800149,-6.290764808654785,2.4582467079162598,6.766014099121094
1483788800327,-6.282385349273682,2.455253839492798,6.767210960388184
1483788800510,-6.332663536071777,2.3930046558380127,6.7696051597595215
1483788800690,-6.292560577392578,2.450465440750122,6.756437301635742
1483788800864,-6.31949520111084,2.4229321479797363,6.752845764160156
1483788801049,-6.296750545501709,2.403778553009033,6.76002836227417
1483788801227,-6.275202751159668,2.4402899742126465,6.727108001708984
1483788801409,-6.303933143615723,2.4193408489227295,6.761824131011963
1483788801588,-6.300341606140137,2.4361002445220947,6.762422561645508
1483788801770,-6.316502571105957,2.430713176727295,6.757634162902832
1483788801951,-6.302735805511475,2.4420857429504395,6.746860504150391
1483788802130,-6.333860397338867,2.390610456466675,6.7696051597595215
1483788802310,-6.275202751159668,2.43011474609375,6.769006729125977
1483788802491,-6.336254596710205,2.4133553504943848,6.733692169189453
1483788802671,-6.304531574249268,2.4205379486083984,6.764816761016846
1483788802851,-6.304531574249268,2.4642322063446045,6.752845764160156
1483788803030,-6.3051300048828125,2.454655408859253,6.7749924659729
1483788803211,-6.281786918640137,2.4420857429504395,6.7749924659729
1483788803391,-6.31949520111084,2.4127566814422607,6.7696051597595215
1483788803570,-6.269217014312744,2.426523447036743,6.75883150100708
1483788803752,-6.308721542358398,2.4384944438934326,6.730101108551025
1483788803932,-6.3051300048828125,2.4235305786132813,6.779181957244873
1483788804112,-6.327276706695557,2.3798365592956543,6.764816761016846
1483788804292,-6.294954776763916,2.427121877670288,6.761225700378418
1483788804473,-6.294356346130371,2.446275472640991,6.757634162902832
1483788804653,-6.312312602996826,2.4181437492370605,6.751648902893066
1483788804830,-6.30094051361084,2.432508945465088,6.740874767303467
1483788805013,-6.313509941101074,2.405574083328247,6.739677906036377
1483788805193,-6.294356346130371,2.405574083328247,6.721721172332764
1483788805373,-6.299743175506592,2.4378957748413086,6.761824131011963
1483788805553,-6.305728912353516,2.4229321479797363,6.764816761016846
1483788805734,-6.311714172363281,2.4157495498657227,6.741473197937012
1483788805913,-6.313509941101074,2.4127566814422607,6.757634162902832
1483788806094,-6.312911510467529,2.3942017555236816,6.777386665344238
1483788806274,-6.28896951675415,2.42472767829895,6.766612529754639
1483788806454,-6.309918403625488,2.4432828426361084,6.746262073516846
1483788806634,-6.293757915496826,2.4139537811279297,6.781576156616211
1483788806815,-6.303334712982178,2.425326347351074,6.7474589347839355
1483788807011,-6.317101001739502,2.4408886432647705,6.764218330383301
1483788807175,-6.3482255935668945,2.431910276412964,6.757035732269287
1483788807353,-6.304531574249268,2.4025814533233643,6.767210960388184
1483788807536,-6.302735805511475,2.455253839492798,6.757634162902832
1483788807715,-6.317101001739502,2.428917646408081,6.765415668487549
1483788807894,-6.314108371734619,2.4235305786132813,6.73069953918457
1483788808075,-6.317101001739502,2.3714568614959717,6.795342922210693
1483788808256,-6.31829833984375,2.4205379486083984,6.7935471534729
1483788808435,-6.339846134185791,2.384026288986206,6.760627269744873
1483788808616,-6.276399612426758,2.403179883956909,6.777985095977783
1483788808796,-6.33565616607666,2.4151508808135986,6.758233070373535
1483788808976,-6.271611213684082,2.42472767829895,6.706757545471191
1483788809157,-6.273406982421875,2.453458309173584,6.7043633460998535
1483788809337,-6.327276706695557,2.409165382385254,6.74267053604126
1483788809516,-6.278195381164551,2.446275472640991,6.762422561645508
1483788809697,-6.304531574249268,2.410961151123047,6.7031660079956055
1483788809877,-6.315305709838867,2.409165382385254,6.718728542327881
1483788810058,-6.293757915496826,2.4217350482940674,6.764218330383301
1483788810238,-6.342838764190674,2.4169466495513916,6.731297969818115
1483788810418,-6.353612899780273,2.403179883956909,6.748656272888184
1483788810594,-6.327276706695557,2.42472767829895,6.76002836227417
1483788810779,-6.342838764190674,2.3930046558380127,6.745663166046143
1483788810956,-6.310517311096191,2.4355015754699707,6.746262073516846
1483788811139,-6.303334712982178,2.4390928745269775,6.728305339813232
1483788811319,-6.318896770477295,2.390011787414551,6.755239963531494
1483788811500,-6.30213737487793,2.4366986751556396,6.758233070373535
1483788811680,-6.297947406768799,2.4361002445220947,6.7492547035217285
1483788811860,-6.317699909210205,2.4133553504943848,6.759429931640625
1483788812035,-6.333261966705322,2.3977930545806885,6.755239963531494
1483788812219,-6.311714172363281,2.426523447036743,6.745064735412598
1483788812398,-6.327276706695557,2.4019827842712402,6.778583526611328
1483788812580,-6.331466197967529,2.431311845779419,6.748656272888184
1483788812758,-6.327875137329102,2.429516077041626,6.739677906036377
1483788812940,-6.308721542358398,2.448071241378784,6.745663166046143
1483788813119,-6.27280855178833,2.4642322063446045,6.761225700378418
1483788813300,-6.326079368591309,2.390011787414551,6.754641532897949
1483788813481,-6.2853779792785645,2.42472767829895,6.754641532897949
1483788813659,-6.308721542358398,2.4217350482940674,6.713940143585205
1483788813841,-6.310517311096191,2.403179883956909,6.753444671630859
1483788814021,-6.313509941101074,2.449268341064453,6.778583526611328
1483788814201,-6.295553207397461,2.412158250808716,6.7696051597595215
1483788814381,-6.326079368591309,2.4235305786132813,6.763619899749756
1483788814562,-6.274604320526123,2.4432828426361084,6.777985095977783
1483788814737,-6.317101001739502,2.4187421798706055,6.736086368560791
1483788814921,-6.336853504180908,2.427720546722412,6.755838871002197
1483788815102,-6.372167587280273,2.449268341064453,6.77618932723999
1483788815282,-6.338648796081543,2.4181437492370605,6.775590896606445
1483788815462,-6.312911510467529,2.4378957748413086,6.779780864715576
1483788815643,-6.320692539215088,2.4151508808135986,6.788758754730225
1483788815823,-6.314706802368164,2.405574083328247,6.752845764160156
1483788816000,-6.317101001739502,2.4205379486083984,6.757634162902832
1483788816183,-6.273406982421875,2.4361002445220947,6.731297969818115
1483788816363,-6.333261966705322,2.4001872539520264,6.738480567932129
1483788816543,-6.293159008026123,2.3930046558380127,6.745663166046143
1483788816720,-6.314108371734619,2.3912088871002197,6.7265095710754395
1483788816903,-6.309918403625488,2.4193408489227295,6.748656272888184
1483788817083,-6.332663536071777,2.4366986751556396,6.773795127868652
1483788817263,-6.318896770477295,2.4163479804992676,6.76002836227417
1483788817444,-6.3069257736206055,2.4001872539520264,6.69837760925293
1483788817623,-6.317699909210205,2.3918075561523438,6.789956092834473
1483788817800,-6.316502571105957,2.4211363792419434,6.731297969818115
1483788817980,-6.335057735443115,2.410961151123047,6.739677906036377
1483788818165,-6.3051300048828125,2.4025814533233643,6.738480567932129
1483788818345,-6.315305709838867,2.3918075561523438,6.761824131011963
1483788818525,-6.30752420425415,2.4217350482940674,6.745663166046143
1483788818715,-6.297947406768799,2.446275472640991,6.775590896606445
1483788818885,-6.327276706695557,2.4157495498657227,6.754641532897949
1483788819065,-6.34643030166626,2.427720546722412,6.754641532897949
1483788819246,-6.311714172363281,2.427720546722412,6.752247333526611
1483788819424,-6.345831394195557,2.412158250808716,6.745064735412598
1483788819606,-6.3051300048828125,2.427720546722412,6.741473197937012
1483788819786,-6.3296709060668945,2.384026288986206,6.766612529754639
1483788819967,-6.305728912353516,2.367266893386841,6.745663166046143
1483788820147,-6.260239124298096,2.3924059867858887,6.697779178619385
1483788820327,-6.312911510467529,2.3942017555236816,6.727108001708984
1483788820507,-6.314706802368164,2.433706045150757,6.721122741699219
1483788820687,-6.36498498916626,2.3912088871002197,6.712144374847412
1483788820865,-6.329071998596191,2.406172752380371,6.737882137298584
1483788821048,-6.354211330413818,2.3924059867858887,6.797737121582031
1483788821229,-6.309918403625488,2.3774423599243164,6.757035732269287
1483788821409,-6.320094108581543,2.3558945655822754,6.751648902893066
1483788821589,-6.33565616607666,2.3511061668395996,6.737283706665039
1483788821767,-6.31829833984375,2.4019827842712402,6.728305339813232
1483788821949,-6.324882507324219,2.3768436908721924,6.704961776733398
1483788822124,-6.325480937957764,2.4444799423217773,6.685808181762695
1483788822309,-6.320094108581543,2.4187421798706055,6.73189640045166
1483788822490,-6.294356346130371,2.4408886432647705,6.740874767303467
1483788822670,-6.375759124755859,2.403778553009033,6.734889507293701
1483788822845,-6.314108371734619,2.4013843536376953,6.744466304779053
1483788823034,-6.330867767333984,2.3062148094177246,6.756437301635742
1483788823208,-6.27400541305542,2.3564929962158203,6.7277069091796875
1483788823389,-6.3518171310424805,2.4187421798706055,6.695983409881592
1483788823569,-6.325480937957764,2.4408886432647705,6.721721172332764
1483788823762,-6.339846134185791,2.3989901542663574,6.767809867858887
1483788823929,-6.293159008026123,2.3930046558380127,6.73069953918457
1483788824110,-6.31829833984375,2.4007856845855713,6.717531204223633
1483788824291,-6.303933143615723,2.367266893386841,6.722918510437012
1483788824487,-6.303334712982178,2.4444799423217773,6.727108001708984
1483788824651,-6.343437194824219,2.3756465911865234,6.718728542327881
1483788824829,-6.313509941101074,2.410362482070923,6.73189640045166
1483788825011,-6.378751754760742,2.3971943855285645,6.7277069091796875
1483788825190,-6.317101001739502,2.365471363067627,6.715137004852295
1483788825372,-6.332663536071777,2.431910276412964,6.754641532897949
1483788825550,-6.344036102294922,2.3912088871002197,6.712742805480957
1483788825732,-6.323086738586426,2.4175450801849365,6.739078998565674
1483788825907,-6.316502571105957,2.4839842319488525,6.767809867858887
1483788826098,-6.429029941558838,2.4821887016296387,6.692990779876709
1483788826272,-6.393715858459473,2.42472767829895,6.723516941070557
1483788826450,-6.294356346130371,2.4211363792419434,6.763021469116211
1483788826633,-6.31829833984375,2.4241292476654053,6.736086368560791
1483788826811,-6.3081231117248535,2.4456770420074463,6.7265095710754395
1483788826993,-6.292560577392578,2.4684219360351563,6.7714009284973145
1483788827172,-6.363189697265625,2.385223388671875,6.739078998565674
1483788827353,-6.31829833984375,2.3971943855285645,6.723516941070557
1483788827534,-6.333261966705322,2.4013843536376953,6.722319602966309
1483788827714,-6.354211330413818,2.4127566814422607,6.746860504150391
1483788827894,-6.357802391052246,2.433107376098633,6.74267053604126
1483788828074,-6.311714172363281,2.404975652694702,6.733093738555908
1483788828254,-6.363189697265625,2.403179883956909,6.739078998565674
1483788828433,-6.304531574249268,2.42472767829895,6.721122741699219
1483788828615,-6.33445930480957,2.4175450801849365,6.731297969818115
1483788828794,-6.324882507324219,2.409165382385254,6.733692169189453
1483788828975,-6.349422931671143,2.338536500930786,6.743268966674805
1483788829154,-6.3051300048828125,2.4025814533233643,6.722319602966309
1483788829335,-6.327875137329102,2.426523447036743,6.709151744842529
1483788829513,-6.341042995452881,2.404975652694702,6.741473197937012
1483788829696,-6.342240333557129,2.425326347351074,6.731297969818115
1483788829876,-6.3302693367004395,2.451063871383667,6.7265095710754395
1483788830056,-6.320692539215088,2.449866771697998,6.7474589347839355
1483788830236,-6.332663536071777,2.3924059867858887,6.739677906036377
1483788830416,-6.327276706695557,2.431311845779419,6.7265095710754395
1483788830596,-6.33445930480957,2.4205379486083984,6.708553314208984
1483788830777,-6.321290969848633,2.4199392795562744,6.737283706665039
1483788830957,-6.34762716293335,2.390610456466675,6.753444671630859
1483788831137,-6.3063273429870605,2.4235305786132813,6.742072105407715
1483788831317,-6.343437194824219,2.404376983642578,6.730101108551025
1483788831495,-6.338050365447998,2.408566951751709,6.736086368560791
1483788831678,-6.340444564819336,2.4384944438934326,6.744466304779053
1483788831857,-6.330867767333984,2.410362482070923,6.720524311065674
1483788832035,-6.312312602996826,2.409764051437378,6.705560207366943
1483788832215,-6.3518171310424805,2.406172752380371,6.712144374847412
1483788832398,-6.335057735443115,2.4378957748413086,6.7474589347839355
1483788832579,-6.341042995452881,2.3971943855285645,6.72531270980835
1483788832755,-6.316502571105957,2.426523447036743,6.719925403594971
1483788832938,-6.36498498916626,2.434903144836426,6.733692169189453
1483788833119,-6.311115741729736,2.4372973442077637,6.75883150100708
1483788833300,-6.354809761047363,2.4145524501800537,6.738480567932129
1483788833479,-6.309918403625488,2.4163479804992676,6.72531270980835
1483788833660,-6.337451934814453,2.4133553504943848,6.738480567932129
1483788833838,-6.333261966705322,2.3971943855285645,6.757035732269287
1483788834020,-6.321290969848633,2.364872694015503,6.722918510437012
1483788834200,-6.287173748016357,2.403778553009033,6.724115371704102
1483788834380,-6.345232963562012,2.3983914852142334,6.713940143585205
1483788834560,-6.338050365447998,2.425326347351074,6.709750175476074
1483788834740,-6.34762716293335,2.428318977355957,6.706757545471191
1483788834919,-6.332663536071777,2.386420488357544,6.719326972961426
1483788835101,-6.3081231117248535,2.3924059867858887,6.67982292175293
1483788835279,-6.335057735443115,2.3756465911865234,6.706757545471191
1483788835456,-6.312911510467529,2.4229321479797363,6.729502201080322
1483788835641,-6.339846134185791,2.3989901542663574,6.718728542327881
1483788835821,-6.3266777992248535,2.4133553504943848,6.740276336669922
1483788836001,-6.344634532928467,2.367865562438965,6.715735912322998
1483788836182,-6.315305709838867,2.4139537811279297,6.73069953918457
1483788836362,-6.324882507324219,2.4211363792419434,6.73189640045166
1483788836542,-6.332065105438232,2.409165382385254,6.734290599822998
1483788836722,-6.317699909210205,2.431910276412964,6.73189640045166
1483788836902,-6.345831394195557,2.406172752380371,6.742072105407715
1483788837102,-6.378751754760742,2.449268341064453,6.735487937927246
1483788837261,-6.342838764190674,2.386420488357544,6.743867874145508
1483788837443,-6.333261966705322,2.4438812732696533,6.728305339813232
1483788837623,-6.341042995452881,2.3995885848999023,6.697779178619385
1483788837803,-6.321290969848633,2.431910276412964,6.727108001708984
1483788837983,-6.33565616607666,2.448071241378784,6.736684799194336
1483788838161,-6.323086738586426,2.42472767829895,6.735487937927246
1483788838343,-6.338050365447998,2.4139537811279297,6.734889507293701
1483788838521,-6.322488307952881,2.428917646408081,6.739677906036377
1483788838703,-6.342838764190674,2.426523447036743,6.732495307922363
1483788838884,-6.344634532928467,2.425924777984619,6.708553314208984
1483788839064,-6.366780757904053,2.3762452602386475,6.733093738555908
1483788839244,-6.327875137329102,2.4019827842712402,6.740874767303467
1483788839424,-6.336254596710205,2.431311845779419,6.712144374847412
1483788839605,-6.356007099151611,2.409165382385254,6.722918510437012
1483788839785,-6.317699909210205,2.4139537811279297,6.715137004852295
1483788839965,-6.336254596710205,2.4450783729553223,6.728903770446777
1483788840139,-6.3266777992248535,2.433107376098633,6.712144374847412
1483788840321,-6.348824501037598,2.4378957748413086,6.718728542327881
1483788840507,-6.312312602996826,2.4175450801849365,6.7259111404418945
1483788840686,-6.345232963562012,2.428917646408081,6.7474589347839355
1483788840863,-6.352415561676025,2.410961151123047,6.731297969818115
1483788841046,-6.377554893493652,2.3959972858428955,6.722319602966309
1483788841226,-6.339846134185791,2.3912088871002197,6.7492547035217285
1483788841406,-6.327276706695557,2.4355015754699707,6.700771808624268
1483788841586,-6.35301399230957,2.3948001861572266,6.745663166046143
1483788841767,-6.338050365447998,2.4343044757843018,6.740874767303467
1483788841947,-6.36498498916626,2.406771183013916,6.734290599822998
1483788842122,-6.311714172363281,2.3953988552093506,6.740276336669922
1483788842305,-6.344634532928467,2.4187421798706055,6.736684799194336
1483788842487,-6.30752420425415,2.4151508808135986,6.769006729125977
1483788842668,-6.3266777992248535,2.434903144836426,6.72531270980835
1483788842848,-6.341641902923584,2.4205379486083984,6.724115371704102
1483788843029,-6.379350662231445,2.3983914852142334,6.757634162902832
1483788843208,-6.325480937957764,2.4139537811279297,6.757035732269287
1483788843389,-6.315904140472412,2.44747257232666,6.715137004852295
1483788843570,-6.357203960418701,2.3936030864715576,6.735487937927246
1483788843743,-6.341641902923584,2.4217350482940674,6.721122741699219
1483788843929,-6.350619792938232,2.4229321479797363,6.727108001708984
1483788844108,-6.316502571105957,2.4217350482940674,6.766014099121094
1483788844290,-6.342838764190674,2.411559581756592,6.763619899749756
1483788844470,-6.321889400482178,2.406771183013916,6.742072105407715
1483788844649,-6.311115741729736,2.4163479804992676,6.728903770446777
1483788844829,-6.355408191680908,2.4211363792419434,6.758233070373535
1483788845018,-6.370970726013184,2.42472767829895,6.731297969818115
1483788845185,-6.340444564819336,2.427121877670288,6.733093738555908
1483788845370,-6.31949520111084,2.454655408859253,6.733093738555908
1483788845550,-6.358401298522949,2.4013843536376953,6.730101108551025
1483788845729,-6.324283599853516,2.4175450801849365,6.730101108551025
1483788845909,-6.33565616607666,2.4456770420074463,6.724115371704102
1483788846089,-6.338648796081543,2.431311845779419,6.735487937927246
1483788846271,-6.354211330413818,2.388814687728882,6.719326972961426
1483788846451,-6.288370609283447,2.425326347351074,6.761824131011963
1483788846631,-6.36378812789917,2.4127566814422607,6.740874767303467
1483788846810,-6.297348976135254,2.4013843536376953,6.755838871002197
1483788846985,-6.300341606140137,2.4402899742126465,6.722319602966309
1483788847172,-6.338648796081543,2.3762452602386475,6.7277069091796875
1483788847352,-6.331466197967529,2.404975652694702,6.737283706665039
1483788847530,-6.3302693367004395,2.451662540435791,6.743268966674805
1483788847711,-6.305728912353516,2.40736985206604,6.743268966674805
1483788847892,-6.343437194824219,2.3953988552093506,6.766014099121094
1483788848070,-6.3081231117248535,2.4139537811279297,6.736684799194336
1483788848253,-6.3500213623046875,2.3684639930725098,6.742072105407715
1483788848433,-6.297348976135254,2.4654293060302734,6.773795127868652
1483788848613,-6.36378812789917,2.425924777984619,6.731297969818115
1483788848793,-6.361393928527832,2.4241292476654053,6.762422561645508
1483788848973,-6.387730121612549,2.3971943855285645,6.78696346282959
1483788849153,-6.309319972991943,2.4157495498657227,6.74267053604126
1483788849334,-6.347028732299805,2.407968282699585,6.76002836227417
1483788849511,-6.329071998596191,2.3983914852142334,6.7247138023376465
1483788849694,-6.315305709838867,2.409165382385254,6.7265095710754395
1483788849874,-6.345232963562012,2.4438812732696533,6.742072105407715
1483788850050,-6.316502571105957,2.4229321479797363,6.751648902893066
1483788850234,-6.366780757904053,2.4019827842712402,6.75883150100708
1483788850411,-6.317101001739502,2.4181437492370605,6.722918510437012
1483788850593,-6.333261966705322,2.4013843536376953,6.7480573654174805
1483788850774,-6.303933143615723,2.472013235092163,6.75883150100708
1483788850958,-6.309918403625488,2.431910276412964,6.7259111404418945
1483788851135,-6.339846134185791,2.3930046558380127,6.7510504722595215
1483788851315,-6.3296709060668945,2.4133553504943848,6.717531204223633
1483788851496,-6.332663536071777,2.4145524501800537,6.713940143585205
1483788851676,-6.309918403625488,2.431910276412964,6.749853134155273
1483788851856,-6.3482255935668945,2.340930700302124,6.745064735412598
1483788852036,-6.312911510467529,2.409764051437378,6.734290599822998
1483788852215,-6.342240333557129,2.4145524501800537,6.744466304779053
1483788852395,-6.342838764190674,2.3971943855285645,6.738480567932129
1483788852577,-6.337451934814453,2.430713176727295,6.7277069091796875
1483788852757,-6.31949520111084,2.451063871383667,6.715137004852295
1483788852937,-6.305728912353516,2.4414870738983154,6.734290599822998
1483788853117,-6.348824501037598,2.405574083328247,6.720524311065674
1483788853297,-6.312312602996826,2.4199392795562744,6.746860504150391
1483788853474,-6.308721542358398,2.4181437492370605,6.7247138023376465
1483788853657,-6.338050365447998,2.404376983642578,6.754641532897949
1483788853838,-6.336254596710205,2.4211363792419434,6.74267053604126
1483788854018,-6.362590789794922,2.3983914852142334,6.732495307922363
1483788854199,-6.31949520111084,2.4612393379211426,6.752247333526611
1483788854379,-6.349422931671143,2.3924059867858887,6.733692169189453
1483788854559,-6.316502571105957,2.425326347351074,6.727108001708984
1483788854739,-6.384139060974121,2.3798365592956543,6.769006729125977
1483788854918,-6.327276706695557,2.4193408489227295,6.74267053604126
1483788855100,-6.336254596710205,2.412158250808716,6.74267053604126
1483788855279,-6.324283599853516,2.403778553009033,6.72531270980835
1483788855459,-6.316502571105957,2.426523447036743,6.746262073516846
1483788855639,-6.314706802368164,2.4181437492370605,6.742072105407715
1483788855820,-6.378751754760742,2.4432828426361084,6.72531270980835
1483788855998,-6.36378812789917,2.3768436908721924,6.7265095710754395
1483788856180,-6.315904140472412,2.4600422382354736,6.736684799194336
1483788856360,-6.361992359161377,2.40736985206604,6.742072105407715
1483788856539,-6.320094108581543,2.382829189300537,6.729502201080322
1483788856720,-6.325480937957764,2.3331496715545654,6.740276336669922
1483788856901,-6.320692539215088,2.4139537811279297,6.722319602966309
1483788857081,-6.3302693367004395,2.412158250808716,6.7259111404418945
1483788857256,-6.342838764190674,2.369062662124634,6.746860504150391
1483788857440,-6.3063273429870605,2.429516077041626,6.722918510437012
1483788857623,-6.280589580535889,2.363077163696289,6.720524311065674
1483788857801,-6.302735805511475,2.4145524501800537,6.673837184906006
1483788857982,-6.311115741729736,2.3810336589813232,6.697779178619385
1483788858162,-6.33565616607666,2.4630351066589355,6.728305339813232
1483788858340,-6.324882507324219,2.38462495803833,6.717531204223633
1483788858520,-6.30094051361084,2.3594858646392822,6.717531204223633
1483788858702,-6.324283599853516,2.4450783729553223,6.737283706665039
1483788858882,-6.280589580535889,2.451063871383667,6.739677906036377
1483788859063,-6.339846134185791,2.366668462753296,6.730101108551025
1483788859243,-6.315305709838867,2.387019157409668,6.740874767303467
1483788859421,-6.325480937957764,2.4366986751556396,6.7277069091796875
1483788859599,-6.324882507324219,2.410362482070923,6.720524311065674
1483788859782,-6.341641902923584,2.342726469039917,6.752247333526611
1483788859963,-6.301538944244385,2.408566951751709,6.743268966674805
1483788860143,-6.323086738586426,2.4163479804992676,6.713940143585205
1483788860323,-6.358401298522949,2.4013843536376953,6.716334342956543
1483788860503,-6.323685169219971,2.425326347351074,6.717531204223633
1483788860684,-6.338050365447998,2.409764051437378,6.736684799194336
1483788860864,-6.324283599853516,2.429516077041626,6.739677906036377
1483788861044,-6.360196590423584,2.4229321479797363,6.74267053604126
1483788861225,-6.330867767333984,2.3924059867858887,6.753444671630859
1483788861405,-6.354211330413818,2.4145524501800537,6.735487937927246
1483788861583,-6.3296709060668945,2.4420857429504395,6.748656272888184
1483788861765,-6.315305709838867,2.4588451385498047,6.761225700378418
1483788861945,-6.323685169219971,2.3756465911865234,6.736684799194336
1483788862125,-6.317699909210205,2.4157495498657227,6.757634162902832
1483788862310,-6.31949520111084,2.403778553009033,6.739677906036377
1483788862485,-6.370372295379639,2.4169466495513916,6.730101108551025
1483788862665,-6.339846134185791,2.427121877670288,6.724115371704102
1483788862846,-6.312911510467529,2.427720546722412,6.7265095710754395
1483788863023,-6.340444564819336,2.4211363792419434,6.715137004852295
1483788863206,-6.33445930480957,2.409165382385254,6.739078998565674
1483788863382,-6.343437194824219,2.428318977355957,6.708553314208984
1483788863567,-6.358401298522949,2.3277626037597656,6.776787757873535
1483788863747,-6.298546314239502,2.4019827842712402,6.738480567932129
1483788863926,-6.333261966705322,2.412158250808716,6.721122741699219
1483788864107,-6.336853504180908,2.403179883956909,6.7265095710754395
1483788864284,-6.330867767333984,2.404975652694702,6.737882137298584
1483788864466,-6.339247703552246,2.4414870738983154,6.739677906036377
1483788864645,-6.316502571105957,2.404376983642578,6.746262073516846
1483788864829,-6.355408191680908,2.4157495498657227,6.71334171295166
1483788865009,-6.341641902923584,2.45285964012146,6.740276336669922
1483788865187,-6.341042995452881,2.4151508808135986,6.749853134155273
1483788865368,-6.337451934814453,2.42472767829895,6.73069953918457
1483788865548,-6.3973069190979,2.385822057723999,6.7480573654174805
1483788865729,-6.3518171310424805,2.3684639930725098,6.743268966674805
1483788865908,-6.309918403625488,2.446275472640991,6.711545944213867
1483788866089,-6.380547523498535,2.387019157409668,6.728305339813232
1483788866264,-6.321889400482178,2.427121877670288,6.712742805480957
1483788866444,-6.370372295379639,2.321777105331421,6.744466304779053
1483788866630,-6.276998519897461,2.3720552921295166,6.715735912322998
1483788866810,-6.388927459716797,2.362478494644165,6.741473197937012
1483788866989,-6.21115779876709,2.449866771697998,6.801927089691162
1483788867166,-6.304531574249268,2.342726469039917,6.801927089691162
1483788867344,-6.370970726013184,2.3696610927581787,6.724115371704102
1483788867528,-6.339247703552246,2.44747257232666,6.687005519866943
1483788867709,-6.311115741729736,2.4007856845855713,6.745663166046143
1483788867891,-6.285976409912109,2.4408886432647705,6.744466304779053
1483788868069,-6.323086738586426,2.4163479804992676,6.723516941070557
1483788868251,-6.3051300048828125,2.4402899742126465,6.71334171295166
1483788868430,-6.327875137329102,2.410961151123047,6.71453857421875
1483788868611,-6.358999729156494,2.383427858352661,6.7259111404418945
1483788868791,-6.3063273429870605,2.4145524501800537,6.716932773590088
1483788868972,-6.287772178649902,2.403179883956909,6.790554523468018
1483788869152,-6.329071998596191,2.406771183013916,6.745663166046143
1483788869332,-6.3296709060668945,2.4187421798706055,6.764218330383301
1483788869510,-6.294954776763916,2.4235305786132813,6.688202381134033
1483788869695,-6.31949520111084,2.3535003662109375,6.724115371704102
1483788869873,-6.305728912353516,2.5761611461639404,6.729502201080322
1483788870055,-6.3967084884643555,2.4145524501800537,6.729502201080322
1483788870233,-6.369174957275391,2.4235305786132813,6.767809867858887
1483788870413,-6.372167587280273,2.434903144836426,6.777386665344238
1483788870593,-6.340444564819336,2.3959972858428955,6.754043102264404
1483788870773,-6.322488307952881,2.454056739807129,6.764816761016846
1483788870953,-6.337451934814453,2.426523447036743,6.721721172332764
1483788871134,-6.352415561676025,2.4654293060302734,6.768408298492432
1483788871313,-6.300341606140137,2.4366986751556396,6.748656272888184
1483788871494,-6.284181118011475,2.4378957748413086,6.7265095710754395
1483788871674,-6.299743175506592,2.451662540435791,6.75883150100708
1483788871853,-6.356605529785156,2.410362482070923,6.739677906036377
1483788872034,-6.344634532928467,2.428318977355957,6.764816761016846
1483788872215,-6.342240333557129,2.4175450801849365,6.769006729125977
1483788872395,-6.268618583679199,2.4007856845855713,6.809109687805176
1483788872575,-6.3266777992248535,2.3738510608673096,6.780379295349121
1483788872755,-6.282983779907227,2.4241292476654053,6.720524311065674
1483788872935,-6.343437194824219,2.4001872539520264,6.744466304779053
1483788873115,-6.295553207397461,2.4169466495513916,6.764816761016846
1483788873294,-6.309918403625488,2.3983914852142334,6.765415668487549
1483788873472,-6.314108371734619,2.3995885848999023,6.76002836227417
1483788873656,-6.30094051361084,2.4145524501800537,6.738480567932129
1483788873836,-6.299144744873047,2.4175450801849365,6.73069953918457
1483788874016,-6.302735805511475,2.403179883956909,6.723516941070557
1483788874196,-6.316502571105957,2.3558945655822754,6.731297969818115
1483788874377,-6.341641902923584,2.495356798171997,6.735487937927246
1483788874556,-6.341042995452881,2.4390928745269775,6.717531204223633
1483788874732,-6.316502571105957,2.40736985206604,6.753444671630859
1483788874916,-6.31949520111084,2.40736985206604,6.754043102264404
1483788875095,-6.311115741729736,2.362478494644165,6.75883150100708
1483788875278,-6.314108371734619,2.425924777984619,6.76002836227417
1483788875458,-6.331466197967529,2.4355015754699707,6.771999359130859
1483788875636,-6.301538944244385,2.3948001861572266,6.752247333526611
1483788875819,-6.357802391052246,2.408566951751709,6.76002836227417
1483788875999,-6.316502571105957,2.3948001861572266,6.743268966674805
1483788876179,-6.325480937957764,2.426523447036743,6.746860504150391
1483788876359,-6.308721542358398,2.432508945465088,6.746860504150391
1483788876536,-6.309319972991943,2.433706045150757,6.742072105407715
1483788876719,-6.358999729156494,2.3942017555236816,6.741473197937012
1483788876900,-6.31829833984375,2.4019827842712402,6.763619899749756
1483788877079,-6.326079368591309,2.4163479804992676,6.734290599822998
1483788877255,-6.315305709838867,2.4450783729553223,6.717531204223633
1483788877435,-6.3069257736206055,2.426523447036743,6.746262073516846
1483788877620,-6.347028732299805,2.380434989929199,6.743867874145508
1483788877803,-6.31949520111084,2.4366986751556396,6.756437301635742
1483788877980,-6.325480937957764,2.4241292476654053,6.731297969818115
1483788878156,-6.3063273429870605,2.4139537811279297,6.715735912322998
1483788878340,-6.367379188537598,2.4145524501800537,6.761225700378418
1483788878518,-6.327875137329102,2.369062662124634,6.768408298492432
1483788878701,-6.296750545501709,2.434903144836426,6.741473197937012
1483788878881,-6.325480937957764,2.404975652694702,6.743867874145508
1483788879061,-6.311714172363281,2.4187421798706055,6.760627269744873
1483788879241,-6.322488307952881,2.382230758666992,6.751648902893066
1483788879421,-6.30094051361084,2.3977930545806885,6.728903770446777
1483788879601,-6.318896770477295,2.3918075561523438,6.755838871002197
1483788879780,-6.293159008026123,2.4211363792419434,6.739078998565674
1483788879962,-6.305728912353516,2.410362482070923,6.720524311065674
1483788880140,-6.315305709838867,2.431910276412964,6.746262073516846
1483788880321,-6.3081231117248535,2.477400302886963,6.74267053604126
1483788880502,-6.301538944244385,2.4815900325775146,6.736684799194336
1483788880682,-6.36498498916626,2.387617588043213,6.755838871002197
1483788880858,-6.333261966705322,2.427720546722412,6.774393558502197
1483788881042,-6.332065105438232,2.3774423599243164,6.715735912322998
1483788881223,-6.314108371734619,2.412158250808716,6.752845764160156
1483788881403,-6.321889400482178,2.403179883956909,6.783970355987549
1483788881583,-6.299743175506592,2.3995885848999023,6.777985095977783
1483788881765,-6.329071998596191,2.410961151123047,6.72531270980835
1483788881944,-6.339846134185791,2.316988706588745,6.734889507293701
1483788882124,-6.310517311096191,2.365471363067627,6.771999359130859
1483788882330,-6.276998519897461,2.384026288986206,6.785167694091797
1483788882485,-6.361992359161377,2.4821887016296387,6.787561893463135
1483788882664,-6.342240333557129,2.3930046558380127,6.746860504150391
1483788882844,-6.312312602996826,2.450465440750122,6.78816032409668
1483788883025,-6.338648796081543,2.385822057723999,6.750451564788818
1483788883205,-6.310517311096191,2.3487119674682617,6.766612529754639
1483788883385,-6.329071998596191,2.3558945655822754,6.734889507293701
1483788883564,-6.366780757904053,2.4624364376068115,6.732495307922363
1483788883745,-6.354809761047363,2.404376983642578,6.762422561645508
1483788883925,-6.303933143615723,2.4019827842712402,6.7480573654174805
1483788884105,-6.320692539215088,2.390610456466675,6.759429931640625
1483788884286,-6.3266777992248535,2.4157495498657227,6.743268966674805
1483788884466,-6.287173748016357,2.3798365592956543,6.716334342956543
1483788884646,-6.320094108581543,2.3552958965301514,6.754043102264404
1483788884826,-6.291363716125488,2.388814687728882,6.757634162902832
1483788885004,-6.309918403625488,2.4223334789276123,6.7480573654174805
1483788885185,-6.321889400482178,2.4654293060302734,6.7510504722595215
1483788885367,-6.296750545501709,2.4450783729553223,6.739677906036377
1483788885545,-6.355408191680908,2.3594858646392822,6.734290599822998
1483788885727,-6.291363716125488,2.387617588043213,6.778583526611328
1483788885909,-6.342240333557129,2.4199392795562744,6.752247333526611
1483788886087,-6.331466197967529,2.409165382385254,6.761225700378418
1483788886268,-6.3051300048828125,2.3768436908721924,6.761225700378418
1483788886445,-6.304531574249268,2.433107376098633,6.76002836227417
1483788886626,-6.312911510467529,2.43011474609375,6.762422561645508
1483788886806,-6.343437194824219,2.365471363067627,6.758233070373535
1483788886986,-6.300341606140137,2.429516077041626,6.758233070373535
1483788887168,-6.320692539215088,2.47560453414917,6.760627269744873
1483788887349,-6.305728912353516,2.405574083328247,6.763619899749756
1483788887528,-6.360795497894287,2.451662540435791,6.749853134155273
1483788887710,-6.294356346130371,2.363675594329834,6.745663166046143
1483788887890,-6.282983779907227,2.389413356781006,6.769006729125977
1483788888070,-6.251260757446289,2.319382905960083,6.710947513580322
1483788888249,-6.247070789337158,2.427720546722412,6.719326972961426
1483788888430,-6.291962146759033,2.3594858646392822,6.735487937927246
1483788888610,-6.272210121154785,2.4241292476654053,6.753444671630859
1483788888790,-6.318896770477295,2.4133553504943848,6.734889507293701
1483788888970,-6.303933143615723,2.403778553009033,6.7480573654174805
1483788889150,-6.315305709838867,2.425924777984619,6.736684799194336
1483788889330,-6.304531574249268,2.367865562438965,6.737283706665039
1483788889511,-6.299743175506592,2.433107376098633,6.753444671630859
1483788889691,-6.3266777992248535,2.405574083328247,6.742072105407715
1483788889871,-6.309918403625488,2.3798365592956543,6.755239963531494
1483788890051,-6.285976409912109,2.4343044757843018,6.707355976104736
1483788890230,-6.320692539215088,2.3558945655822754,6.723516941070557
1483788890411,-6.289567947387695,2.434903144836426,6.749853134155273
1483788890592,-6.327875137329102,2.403179883956909,6.767210960388184
1483788890772,-6.292560577392578,2.3792378902435303,6.75883150100708
1483788890952,-6.293757915496826,2.4001872539520264,6.729502201080322
1483788891132,-6.342838764190674,2.3780407905578613,6.737882137298584
1483788891310,-6.324882507324219,2.387617588043213,6.7749924659729
1483788891492,-6.318896770477295,2.383427858352661,6.746860504150391
1483788891672,-6.336853504180908,2.387617588043213,6.7714009284973145
1483788891853,-6.30752420425415,2.338536500930786,6.73189640045166
1483788892033,-6.2853779792785645,2.3720552921295166,6.742072105407715
1483788892210,-6.339247703552246,2.4660277366638184,6.776787757873535
1483788892393,-6.340444564819336,2.4175450801849365,6.766612529754639
1483788892571,-6.297947406768799,2.3720552921295166,6.7480573654174805
1483788892754,-6.299743175506592,2.346317768096924,6.71334171295166
1483788892934,-6.298546314239502,2.4624364376068115,6.765415668487549
1483788893114,-6.357802391052246,2.365471363067627,6.775590896606445
1483788893294,-6.30213737487793,2.4169466495513916,6.7510504722595215
1483788893474,-6.314108371734619,2.425326347351074,6.745064735412598
1483788893653,-6.314706802368164,2.3948001861572266,6.754641532897949
1483788893830,-6.294954776763916,2.4199392795562744,6.750451564788818
1483788894015,-6.338050365447998,2.3714568614959717,6.733692169189453
1483788894195,-6.322488307952881,2.406172752380371,6.775590896606445
1483788894375,-6.327875137329102,2.3367409706115723,6.721122741699219
1483788894554,-6.3069257736206055,2.4187421798706055,6.722319602966309
1483788894735,-6.317101001739502,2.3762452602386475,6.746262073516846
1483788894915,-6.318896770477295,2.406172752380371,6.765415668487549
1483788895095,-6.311115741729736,2.4606409072875977,6.75883150100708
1483788895276,-6.311115741729736,2.362478494644165,6.770204067230225
1483788895456,-6.296152114868164,2.4217350482940674,6.754043102264404
1483788895636,-6.332663536071777,2.3965959548950195,6.746262073516846
1483788895816,-6.320692539215088,2.3953988552093506,6.771999359130859
1483788895996,-6.309918403625488,2.382230758666992,6.742072105407715
1483788896176,-6.314108371734619,2.3971943855285645,6.75883150100708
1483788896356,-6.314108371734619,2.4181437492370605,6.756437301635742
1483788896535,-6.295553207397461,2.4193408489227295,6.743268966674805
1483788896717,-6.311714172363281,2.4175450801849365,6.752247333526611
1483788896897,-6.292560577392578,2.403179883956909,6.743268966674805
1483788897076,-6.294356346130371,2.3977930545806885,6.7510504722595215
1483788897283,-6.28896951675415,2.451063871383667,6.71453857421875
1483788897439,-6.321290969848633,2.3570916652679443,6.764816761016846
1483788897617,-6.312911510467529,2.404975652694702,6.736684799194336
1483788897799,-6.30094051361084,2.406172752380371,6.734290599822998
1483788897979,-6.399102687835693,2.390011787414551,6.755838871002197
1483788898159,-6.345232963562012,2.4235305786132813,6.769006729125977
1483788898339,-6.327276706695557,2.3924059867858887,6.719925403594971
1483788898520,-6.332663536071777,2.404975652694702,6.767210960388184
1483788898700,-6.276399612426758,2.4402899742126465,6.77618932723999
1483788898878,-6.31949520111084,2.412158250808716,6.761225700378418
1483788899059,-6.321290969848633,2.3936030864715576,6.800729751586914
1483788899240,-6.299144744873047,2.390610456466675,6.786364555358887
1483788899420,-6.327276706695557,2.369062662124634,6.746860504150391
1483788899599,-6.321290969848633,2.403179883956909,6.767210960388184
1483788899780,-6.321290969848633,2.3989901542663574,6.743268966674805
1483788899960,-6.333860397338867,2.3971943855285645,6.765415668487549
1483788900134,-6.354809761047363,2.3989901542663574,6.780977725982666
1483788900315,-6.309319972991943,2.406771183013916,6.771999359130859
1483788900495,-6.303334712982178,2.4199392795562744,6.7492547035217285
1483788900676,-6.301538944244385,2.3912088871002197,6.780977725982666
1483788900863,-6.311714172363281,2.412158250808716,6.750451564788818
1483788901041,-6.329071998596191,2.3924059867858887,6.777985095977783
1483788901221,-6.278793811798096,2.427121877670288,6.721122741699219
1483788901401,-6.330867767333984,2.403179883956909,6.791751861572266
1483788901578,-6.268020153045654,2.4001872539520264,6.773795127868652
1483788901762,-6.336254596710205,2.408566951751709,6.733093738555908
1483788901942,-6.309319972991943,2.433107376098633,6.761824131011963
1483788902122,-6.311115741729736,2.432508945465088,6.745663166046143
1483788902298,-6.278793811798096,2.451662540435791,6.736684799194336
1483788902483,-6.336853504180908,2.4013843536376953,6.748656272888184
1483788902659,-6.2835822105407715,2.405574083328247,6.75883150100708
1483788902842,-6.314706802368164,2.3995885848999023,6.743268966674805
1483788903023,-6.298546314239502,2.4019827842712402,6.787561893463135
1483788903203,-6.311714172363281,2.3971943855285645,6.777985095977783
1483788903378,-6.333261966705322,2.4163479804992676,6.798335552215576
1483788903562,-6.2835822105407715,2.4576480388641357,6.743867874145508
1483788903743,-6.33565616607666,2.382230758666992,6.7510504722595215
1483788903923,-6.313509941101074,2.4145524501800537,6.765415668487549
1483788904104,-6.311115741729736,2.403179883956909,6.753444671630859
1483788904284,-6.312312602996826,2.404975652694702,6.758233070373535
1483788904465,-6.345831394195557,2.3971943855285645,6.7492547035217285
1483788904644,-6.266822814941406,2.449866771697998,6.752247333526611
1483788904825,-6.314108371734619,2.382230758666992,6.7474589347839355
1483788905005,-6.293159008026123,2.4672248363494873,6.751648902893066
1483788905186,-6.287772178649902,2.404975652694702,6.768408298492432
1483788905365,-6.326079368591309,2.4127566814422607,6.7749924659729
1483788905545,-6.33565616607666,2.385822057723999,6.765415668487549
1483788905725,-6.290764808654785,2.2577321529388428,6.767210960388184
1483788905905,-6.2398881912231445,2.448071241378784,6.733093738555908
1483788906086,-6.370970726013184,2.2457611560821533,6.742072105407715
1483788906266,-6.279991149902344,2.387019157409668,6.7714009284973145
1483788906442,-6.33445930480957,2.470816135406494,6.758233070373535
1483788906626,-6.338050365447998,2.410961151123047,6.764218330383301
1483788906806,-6.303334712982178,2.404975652694702,6.755838871002197
1483788906987,-6.278195381164551,2.4241292476654053,6.754043102264404
1483788907165,-6.271012783050537,2.433706045150757,6.757035732269287
1483788907346,-6.313509941101074,2.3558945655822754,6.766612529754639
1483788907527,-6.274604320526123,2.4384944438934326,6.779181957244873
1483788907707,-6.313509941101074,2.403179883956909,6.762422561645508
1483788907888,-6.304531574249268,2.3582887649536133,6.769006729125977
1483788908068,-6.299743175506592,2.4229321479797363,6.799532890319824
1483788908245,-6.323685169219971,2.387019157409668,6.732495307922363
1483788908423,-6.322488307952881,2.3977930545806885,6.778583526611328
1483788908606,-6.314108371734619,2.4133553504943848,6.7714009284973145
1483788908789,-6.304531574249268,2.4163479804992676,6.752845764160156
1483788908969,-6.322488307952881,2.5450363159179688,6.781576156616211
1483788909149,-6.321290969848633,2.3367409706115723,6.700173377990723
1483788909328,-6.324283599853516,2.381632089614868,6.766014099121094
1483788909510,-6.278793811798096,2.42472767829895,6.738480567932129
1483788909686,-6.281188011169434,2.4181437492370605,6.798934459686279
1483788909869,-6.309319972991943,2.409165382385254,6.756437301635742
1483788910047,-6.348824501037598,2.406172752380371,6.797138690948486
1483788910230,-6.314706802368164,2.3768436908721924,6.78696346282959
1483788910412,-6.262633323669434,2.457049608230591,6.766612529754639
1483788910590,-6.313509941101074,2.3594858646392822,6.764816761016846
1483788910770,-6.281786918640137,2.430713176727295,6.754641532897949
1483788910950,-6.302735805511475,2.3744494915008545,6.740874767303467
1483788911130,-6.27280855178833,2.4229321479797363,6.739078998565674
1483788911309,-6.324283599853516,2.403179883956909,6.715735912322998
1483788911490,-6.297947406768799,2.429516077041626,6.7696051597595215
1483788911671,-6.311714172363281,2.4163479804992676,6.740276336669922
1483788911851,-6.320692539215088,2.4127566814422607,6.745064735412598
1483788912031,-6.345232963562012,2.4163479804992676,6.732495307922363
1483788912211,-6.342838764190674,2.431311845779419,6.7474589347839355
1483788912392,-6.349422931671143,2.431311845779419,6.750451564788818
1483788912570,-6.338050365447998,2.3995885848999023,6.766014099121094
1483788912751,-6.323086738586426,2.3792378902435303,6.746860504150391
1483788912930,-6.336254596710205,2.3702597618103027,6.75883150100708
1483788913112,-6.3518171310424805,2.4193408489227295,6.779181957244873
1483788913292,-6.315305709838867,2.429516077041626,6.7031660079956055
1483788913473,-6.345831394195557,2.410961151123047,6.745663166046143
1483788913653,-6.287772178649902,2.4444799423217773,6.745663166046143
1483788913833,-6.3745622634887695,2.426523447036743,6.73189640045166
1483788914013,-6.344634532928467,2.434903144836426,6.728305339813232
1483788914193,-6.303334712982178,2.429516077041626,6.737882137298584
1483788914372,-6.320094108581543,2.403778553009033,6.733093738555908
1483788914549,-6.344036102294922,2.360084295272827,6.746860504150391
1483788914734,-6.282983779907227,2.425326347351074,6.763021469116211
1483788914914,-6.317101001739502,2.4193408489227295,6.7492547035217285
1483788915094,-6.313509941101074,2.404376983642578,6.744466304779053
1483788915274,-6.330867767333984,2.433706045150757,6.741473197937012
1483788915477,-6.315305709838867,2.4025814533233643,6.750451564788818
1483788915633,-6.305728912353516,2.455852508544922,6.724115371704102
1483788915815,-6.3302693367004395,2.4408886432647705,6.746860504150391
1483788915995,-6.345831394195557,2.380434989929199,6.75883150100708
1483788916175,-6.31949520111084,2.405574083328247,6.737882137298584
1483788916355,-6.33565616607666,2.4181437492370605,6.743867874145508
1483788916535,-6.323685169219971,2.3702597618103027,6.735487937927246
1483788916716,-6.323685169219971,2.4229321479797363,6.707355976104736
1483788916896,-6.350619792938232,2.3792378902435303,6.734290599822998
1483788917076,-6.324882507324219,2.4588451385498047,6.773795127868652
1483788917256,-6.342240333557129,2.388216257095337,6.776787757873535
1483788917436,-6.320692539215088,2.4151508808135986,6.760627269744873
1483788917613,-6.336853504180908,2.337339401245117,6.75883150100708
1483788917797,-6.317101001739502,2.3930046558380127,6.755239963531494
1483788917976,-6.300341606140137,2.4139537811279297,6.729502201080322
1483788918157,-6.3051300048828125,2.3971943855285645,6.724115371704102
1483788918337,-6.317101001739502,2.4019827842712402,6.713940143585205
1483788918516,-6.310517311096191,2.412158250808716,6.754641532897949
1483788918693,-6.318896770477295,2.403179883956909,6.715735912322998
1483788918878,-6.313509941101074,2.4133553504943848,6.740874767303467
1483788919057,-6.300341606140137,2.43011474609375,6.728903770446777
1483788919239,-6.323685169219971,2.4019827842712402,6.7259111404418945
1483788919419,-6.3051300048828125,2.4133553504943848,6.73069953918457
1483788919598,-6.309319972991943,2.4199392795562744,6.729502201080322
1483788919779,-6.3284735679626465,2.4181437492370605,6.767210960388184
1483788919959,-6.342240333557129,2.380434989929199,6.737283706665039
1483788920139,-6.324882507324219,2.403179883956909,6.767809867858887
1483788920320,-6.311714172363281,2.388814687728882,6.754641532897949
1483788920495,-6.294356346130371,2.409165382385254,6.731297969818115
1483788920680,-6.277596950531006,2.4361002445220947,6.71453857421875
1483788920859,-6.303334712982178,2.3696610927581787,6.724115371704102
1483788921040,-6.30094051361084,2.429516077041626,6.746262073516846
1483788921220,-6.320094108581543,2.411559581756592,6.736684799194336
1483788921400,-6.324882507324219,2.3810336589813232,6.742072105407715
1483788921578,-6.330867767333984,2.366069793701172,6.746860504150391
1483788921760,-6.279392719268799,2.407968282699585,6.739677906036377
1483788921940,-6.310517311096191,2.4001872539520264,6.734290599822998
1483788922121,-6.315904140472412,2.383427858352661,6.763021469116211
1483788922301,-6.301538944244385,2.4223334789276123,6.737882137298584
1483788922481,-6.320094108581543,2.3732523918151855,6.737283706665039
1483788922661,-6.383540153503418,2.4001872539520264,6.778583526611328
1483788922841,-6.310517311096191,2.3995885848999023,6.781576156616211
1483788923021,-6.290764808654785,2.450465440750122,6.756437301635742
1483788923202,-6.359598159790039,2.385822057723999,6.736684799194336
1483788923382,-6.316502571105957,2.407968282699585,6.753444671630859
1483788923561,-6.309319972991943,2.4390928745269775,6.731297969818115
1483788923742,-6.31829833984375,2.4390928745269775,6.750451564788818
1483788923921,-6.333261966705322,2.3971943855285645,6.741473197937012
1483788924102,-6.303933143615723,2.4355015754699707,6.757035732269287
1483788924283,-6.317699909210205,2.406172752380371,6.717531204223633
1483788924463,-6.327875137329102,2.4007856845855713,6.755838871002197
1483788924643,-6.311115741729736,2.383427858352661,6.736086368560791
1483788924823,-6.303334712982178,2.382829189300537,6.752845764160156
1483788925003,-6.275801181793213,2.4223334789276123,6.712742805480957
1483788925183,-6.324283599853516,2.3714568614959717,6.761824131011963
1483788925363,-6.296750545501709,2.3971943855285645,6.758233070373535
1483788925542,-6.30213737487793,2.410362482070923,6.749853134155273
1483788925723,-6.336853504180908,2.3989901542663574,6.718728542327881
1483788925904,-6.323086738586426,2.387617588043213,6.746262073516846
1483788926084,-6.260837554931641,2.384026288986206,6.710947513580322
1483788926264,-6.312312602996826,2.3116016387939453,6.718130111694336
1483788926444,-6.30094051361084,2.403778553009033,6.758233070373535
1483788926624,-6.329071998596191,2.3684639930725098,6.760627269744873
1483788926805,-6.308721542358398,2.4612393379211426,6.769006729125977
1483788926985,-6.426037311553955,2.4199392795562744,6.727108001708984
1483788927165,-6.341641902923584,2.3971943855285645,6.734290599822998
1483788927350,-6.3296709060668945,2.409165382385254,6.777386665344238
1483788927520,-6.315904140472412,2.3942017555236816,6.752247333526611
1483788927700,-6.278793811798096,2.4151508808135986,6.724115371704102
1483788927886,-6.297348976135254,2.405574083328247,6.7492547035217285
1483788928066,-6.315904140472412,2.451063871383667,6.737882137298584
1483788928246,-6.320094108581543,2.3696610927581787,6.722918510437012
1483788928426,-6.274604320526123,2.3948001861572266,6.724115371704102
1483788928606,-6.294954776763916,2.4438812732696533,6.742072105407715
1483788928781,-6.296152114868164,2.4426841735839844,6.761225700378418
1483788928968,-6.317699909210205,2.3582887649536133,6.754043102264404
1483788929147,-6.2835822105407715,2.406771183013916,6.770204067230225
1483788929327,-6.309918403625488,2.3959972858428955,6.755239963531494
1483788929514,-6.30752420425415,2.406172752380371,6.761824131011963
1483788929687,-6.370372295379639,2.425326347351074,6.781576156616211
1483788929868,-6.332065105438232,2.389413356781006,6.757035732269287
1483788930048,-6.339247703552246,2.4361002445220947,6.754043102264404
1483788930229,-6.338050365447998,2.3930046558380127,6.742072105407715
1483788930409,-6.31829833984375,2.4408886432647705,6.755239963531494
1483788930588,-6.36498498916626,2.4133553504943848,6.752845764160156
1483788930769,-6.324882507324219,2.3989901542663574,6.743867874145508
1483788930949,-6.324882507324219,2.4432828426361084,6.742072105407715
1483788931130,-6.329071998596191,2.3786394596099854,6.757035732269287
1483788931310,-6.321290969848633,2.4139537811279297,6.740874767303467
1483788931488,-6.317101001739502,2.3313539028167725,6.736086368560791
1483788931669,-6.301538944244385,2.382829189300537,6.757035732269287
1483788931849,-6.315904140472412,2.411559581756592,6.761824131011963
1483788932028,-6.309319972991943,2.390011787414551,6.780379295349121
1483788932210,-6.315305709838867,2.403778553009033,6.761225700378418
1483788932388,-6.30094051361084,2.384026288986206,6.761824131011963
1483788932572,-6.290764808654785,2.412158250808716,6.734889507293701
1483788932753,-6.324283599853516,2.3774423599243164,6.731297969818115
1483788932929,-6.337451934814453,2.45285964012146,6.755838871002197
1483788933110,-6.348824501037598,2.4013843536376953,6.736086368560791
1483788933291,-6.339846134185791,2.428318977355957,6.763021469116211
1483788933471,-6.323086738586426,2.3487119674682617,6.771999359130859
1483788933645,-6.284181118011475,2.4187421798706055,6.748656272888184
1483788933829,-6.336254596710205,2.403778553009033,6.769006729125977
1483788934011,-6.303334712982178,2.4205379486083984,6.767210960388184
1483788934192,-6.305728912353516,2.431311845779419,6.763021469116211
1483788934372,-6.293757915496826,2.382230758666992,6.706757545471191
1483788934552,-6.275202751159668,2.3953988552093506,6.7277069091796875
1483788934730,-6.339846134185791,2.2918496131896973,6.751648902893066
1483788934912,-6.281188011169434,2.4241292476654053,6.771999359130859
1483788935092,-6.339846134185791,2.3798365592956543,6.7480573654174805
1483788935273,-6.290764808654785,2.4139537811279297,6.740276336669922
1483788935453,-6.2835822105407715,2.4366986751556396,6.7480573654174805
1483788935630,-6.318896770477295,2.364872694015503,6.767210960388184
1483788935813,-6.31829833984375,2.4438812732696533,6.7714009284973145
1483788935993,-6.382343292236328,2.448669672012329,6.7708024978637695
1483788936173,-6.3500213623046875,2.40736985206604,6.76002836227417
1483788936353,-6.3302693367004395,2.390610456466675,6.770204067230225
1483788936534,-6.288370609283447,2.4025814533233643,6.777386665344238
1483788936709,-6.297947406768799,2.428318977355957,6.758233070373535
1483788936891,-6.314706802368164,2.3918075561523438,6.773795127868652
1483788937074,-6.292560577392578,2.4426841735839844,6.738480567932129
1483788937254,-6.295553207397461,2.433107376098633,6.740276336669922
1483788937435,-6.278793811798096,2.427720546722412,6.76002836227417
1483788937614,-6.341042995452881,2.3930046558380127,6.743268966674805
1483788937791,-6.314706802368164,2.494159698486328,6.741473197937012
1483788937975,-6.308721542358398,2.369062662124634,6.711545944213867
1483788938154,-6.284181118011475,2.446275472640991,6.777386665344238
1483788938335,-6.267421722412109,2.411559581756592,6.745064735412598
1483788938516,-6.294356346130371,2.361281394958496,6.76002836227417
1483788938690,-6.294356346130371,2.456450939178467,6.75883150100708
1483788938875,-6.324283599853516,2.410961151123047,6.7492547035217285
1483788939054,-6.303334712982178,2.4025814533233643,6.752845764160156
1483788939236,-6.342240333557129,2.4169466495513916,6.780977725982666
1483788939416,-6.31829833984375,2.3953988552093506,6.766014099121094
1483788939597,-6.30094051361084,2.4432828426361084,6.767809867858887
1483788939777,-6.336853504180908,2.387617588043213,6.757035732269287
1483788939957,-6.3063273429870605,2.451063871383667,6.7696051597595215
1483788940137,-6.372167587280273,2.3756465911865234,6.7941460609436035
1483788940317,-6.279392719268799,2.450465440750122,6.783371925354004
1483788940497,-6.345232963562012,2.40736985206604,6.7725982666015625
1483788940684,-6.309319972991943,2.404376983642578,6.759429931640625
1483788940857,-6.302735805511475,2.425326347351074,6.766014099121094
1483788941039,-6.312911510467529,2.386420488357544,6.740276336669922
1483788941219,-6.269217014312744,2.4169466495513916,6.71334171295166
1483788941399,-6.3063273429870605,2.4181437492370605,6.768408298492432
1483788941579,-6.294356346130371,2.4127566814422607,6.760627269744873
1483788941758,-6.3069257736206055,2.3798365592956543,6.739078998565674
1483788941939,-6.312911510467529,2.3798365592956543,6.763021469116211
1483788942120,-6.33445930480957,2.4366986751556396,6.743268966674805
1483788942300,-6.3284735679626465,2.3762452602386475,6.7492547035217285
1483788942479,-6.303334712982178,2.405574083328247,6.762422561645508
1483788942658,-6.309918403625488,2.4145524501800537,6.745064735412598
1483788942840,-6.325480937957764,2.410362482070923,6.757035732269287
1483788943020,-6.33565616607666,2.4175450801849365,6.763021469116211
1483788943200,-6.3296709060668945,2.38462495803833,6.754641532897949
1483788943380,-6.299743175506592,2.43011474609375,6.740874767303467
1483788943560,-6.313509941101074,2.387019157409668,6.755239963531494
1483788943739,-6.30094051361084,2.40736985206604,6.750451564788818
1483788943920,-6.271012783050537,2.42472767829895,6.750451564788818
1483788944099,-6.284181118011475,2.3798365592956543,6.7259111404418945
1483788944280,-6.289567947387695,2.342127799987793,6.749853134155273
1483788944461,-6.2650275230407715,2.430713176727295,6.745663166046143
1483788944640,-6.311714172363281,2.4019827842712402,6.749853134155273
1483788944821,-6.24467658996582,2.3546974658966064,6.754043102264404
1483788945001,-6.2650275230407715,2.3355438709259033,6.775590896606445
1483788945182,-6.247669219970703,2.3953988552093506,6.738480567932129
1483788945361,-6.290764808654785,2.42472767829895,6.74267053604126
1483788945542,-6.327276706695557,2.4025814533233643,6.777985095977783
1483788945724,-6.303933143615723,2.4223334789276123,6.784569263458252
1483788945902,-6.3518171310424805,2.473210334777832,6.7725982666015625
1483788946083,-6.365583896636963,2.405574083328247,6.739078998565674
1483788946263,-6.358999729156494,2.3936030864715576,6.801328659057617
1483788946443,-6.30094051361084,2.4145524501800537,6.746262073516846
1483788946622,-6.320692539215088,2.3499090671539307,6.7510504722595215
1483788946801,-6.279392719268799,2.409764051437378,6.7474589347839355
1483788946983,-6.31949520111084,2.425924777984619,6.754641532897949
1483788947163,-6.298546314239502,2.388814687728882,6.783970355987549
1483788947343,-6.327875137329102,2.3971943855285645,6.751648902893066
1483788947524,-6.30213737487793,2.403778553009033,6.753444671630859
1483788947704,-6.30752420425415,2.4025814533233643,6.746860504150391
1483788947881,-6.310517311096191,2.3995885848999023,6.728903770446777
1483788948061,-6.284181118011475,2.431311845779419,6.752247333526611
1483788948245,-6.316502571105957,2.3714568614959717,6.750451564788818
1483788948425,-6.29016637802124,2.4127566814422607,6.7714009284973145
1483788948605,-6.3051300048828125,2.4001872539520264,6.757035732269287
1483788948785,-6.339846134185791,2.403179883956909,6.7510504722595215
1483788948966,-6.357802391052246,2.3989901542663574,6.771999359130859
1483788949145,-6.335057735443115,2.367266893386841,6.760627269744873
1483788949326,-6.295553207397461,2.4145524501800537,6.738480567932129
1483788949506,-6.337451934814453,2.3726539611816406,6.751648902893066
1483788949685,-6.314108371734619,2.40736985206604,6.746262073516846
1483788949866,-6.303334712982178,2.430713176727295,6.761225700378418
1483788950046,-6.313509941101074,2.406771183013916,6.777985095977783
1483788950226,-6.310517311096191,2.385223388671875,6.746262073516846
1483788950407,-6.300341606140137,2.384026288986206,6.760627269744873
1483788950587,-6.299144744873047,2.4157495498657227,6.757035732269287
1483788950765,-6.313509941101074,2.4199392795562744,6.7480573654174805
1483788950947,-6.345831394195557,2.384026288986206,6.773196697235107
1483788951125,-6.318896770477295,2.4241292476654053,6.767210960388184
1483788951305,-6.295553207397461,2.429516077041626,6.73069953918457
1483788951488,-6.34643030166626,2.3529016971588135,6.754043102264404
1483788951666,-6.299743175506592,2.4450783729553223,6.765415668487549
1483788951849,-6.2835822105407715,2.427720546722412,6.760627269744873
1483788952029,-6.330867767333984,2.457049608230591,6.7941460609436035
1483788952209,-6.327875137329102,2.384026288986206,6.802525520324707
1483788952393,-6.281188011169434,2.3726539611816406,6.7749924659729
1483788952569,-6.367978096008301,2.387019157409668,6.7277069091796875
1483788952749,-6.317101001739502,2.383427858352661,6.719925403594971
1483788952925,-6.337451934814453,2.3265655040740967,6.757634162902832
1483788953109,-6.299743175506592,2.425924777984619,6.758233070373535
1483788953290,-6.321290969848633,2.406771183013916,6.721122741699219
1483788953469,-6.341042995452881,2.382829189300537,6.746860504150391
1483788953647,-6.323086738586426,2.3959972858428955,6.730101108551025
1483788953830,-6.315904140472412,2.410362482070923,6.711545944213867
1483788954010,-6.301538944244385,2.4235305786132813,6.7247138023376465
1483788954190,-6.344634532928467,2.362478494644165,6.754641532897949
1483788954370,-6.310517311096191,2.4127566814422607,6.755838871002197
1483788954550,-6.337451934814453,2.382230758666992,6.749853134155273
1483788954731,-6.323685169219971,2.4163479804992676,6.755838871002197
1483788954911,-6.338050365447998,2.390610456466675,6.719326972961426
1483788955089,-6.31949520111084,2.3942017555236816,6.738480567932129
1483788955271,-6.281786918640137,2.412158250808716,6.740874767303467
1483788955451,-6.345831394195557,2.364872694015503,6.75883150100708
1483788955631,-6.317699909210205,2.425326347351074,6.721122741699219
1483788955810,-6.2183403968811035,2.4594438076019287,6.764816761016846
1483788955992,-6.339846134185791,2.363077163696289,6.787561893463135
1483788956170,-6.389525890350342,2.434903144836426,6.777985095977783
1483788956352,-6.309319972991943,2.3786394596099854,6.795342922210693
1483788956532,-6.405686855316162,2.315791606903076,6.7259111404418945
1483788956712,-6.378153324127197,2.3786394596099854,6.778583526611328
1483788956893,-6.3931169509887695,2.385223388671875,6.7929487228393555
1483788957070,-6.358999729156494,2.296039342880249,6.765415668487549
1483788957253,-6.3967084884643555,2.3481132984161377,6.728305339813232
1483788957432,-6.398504257202148,2.3062148094177246,6.69837760925293
1483788957613,-6.348824501037598,2.383427858352661,6.689998149871826
1483788957790,-6.3733649253845215,2.4163479804992676,6.684012413024902
1483788957969,-6.293159008026123,2.4875755310058594,6.704961776733398
1483788958155,-6.341641902923584,2.3762452602386475,6.753444671630859
1483788958332,-6.31829833984375,2.318185806274414,6.739677906036377
1483788958514,-6.320094108581543,2.382230758666992,6.732495307922363
1483788958694,-6.37994909286499,2.3145945072174072,6.729502201080322
1483788958874,-6.3512187004089355,2.3977930545806885,6.754043102264404
1483788959054,-6.313509941101074,2.3523032665252686,6.732495307922363
1483788959235,-6.345831394195557,2.3936030864715576,6.768408298492432
