timestamp,ax,ay,az
1483928530411,-0.20099709928035736,-0.02153540588915348,-9.68375301361084
1483928530643,-0.36370906233787537,-0.552742063999176,-9.578469276428223
1483928530874,-0.18185453116893768,-0.9427721500396729,-10.12881851196289
1483928531075,-0.2105683833360672,-0.24646073579788208,-9.65503978729248
1483928531306,-0.31106695532798767,-0.34217363595962524,-9.702895164489746
1483928531546,-0.2632104754447937,-0.2153540551662445,-9.736394882202148
1483928531785,-0.28235307335853577,-0.28235307335853577,-9.652647018432617
1483928532025,-0.2632104754447937,-0.1459621787071228,-9.623932838439941
1483928532272,-0.28235307335853577,-0.26081767678260803,-9.631111145019531
1483928532474,-0.2584248483181,-0.1746760606765747,-9.674181938171387
1483928532701,-0.2919243574142456,-0.11485548317432404,-9.702895164489746
1483928532903,-0.31106695532798767,-0.20338992774486542,-9.635896682739258
1483928533143,-0.27278175950050354,-0.17946170270442963,-9.628718376159668
1483928533382,-0.2871387302875519,-0.07417750358581543,-9.645467758178711
1483928533611,-0.28235307335853577,-0.15314064919948578,-9.69093132019043
1483928533824,-0.2871387302875519,-0.19142580032348633,-9.671788215637207
1483928534051,-0.2584248483181,-0.18185453116893768,-9.65503978729248
1483928534270,-0.28235307335853577,-0.12921242415905,-9.628718376159668
1483928534499,-0.27278175950050354,-0.15553347766399384,-9.686145782470703
1483928534706,-0.2967100143432617,-0.17228324711322784,-9.652647018432617
1483928534939,-0.17228324711322784,-0.05024927482008934,-9.667003631591797
1483928535178,-0.28235307335853577,-0.2273181527853012,-9.66939640045166
1483928535419,-0.2679961323738098,-0.2105683833360672,-9.688538551330566
1483928535666,-0.25363919138908386,-0.18185453116893768,-9.686145782470703
1483928535897,-0.22971096634864807,-0.11724831163883209,-9.729216575622559
1483928536137,-0.24885354936122894,-0.15553347766399384,-9.707681655883789
1483928536338,-0.2679961323738098,-0.20099709928035736,-9.717252731323242
1483928536576,-0.25363919138908386,-0.11964112520217896,-9.578469276428223
1483928536815,-0.2679961323738098,-0.14356936514377594,-9.647860527038574
1483928537045,-0.23449662327766418,-0.02392822504043579,-9.643074989318848
1483928537263,-0.2679961323738098,-0.07657032459974289,-9.7005033493042
1483928537493,-0.2105683833360672,0.007178467698395252,-9.688538551330566
1483928537700,-0.24885354936122894,-0.0263210479170084,-9.638289451599121
1483928537933,-0.2105683833360672,-0.04546363279223442,-9.609575271606445
1483928538172,-0.24406792223453522,-0.11006984114646912,-9.671788215637207
1483928538412,-0.2584248483181,0.035892341285943985,-9.633503913879395
1483928538627,-0.2632104754447937,-0.05982056260108948,-9.671788215637207
1483928538861,-0.27278175950050354,-0.10767702758312225,-9.681360244750977
1483928539090,-0.24406792223453522,-0.11246266961097717,-9.66221809387207
1483928539291,-0.28235307335853577,-0.13639087975025177,-9.66939640045166
1483928539529,-0.2871387302875519,-0.17706887423992157,-9.66939640045166
1483928539797,-0.2392822504043579,-0.02392822504043579,-9.643074989318848
1483928540009,-0.28235307335853577,-0.1339980661869049,-9.645467758178711
1483928540249,-0.2679961323738098,-0.08853443711996078,-9.614361763000488
1483928540458,-0.24885354936122894,-0.11724831163883209,-9.626325607299805
1483928540686,-0.24885354936122894,-0.07178468257188797,-9.664610862731934
1483928540900,-0.2153540551662445,0.007178467698395252,-9.652647018432617
1483928541127,-0.2392822504043579,-0.05982056260108948,-9.69093132019043
1483928541329,-0.2632104754447937,0.07896314561367035,-9.66939640045166
1483928541568,-0.20578275620937347,0.004785645287483931,-9.647860527038574
1483928541804,-0.19621144235134125,-0.0263210479170084,-9.681360244750977
1483928542045,-0.2584248483181,-0.11724831163883209,-9.619147300720215
1483928542252,-0.2153540551662445,-0.1986042857170105,-9.69093132019043
1483928542481,-0.3254238963127136,-0.23449662327766418,-9.614361763000488
1483928542695,-0.23449662327766418,0.11246266961097717,-9.609575271606445
1483928542923,-0.24406792223453522,-0.05024927482008934,-9.68375301361084
1483928543163,-0.25363919138908386,0.0023928226437419653,-9.65503978729248
1483928543402,-0.30628129839897156,0.05742774158716202,-9.511469841003418
1483928543649,-0.27278175950050354,-0.03349951654672623,-9.722038269042969
1483928543893,-0.2632104754447937,-0.019142581149935722,-9.597611427307129
1483928544121,-0.2632104754447937,0.0023928226437419653,-9.640682220458984
1483928544359,-0.2632104754447937,0.004785645287483931,-9.664610862731934
1483928544600,-0.2679961323738098,-0.0526420958340168,-9.66221809387207
1483928544829,-0.2919243574142456,0.0263210479170084,-9.607183456420898
1483928545049,-0.28235307335853577,0.007178467698395252,-9.592825889587402
1483928545290,-0.24885354936122894,0.02153540588915348,-9.652647018432617
1483928545519,-0.27278175950050354,-0.016749758273363113,-9.65503978729248
1483928545758,-0.25363919138908386,0.009571290574967861,-9.67657470703125
1483928545998,-0.22013968229293823,0.14835500717163086,-9.657432556152344
1483928546231,-0.24885354936122894,0.007178467698395252,-9.66939640045166
1483928546446,-0.2584248483181,0.11964112520217896,-9.66221809387207
1483928546676,-0.2679961323738098,0.007178467698395252,-9.68375301361084
1483928546892,-0.24885354936122894,-0.011964112520217896,-9.710074424743652
1483928547115,-0.24406792223453522,0.004785645287483931,-9.640682220458984
1483928547355,-0.28235307335853577,-0.014356935396790504,-9.705288887023926
1483928547594,-0.24885354936122894,0.0263210479170084,-9.647860527038574
1483928547810,-0.28235307335853577,-0.016749758273363113,-9.631111145019531
1483928548024,-0.2153540551662445,0.038285162299871445,-9.638289451599121
1483928548244,-0.22971096634864807,0.007178467698395252,-9.66939640045166
1483928548471,-0.20578275620937347,-0.038285162299871445,-9.69332504272461
1483928548711,-0.2392822504043579,0.0263210479170084,-9.712467193603516
1483928548914,-0.22971096634864807,0.011964112520217896,-9.681360244750977
1483928549151,-0.24885354936122894,0.02392822504043579,-9.611968994140625
1483928549353,-0.2105683833360672,0.0023928226437419653,-9.65503978729248
1483928549579,-0.22492533922195435,0.007178467698395252,-9.652647018432617
1483928549791,-0.24406792223453522,0.02871387079358101,-9.705288887023926
1483928550024,-0.2584248483181,0.02871387079358101,-9.626325607299805
1483928550237,-0.2392822504043579,0.016749758273363113,-9.623932838439941
1483928550470,-0.28235307335853577,0.05742774158716202,-9.667003631591797
1483928550684,-0.2105683833360672,-0.02153540588915348,-9.68375301361084
1483928550908,-0.23449662327766418,-0.06699903309345245,-9.69332504272461
1483928551147,-0.20578275620937347,-0.03349951654672623,-9.722038269042969
1483928551387,-0.22492533922195435,-0.0263210479170084,-9.710074424743652
1483928551609,-0.22013968229293823,0.05503492057323456,-9.616753578186035
1483928551833,-0.22971096634864807,-0.0023928226437419653,-9.712467193603516
1483928552072,-0.24885354936122894,0.014356935396790504,-9.645467758178711
1483928552305,-0.24885354936122894,0.038285162299871445,-9.68375301361084
1483928552544,-0.20578275620937347,0.02871387079358101,-9.705288887023926
1483928552784,-0.2632104754447937,0.10289137810468674,-9.657432556152344
1483928552997,-0.2392822504043579,0.0813559740781784,-9.68375301361084
1483928553232,-0.24406792223453522,-0.0263210479170084,-9.714859962463379
1483928553462,-0.2392822504043579,0.04307081177830696,-9.702895164489746
1483928553701,-0.2392822504043579,-0.05024927482008934,-9.667003631591797
1483928553902,-0.20099709928035736,-0.04307081177830696,-9.724431037902832
1483928554141,-0.17706887423992157,-0.011964112520217896,-9.695716857910156
1483928554369,-0.2584248483181,-0.09571290016174316,-9.621540069580078
1483928554580,-0.2153540551662445,0.019142581149935722,-9.628718376159668
1483928554781,-0.24406792223453522,-0.038285162299871445,-9.628718376159668
1483928555027,-0.1627119481563568,0.05742774158716202,-9.667003631591797
1483928555257,-0.22971096634864807,-0.007178467698395252,-9.710074424743652
1483928555473,-0.2153540551662445,0.05742774158716202,-9.652647018432617
1483928555699,-0.22492533922195435,0.09810572117567062,-9.65503978729248
1483928555941,-0.2392822504043579,-0.0263210479170084,-9.695716857910156
1483928556176,-0.22971096634864807,-0.035892341285943985,-9.702895164489746
1483928556406,-0.22492533922195435,0.10767702758312225,-9.65503978729248
1483928556625,-0.2584248483181,0.08374878764152527,-9.643074989318848
1483928556854,-0.25363919138908386,-0.019142581149935722,-9.643074989318848
1483928557095,-0.16749757528305054,0.016749758273363113,-9.710074424743652
1483928557335,-0.2392822504043579,0.07178468257188797,-9.621540069580078
1483928557573,-0.23449662327766418,0.06699903309345245,-9.664610862731934
1483928557790,-0.22013968229293823,0.09810572117567062,-9.66939640045166
1483928557992,-0.20578275620937347,0.13639087975025177,-9.681360244750977
1483928558222,-0.19621144235134125,0.12442677468061447,-9.65503978729248
1483928558452,-0.1627119481563568,0.11964112520217896,-9.722038269042969
1483928558691,-0.18185453116893768,0.14117653667926788,-9.678967475891113
1483928558932,-0.17706887423992157,0.13878372311592102,-9.671788215637207
1483928559171,-0.1866401582956314,0.1986042857170105,-9.667003631591797
1483928559390,-0.1579262912273407,0.1339980661869049,-9.671788215637207
1483928559593,-0.1339980661869049,0.13639087975025177,-9.695716857910156
1483928559828,-0.2105683833360672,0.27278175950050354,-9.638289451599121
1483928560048,-0.19621144235134125,0.12203396111726761,-9.667003631591797
1483928560250,-0.18185453116893768,0.1986042857170105,-9.698110580444336
1483928560464,-0.1627119481563568,0.2105683833360672,-9.702895164489746
1483928560689,-0.17706887423992157,0.07417750358581543,-9.748359680175781
1483928560928,-0.19621144235134125,0.24406792223453522,-9.667003631591797
1483928561168,-0.16749757528305054,0.23449662327766418,-9.65503978729248
1483928561388,-0.15314064919948578,0.1459621787071228,-9.724431037902832
1483928561615,-0.1579262912273407,0.23210379481315613,-9.710074424743652
1483928561845,-0.20578275620937347,0.15314064919948578,-9.695716857910156
1483928562046,-0.18185453116893768,0.2392822504043579,-9.66939640045166
1483928562285,-0.17228324711322784,0.16749757528305054,-9.650253295898438
1483928562525,-0.22013968229293823,0.2967100143432617,-9.664610862731934
1483928562750,-0.1579262912273407,0.17706887423992157,-9.710074424743652
1483928562974,-0.16749757528305054,0.13639087975025177,-9.695716857910156
1483928563212,-0.14356936514377594,0.20338992774486542,-9.65503978729248
1483928563441,-0.1579262912273407,0.2512463629245758,-9.674181938171387
1483928563681,-0.20099709928035736,0.10289137810468674,-9.652647018432617
1483928563921,-0.17706887423992157,0.2273181527853012,-9.681360244750977
1483928564191,-0.20099709928035736,0.1698903888463974,-9.686145782470703
1483928564408,-0.2105683833360672,0.16510476171970367,-9.66221809387207
1483928564643,-0.12921242415905,0.24167509377002716,-9.67657470703125
1483928564879,-0.13878372311592102,0.19621144235134125,-9.722038269042969
1483928565080,-0.19621144235134125,0.064606212079525,-9.674181938171387
1483928565319,-0.1052841916680336,0.20578275620937347,-9.678967475891113
1483928565559,-0.1627119481563568,0.07657032459974289,-9.667003631591797
1483928565792,-0.1579262912273407,0.08614162355661392,-9.667003631591797
1483928566008,-0.2105683833360672,0.011964112520217896,-9.671788215637207
1483928566236,-0.14835500717163086,0.16031910479068756,-9.688538551330566
1483928566453,-0.18185453116893768,0.1339980661869049,-9.638289451599121
1483928566677,-0.1579262912273407,0.24885354936122894,-9.650253295898438
1483928566917,-0.14356936514377594,0.31824538111686707,-9.638289451599121
1483928567156,-0.1627119481563568,0.12442677468061447,-9.659825325012207
1483928567386,-0.14835500717163086,0.1698903888463974,-9.671788215637207
1483928567604,-0.19621144235134125,0.16510476171970367,-9.631111145019531
1483928567832,-0.13878372311592102,0.1579262912273407,-9.678967475891113
1483928568034,-0.19142580032348633,0.16510476171970367,-9.707681655883789
1483928568235,-0.18185453116893768,0.04307081177830696,-9.671788215637207
1483928568448,-0.15314064919948578,0.1579262912273407,-9.623932838439941
1483928568674,-0.15314064919948578,0.09571290016174316,-9.674181938171387
1483928568914,-0.17228324711322784,0.21296121180057526,-9.635896682739258
1483928569150,-0.20578275620937347,0.09571290016174316,-9.674181938171387
1483928569370,-0.16749757528305054,0.14117653667926788,-9.650253295898438
1483928569575,-0.17706887423992157,0.20099709928035736,-9.67657470703125
1483928569799,-0.18185453116893768,0.15074782073497772,-9.631111145019531
1483928570028,-0.14835500717163086,0.20338992774486542,-9.650253295898438
1483928570230,-0.15314064919948578,0.16031910479068756,-9.647860527038574
1483928570467,-0.1627119481563568,0.1627119481563568,-9.638289451599121
1483928570669,-0.17228324711322784,0.12442677468061447,-9.626325607299805
1483928570911,-0.13878372311592102,0.14356936514377594,-9.68375301361084
1483928571148,-0.16749757528305054,0.11724831163883209,-9.698110580444336
1483928571370,-0.12921242415905,0.1698903888463974,-9.609575271606445
1483928571593,-0.15314064919948578,0.12203396111726761,-9.621540069580078
1483928571795,-0.1627119481563568,0.23449662327766418,-9.640682220458984
1483928572026,-0.14356936514377594,0.24885354936122894,-9.686145782470703
1483928572267,-0.11485548317432404,0.22013968229293823,-9.628718376159668
1483928572505,-0.14356936514377594,0.07896314561367035,-9.7005033493042
1483928572744,-0.12921242415905,0.1698903888463974,-9.69093132019043
1483928572961,-0.13878372311592102,0.2273181527853012,-9.631111145019531
1483928573190,-0.15314064919948578,0.1698903888463974,-9.69093132019043
1483928573397,-0.09092726558446884,0.17228324711322784,-9.7005033493042
1483928573623,-0.1339980661869049,0.2919243574142456,-9.631111145019531
1483928573861,-0.12921242415905,0.3158525824546814,-9.674181938171387
1483928574062,-0.11964112520217896,0.27278175950050354,-9.66221809387207
1483928574301,-0.16749757528305054,0.2967100143432617,-9.678967475891113
1483928574529,-0.11964112520217896,0.2632104754447937,-9.686145782470703
1483928574741,-0.12921242415905,0.32303106784820557,-9.667003631591797
1483928574973,-0.1866401582956314,0.30149564146995544,-9.702895164489746
1483928575186,-0.15314064919948578,0.3278167247772217,-9.650253295898438
1483928575420,-0.11485548317432404,0.2584248483181,-9.681360244750977
1483928575636,-0.17228324711322784,0.22971096634864807,-9.702895164489746
1483928575859,-0.17228324711322784,0.15553347766399384,-9.67657470703125
1483928576098,-0.17228324711322784,0.1698903888463974,-9.671788215637207
1483928576337,-0.15314064919948578,0.19381862878799438,-9.671788215637207
1483928576559,-0.11485548317432404,0.2392822504043579,-9.702895164489746
1483928576785,-0.17228324711322784,0.20578275620937347,-9.659825325012207
1483928577014,-0.13878372311592102,0.26560330390930176,-9.705288887023926
1483928577231,-0.13878372311592102,0.35892340540885925,-9.714859962463379
1483928577455,-0.13878372311592102,0.3517449200153351,-9.736394882202148
1483928577694,-0.1339980661869049,0.31824538111686707,-9.607183456420898
1483928577934,-0.20099709928035736,0.23449662327766418,-9.719645500183105
1483928578156,-0.1579262912273407,0.3158525824546814,-9.657432556152344
1483928578382,-0.15314064919948578,0.26560330390930176,-9.674181938171387
1483928578612,-0.12921242415905,0.2560320198535919,-9.702895164489746
1483928578828,-0.14835500717163086,0.1866401582956314,-9.67657470703125
1483928579052,-0.13878372311592102,0.21296121180057526,-9.681360244750977
1483928579293,-0.12442677468061447,0.18185453116893768,-9.652647018432617
1483928579531,-0.12921242415905,0.3517449200153351,-9.566505432128906
1483928579780,-0.14356936514377594,0.2105683833360672,-9.688538551330566
1483928580022,-0.12921242415905,0.24885354936122894,-9.640682220458984
1483928580250,-0.14356936514377594,0.1459621787071228,-9.707681655883789
1483928580489,-0.15314064919948578,0.24406792223453522,-9.762716293334961
1483928580728,-0.15314064919948578,0.2967100143432617,-9.628718376159668
1483928580960,-0.14356936514377594,0.2847459018230438,-9.698110580444336
1483928581179,-0.14356936514377594,0.2560320198535919,-9.657432556152344
1483928581408,-0.11964112520217896,0.2991028428077698,-9.592825889587402
1483928581646,-0.12921242415905,0.2560320198535919,-9.633503913879395
1483928581886,-0.09571290016174316,0.24646073579788208,-9.695716857910156
1483928582115,-0.14835500717163086,0.26081767678260803,-9.626325607299805
1483928582324,-0.14835500717163086,0.22013968229293823,-9.659825325012207
1483928582558,-0.14356936514377594,0.26560330390930176,-9.69093132019043
1483928582773,-0.12921242415905,0.22492533922195435,-9.657432556152344
1483928583003,-0.12442677468061447,0.31824538111686707,-9.66221809387207
1483928583218,-0.1339980661869049,0.2967100143432617,-9.724431037902832
1483928583446,-0.1339980661869049,0.27756744623184204,-9.650253295898438
1483928583681,-0.15314064919948578,0.2560320198535919,-9.643074989318848
1483928583882,-0.12442677468061447,0.2560320198535919,-9.643074989318848
1483928584106,-0.1052841916680336,0.2967100143432617,-9.645467758178711
1483928584325,-0.12442677468061447,0.27756744623184204,-9.667003631591797
1483928584554,-0.1866401582956314,0.3517449200153351,-9.611968994140625
1483928584771,-0.09571290016174316,0.2560320198535919,-9.688538551330566
1483928585001,-0.13878372311592102,0.36370906233787537,-9.652647018432617
1483928585215,-0.15314064919948578,0.20578275620937347,-9.69332504272461
1483928585439,-0.11485548317432404,0.2679961323738098,-9.66939640045166
1483928585679,-0.09571290016174316,0.2560320198535919,-9.688538551330566
1483928585919,-0.11006984114646912,0.26560330390930176,-9.600004196166992
1483928586142,-0.14356936514377594,0.24885354936122894,-9.650253295898438
1483928586364,-0.10049854964017868,0.3565305471420288,-9.67657470703125
1483928586567,-0.11964112520217896,0.2799602448940277,-9.640682220458984
1483928586800,-0.1339980661869049,0.23688943684101105,-9.664610862731934
1483928587037,-0.11006984114646912,0.23688943684101105,-9.69332504272461
1483928587276,-0.11964112520217896,0.27278175950050354,-9.681360244750977
1483928587515,-0.12442677468061447,0.2225324809551239,-9.68375301361084
1483928587751,-0.13878372311592102,0.30149564146995544,-9.602396965026855
1483928587963,-0.11006984114646912,0.2273181527853012,-9.66221809387207
1483928588191,-0.1339980661869049,0.20338992774486542,-9.7005033493042
1483928588408,-0.07178468257188797,0.24885354936122894,-9.686145782470703
1483928588634,-0.11485548317432404,0.2679961323738098,-9.619147300720215
1483928588873,-0.12921242415905,0.24885354936122894,-9.609575271606445
1483928589112,-0.09092726558446884,0.26560330390930176,-9.674181938171387
1483928589345,-0.12442677468061447,0.23688943684101105,-9.664610862731934
1483928589559,-0.14835500717163086,0.2105683833360672,-9.647860527038574
1483928589792,-0.14356936514377594,0.28953152894973755,-9.626325607299805
1483928590005,-0.1866401582956314,0.23688943684101105,-9.69332504272461
1483928590231,-0.11964112520217896,0.31345975399017334,-9.619147300720215
1483928590469,-0.08614162355661392,0.27756744623184204,-9.681360244750977
1483928590709,-0.14356936514377594,0.21296121180057526,-9.702895164489746
1483928590934,-0.11006984114646912,0.2584248483181,-9.667003631591797
1483928591157,-0.1579262912273407,0.24885354936122894,-9.590433120727539
1483928591385,-0.11485548317432404,0.2560320198535919,-9.674181938171387
1483928591586,-0.14356936514377594,0.2632104754447937,-9.664610862731934
1483928591827,-0.12921242415905,0.22013968229293823,-9.674181938171387
1483928592066,-0.13878372311592102,0.22492533922195435,-9.643074989318848
1483928592310,-0.1627119481563568,0.2225324809551239,-9.638289451599121
1483928592518,-0.12442677468061447,0.2105683833360672,-9.628718376159668
1483928592753,-0.12921242415905,0.3086740970611572,-9.621540069580078
1483928592982,-0.09571290016174316,0.2919243574142456,-9.695716857910156
1483928593190,-0.0813559740781784,0.2751745879650116,-9.67657470703125
1483928593422,-0.09571290016174316,0.3254238963127136,-9.686145782470703
1483928593623,-0.13878372311592102,0.3206382095813751,-9.707681655883789
1483928593862,-0.11964112520217896,0.3206382095813751,-9.69093132019043
1483928594120,-0.10049854964017868,0.2392822504043579,-9.698110580444336
1483928594324,-0.11006984114646912,0.1986042857170105,-9.671788215637207
1483928594551,-0.10049854964017868,0.2512463629245758,-9.647860527038574
1483928594779,-0.15314064919948578,0.27278175950050354,-9.667003631591797
1483928594982,-0.08614162355661392,0.2991028428077698,-9.638289451599121
1483928595223,-0.11485548317432404,0.25363919138908386,-9.68375301361084
1483928595459,-0.11964112520217896,0.23688943684101105,-9.664610862731934
1483928595723,-0.11006984114646912,0.2847459018230438,-9.66939640045166
1483928595948,-0.1339980661869049,0.2512463629245758,-9.674181938171387
1483928596177,-0.14835500717163086,0.2967100143432617,-9.674181938171387
1483928596384,-0.1339980661869049,0.2847459018230438,-9.674181938171387
1483928596617,-0.12921242415905,0.26560330390930176,-9.645467758178711
1483928596856,-0.11964112520217896,0.2560320198535919,-9.702895164489746
1483928597096,-0.12921242415905,0.24885354936122894,-9.635896682739258
1483928597318,-0.08614162355661392,0.2871387302875519,-9.633503913879395
1483928597541,-0.10049854964017868,0.27278175950050354,-9.667003631591797
1483928597745,-0.12921242415905,0.19381862878799438,-9.702895164489746
1483928597973,-0.12442677468061447,0.22971096634864807,-9.657432556152344
1483928598176,-0.11485548317432404,0.3254238963127136,-9.640682220458984
1483928598413,-0.1579262912273407,0.2273181527853012,-9.681360244750977
1483928598653,-0.1339980661869049,0.23210379481315613,-9.619147300720215
1483928598879,-0.1339980661869049,0.24406792223453522,-9.657432556152344
1483928599092,-0.06699903309345245,0.2512463629245758,-9.633503913879395
1483928599309,-0.1627119481563568,0.2105683833360672,-9.688538551330566
1483928599541,-0.15314064919948578,0.24885354936122894,-9.65503978729248
1483928599771,-0.15314064919948578,0.23210379481315613,-9.67657470703125
1483928600001,-0.12921242415905,0.2967100143432617,-9.664610862731934
1483928600212,-0.11485548317432404,0.2632104754447937,-9.66939640045166
1483928600449,-0.1339980661869049,0.2560320198535919,-9.707681655883789
1483928600689,-0.1052841916680336,0.2967100143432617,-9.695716857910156
1483928600919,-0.11964112520217896,0.3254238963127136,-9.631111145019531
1483928601137,-0.14356936514377594,0.2560320198535919,-9.722038269042969
1483928601367,-0.13878372311592102,0.24406792223453522,-9.671788215637207
1483928601568,-0.0813559740781784,0.2919243574142456,-9.681360244750977
1483928601806,-0.06699903309345245,0.33738797903060913,-9.667003631591797
1483928602046,-0.11485548317432404,0.3349951505661011,-9.652647018432617
1483928602273,-0.11485548317432404,0.30628129839897156,-9.640682220458984
1483928602486,-0.1339980661869049,0.34695929288864136,-9.688538551330566
1483928602721,-0.062213387340307236,0.28953152894973755,-9.640682220458984
1483928602935,-0.08614162355661392,0.38763725757598877,-9.619147300720215
1483928603164,-0.12921242415905,0.3756731450557709,-9.674181938171387
1483928603378,-0.11964112520217896,0.3661018908023834,-9.66221809387207
1483928603604,-0.04785645008087158,0.34695929288864136,-9.678967475891113
1483928603843,-0.05742774158716202,0.34217363595962524,-9.695716857910156
1483928604083,-0.1052841916680336,0.35892340540885925,-9.65503978729248
1483928604300,-0.09092726558446884,0.3756731450557709,-9.643074989318848
1483928604531,-0.12921242415905,0.41156551241874695,-9.688538551330566
1483928604762,-0.09092726558446884,0.33738797903060913,-9.69093132019043
1483928605000,-0.11006984114646912,0.380458801984787,-9.643074989318848
1483928605240,-0.12921242415905,0.3661018908023834,-9.626325607299805
1483928605442,-0.11485548317432404,0.31345975399017334,-9.678967475891113
1483928605677,-0.11964112520217896,0.2632104754447937,-9.650253295898438
1483928605880,-0.09571290016174316,0.31345975399017334,-9.633503913879395
1483928606114,-0.09571290016174316,0.38763725757598877,-9.650253295898438
1483928606327,-0.14356936514377594,0.35892340540885925,-9.65503978729248
1483928606560,-0.0813559740781784,0.38763725757598877,-9.635896682739258
1483928606762,-0.1052841916680336,0.3493521213531494,-9.652647018432617
1483928606996,-0.07657032459974289,0.3493521213531494,-9.68375301361084
1483928607267,-0.04307081177830696,0.3613162040710449,-9.705288887023926
1483928607474,-0.07657032459974289,0.3756731450557709,-9.7005033493042
1483928607675,-0.09571290016174316,0.31106695532798767,-9.674181938171387
1483928607925,-0.062213387340307236,0.28235307335853577,-9.650253295898438
1483928608159,-0.07657032459974289,0.31106695532798767,-9.626325607299805
1483928608394,-0.11006984114646912,0.3732803165912628,-9.724431037902832
1483928608633,-0.062213387340307236,0.34695929288864136,-9.69332504272461
1483928608871,-0.1052841916680336,0.413958340883255,-9.652647018432617
1483928609085,-0.1052841916680336,0.3900300860404968,-9.609575271606445
1483928609321,-0.09092726558446884,0.34695929288864136,-9.707681655883789
1483928609553,-0.11964112520217896,0.3517449200153351,-9.707681655883789
1483928609791,-0.10049854964017868,0.397208571434021,-9.67657470703125
1483928610031,-0.1339980661869049,0.30628129839897156,-9.657432556152344
1483928610271,-0.1052841916680336,0.3613162040710449,-9.659825325012207
1483928610500,-0.11006984114646912,0.30149564146995544,-9.69332504272461
1483928610718,-0.12921242415905,0.3206382095813751,-9.671788215637207
1483928610950,-0.10049854964017868,0.31106695532798767,-9.628718376159668
1483928611189,-0.1339980661869049,0.34695929288864136,-9.647860527038574
1483928611428,-0.062213387340307236,0.3445664942264557,-9.68375301361084
1483928611668,-0.0526420958340168,0.39481574296951294,-9.66939640045166
1483928611903,-0.11006984114646912,0.3732803165912628,-9.614361763000488
1483928612116,-0.0526420958340168,0.380458801984787,-9.657432556152344
1483928612344,-0.12921242415905,0.31345975399017334,-9.68375301361084
1483928612560,-0.09571290016174316,0.2632104754447937,-9.695716857910156
1483928612785,-0.10049854964017868,0.34695929288864136,-9.659825325012207
1483928613025,-0.1052841916680336,0.30149564146995544,-9.657432556152344
1483928613264,-0.0813559740781784,0.2560320198535919,-9.702895164489746
1483928613489,-0.11964112520217896,0.2991028428077698,-9.623932838439941
1483928613712,-0.11964112520217896,0.3924228847026825,-9.619147300720215
1483928613913,-0.12442677468061447,0.39960137009620667,-9.590433120727539
1483928614142,-0.0813559740781784,0.37806597352027893,-9.633503913879395
1483928614383,-0.11006984114646912,0.4546363055706024,-9.633503913879395
1483928614621,-0.062213387340307236,0.30628129839897156,-9.69093132019043
1483928614886,-0.04785645008087158,0.3756731450557709,-9.674181938171387
1483928615110,-0.07178468257188797,0.4450649619102478,-9.667003631591797
1483928615340,-0.11006984114646912,0.3158525824546814,-9.702895164489746
1483928615555,-0.11485548317432404,0.4043869972229004,-9.619147300720215
1483928615780,-0.08614162355661392,0.39960137009620667,-9.667003631591797
1483928616019,-0.09571290016174316,0.2632104754447937,-9.710074424743652
1483928616259,-0.09092726558446884,0.45224347710609436,-9.69332504272461
1483928616487,-0.07657032459974289,0.3349951505661011,-9.643074989318848
1483928616707,-0.11485548317432404,0.3613162040710449,-9.643074989318848
1483928616936,-0.1052841916680336,0.31824538111686707,-9.678967475891113
1483928617177,-0.1052841916680336,0.3254238963127136,-9.674181938171387
1483928617416,-0.11485548317432404,0.3565305471420288,-9.609575271606445
1483928617654,-0.09092726558446884,0.4043869972229004,-9.686145782470703
1483928617873,-0.08614162355661392,0.38285160064697266,-9.647860527038574
1483928618106,-0.0813559740781784,0.33020952343940735,-9.7005033493042
1483928618310,-0.062213387340307236,0.38763725757598877,-9.664610862731934
1483928618552,-0.07178468257188797,0.38285160064697266,-9.67657470703125
1483928618775,-0.09092726558446884,0.41156551241874695,-9.688538551330566
1483928619015,-0.08614162355661392,0.35892340540885925,-9.695716857910156
1483928619252,-0.1052841916680336,0.3613162040710449,-9.643074989318848
1483928619477,-0.09571290016174316,0.32303106784820557,-9.631111145019531
1483928619702,-0.07178468257188797,0.30149564146995544,-9.628718376159668
1483928619930,-0.0526420958340168,0.2871387302875519,-9.647860527038574
1483928620133,-0.07657032459974289,0.3445664942264557,-9.623932838439941
1483928620372,-0.09571290016174316,0.28953152894973755,-9.68375301361084
1483928620609,-0.0813559740781784,0.3349951505661011,-9.638289451599121
1483928620849,-0.0526420958340168,0.3397807776927948,-9.671788215637207
1483928621081,-0.08614162355661392,0.34695929288864136,-9.674181938171387
1483928621302,-0.09092726558446884,0.33738797903060913,-9.66221809387207
1483928621526,-0.0813559740781784,0.3493521213531494,-9.671788215637207
1483928621728,-0.11006984114646912,0.31106695532798767,-9.705288887023926
1483928621967,-0.1052841916680336,0.3732803165912628,-9.650253295898438
1483928622238,-0.0813559740781784,0.38285160064697266,-9.652647018432617
1483928622450,-0.0813559740781784,0.3613162040710449,-9.705288887023926
1483928622679,-0.0813559740781784,0.38763725757598877,-9.67657470703125
1483928622896,-0.0813559740781784,0.3278167247772217,-9.604789733886719
1483928623125,-0.10049854964017868,0.31345975399017334,-9.664610862731934
1483928623340,-0.10049854964017868,0.34217363595962524,-9.664610862731934
1483928623564,-0.08614162355661392,0.35892340540885925,-9.68375301361084
1483928623803,-0.0526420958340168,0.3661018908023834,-9.626325607299805
1483928624043,-0.10049854964017868,0.3732803165912628,-9.619147300720215
1483928624289,-0.09092726558446884,0.27038896083831787,-9.688538551330566
1483928624491,-0.014356935396790504,0.42352959513664246,-9.69332504272461
1483928624692,-0.09571290016174316,0.40677985548973083,-9.705288887023926
1483928624921,-0.07657032459974289,0.41156551241874695,-9.611968994140625
1483928625162,-0.13878372311592102,0.3517449200153351,-9.647860527038574
1483928625400,-0.12442677468061447,0.38763725757598877,-9.67657470703125
1483928625641,-0.08614162355661392,0.34695929288864136,-9.724431037902832
1483928625866,-0.08614162355661392,0.38763725757598877,-9.631111145019531
1483928626088,-0.07178468257188797,0.3397807776927948,-9.621540069580078
1483928626319,-0.062213387340307236,0.4546363055706024,-9.66939640045166
1483928626558,-0.062213387340307236,0.397208571434021,-9.643074989318848
1483928626797,-0.0813559740781784,0.44027936458587646,-9.638289451599121
1483928627039,-0.0813559740781784,0.32303106784820557,-9.645467758178711
1483928627285,-0.062213387340307236,0.38763725757598877,-9.645467758178711
1483928627517,-0.038285162299871445,0.3613162040710449,-9.705288887023926
1483928627728,-0.1052841916680336,0.37806597352027893,-9.678967475891113
1483928627954,-0.06699903309345245,0.36370906233787537,-9.664610862731934
1483928628197,-0.10049854964017868,0.3756731450557709,-9.674181938171387
1483928628419,-0.07657032459974289,0.3158525824546814,-9.674181938171387
1483928628633,-0.07178468257188797,0.2967100143432617,-9.674181938171387
1483928628864,-0.11964112520217896,0.30628129839897156,-9.671788215637207
1483928629084,-0.062213387340307236,0.2991028428077698,-9.609575271606445
1483928629311,-0.17706887423992157,0.380458801984787,-9.638289451599121
1483928629528,-0.05742774158716202,0.5120640397071838,-9.628718376159668
1483928629752,-0.08614162355661392,0.3852444589138031,-9.671788215637207
1483928629991,-0.05742774158716202,0.4091726541519165,-9.647860527038574
1483928630231,-0.04785645008087158,0.4450649619102478,-9.640682220458984
1483928630468,-0.11485548317432404,0.41156551241874695,-9.657432556152344
1483928630678,-0.05742774158716202,0.44267216324806213,-9.643074989318848
1483928630910,-0.07178468257188797,0.44027936458587646,-9.652647018432617
1483928631123,-0.062213387340307236,0.47617170214653015,-9.611968994140625
1483928631350,-0.0526420958340168,0.41156551241874695,-9.688538551330566
1483928631589,-0.06699903309345245,0.4019941985607147,-9.67657470703125
1483928631827,-0.04785645008087158,0.3924228847026825,-9.688538551330566
1483928632066,-0.05742774158716202,0.3732803165912628,-9.724431037902832
1483928632277,-0.09571290016174316,0.28953152894973755,-9.68375301361084
1483928632505,-0.062213387340307236,0.44027936458587646,-9.652647018432617
1483928632706,-0.04785645008087158,0.39960137009620667,-9.681360244750977
1483928632946,-0.06699903309345245,0.43549373745918274,-9.734003067016602
1483928633147,-0.05742774158716202,0.4450649619102478,-9.698110580444336
1483928633385,-0.07178468257188797,0.4450649619102478,-9.607183456420898
1483928633624,-0.0813559740781784,0.397208571434021,-9.643074989318848
1483928633854,-0.05742774158716202,0.430708110332489,-9.657432556152344
1483928634071,-0.04785645008087158,0.4618147313594818,-9.657432556152344
1483928634303,-0.0813559740781784,0.45224347710609436,-9.659825325012207
1483928634510,-0.06699903309345245,0.40677985548973083,-9.643074989318848
1483928634742,-0.11964112520217896,0.38763725757598877,-9.664610862731934
1483928634981,-0.0526420958340168,0.4737788736820221,-9.667003631591797
1483928635221,-0.10049854964017868,0.49531427025794983,-9.667003631591797
1483928635440,-0.07657032459974289,0.43549373745918274,-9.65503978729248
1483928635669,-0.062213387340307236,0.44027936458587646,-9.674181938171387
1483928635901,-0.08614162355661392,0.4331009089946747,-9.650253295898438
1483928636143,-0.11485548317432404,0.4043869972229004,-9.619147300720215
1483928636379,-0.09571290016174316,0.4546363055706024,-9.638289451599121
1483928636618,-0.062213387340307236,0.3349951505661011,-9.688538551330566
1483928636845,-0.07178468257188797,0.38763725757598877,-9.645467758178711
1483928637067,-0.0813559740781784,0.39960137009620667,-9.652647018432617
1483928637297,-0.062213387340307236,0.41156551241874695,-9.671788215637207
1483928637540,-0.04307081177830696,0.42831525206565857,-9.66221809387207
1483928637776,-0.0526420958340168,0.4450649619102478,-9.702895164489746
1483928638016,-0.08614162355661392,0.4785645008087158,-9.66221809387207
1483928638247,-0.06699903309345245,0.4331009089946747,-9.67657470703125
1483928638463,-0.09571290016174316,0.430708110332489,-9.671788215637207
1483928638695,-0.07657032459974289,0.4498506784439087,-9.640682220458984
1483928638935,-0.038285162299871445,0.4905286431312561,-9.657432556152344
1483928639173,-0.0526420958340168,0.4666004180908203,-9.640682220458984
1483928639430,-0.038285162299871445,0.4163511395454407,-9.671788215637207
1483928639659,-0.07657032459974289,0.43549373745918274,-9.7005033493042
1483928639861,-0.07657032459974289,0.4809573292732239,-9.69093132019043
1483928640092,-0.07657032459974289,0.47617170214653015,-9.607183456420898
1483928640330,-0.04307081177830696,0.4450649619102478,-9.686145782470703
1483928640531,-0.0813559740781784,0.3900300860404968,-9.66939640045166
1483928640771,-0.08614162355661392,0.4809573292732239,-9.69093132019043
1483928641009,-0.0813559740781784,0.4809573292732239,-9.705288887023926
1483928641211,-0.0813559740781784,0.519242525100708,-9.647860527038574
1483928641451,-0.09092726558446884,0.5335994362831116,-9.614361763000488
1483928641656,-0.08614162355661392,0.4905286431312561,-9.652647018432617
1483928641888,-0.07657032459974289,0.37088751792907715,-9.686145782470703
1483928642128,-0.06699903309345245,0.4019941985607147,-9.69093132019043
1483928642366,-0.038285162299871445,0.29431718587875366,-9.745966911315918
1483928642567,-0.07178468257188797,0.5264209508895874,-9.719645500183105
1483928642791,-0.09092726558446884,0.5335994362831116,-9.647860527038574
1483928643024,-0.04785645008087158,0.519242525100708,-9.667003631591797
1483928643254,-0.07657032459974289,0.5335994362831116,-9.633503913879395
1483928643486,-0.10049854964017868,0.48813584446907043,-9.66221809387207
1483928643725,-0.1052841916680336,0.43549373745918274,-9.7005033493042
1483928643964,-0.062213387340307236,0.4666004180908203,-9.69093132019043
1483928644203,-0.062213387340307236,0.42831525206565857,-9.652647018432617
1483928644419,-0.009571290574967861,0.4546363055706024,-9.714859962463379
1483928644652,-0.03349951654672623,0.4977070987224579,-9.674181938171387
1483928644855,-0.05742774158716202,0.48813584446907043,-9.643074989318848
1483928645083,-0.07657032459974289,0.4259224236011505,-9.643074989318848
1483928645322,-0.10049854964017868,0.519242525100708,-9.647860527038574
1483928645560,-0.0526420958340168,0.5862415432929993,-9.652647018432617
1483928645800,-0.07657032459974289,0.5144568681716919,-9.650253295898438
1483928646021,-0.0813559740781784,0.44745784997940063,-9.67657470703125
1483928646248,-0.07657032459974289,0.44027936458587646,-9.68375301361084
1483928646478,-0.02871387079358101,0.4737788736820221,-9.724431037902832
1483928646679,-0.09571290016174316,0.4331009089946747,-9.695716857910156
1483928646919,-0.04307081177830696,0.48574298620224,-9.652647018432617
1483928647158,-0.038285162299871445,0.48813584446907043,-9.647860527038574
1483928647398,-0.03349951654672623,0.41156551241874695,-9.722038269042969
1483928647615,-0.06699903309345245,0.44267216324806213,-9.66221809387207
1483928647843,-0.06699903309345245,0.4570291042327881,-9.643074989318848
1483928648044,-0.038285162299871445,0.4785645008087158,-9.645467758178711
1483928648275,-0.062213387340307236,0.44745784997940063,-9.631111145019531
1483928648516,-0.014356935396790504,0.46899324655532837,-9.633503913879395
1483928648754,-0.03349951654672623,0.46899324655532837,-9.664610862731934
1483928648994,-0.0526420958340168,0.4713860750198364,-9.623932838439941
1483928649225,-0.014356935396790504,0.4618147313594818,-9.702895164489746
1483928649442,-0.0813559740781784,0.4737788736820221,-9.667003631591797
1483928649672,-0.038285162299871445,0.42831525206565857,-9.652647018432617
1483928649887,-0.062213387340307236,0.49531427025794983,-9.686145782470703
1483928650112,-0.07178468257188797,0.4905286431312561,-9.57607650756836
1483928650350,0.004785645287483931,0.5144568681716919,-9.695716857910156
1483928650591,-0.019142581149935722,0.46420758962631226,-9.650253295898438
1483928650806,-0.02871387079358101,0.5216353535652161,-9.657432556152344
1483928651039,-0.0526420958340168,0.5096712112426758,-9.712467193603516
1483928651268,-0.02871387079358101,0.47617170214653015,-9.657432556152344
1483928651469,-0.062213387340307236,0.5144568681716919,-9.65503978729248
1483928651707,-0.014356935396790504,0.4785645008087158,-9.621540069580078
1483928651908,-0.02871387079358101,0.48813584446907043,-9.678967475891113
1483928652148,0.02392822504043579,0.43549373745918274,-9.66939640045166
1483928652349,-0.0526420958340168,0.42831525206565857,-9.647860527038574
1483928652593,-0.062213387340307236,0.4618147313594818,-9.645467758178711
1483928652835,-0.014356935396790504,0.4713860750198364,-9.657432556152344
1483928653066,-0.03349951654672623,0.4546363055706024,-9.638289451599121
1483928653306,-0.0526420958340168,0.4905286431312561,-9.726823806762695
1483928653545,-0.03349951654672623,0.5048855543136597,-9.652647018432617
1483928653784,-0.02392822504043579,0.45224347710609436,-9.69332504272461
1483928654004,-0.03349951654672623,0.46420758962631226,-9.635896682739258
1483928654232,-0.02871387079358101,0.4737788736820221,-9.667003631591797
1483928654463,-0.07657032459974289,0.5072783827781677,-9.66221809387207
1483928654702,-0.019142581149935722,0.49292147159576416,-9.67657470703125
1483928654942,-0.04785645008087158,0.4666004180908203,-9.614361763000488
1483928655180,-0.0526420958340168,0.46899324655532837,-9.664610862731934
1483928655430,-0.02392822504043579,0.4977070987224579,-9.645467758178711
1483928655659,-0.0813559740781784,0.46899324655532837,-9.68375301361084
1483928655860,-0.02871387079358101,0.5312066078186035,-9.643074989318848
1483928656068,-0.019142581149935722,0.5359922647476196,-9.643074989318848
1483928656300,-0.02392822504043579,0.4809573292732239,-9.705288887023926
1483928656539,-0.038285162299871445,0.49531427025794983,-9.667003631591797
1483928656778,-0.09092726558446884,0.5144568681716919,-9.65503978729248
1483928657000,-0.062213387340307236,0.5455635190010071,-9.65503978729248
1483928657227,-0.0526420958340168,0.45942193269729614,-9.652647018432617
1483928657454,-0.014356935396790504,0.48574298620224,-9.66939640045166
1483928657674,-0.07178468257188797,0.4666004180908203,-9.628718376159668
1483928657895,0.004785645287483931,0.5383850932121277,-9.645467758178711
1483928658096,-0.07178468257188797,0.4498506784439087,-9.66939640045166
1483928658335,-0.09571290016174316,0.5288137793540955,-9.645467758178711
1483928658575,-0.0526420958340168,0.4905286431312561,-9.68375301361084
1483928658824,-0.06699903309345245,0.4498506784439087,-9.635896682739258
1483928659053,-0.02392822504043579,0.4378865361213684,-9.628718376159668
1483928659256,-0.06699903309345245,0.430708110332489,-9.686145782470703
1483928659492,-0.062213387340307236,0.4713860750198364,-9.702895164489746
1483928659693,-0.0526420958340168,0.5144568681716919,-9.68375301361084
1483928659895,-0.038285162299871445,0.4905286431312561,-9.652647018432617
1483928660132,-0.02392822504043579,0.4618147313594818,-9.686145782470703
1483928660372,-0.0526420958340168,0.4833501875400543,-9.678967475891113
1483928660590,-0.04785645008087158,0.4977070987224579,-9.695716857910156
1483928660819,-0.03349951654672623,0.4785645008087158,-9.695716857910156
1483928661064,-0.04307081177830696,0.44745784997940063,-9.69093132019043
1483928661290,-0.019142581149935722,0.4570291042327881,-9.702895164489746
1483928661492,-0.0526420958340168,0.5048855543136597,-9.621540069580078
1483928661729,-0.04307081177830696,0.43549373745918274,-9.686145782470703
1483928661958,-0.07178468257188797,0.4785645008087158,-9.645467758178711
1483928662168,-0.02392822504043579,0.41874396800994873,-9.681360244750977
1483928662386,-0.03349951654672623,0.4091726541519165,-9.678967475891113
1483928662591,-0.02392822504043579,0.4905286431312561,-9.686145782470703
1483928662816,-0.03349951654672623,0.44027936458587646,-9.68375301361084
1483928663044,-0.03349951654672623,0.4905286431312561,-9.671788215637207
1483928663246,-0.02392822504043579,0.4737788736820221,-9.678967475891113
1483928663484,-0.038285162299871445,0.49531427025794983,-9.686145782470703
1483928663744,-0.02871387079358101,0.49292147159576416,-9.67657470703125
1483928663953,-0.04307081177830696,0.413958340883255,-9.667003631591797
1483928664190,-0.03349951654672623,0.4905286431312561,-9.652647018432617
1483928664413,-0.004785645287483931,0.5120640397071838,-9.671788215637207
1483928664644,-0.02392822504043579,0.5288137793540955,-9.664610862731934
1483928664874,-0.02871387079358101,0.49531427025794983,-9.714859962463379
1483928665082,-0.07178468257188797,0.5000999569892883,-9.638289451599121
1483928665322,-0.019142581149935722,0.44027936458587646,-9.702895164489746
1483928665561,-0.03349951654672623,0.4378865361213684,-9.647860527038574
1483928665777,-0.02392822504043579,0.5120640397071838,-9.671788215637207
1483928666009,-0.02392822504043579,0.4450649619102478,-9.607183456420898
1483928666239,-0.02392822504043579,0.4378865361213684,-9.674181938171387
1483928666478,-0.07657032459974289,0.4498506784439087,-9.695716857910156
1483928666742,-0.03349951654672623,0.4666004180908203,-9.674181938171387
1483928666960,-0.03349951654672623,0.4977070987224579,-9.628718376159668
1483928667206,-0.03349951654672623,0.4546363055706024,-9.638289451599121
1483928667437,-0.04307081177830696,0.39960137009620667,-9.671788215637207
1483928667653,-0.02871387079358101,0.46420758962631226,-9.621540069580078
1483928667877,-0.04307081177830696,0.44027936458587646,-9.674181938171387
1483928668118,-0.04785645008087158,0.44745784997940063,-9.611968994140625
1483928668355,-0.062213387340307236,0.4378865361213684,-9.647860527038574
1483928668565,-0.02871387079358101,0.38763725757598877,-9.67657470703125
1483928668803,-0.03349951654672623,0.42352959513664246,-9.633503913879395
1483928669034,-0.038285162299871445,0.4618147313594818,-9.631111145019531
1483928669273,-0.04785645008087158,0.44745784997940063,-9.69093132019043
1483928669474,-0.038285162299871445,0.4546363055706024,-9.638289451599121
1483928669713,-0.05742774158716202,0.4737788736820221,-9.678967475891113
1483928669943,-0.05742774158716202,0.4570291042327881,-9.657432556152344
1483928670153,-0.02871387079358101,0.4666004180908203,-9.659825325012207
1483928670402,-0.04307081177830696,0.4259224236011505,-9.611968994140625
1483928670633,-0.03349951654672623,0.46420758962631226,-9.695716857910156
1483928670871,-0.06699903309345245,0.413958340883255,-9.635896682739258
1483928671110,-0.019142581149935722,0.45224347710609436,-9.659825325012207
1483928671350,-0.04307081177830696,0.46899324655532837,-9.695716857910156
1483928671581,-0.062213387340307236,0.4713860750198364,-9.652647018432617
1483928671800,-0.0526420958340168,0.42831525206565857,-9.707681655883789
1483928672029,-0.04307081177830696,0.4713860750198364,-9.607183456420898
1483928672244,-0.062213387340307236,0.519242525100708,-9.571290969848633
1483928672468,-0.009571290574967861,0.35413774847984314,-9.650253295898438
1483928672708,-0.062213387340307236,0.413958340883255,-9.635896682739258
1483928672947,-0.07657032459974289,0.4450649619102478,-9.667003631591797
1483928673192,-0.0813559740781784,0.5000999569892883,-9.68375301361084
1483928673394,-0.05742774158716202,0.4905286431312561,-9.657432556152344
1483928673626,-0.04307081177830696,0.35892340540885925,-9.68375301361084
1483928673865,-0.038285162299871445,0.5000999569892883,-9.633503913879395
1483928674105,-0.038285162299871445,0.5551348924636841,-9.635896682739258
1483928674344,-0.04307081177830696,0.5694918036460876,-9.631111145019531
1483928674566,-0.09571290016174316,0.5335994362831116,-9.616753578186035
1483928674793,-0.038285162299871445,0.5120640397071838,-9.674181938171387
1483928675023,-0.02392822504043579,0.44027936458587646,-9.638289451599121
1483928675237,-0.04307081177830696,0.5096712112426758,-9.650253295898438
1483928675463,-0.062213387340307236,0.4977070987224579,-9.674181938171387
1483928675701,-0.04785645008087158,0.48574298620224,-9.698110580444336
1483928675903,-0.04785645008087158,0.48574298620224,-9.68375301361084
1483928676129,0.004785645287483931,0.4331009089946747,-9.650253295898438
1483928676340,-0.04307081177830696,0.380458801984787,-9.643074989318848
1483928676558,-0.03349951654672623,0.42352959513664246,-9.68375301361084
1483928676785,-0.09092726558446884,0.5024927258491516,-9.633503913879395
1483928676986,-0.04785645008087158,0.4737788736820221,-9.69332504272461
1483928677218,-0.014356935396790504,0.4666004180908203,-9.69093132019043
1483928677458,-0.04307081177830696,0.43549373745918274,-9.686145782470703
1483928677697,-0.06699903309345245,0.48813584446907043,-9.616753578186035
1483928677937,-0.07178468257188797,0.48813584446907043,-9.707681655883789
1483928678148,-0.11485548317432404,0.4378865361213684,-9.664610862731934
1483928678385,-0.10049854964017868,0.4618147313594818,-9.66221809387207
1483928678614,-0.1052841916680336,0.4331009089946747,-9.645467758178711
1483928678815,-0.02392822504043579,0.519242525100708,-9.647860527038574
1483928679054,-0.014356935396790504,0.4737788736820221,-9.635896682739258
1483928679325,-0.04785645008087158,0.4546363055706024,-9.647860527038574
1483928679535,-0.03349951654672623,0.4331009089946747,-9.69093132019043
1483928679765,-0.06699903309345245,0.397208571434021,-9.69332504272461
1483928679979,-0.02871387079358101,0.41156551241874695,-9.722038269042969
1483928680213,-0.019142581149935722,0.5431707501411438,-9.659825325012207
1483928680421,0.014356935396790504,0.5575276613235474,-9.659825325012207
1483928680649,-0.06699903309345245,0.5886343717575073,-9.535398483276367
1483928680850,-0.02871387079358101,0.5742774605751038,-9.659825325012207
1483928681051,0.009571290574967861,0.5623133182525635,-9.643074989318848
1483928681253,-0.06699903309345245,0.5024927258491516,-9.657432556152344
1483928681490,-0.03349951654672623,0.4259224236011505,-9.674181938171387
1483928681729,-0.02871387079358101,0.5048855543136597,-9.68375301361084
1483928681949,-0.02871387079358101,0.4833501875400543,-9.659825325012207
1483928682177,-0.03349951654672623,0.4163511395454407,-9.67657470703125
1483928682409,-0.02392822504043579,0.5240281224250793,-9.67657470703125
1483928682648,-0.014356935396790504,0.49531427025794983,-9.686145782470703
1483928682887,-0.02871387079358101,0.5096712112426758,-9.695716857910156
1483928683127,-0.02871387079358101,0.4785645008087158,-9.645467758178711
1483928683358,-0.0526420958340168,0.5024927258491516,-9.678967475891113
1483928683575,-0.014356935396790504,0.5312066078186035,-9.688538551330566
1483928683804,-0.04307081177830696,0.4833501875400543,-9.659825325012207
1483928684005,-0.02392822504043579,0.5599204897880554,-9.590433120727539
1483928684242,-0.014356935396790504,0.5312066078186035,-9.659825325012207
1483928684444,-0.014356935396790504,0.4737788736820221,-9.667003631591797
1483928684705,-0.014356935396790504,0.5144568681716919,-9.68375301361084
1483928684923,-0.019142581149935722,0.5383850932121277,-9.631111145019531
1483928685155,-0.04307081177830696,0.5312066078186035,-9.643074989318848
1483928685371,-0.038285162299871445,0.5144568681716919,-9.678967475891113
1483928685602,-0.014356935396790504,0.5072783827781677,-9.645467758178711
1483928685808,-0.02392822504043579,0.5647061467170715,-9.678967475891113
1483928686041,-0.014356935396790504,0.48813584446907043,-9.66221809387207
1483928686280,-0.03349951654672623,0.4833501875400543,-9.645467758178711
1483928686520,-0.009571290574967861,0.4785645008087158,-9.650253295898438
1483928686753,-0.0526420958340168,0.46420758962631226,-9.664610862731934
1483928686969,-0.02871387079358101,0.4331009089946747,-9.645467758178711
1483928687196,-0.009571290574967861,0.48574298620224,-9.688538551330566
1483928687412,-0.03349951654672623,0.5264209508895874,-9.65503978729248
1483928687638,-0.03349951654672623,0.5359922647476196,-9.621540069580078
1483928687876,-0.038285162299871445,0.49292147159576416,-9.645467758178711
1483928688153,-0.014356935396790504,0.5120640397071838,-9.69093132019043
1483928688364,-0.02392822504043579,0.48813584446907043,-9.633503913879395
1483928688594,-0.0526420958340168,0.552742063999176,-9.67657470703125
1483928688808,-0.0526420958340168,0.5455635190010071,-9.650253295898438
1483928689037,-0.02871387079358101,0.5742774605751038,-9.664610862731934
1483928689273,-0.04307081177830696,0.552742063999176,-9.626325607299805
1483928689474,-0.004785645287483931,0.5312066078186035,-9.7005033493042
1483928689707,-0.019142581149935722,0.44027936458587646,-9.719645500183105
1483928689913,0.009571290574967861,0.3613162040710449,-9.69332504272461
1483928690140,-0.004785645287483931,0.430708110332489,-9.671788215637207
1483928690358,-0.019142581149935722,0.42352959513664246,-9.698110580444336
1483928690561,-0.014356935396790504,0.48813584446907043,-9.66221809387207
1483928690789,-0.062213387340307236,0.48813584446907043,-9.69332504272461
1483928690991,0.004785645287483931,0.5575276613235474,-9.67657470703125
1483928691229,-0.019142581149935722,0.5048855543136597,-9.621540069580078
1483928691431,0.004785645287483931,0.48574298620224,-9.719645500183105
1483928691670,-0.04785645008087158,0.5120640397071838,-9.674181938171387
1483928691909,-0.014356935396790504,0.5096712112426758,-9.681360244750977
1483928692159,-0.04785645008087158,0.5312066078186035,-9.674181938171387
1483928692390,0.004785645287483931,0.4570291042327881,-9.674181938171387
1483928692629,-0.004785645287483931,0.5240281224250793,-9.645467758178711
1483928692867,0.004785645287483931,0.5312066078186035,-9.659825325012207
1483928693106,0.004785645287483931,0.5240281224250793,-9.621540069580078
1483928693338,-0.014356935396790504,0.5503491759300232,-9.652647018432617
1483928693555,-0.014356935396790504,0.5216353535652161,-9.688538551330566
1483928693786,-0.009571290574967861,0.5048855543136597,-9.667003631591797
1483928694026,-0.004785645287483931,0.5312066078186035,-9.623932838439941
1483928694264,0.009571290574967861,0.4905286431312561,-9.640682220458984
1483928694506,-0.038285162299871445,0.4450649619102478,-9.686145782470703
1483928694725,-0.014356935396790504,0.519242525100708,-9.698110580444336
1483928694949,-0.038285162299871445,0.5096712112426758,-9.681360244750977
1483928695151,-0.014356935396790504,0.4977070987224579,-9.614361763000488
1483928695381,-0.004785645287483931,0.5264209508895874,-9.65503978729248
1483928695582,0.009571290574967861,0.5455635190010071,-9.619147300720215
1483928695820,-0.04307081177830696,0.4833501875400543,-9.724431037902832
1483928696025,-0.019142581149935722,0.5072783827781677,-9.736394882202148
1483928696260,-0.019142581149935722,0.5264209508895874,-9.686145782470703
1483928696501,0.009571290574967861,0.5312066078186035,-9.68375301361084
1483928696721,0.014356935396790504,0.5479563474655151,-9.659825325012207
1483928696948,0.019142581149935722,0.5288137793540955,-9.678967475891113
1483928697193,0.004785645287483931,0.5742774605751038,-9.659825325012207
1483928697422,-0.009571290574967861,0.5623133182525635,-9.643074989318848
1483928697658,0.014356935396790504,0.5551348924636841,-9.667003631591797
1483928697897,0.009571290574967861,0.5288137793540955,-9.695716857910156
1483928698117,0.019142581149935722,0.5240281224250793,-9.650253295898438
1483928698349,0.009571290574967861,0.5120640397071838,-9.640682220458984
1483928698575,-0.02392822504043579,0.5096712112426758,-9.667003631591797
1483928698816,0.004785645287483931,0.5072783827781677,-9.631111145019531
1483928699055,-0.014356935396790504,0.5455635190010071,-9.65503978729248
1483928699295,-0.019142581149935722,0.5024927258491516,-9.66221809387207
1483928699544,-0.03349951654672623,0.5647061467170715,-9.664610862731934
1483928699773,0.004785645287483931,0.5048855543136597,-9.667003631591797
1483928700014,-0.014356935396790504,0.5072783827781677,-9.640682220458984
1483928700252,-0.014356935396790504,0.5072783827781677,-9.66221809387207
1483928700492,0.038285162299871445,0.5048855543136597,-9.652647018432617
1483928700738,-0.03349951654672623,0.5288137793540955,-9.659825325012207
1483928700941,0.009571290574967861,0.5407779216766357,-9.686145782470703
1483928701169,-0.03349951654672623,0.5359922647476196,-9.638289451599121
1483928701370,-0.014356935396790504,0.5599204897880554,-9.604789733886719
1483928701609,-0.03349951654672623,0.5240281224250793,-9.650253295898438
1483928701852,-0.009571290574967861,0.5383850932121277,-9.631111145019531
1483928702089,0.014356935396790504,0.5407779216766357,-9.65503978729248
1483928702335,-0.014356935396790504,0.5264209508895874,-9.640682220458984
1483928702567,0.019142581149935722,0.5623133182525635,-9.623932838439941
1483928702808,0.014356935396790504,0.519242525100708,-9.69332504272461
1483928703048,-0.038285162299871445,0.5312066078186035,-9.66939640045166
1483928703287,0.03349951654672623,0.49531427025794983,-9.667003631591797
1483928703515,0.014356935396790504,0.519242525100708,-9.712467193603516
1483928703735,-0.02392822504043579,0.5335994362831116,-9.628718376159668
1483928703963,-0.004785645287483931,0.5240281224250793,-9.650253295898438
1483928704165,-0.03349951654672623,0.5024927258491516,-9.688538551330566
1483928704383,-0.02392822504043579,0.5312066078186035,-9.659825325012207
1483928704604,0.019142581149935722,0.4905286431312561,-9.638289451599121
1483928704843,-0.04307081177830696,0.5670989155769348,-9.657432556152344
1483928705113,-0.009571290574967861,0.5216353535652161,-9.688538551330566
1483928705335,-0.02392822504043579,0.5000999569892883,-9.623932838439941
1483928705559,-0.009571290574967861,0.5096712112426758,-9.681360244750977
1483928705775,-0.009571290574967861,0.5024927258491516,-9.643074989318848
1483928706002,-0.02871387079358101,0.5024927258491516,-9.657432556152344
1483928706241,-0.02871387079358101,0.519242525100708,-9.698110580444336
1483928706480,0.02871387079358101,0.5120640397071838,-9.645467758178711
1483928706726,-0.019142581149935722,0.49531427025794983,-9.65503978729248
1483928706929,-0.009571290574967861,0.552742063999176,-9.631111145019531
1483928707158,-0.02392822504043579,0.5120640397071838,-9.640682220458984
1483928707359,-0.004785645287483931,0.5359922647476196,-9.671788215637207
1483928707599,0.009571290574967861,0.4833501875400543,-9.659825325012207
1483928707838,-0.02392822504043579,0.5000999569892883,-9.633503913879395
1483928708076,-0.009571290574967861,0.5000999569892883,-9.638289451599121
1483928708277,0.02392822504043579,0.5072783827781677,-9.707681655883789
1483928708513,0.009571290574967861,0.5120640397071838,-9.65503978729248
1483928708724,0.038285162299871445,0.5335994362831116,-9.647860527038574
1483928708955,0.004785645287483931,0.5479563474655151,-9.647860527038574
1483928709162,0.02392822504043579,0.5072783827781677,-9.671788215637207
1483928709395,-0.009571290574967861,0.4905286431312561,-9.702895164489746
1483928709634,0.03349951654672623,0.5264209508895874,-9.626325607299805
1483928709873,-0.014356935396790504,0.5072783827781677,-9.69093132019043
1483928710119,0.009571290574967861,0.5790630578994751,-9.678967475891113
1483928710323,0.004785645287483931,0.5407779216766357,-9.609575271606445
1483928710551,0.02392822504043579,0.5335994362831116,-9.66221809387207
1483928710752,-0.009571290574967861,0.5288137793540955,-9.645467758178711
1483928710971,0.02392822504043579,0.5024927258491516,-9.611968994140625
1483928711191,-0.014356935396790504,0.4785645008087158,-9.667003631591797
1483928711430,-0.009571290574967861,0.5455635190010071,-9.633503913879395
1483928711670,0.019142581149935722,0.5503491759300232,-9.68375301361084
1483928711921,0.02871387079358101,0.48813584446907043,-9.66221809387207
1483928712154,0.019142581149935722,0.5168496966362,-9.688538551330566
1483928712389,-0.02871387079358101,0.4905286431312561,-9.686145782470703
1483928712628,0.02392822504043579,0.519242525100708,-9.69332504272461
1483928712868,0.004785645287483931,0.5240281224250793,-9.69093132019043
1483928713082,0.009571290574967861,0.4977070987224579,-9.678967475891113
1483928713316,-0.004785645287483931,0.519242525100708,-9.652647018432617
1483928713546,-0.009571290574967861,0.5072783827781677,-9.631111145019531
1483928713786,0.014356935396790504,0.5455635190010071,-9.650253295898438
1483928713992,0.02392822504043579,0.5072783827781677,-9.67657470703125
1483928714229,0.004785645287483931,0.5383850932121277,-9.645467758178711
1483928714464,0.009571290574967861,0.5312066078186035,-9.65503978729248
1483928714710,0.03349951654672623,0.5000999569892883,-9.65503978729248
1483928714913,0.02392822504043579,0.4498506784439087,-9.66939640045166
1483928715143,-0.009571290574967861,0.49531427025794983,-9.65503978729248
1483928715383,0.009571290574967861,0.46899324655532837,-9.68375301361084
1483928715626,0.03349951654672623,0.5072783827781677,-9.66221809387207
1483928715862,-0.014356935396790504,0.5934200286865234,-9.58325481414795
1483928716110,-0.009571290574967861,0.6987042427062988,-9.58325481414795
1483928716343,0.03349951654672623,0.5479563474655151,-9.659825325012207
1483928716581,0.03349951654672623,0.5000999569892883,-9.633503913879395
1483928716822,0.004785645287483931,0.5048855543136597,-9.638289451599121
1483928717059,0.04307081177830696,0.5264209508895874,-9.65503978729248
1483928717310,-0.014356935396790504,0.4977070987224579,-9.600004196166992
1483928717552,0.004785645287483931,0.5910272002220154,-9.635896682739258
1483928717780,0.06699903309345245,0.519242525100708,-9.621540069580078
1483928718019,-0.014356935396790504,0.5120640397071838,-9.640682220458984
1483928718256,0.019142581149935722,0.519242525100708,-9.638289451599121
1483928718486,-0.004785645287483931,0.5024927258491516,-9.633503913879395
1483928718705,0.019142581149935722,0.519242525100708,-9.652647018432617
1483928718936,0.019142581149935722,0.5670989155769348,-9.671788215637207