timestamp,ax,ay,az
1482396982551,0.038285162299871445,0.5982056856155396,-9.597611427307129
1482396982776,0.33020952343940735,1.5050854682922363,-9.413363456726074
1482396983016,0.12921242415905,0.48574298620224,-9.688538551330566
1482396983263,0.16749757528305054,1.4045867919921875,-9.707681655883789
1482396983495,0.24885354936122894,1.2227323055267334,-9.710074424743652
1482396983734,0.2153540551662445,1.2993026971817017,-9.54496955871582
1482396983974,0.2105683833360672,1.1533405780792236,-9.707681655883789
1482396984213,0.11964112520217896,1.1485549211502075,-9.513862609863281
1482396984461,0.18185453116893768,1.497907042503357,-9.535398483276367
1482396984692,0.15314064919948578,1.1653046607971191,-9.578469276428223
1482396984931,0.06699903309345245,1.306481122970581,-9.547362327575684
1482396985171,0.12921242415905,1.2586246728897095,-9.542576789855957
1482396985371,0.11964112520217896,1.5625132322311401,-9.580862045288086
1482396985613,0.1579262912273407,1.294516921043396,-9.621540069580078
1482396985859,0.11485548317432404,1.2179466485977173,-9.616753578186035
1482396986062,0.16749757528305054,1.3160523176193237,-9.604789733886719
1482396986290,0.15314064919948578,1.294516921043396,-9.556933403015137
1482396986528,0.0813559740781784,1.2849457263946533,-9.530611991882324
1482396986733,0.16749757528305054,1.1940184831619263,-9.650253295898438
1482396986934,0.14356936514377594,1.1724830865859985,-9.597611427307129
1482396987169,0.13878372311592102,1.234696388244629,-9.607183456420898
1482396987372,0.1627119481563568,1.3902300596237183,-9.571290969848633
1482396987593,0.16749757528305054,1.2370892763137817,-9.549755096435547
1482396987807,0.1339980661869049,1.1892328262329102,-9.57607650756836
1482396988055,0.14835500717163086,1.4787644147872925,-9.475577354431152
1482396988288,0.16749757528305054,1.3399806022644043,-9.652647018432617
1482396988527,0.1579262912273407,1.3495519161224365,-9.588040351867676
1482396988764,0.16749757528305054,1.3304094076156616,-9.590433120727539
1482396989004,0.18185453116893768,1.368694543838501,-9.568897247314453
1482396989255,0.1579262912273407,1.3351951837539673,-9.592825889587402
1482396989492,0.24885354936122894,1.4691929817199707,-9.616753578186035
1482396989722,0.1866401582956314,1.4141581058502197,-9.556933403015137
1482396989923,0.18185453116893768,1.4189438819885254,-9.707681655883789
1482396990160,0.16749757528305054,1.4883356094360352,-9.533005714416504
1482396990393,0.17706887423992157,1.4548362493515015,-9.616753578186035
1482396990603,0.18185453116893768,1.5792629718780518,-9.535398483276367
1482396990852,0.18185453116893768,1.4165509939193726,-9.561718940734863
1482396991082,0.1866401582956314,1.4165509939193726,-9.533005714416504
1482396991321,0.18185453116893768,1.5625132322311401,-9.590433120727539
1482396991560,0.2392822504043579,1.5409778356552124,-9.492327690124512
1482396991800,0.1866401582956314,1.5553346872329712,-9.511469841003418
1482396992048,0.17228324711322784,1.521835207939148,-9.528220176696777
1482396992292,0.20578275620937347,1.3902300596237183,-9.57607650756836
1482396992518,0.22492533922195435,1.5242280960083008,-9.568897247314453
1482396992758,0.16749757528305054,1.5720844268798828,-9.487542152404785
1482396992997,0.2153540551662445,1.526620864868164,-9.607183456420898
1482396993246,0.19142580032348633,1.5481561422348022,-9.564111709594727
1482396993491,0.14835500717163086,1.6175479888916016,-9.487542152404785
1482396993716,0.18185453116893768,1.6869399547576904,-9.513862609863281
1482396993954,0.20099709928035736,1.5984054803848267,-9.499505043029785
1482396994195,0.22013968229293823,1.6295121908187866,-9.578469276428223
1482396994443,0.20099709928035736,1.643869161605835,-9.513862609863281
1482396994692,0.19621144235134125,1.6677974462509155,-9.497113227844238
1482396994912,0.20099709928035736,1.6175479888916016,-9.556933403015137
1482396995129,0.17228324711322784,1.6630116701126099,-9.533005714416504
1482396995350,0.17228324711322784,1.6151552200317383,-9.492327690124512
1482396995553,0.2153540551662445,1.5385849475860596,-9.614361763000488
1482396995764,0.19621144235134125,1.6342979669570923,-9.506684303283691
1482396995991,0.17706887423992157,1.588834285736084,-9.501898765563965
1482396996240,0.1579262912273407,1.5840486288070679,-9.501898765563965
1482396996471,0.13878372311592102,1.6151552200317383,-9.53779125213623
1482396996721,0.17228324711322784,1.6127625703811646,-9.590433120727539
1482396996947,0.11006984114646912,1.6869399547576904,-9.494720458984375
1482396997180,0.19621144235134125,1.5553346872329712,-9.602396965026855
1482396997389,0.2153540551662445,1.6342979669570923,-9.506684303283691
1482396997637,0.11006984114646912,1.7132610082626343,-9.530611991882324
1482396997867,0.17706887423992157,1.6055840253829956,-9.535398483276367
1482396998068,0.2105683833360672,1.6462620496749878,-9.528220176696777
1482396998274,0.17228324711322784,1.5984054803848267,-9.578469276428223
1482396998505,0.13878372311592102,1.6223337650299072,-9.494720458984375
1482396998706,0.17706887423992157,1.643869161605835,-9.518648147583008
1482396998945,0.18185453116893768,1.5433706045150757,-9.597611427307129
1482396999185,0.12921242415905,1.5481561422348022,-9.626325607299805
1482396999433,0.1627119481563568,1.6199408769607544,-9.475577354431152
1482396999634,0.1866401582956314,1.636690616607666,-9.494720458984375
1482396999863,0.14356936514377594,1.703689694404602,-9.54496955871582
1482397000106,0.15314064919948578,1.660618782043457,-9.554540634155273
1482397000342,0.15314064919948578,1.674975872039795,-9.509077072143555
1482397000582,0.20099709928035736,1.6127625703811646,-9.559326171875
1482397000832,0.14835500717163086,1.5792629718780518,-9.489934921264648
1482397001077,0.11485548317432404,1.6295121908187866,-9.533005714416504
1482397001301,0.17228324711322784,1.5720844268798828,-9.57607650756836
1482397001541,0.14835500717163086,1.581655740737915,-9.523433685302734
1482397001780,0.17706887423992157,1.6582260131835938,-9.482755661010742
1482397002029,0.11006984114646912,1.5601203441619873,-9.540184020996094
1482397002232,0.16749757528305054,1.6462620496749878,-9.556933403015137
1482397002460,0.12442677468061447,1.6247265338897705,-9.580862045288086
1482397002698,0.1579262912273407,1.6677974462509155,-9.542576789855957
1482397002935,0.15314064919948578,1.7443678379058838,-9.580862045288086
1482397003137,0.1579262912273407,1.7060824632644653,-9.554540634155273
1482397003379,0.14356936514377594,1.7180466651916504,-9.54496955871582
1482397003625,0.18185453116893768,1.813759446144104,-9.513862609863281
1482397003855,0.1339980661869049,1.741974949836731,-9.525827407836914
1482397004056,0.14835500717163086,1.8544375896453857,-9.454042434692383
1482397004271,0.19142580032348633,1.8616160154342651,-9.554540634155273
1482397004494,0.1052841916680336,1.6989041566848755,-9.566505432128906
1482397004732,0.1866401582956314,1.581655740737915,-9.650253295898438
1482397004972,0.27756744623184204,1.6295121908187866,-9.564111709594727
1482397005222,0.19621144235134125,1.636690616607666,-9.556933403015137
1482397005462,0.1052841916680336,1.6917256116867065,-9.528220176696777
1482397005691,0.24406792223453522,1.6869399547576904,-9.530611991882324
1482397005930,0.13878372311592102,1.7371891736984253,-9.497113227844238
1482397006172,0.14356936514377594,1.636690616607666,-9.434900283813477
1482397006422,0.22013968229293823,1.6127625703811646,-9.549755096435547
1482397006664,0.1627119481563568,1.643869161605835,-9.499505043029785
1482397006888,0.0813559740781784,1.8257235288619995,-9.640682220458984
1482397007154,0.14356936514377594,1.703689694404602,-9.485149383544922
1482397007369,0.14356936514377594,1.7371891736984253,-9.463613510131836
1482397007618,0.22492533922195435,1.7611174583435059,-9.461220741271973
1482397007850,0.2105683833360672,1.7706886529922485,-9.53779125213623
1482397008090,0.1866401582956314,1.7491532564163208,-9.504291534423828
1482397008327,0.18185453116893768,1.7084753513336182,-9.547362327575684
1482397008566,0.20099709928035736,1.8113667964935303,-9.430113792419434
1482397008818,0.3349951505661011,2.060220241546631,-9.389435768127441
1482397009055,0.1579262912273407,1.722832441329956,-9.559326171875
1482397009285,0.16749757528305054,1.6031911373138428,-9.561718940734863
1482397009523,0.19621144235134125,1.674975872039795,-9.58325481414795
1482397009764,0.18185453116893768,1.7443678379058838,-9.530611991882324
1482397010013,0.12921242415905,1.6654045581817627,-9.506684303283691
1482397010259,0.18185453116893768,1.6319050788879395,-9.573683738708496
1482397010485,0.18185453116893768,1.65583336353302,-9.521041870117188
1482397010694,0.1866401582956314,1.6462620496749878,-9.556933403015137
1482397010921,0.16749757528305054,1.6199408769607544,-9.580862045288086
1482397011161,0.19621144235134125,1.730010747909546,-9.516255378723145
1482397011409,0.1627119481563568,1.6103696823120117,-9.509077072143555
1482397011641,0.19621144235134125,1.703689694404602,-9.549755096435547
1482397011889,0.22492533922195435,1.6941183805465698,-9.518648147583008
1482397012121,0.25363919138908386,1.7850456237792969,-9.547362327575684
1482397012359,0.22013968229293823,1.758724570274353,-9.528220176696777
1482397012609,0.1627119481563568,1.7156537771224976,-9.430113792419434
1482397012858,0.22013968229293823,1.6917256116867065,-9.497113227844238
1482397013077,0.20099709928035736,1.7180466651916504,-9.499505043029785
1482397013316,0.1627119481563568,1.6677974462509155,-9.525827407836914
1482397013557,0.1866401582956314,1.6295121908187866,-9.549755096435547
1482397013808,0.2392822504043579,1.7491532564163208,-9.535398483276367
1482397014050,0.20578275620937347,1.7515461444854736,-9.619147300720215
1482397014275,0.2105683833360672,1.7802598476409912,-9.425328254699707
1482397014513,0.17706887423992157,1.703689694404602,-9.57607650756836
1482397014715,0.19621144235134125,1.7060824632644653,-9.588040351867676
1482397014952,0.13878372311592102,1.6677974462509155,-9.480363845825195
1482397015153,0.14835500717163086,1.6534404754638672,-9.516255378723145
1482397015403,0.16749757528305054,1.7084753513336182,-9.482755661010742
1482397015633,0.1052841916680336,1.7347965240478516,-9.535398483276367
1482397015884,0.1866401582956314,1.7802598476409912,-9.485149383544922
1482397016110,0.22013968229293823,1.7132610082626343,-9.547362327575684
1482397016351,0.17228324711322784,1.730010747909546,-9.425328254699707
1482397016600,0.12442677468061447,1.7443678379058838,-9.535398483276367
1482397016831,0.19142580032348633,1.6773687601089478,-9.592825889587402
1482397017080,0.11964112520217896,1.8233308792114258,-9.449256896972656
1482397017311,0.038285162299871445,1.8975083827972412,-9.480363845825195
1482397017549,0.14835500717163086,1.8711872100830078,-9.504291534423828
1482397017797,0.11006984114646912,1.8783657550811768,-9.492327690124512
1482397018042,0.12442677468061447,1.919043779373169,-9.525827407836914
1482397018266,0.16749757528305054,1.84965181350708,-9.533005714416504
1482397018468,0.12921242415905,1.7539390325546265,-9.513862609863281
1482397018707,0.12921242415905,1.8831514120101929,-9.497113227844238
1482397018938,0.14835500717163086,1.856830358505249,-9.475577354431152
1482397019144,0.11485548317432404,1.9908283948898315,-9.425328254699707
1482397019394,0.1866401582956314,1.8472589254379272,-9.600004196166992
1482397019626,0.15314064919948578,1.868794322013855,-9.485149383544922
1482397019866,0.06699903309345245,1.7132610082626343,-9.45164966583252
1482397020101,0.02871387079358101,1.9094725847244263,-9.497113227844238
1482397020302,0.24406792223453522,1.84965181350708,-9.511469841003418
1482397020543,0.17228324711322784,2.021935224533081,-9.487542152404785
1482397020792,0.14356936514377594,1.9716858863830566,-9.547362327575684
1482397021023,0.13878372311592102,1.9262222051620483,-9.53779125213623
1482397021262,0.12442677468061447,1.931007981300354,-9.489934921264648
1482397021470,0.14356936514377594,1.9645073413848877,-9.494720458984375
1482397021729,0.18185453116893768,1.9214365482330322,-9.413363456726074
1482397021940,0.14835500717163086,1.8783657550811768,-9.422935485839844
1482397022190,0.22971096634864807,1.947757601737976,-9.506684303283691
1482397022420,0.1339980661869049,1.8113667964935303,-9.509077072143555
1482397022669,0.08614162355661392,1.931007981300354,-9.489934921264648
1482397022898,0.11964112520217896,1.8065810203552246,-9.566505432128906
1482397023139,0.17228324711322784,1.832902193069458,-9.463613510131836
1482397023387,0.23449662327766418,1.794616937637329,-9.518648147583008
1482397023633,0.14356936514377594,1.8424735069274902,-9.509077072143555
1482397023857,0.15314064919948578,1.8999011516571045,-9.439685821533203
1482397024059,0.1339980661869049,1.935793399810791,-9.489934921264648
1482397024296,0.12442677468061447,1.8735800981521606,-9.468399047851562
1482397024526,0.15314064919948578,1.9286150932312012,-9.446864128112793
1482397024734,0.1866401582956314,1.94297194480896,-9.432506561279297
1482397024983,0.17228324711322784,1.852044701576233,-9.525827407836914
1482397025184,0.12442677468061447,1.9692929983139038,-9.509077072143555
1482397025386,0.13878372311592102,1.8161523342132568,-9.55214786529541
1482397025614,0.17706887423992157,1.9621145725250244,-9.425328254699707
1482397025859,0.16749757528305054,1.8185452222824097,-9.528220176696777
1482397026092,0.15314064919948578,1.7850456237792969,-9.568897247314453
1482397026331,0.1866401582956314,1.8065810203552246,-9.506684303283691
1482397026581,0.14835500717163086,1.8783657550811768,-9.528220176696777
1482397026827,0.12442677468061447,1.8544375896453857,-9.480363845825195
1482397027050,0.13878372311592102,1.947757601737976,-9.571290969848633
1482397027265,0.16749757528305054,1.8735800981521606,-9.509077072143555
1482397027489,0.2392822504043579,1.9932212829589844,-9.489934921264648
1482397027729,0.12442677468061447,1.813759446144104,-9.463613510131836
1482397027977,0.1339980661869049,1.8711872100830078,-9.439685821533203
1482397028179,0.16749757528305054,1.9118653535842896,-9.456435203552246
1482397028408,0.20578275620937347,1.868794322013855,-9.497113227844238
1482397028659,0.17706887423992157,1.8903299570083618,-9.609575271606445
1482397028888,0.1052841916680336,1.8927226066589355,-9.463613510131836
1482397029125,0.12442677468061447,1.8448662757873535,-9.499505043029785
1482397029373,0.09571290016174316,1.8711872100830078,-9.399007797241211
1482397029575,0.1052841916680336,1.7706886529922485,-9.53779125213623
1482397029804,0.12921242415905,1.7180466651916504,-9.54496955871582
1482397030045,0.2153540551662445,1.9956141710281372,-9.499505043029785
1482397030284,0.1579262912273407,1.9238293170928955,-9.497113227844238
1482397030523,0.11964112520217896,1.8352948427200317,-9.506684303283691
1482397030773,0.19142580032348633,1.8185452222824097,-9.573683738708496
1482397031017,0.19621144235134125,1.8257235288619995,-9.475577354431152
1482397031242,0.1579262912273407,1.8305093050003052,-9.473184585571289
1482397031482,0.15314064919948578,1.8544375896453857,-9.485149383544922
1482397031720,0.14835500717163086,1.8161523342132568,-9.473184585571289
1482397031969,0.19621144235134125,1.8927226066589355,-9.492327690124512
1482397032201,0.19142580032348633,1.8281164169311523,-9.499505043029785
1482397032410,0.13878372311592102,1.94297194480896,-9.497113227844238
1482397032639,0.11485548317432404,1.8281164169311523,-9.463613510131836
1482397032878,0.11964112520217896,1.9692929983139038,-9.477970123291016
1482397033121,0.19621144235134125,1.9094725847244263,-9.513862609863281
1482397033366,0.2105683833360672,1.9046868085861206,-9.513862609863281
1482397033617,0.1627119481563568,1.8185452222824097,-9.516255378723145
1482397033837,0.16749757528305054,1.8831514120101929,-9.475577354431152
1482397034047,0.24885354936122894,1.7491532564163208,-9.530611991882324
1482397034273,0.2105683833360672,1.7850456237792969,-9.533005714416504
1482397034506,0.2105683833360672,1.794616937637329,-9.343972206115723
1482397034715,0.18185453116893768,1.7132610082626343,-9.439685821533203
1482397034964,0.19621144235134125,1.8113667964935303,-9.523433685302734
1482397035195,0.1579262912273407,1.8616160154342651,-9.554540634155273
1482397035440,0.20099709928035736,1.7730815410614014,-9.57607650756836
1482397035677,0.07657032459974289,1.7898313999176025,-9.566505432128906
1482397035910,0.17228324711322784,1.832902193069458,-9.509077072143555
1482397036161,0.2153540551662445,1.730010747909546,-9.501898765563965
1482397036362,0.05742774158716202,1.8592231273651123,-9.468399047851562
1482397036592,0.18185453116893768,1.8041881322860718,-9.4660062789917
1482397036845,0.15314064919948578,1.887937068939209,-9.458827018737793
1482397037070,0.1579262912273407,1.730010747909546,-9.489934921264648
1482397037309,0.18185453116893768,1.7802598476409912,-9.473184585571289
1482397037560,0.18185453116893768,1.8664016723632812,-9.492327690124512
1482397037805,0.08614162355661392,1.7156537771224976,-9.461220741271973
1482397038028,0.09571290016174316,1.8233308792114258,-9.556933403015137
1482397038239,0.18185453116893768,1.856830358505249,-9.549755096435547
1482397038465,0.14835500717163086,1.7706886529922485,-9.547362327575684
1482397038697,0.12921242415905,1.8975083827972412,-9.521041870117188
1482397038907,0.12442677468061447,1.8424735069274902,-9.494720458984375
1482397039155,0.14356936514377594,1.8664016723632812,-9.461220741271973
1482397039387,0.1627119481563568,1.8544375896453857,-9.480363845825195
1482397039634,0.14835500717163086,1.998006820678711,-9.430113792419434
1482397039863,0.1579262912273407,1.7754744291305542,-9.506684303283691
1482397040104,0.20578275620937347,1.8424735069274902,-9.480363845825195
1482397040353,0.14356936514377594,1.741974949836731,-9.525827407836914
1482397040584,0.10049854964017868,1.8735800981521606,-9.513862609863281
1482397040824,0.20099709928035736,1.856830358505249,-9.554540634155273
1482397041062,0.19621144235134125,1.6462620496749878,-9.573683738708496
1482397041302,0.05742774158716202,1.7611174583435059,-9.521041870117188
1482397041550,0.17706887423992157,1.8424735069274902,-9.480363845825195
1482397041752,0.1052841916680336,1.8089739084243774,-9.480363845825195
1482397041995,0.11964112520217896,1.8113667964935303,-9.413363456726074
1482397042220,0.11964112520217896,1.7994027137756348,-9.468399047851562
1482397042439,0.14835500717163086,1.8209381103515625,-9.492327690124512
1482397042658,0.18185453116893768,1.7730815410614014,-9.528220176696777
1482397042888,0.18185453116893768,1.7204395532608032,-9.549755096435547
1482397043098,0.14835500717163086,1.7682960033416748,-9.604789733886719
1482397043348,0.1579262912273407,1.8352948427200317,-9.456435203552246
1482397043578,0.17706887423992157,1.8113667964935303,-9.509077072143555
1482397043818,0.1627119481563568,1.868794322013855,-9.497113227844238
1482397044057,0.2919243574142456,1.4787644147872925,-9.633503913879395
1482397044296,0.18185453116893768,1.7706886529922485,-9.506684303283691
1482397044548,0.17706887423992157,1.643869161605835,-9.377471923828125
1482397044777,0.2679961323738098,1.7347965240478516,-9.399007797241211
1482397044982,0.11006984114646912,1.9070796966552734,-9.489934921264648
1482397045215,0.2153540551662445,1.6582260131835938,-9.513862609863281
1482397045452,0.14835500717163086,1.730010747909546,-9.506684303283691
1482397045653,0.19142580032348633,1.794616937637329,-9.470791816711426
1482397045884,0.18185453116893768,1.8305093050003052,-9.487542152404785
1482397046094,0.20099709928035736,1.8065810203552246,-9.489934921264648
1482397046341,0.13878372311592102,1.9956141710281372,-9.439685821533203
1482397046572,0.22013968229293823,1.8472589254379272,-9.53779125213623
1482397046789,0.16749757528305054,1.8400806188583374,-9.425328254699707
1482397047011,0.04785645008087158,1.9860427379608154,-9.482755661010742
1482397047229,0.17228324711322784,1.935793399810791,-9.458827018737793
1482397047449,0.18185453116893768,1.8041881322860718,-9.487542152404785
1482397047679,0.17706887423992157,1.8951154947280884,-9.45164966583252
1482397047887,0.062213387340307236,1.6821542978286743,-9.590433120727539
1482397048089,0.1866401582956314,1.7874385118484497,-9.461220741271973
1482397048338,0.19142580032348633,1.856830358505249,-9.413363456726074
1482397048567,0.14356936514377594,1.947757601737976,-9.480363845825195
1482397048777,0.17228324711322784,1.8065810203552246,-9.535398483276367
1482397049006,0.1627119481563568,1.7539390325546265,-9.559326171875
1482397049219,0.1627119481563568,1.8592231273651123,-9.549755096435547
1482397049447,0.19621144235134125,1.8185452222824097,-9.511469841003418
1482397049679,0.1627119481563568,1.8855443000793457,-9.425328254699707
1482397049884,0.14835500717163086,1.6965112686157227,-9.521041870117188
1482397050134,0.19142580032348633,1.7730815410614014,-9.588040351867676
1482397050364,0.17228324711322784,1.730010747909546,-9.461220741271973
1482397050615,0.1866401582956314,1.8352948427200317,-9.55214786529541
1482397050843,0.11964112520217896,1.887937068939209,-9.480363845825195
1482397051082,0.13878372311592102,1.643869161605835,-9.595218658447266
1482397051335,0.2153540551662445,1.7730815410614014,-9.4660062789917
1482397051578,0.062213387340307236,2.0817556381225586,-9.346364974975586
1482397051805,0.1579262912273407,1.9860427379608154,-9.501898765563965
1482397052039,0.09571290016174316,1.8664016723632812,-9.456435203552246
1482397052280,0.17228324711322784,1.8616160154342651,-9.533005714416504
1482397052529,0.10049854964017868,1.7874385118484497,-9.573683738708496
1482397052769,0.12442677468061447,1.8472589254379272,-9.492327690124512
1482397053014,0.08614162355661392,1.8376877307891846,-9.494720458984375
1482397053237,0.12921242415905,1.8616160154342651,-9.458827018737793
1482397053478,0.07178468257188797,1.8352948427200317,-9.470791816711426
1482397053726,0.0813559740781784,1.9094725847244263,-9.542576789855957
1482397053971,0.10049854964017868,2.0027925968170166,-9.473184585571289
1482397054197,0.12442677468061447,1.9022939205169678,-9.430113792419434
1482397054434,0.07178468257188797,1.9525433778762817,-9.504291534423828
1482397054675,0.13878372311592102,2.0650060176849365,-9.4061861038208
1482397054922,0.0813559740781784,1.9645073413848877,-9.468399047851562
1482397055123,0.1627119481563568,1.931007981300354,-9.470791816711426
1482397055355,0.08614162355661392,1.9142580032348633,-9.4660062789917
1482397055605,0.014356935396790504,1.8089739084243774,-9.4660062789917
1482397055833,0.08614162355661392,1.9022939205169678,-9.494720458984375
1482397056071,0.1052841916680336,1.887937068939209,-9.494720458984375
1482397056323,0.09571290016174316,1.9046868085861206,-9.485149383544922
1482397056560,0.08614162355661392,1.864008903503418,-9.497113227844238
1482397056790,0.11485548317432404,1.9166508913040161,-9.475577354431152
1482397057003,0.0526420958340168,1.7802598476409912,-9.489934921264648
1482397057231,0.09571290016174316,1.9118653535842896,-9.442078590393066
1482397057469,0.10049854964017868,1.8400806188583374,-9.54496955871582
1482397057719,0.04785645008087158,1.8376877307891846,-9.494720458984375
1482397057950,0.10049854964017868,1.9812570810317993,-9.470791816711426
1482397058189,0.02871387079358101,1.8975083827972412,-9.566505432128906
1482397058429,0.09571290016174316,1.8209381103515625,-9.487542152404785
1482397058668,0.08614162355661392,1.8783657550811768,-9.492327690124512
1482397058916,0.0526420958340168,1.9022939205169678,-9.494720458984375
1482397059165,0.1052841916680336,1.8711872100830078,-9.489934921264648
1482397059387,0.0813559740781784,1.8233308792114258,-9.530611991882324
1482397059625,0.12442677468061447,1.7994027137756348,-9.533005714416504
1482397059864,0.14835500717163086,1.6654045581817627,-9.597611427307129
1482397060112,0.22492533922195435,1.7491532564163208,-9.559326171875
1482397060313,0.2632104754447937,1.9262222051620483,-9.365508079528809
1482397060544,0.1866401582956314,1.777867317199707,-9.494720458984375
1482397060794,0.12442677468061447,1.8376877307891846,-9.355937004089355
1482397061023,0.14835500717163086,1.581655740737915,-9.573683738708496
1482397061263,0.12921242415905,1.9405791759490967,-9.396614074707031
1482397061512,0.2679961323738098,1.8257235288619995,-9.489934921264648
1482397061743,0.17228324711322784,1.6773687601089478,-9.513862609863281
1482397061955,0.20099709928035736,1.8664016723632812,-9.365508079528809
1482397062181,0.1627119481563568,1.856830358505249,-9.504291534423828
1482397062386,0.16749757528305054,1.727617859840393,-9.542576789855957
1482397062619,0.14835500717163086,1.7922240495681763,-9.480363845825195
1482397062858,0.2679961323738098,1.7347965240478516,-9.518648147583008
1482397063059,0.20578275620937347,1.9836499691009521,-9.418149948120117
1482397063308,0.20099709928035736,1.5792629718780518,-9.645467758178711
1482397063540,0.10049854964017868,1.7539390325546265,-9.518648147583008
1482397063789,0.04785645008087158,1.660618782043457,-9.602396965026855
1482397064017,0.1579262912273407,1.782652735710144,-9.494720458984375
1482397064257,0.20099709928035736,1.6893328428268433,-9.578469276428223
1482397064506,0.19142580032348633,1.8783657550811768,-9.432506561279297
1482397064752,0.18185453116893768,1.7730815410614014,-9.542576789855957
1482397064975,0.17706887423992157,1.6965112686157227,-9.480363845825195
1482397065187,0.1052841916680336,1.8999011516571045,-9.439685821533203
1482397065412,0.27756744623184204,1.887937068939209,-9.559326171875
1482397065644,0.19621144235134125,1.710868239402771,-9.410971641540527
1482397065852,0.3732803165912628,1.8281164169311523,-9.468399047851562
1482397066100,0.2105683833360672,1.741974949836731,-9.511469841003418
1482397066333,0.22971096634864807,1.6989041566848755,-9.530611991882324
1482397066574,0.17228324711322784,1.8041881322860718,-9.528220176696777
1482397066778,0.22013968229293823,1.758724570274353,-9.547362327575684
1482397067040,0.22013968229293823,1.8759729862213135,-9.53779125213623
1482397067251,0.2153540551662445,1.7850456237792969,-9.501898765563965
1482397067500,0.2392822504043579,1.7730815410614014,-9.497113227844238
1482397067730,0.1339980661869049,1.7850456237792969,-9.454042434692383
1482397067975,0.22492533922195435,1.9286150932312012,-9.415757179260254
1482397068212,0.18185453116893768,1.8831514120101929,-9.480363845825195
1482397068448,0.2153540551662445,1.7682960033416748,-9.559326171875
1482397068696,0.16749757528305054,1.832902193069458,-9.45164966583252
1482397068941,0.22492533922195435,1.9262222051620483,-9.456435203552246
1482397069170,0.24885354936122894,1.758724570274353,-9.425328254699707
1482397069383,0.23449662327766418,1.8376877307891846,-9.494720458984375
1482397069607,0.1579262912273407,1.9525433778762817,-9.418149948120117
1482397069846,0.11485548317432404,1.8951154947280884,-9.42772102355957
1482397070097,0.23449662327766418,1.9262222051620483,-9.533005714416504
1482397070334,0.2105683833360672,1.919043779373169,-9.434900283813477
1482397070564,0.20578275620937347,1.8352948427200317,-9.516255378723145
1482397070802,0.1866401582956314,1.7467604875564575,-9.571290969848633
1482397071004,0.22492533922195435,2.0171494483947754,-9.53779125213623
1482397071219,0.2105683833360672,1.9405791759490967,-9.501898765563965
1482397071441,0.18185453116893768,1.998006820678711,-9.504291534423828
1482397071642,0.20099709928035736,1.9573287963867188,-9.55214786529541
1482397071891,0.23449662327766418,1.935793399810791,-9.504291534423828
1482397072123,0.25363919138908386,1.9453648328781128,-9.4660062789917
1482397072361,0.19142580032348633,1.856830358505249,-9.504291534423828
1482397072601,0.2153540551662445,1.9262222051620483,-9.473184585571289
1482397072840,0.22971096634864807,1.88075852394104,-9.53779125213623
1482397073060,0.23449662327766418,1.8448662757873535,-9.504291534423828
1482397073289,0.2392822504043579,1.9956141710281372,-9.499505043029785
1482397073519,0.17228324711322784,1.9716858863830566,-9.492327690124512
1482397073785,0.2105683833360672,1.94297194480896,-9.492327690124512
1482397073998,0.1627119481563568,1.9692929983139038,-9.403792381286621
1482397074237,0.22492533922195435,1.9621145725250244,-9.475577354431152
1482397074485,0.2392822504043579,1.9932212829589844,-9.494720458984375
1482397074732,0.20578275620937347,2.014756679534912,-9.449256896972656
1482397074954,0.1579262912273407,1.9286150932312012,-9.4660062789917
1482397075169,0.2153540551662445,1.9381862878799438,-9.494720458984375
1482397075393,0.22971096634864807,1.931007981300354,-9.470791816711426
1482397075596,0.23449662327766418,1.8903299570083618,-9.513862609863281
1482397075831,0.1866401582956314,1.9932212829589844,-9.449256896972656
1482397076083,0.22971096634864807,1.9525433778762817,-9.489934921264648
1482397076314,0.2153540551662445,2.0171494483947754,-9.504291534423828
1482397076552,0.27278175950050354,1.8999011516571045,-9.530611991882324
1482397076792,0.22492533922195435,1.9118653535842896,-9.475577354431152
1482397077030,0.1579262912273407,1.9884356260299683,-9.568897247314453
1482397077231,0.1866401582956314,1.856830358505249,-9.475577354431152
1482397077480,0.14835500717163086,1.9214365482330322,-9.394222259521484
1482397077727,0.24885354936122894,1.8616160154342651,-9.473184585571289
1482397077952,0.22013968229293823,1.9405791759490967,-9.437292098999023
1482397078188,0.22492533922195435,1.887937068939209,-9.480363845825195
1482397078429,0.5551348924636841,2.6871397495269775,-9.19561767578125
1482397078679,0.019142581149935722,1.7132610082626343,-9.470791816711426
1482397078918,0.27278175950050354,1.868794322013855,-9.42054271697998
1482397079154,0.20099709928035736,1.7850456237792969,-9.623932838439941
1482397079387,-0.22492533922195435,1.8305093050003052,-9.473184585571289
1482397079626,0.23449662327766418,1.8855443000793457,-9.566505432128906
1482397079873,0.24406792223453522,1.8041881322860718,-9.501898765563965
1482397080074,0.19142580032348633,1.919043779373169,-9.454042434692383
1482397080306,0.22013968229293823,2.0027925968170166,-9.413363456726074
1482397080544,0.11006984114646912,1.8424735069274902,-9.817750930786133
1482397080781,0.20099709928035736,1.6342979669570923,-9.547362327575684
1482397080992,0.3493521213531494,1.5002998113632202,-9.712467193603516
1482397081222,0.08614162355661392,1.777867317199707,-9.403792381286621
1482397081472,0.2153540551662445,1.8161523342132568,-9.53779125213623
1482397081703,0.13878372311592102,1.6701902151107788,-9.580862045288086
1482397081940,0.18185453116893768,1.6630116701126099,-9.487542152404785
1482397082142,0.2392822504043579,1.6127625703811646,-9.623932838439941
1482397082353,0.1339980661869049,1.7324036359786987,-9.513862609863281
1482397082611,0.16749757528305054,1.6630116701126099,-9.533005714416504
1482397082820,0.17228324711322784,1.7084753513336182,-9.528220176696777
1482397083069,0.19621144235134125,1.6893328428268433,-9.487542152404785
1482397083300,0.09092726558446884,1.6247265338897705,-9.540184020996094
1482397083539,0.20578275620937347,1.6414762735366821,-9.590433120727539
1482397083778,0.1866401582956314,1.6127625703811646,-9.549755096435547
1482397084018,0.20099709928035736,1.6677974462509155,-9.4660062789917
1482397084265,0.1866401582956314,1.7539390325546265,-9.547362327575684
1482397084467,0.31106695532798767,1.7180466651916504,-9.530611991882324
1482397084695,0.20578275620937347,1.782652735710144,-9.528220176696777
1482397084896,0.22492533922195435,1.832902193069458,-9.418149948120117
1482397085136,0.19142580032348633,1.7898313999176025,-9.470791816711426
1482397085374,0.14356936514377594,1.7443678379058838,-9.530611991882324
1482397085615,0.18185453116893768,1.794616937637329,-9.57607650756836
1482397085862,0.1052841916680336,1.710868239402771,-9.53779125213623
1482397086100,0.2632104754447937,1.6582260131835938,-9.595218658447266
1482397086334,0.2632104754447937,1.7156537771224976,-9.535398483276367
1482397086571,0.17706887423992157,1.7252250909805298,-9.518648147583008
1482397086812,0.22971096634864807,1.7252250909805298,-9.523433685302734
1482397087016,0.2679961323738098,1.7491532564163208,-9.518648147583008
1482397087260,0.1866401582956314,1.7132610082626343,-9.485149383544922
1482397087495,0.16749757528305054,1.794616937637329,-9.535398483276367
1482397087742,0.2679961323738098,1.9621145725250244,-9.456435203552246
1482397087970,0.22013968229293823,1.7491532564163208,-9.489934921264648
1482397088209,0.20578275620937347,1.801795244216919,-9.477970123291016
1482397088456,0.24406792223453522,1.65583336353302,-9.489934921264648
1482397088658,0.1579262912273407,1.8903299570083618,-9.530611991882324
1482397088890,0.18185453116893768,1.8089739084243774,-9.530611991882324
1482397089133,0.22013968229293823,1.8352948427200317,-9.516255378723145
1482397089365,0.3397807776927948,1.7730815410614014,-9.542576789855957
1482397089607,0.12442677468061447,1.8257235288619995,-9.454042434692383
1482397089853,0.13878372311592102,2.029113531112671,-9.434900283813477
1482397090098,0.20578275620937347,1.8759729862213135,-9.458827018737793
1482397090299,0.27756744623184204,1.8185452222824097,-9.45164966583252
1482397090525,0.1866401582956314,1.4668002128601074,-9.590433120727539
1482397090763,0.20099709928035736,1.9262222051620483,-9.382257461547852
1482397091004,0.17706887423992157,2.0003998279571533,-9.391828536987305
1482397091253,0.2584248483181,1.7922240495681763,-9.461220741271973
1482397091497,0.24885354936122894,1.8903299570083618,-9.518648147583008
1482397091723,0.07657032459974289,1.887937068939209,-9.403792381286621
1482397091961,0.22492533922195435,1.8711872100830078,-9.425328254699707
1482397092200,0.1866401582956314,1.8592231273651123,-9.559326171875
1482397092401,0.2679961323738098,1.7994027137756348,-9.533005714416504
1482397092650,0.23449662327766418,2.007578134536743,-9.506684303283691
1482397092881,0.1339980661869049,2.021935224533081,-9.470791816711426
1482397093131,0.1866401582956314,2.0817556381225586,-9.470791816711426
1482397093360,0.2871387302875519,2.014756679534912,-9.513862609863281
1482397093600,0.20578275620937347,2.124826431274414,-9.432506561279297
1482397093851,-0.3732803165912628,2.2229323387145996,-9.145368576049805
1482397094093,0.16749757528305054,2.0410776138305664,-9.57607650756836
1482397094336,0.3493521213531494,1.8616160154342651,-9.600004196166992
1482397094557,0.1866401582956314,1.7371891736984253,-9.449256896972656
1482397094797,0.2679961323738098,1.8352948427200317,-9.657432556152344
1482397095047,0.11485548317432404,1.9908283948898315,-9.501898765563965
1482397095291,0.10049854964017868,2.043470621109009,-9.509077072143555
1482397095515,0.20099709928035736,2.029113531112671,-9.477970123291016
1482397095733,0.08614162355661392,1.88075852394104,-9.566505432128906
1482397095954,0.16749757528305054,1.8664016723632812,-9.521041870117188
1482397096193,0.13878372311592102,1.9214365482330322,-9.523433685302734
1482397096440,0.14356936514377594,1.868794322013855,-9.530611991882324
1482397096674,0.1627119481563568,1.9956141710281372,-9.470791816711426
1482397096927,0.12921242415905,1.9525433778762817,-9.494720458984375
1482397097151,0.20099709928035736,2.029113531112671,-9.523433685302734
1482397097391,0.0813559740781784,1.9645073413848877,-9.525827407836914
1482397097640,0.13878372311592102,2.093719720840454,-9.42772102355957
1482397097870,0.11964112520217896,2.0195422172546387,-9.578469276428223
1482397098080,0.062213387340307236,2.0578274726867676,-9.475577354431152
1482397098310,0.10049854964017868,2.0673987865448,-9.461220741271973
1482397098548,0.07657032459974289,1.9525433778762817,-9.489934921264648
1482397098749,0.062213387340307236,2.0338993072509766,-9.4660062789917
1482397098972,0.04785645008087158,2.0650060176849365,-9.482755661010742
1482397099189,0.0526420958340168,1.998006820678711,-9.473184585571289
1482397099437,0.10049854964017868,1.9716858863830566,-9.523433685302734
1482397099668,0.14835500717163086,2.0171494483947754,-9.442078590393066
1482397099923,0.08614162355661392,1.9884356260299683,-9.492327690124512
1482397100146,0.10049854964017868,2.062613010406494,-9.382257461547852
1482397100385,0.062213387340307236,1.9836499691009521,-9.477970123291016
1482397100635,0.1052841916680336,1.9932212829589844,-9.461220741271973
1482397100880,0.062213387340307236,2.0506489276885986,-9.470791816711426
1482397101105,0.05742774158716202,2.03629207611084,-9.4061861038208
1482397101342,0.062213387340307236,1.94297194480896,-9.461220741271973
1482397101585,0.09092726558446884,1.9621145725250244,-9.489934921264648
1482397101832,0.04307081177830696,1.9453648328781128,-9.485149383544922
1482397102076,0.0813559740781784,1.9860427379608154,-9.468399047851562
1482397102320,0.06699903309345245,1.954936146736145,-9.542576789855957
1482397102539,0.062213387340307236,1.9836499691009521,-9.499505043029785
1482397102781,0.019142581149935722,1.9286150932312012,-9.525827407836914
1482397103029,0.09571290016174316,2.069791555404663,-9.434900283813477
1482397103270,0.08614162355661392,1.9932212829589844,-9.506684303283691
1482397103499,0.0526420958340168,1.978864312171936,-9.559326171875
1482397103737,0.0813559740781784,2.0267207622528076,-9.439685821533203
1482397103939,0.09092726558446884,1.9812570810317993,-9.518648147583008
1482397104177,0.04785645008087158,2.0243279933929443,-9.494720458984375
1482397104429,0.062213387340307236,1.9381862878799438,-9.494720458984375
1482397104658,0.019142581149935722,1.9334007501602173,-9.480363845825195
1482397104896,0.0526420958340168,2.031506299972534,-9.442078590393066
1482397105133,0.06699903309345245,1.9405791759490967,-9.533005714416504
1482397105369,0.07657032459974289,1.9716858863830566,-9.501898765563965
1482397105574,-0.004785645287483931,2.0410776138305664,-9.34875774383545
1482397105825,0.03349951654672623,2.038684844970703,-9.434900283813477
1482397106055,0.07657032459974289,1.9740787744522095,-9.45164966583252
1482397106308,0.06699903309345245,1.9692929983139038,-9.494720458984375
1482397106533,0.06699903309345245,1.9166508913040161,-9.535398483276367
1482397106772,0.05742774158716202,1.919043779373169,-9.463613510131836
1482397107021,0.05742774158716202,1.9932212829589844,-9.449256896972656
1482397107253,0.019142581149935722,2.043470621109009,-9.480363845825195
1482397107468,0.10049854964017868,1.8855443000793457,-9.549755096435547
1482397107695,0.02871387079358101,1.9214365482330322,-9.489934921264648
1482397107930,0.009571290574967861,1.8783657550811768,-9.45164966583252
1482397108170,0.10049854964017868,1.9621145725250244,-9.535398483276367
1482397108419,0.014356935396790504,1.947757601737976,-9.506684303283691
1482397108665,0.02392822504043579,1.954936146736145,-9.391828536987305
1482397108892,0.014356935396790504,2.194218397140503,-9.379864692687988
1482397109127,0.0526420958340168,1.9860427379608154,-9.547362327575684
1482397109368,0.13878372311592102,2.0027925968170166,-9.432506561279297
1482397109615,0.062213387340307236,2.0267207622528076,-9.489934921264648
1482397109857,0.062213387340307236,1.9142580032348633,-9.485149383544922
1482397110089,0.11964112520217896,1.9142580032348633,-9.501898765563965
1482397110326,0.06699903309345245,1.868794322013855,-9.343972206115723
1482397110565,0.09571290016174316,1.9262222051620483,-9.492327690124512
1482397110813,0.11964112520217896,2.0745770931243896,-9.571290969848633
1482397111051,0.038285162299871445,2.155933380126953,-9.3128662109375
1482397111284,0.09571290016174316,2.117647886276245,-9.415757179260254
1482397111522,0.009571290574967861,2.1128623485565186,-9.410971641540527
1482397111762,0.05742774158716202,2.062613010406494,-9.442078590393066
1482397112012,0.014356935396790504,2.0506489276885986,-9.501898765563965
1482397112242,0.15314064919948578,1.9525433778762817,-9.449256896972656
1482397112482,0.1052841916680336,2.0099709033966064,-9.439685821533203
1482397112721,0.05742774158716202,2.0099709033966064,-9.480363845825195
1482397112961,0.1866401582956314,1.8185452222824097,-9.516255378723145
1482397113209,0.014356935396790504,1.852044701576233,-9.511469841003418
1482397113456,0.13878372311592102,2.0338993072509766,-9.432506561279297
1482397113683,0.06699903309345245,2.060220241546631,-9.394222259521484
1482397113893,0.09571290016174316,1.998006820678711,-9.477970123291016
1482397114119,0.06699903309345245,1.9932212829589844,-9.4660062789917
1482397114357,0.08614162355661392,1.9716858863830566,-9.473184585571289
1482397114560,0.07657032459974289,2.0099709033966064,-9.449256896972656
1482397114806,0.08614162355661392,2.014756679534912,-9.437292098999023
1482397115037,0.07178468257188797,1.9525433778762817,-9.540184020996094
1482397115293,0.09571290016174316,1.9908283948898315,-9.425328254699707
1482397115515,0.03349951654672623,1.9932212829589844,-9.511469841003418
1482397115755,0.09092726558446884,2.043470621109009,-9.430113792419434
1482397116002,0.11485548317432404,2.0506489276885986,-9.4660062789917
1482397116203,0.07178468257188797,2.043470621109009,-9.489934921264648
1482397116434,0.038285162299871445,1.9597216844558716,-9.511469841003418
1482397116687,0.11006984114646912,2.0410776138305664,-9.454042434692383
1482397116911,0.04307081177830696,2.0410776138305664,-9.470791816711426
1482397117151,0.07178468257188797,2.0410776138305664,-9.454042434692383
1482397117403,0.06699903309345245,1.9334007501602173,-9.540184020996094
1482397117647,0.11485548317432404,1.998006820678711,-9.504291534423828
1482397117869,0.07657032459974289,2.0889341831207275,-9.509077072143555
1482397118108,0.062213387340307236,2.0482561588287354,-9.418149948120117
1482397118351,0.07178468257188797,1.9860427379608154,-9.458827018737793
1482397118595,0.02871387079358101,2.0673987865448,-9.396614074707031
1482397118802,0.06699903309345245,1.9692929983139038,-9.494720458984375
1482397119029,0.0813559740781784,2.029113531112671,-9.494720458984375
1482397119269,0.1339980661869049,2.0099709033966064,-9.499505043029785
1482397119508,0.1627119481563568,2.0673987865448,-9.475577354431152
1482397119747,0.06699903309345245,2.1822540760040283,-9.458827018737793
1482397119995,0.1052841916680336,2.0099709033966064,-9.454042434692383
1482397120196,0.17228324711322784,1.9836499691009521,-9.513862609863281
1482397120427,0.15314064919948578,1.8831514120101929,-9.434900283813477
1482397120682,0.1579262912273407,1.9238293170928955,-9.492327690124512
1482397120905,0.11485548317432404,1.9740787744522095,-9.556933403015137
1482397121144,0.11964112520217896,1.9621145725250244,-9.475577354431152
1482397121393,0.14835500717163086,1.9740787744522095,-9.415757179260254
1482397121641,0.0526420958340168,1.9908283948898315,-9.501898765563965
1482397121862,0.15314064919948578,1.9573287963867188,-9.492327690124512
1482397122101,0.12921242415905,1.9764715433120728,-9.506684303283691
1482397122342,0.11006984114646912,2.0171494483947754,-9.458827018737793
1482397122591,0.1339980661869049,2.0721843242645264,-9.425328254699707
1482397122837,0.11006984114646912,1.998006820678711,-9.477970123291016
1482397123061,0.08614162355661392,2.0482561588287354,-9.446864128112793
1482397123299,0.14356936514377594,2.0745770931243896,-9.499505043029785
1482397123539,0.15314064919948578,1.9645073413848877,-9.434900283813477
1482397123787,0.1579262912273407,1.8783657550811768,-9.513862609863281
1482397124032,0.11964112520217896,1.94297194480896,-9.525827407836914
1482397124258,0.09092726558446884,1.9884356260299683,-9.461220741271973
1482397124469,0.14356936514377594,1.9645073413848877,-9.439685821533203
1482397124697,0.0813559740781784,2.0410776138305664,-9.516255378723145
1482397124920,0.11964112520217896,1.9381862878799438,-9.463613510131836
1482397125137,0.09092726558446884,2.007578134536743,-9.461220741271973
1482397125385,0.11006984114646912,1.8975083827972412,-9.521041870117188
1482397125594,0.10049854964017868,1.9118653535842896,-9.53779125213623
1482397125832,0.1052841916680336,2.0338993072509766,-9.446864128112793
1482397126061,0.11006984114646912,2.0243279933929443,-9.525827407836914
1482397126294,0.12921242415905,2.038684844970703,-9.461220741271973
1482397126531,0.0526420958340168,2.03629207611084,-9.487542152404785
1482397126732,0.062213387340307236,2.0027925968170166,-9.446864128112793
1482397126982,0.11006984114646912,2.0099709033966064,-9.494720458984375
1482397127213,0.062213387340307236,1.9621145725250244,-9.566505432128906
1482397127452,0.09571290016174316,2.0865414142608643,-9.521041870117188
1482397127653,0.11964112520217896,1.9166508913040161,-9.475577354431152
1482397127918,0.11006984114646912,1.947757601737976,-9.475577354431152
1482397128131,0.11964112520217896,2.1032910346984863,-9.489934921264648
1482397128380,0.1052841916680336,2.021935224533081,-9.442078590393066
1482397128610,0.15314064919948578,2.0985054969787598,-9.461220741271973
1482397128862,0.12921242415905,1.94297194480896,-9.497113227844238
1482397129094,0.09092726558446884,1.9764715433120728,-9.475577354431152
1482397129328,0.1339980661869049,1.9573287963867188,-9.492327690124512
1482397129583,0.11964112520217896,2.0267207622528076,-9.499505043029785
1482397129808,0.16749757528305054,2.1415762901306152,-9.473184585571289
1482397130062,0.12921242415905,2.122433662414551,-9.454042434692383
1482397130285,0.09571290016174316,2.0410776138305664,-9.485149383544922
1482397130525,0.10049854964017868,2.117647886276245,-9.470791816711426
1482397130775,0.09092726558446884,2.124826431274414,-9.418149948120117
1482397131018,0.10049854964017868,2.0985054969787598,-9.461220741271973
1482397131244,0.11964112520217896,2.0027925968170166,-9.506684303283691
1482397131445,0.1052841916680336,2.139183282852173,-9.458827018737793
1482397131681,0.06699903309345245,2.0123636722564697,-9.509077072143555
1482397131923,0.09571290016174316,1.9597216844558716,-9.511469841003418
1482397132173,0.12442677468061447,2.0243279933929443,-9.4660062789917
1482397132403,0.15314064919948578,1.9621145725250244,-9.535398483276367
1482397132619,0.1339980661869049,2.029113531112671,-9.399007797241211
1482397132845,0.038285162299871445,2.0410776138305664,-9.485149383544922
1482397133080,0.15314064919948578,2.091326951980591,-9.468399047851562
1482397133320,0.10049854964017868,2.03629207611084,-9.42054271697998
1482397133570,0.12442677468061447,2.091326951980591,-9.422935485839844
1482397133800,0.1052841916680336,2.0003998279571533,-9.454042434692383
1482397134042,0.06699903309345245,1.978864312171936,-9.494720458984375
1482397134279,0.11006984114646912,2.03629207611084,-9.45164966583252
1482397134518,0.11485548317432404,2.0267207622528076,-9.475577354431152
1482397134766,0.11964112520217896,1.9884356260299683,-9.4660062789917
1482397135010,0.14356936514377594,1.9860427379608154,-9.458827018737793
1482397135237,0.09092726558446884,1.9597216844558716,-9.501898765563965
1482397135450,0.11006984114646912,2.014756679534912,-9.513862609863281
1482397135673,0.062213387340307236,2.0410776138305664,-9.454042434692383
1482397135905,0.08614162355661392,2.0554347038269043,-9.45164966583252
1482397136114,0.06699903309345245,2.021935224533081,-9.521041870117188
1482397136364,0.08614162355661392,1.9716858863830566,-9.442078590393066
1482397136595,0.12921242415905,2.076970100402832,-9.454042434692383
1482397136838,0.09571290016174316,1.9597216844558716,-9.4660062789917
1482397137073,0.11485548317432404,2.0410776138305664,-9.54496955871582
1482397137313,0.062213387340307236,2.062613010406494,-9.473184585571289
1482397137561,0.11006984114646912,2.0554347038269043,-9.480363845825195
1482397137793,0.038285162299871445,2.031506299972534,-9.468399047851562
1482397138041,0.12442677468061447,2.043470621109009,-9.475577354431152
1482397138269,0.11485548317432404,2.0673987865448,-9.492327690124512
1482397138510,0.1627119481563568,2.038684844970703,-9.461220741271973
1482397138758,0.08614162355661392,2.0793628692626953,-9.482755661010742
1482397139001,0.11485548317432404,2.043470621109009,-9.430113792419434
1482397139228,0.07657032459974289,2.053041696548462,-9.410971641540527
1482397139429,0.13878372311592102,1.9621145725250244,-9.506684303283691
1482397139668,0.11964112520217896,2.045863389968872,-9.422935485839844
1482397139906,0.019142581149935722,2.038684844970703,-9.446864128112793
1482397140156,0.10049854964017868,1.9836499691009521,-9.509077072143555
1482397140405,0.08614162355661392,2.0673987865448,-9.442078590393066
1482397140626,0.09092726558446884,1.998006820678711,-9.494720458984375
1482397140864,0.09092726558446884,1.9764715433120728,-9.506684303283691
1482397141103,0.09092726558446884,1.9836499691009521,-9.494720458984375
1482397141353,0.09092726558446884,2.038684844970703,-9.45164966583252
1482397141592,0.07657032459974289,1.998006820678711,-9.473184585571289
1482397141824,0.07657032459974289,2.007578134536743,-9.489934921264648
1482397142061,0.12442677468061447,2.043470621109009,-9.44447135925293
1482397142263,0.1052841916680336,2.045863389968872,-9.437292098999023
1482397142501,0.12921242415905,2.0961124897003174,-9.473184585571289
1482397142751,0.10049854964017868,2.00518536567688,-9.470791816711426
1482397142982,0.0526420958340168,2.031506299972534,-9.482755661010742
1482397143233,0.07657032459974289,1.9692929983139038,-9.437292098999023
1482397143461,0.06699903309345245,2.029113531112671,-9.494720458984375
1482397143705,0.11006984114646912,2.0482561588287354,-9.442078590393066
1482397143948,0.1052841916680336,2.060220241546631,-9.499505043029785
1482397144191,0.0813559740781784,2.031506299972534,-9.458827018737793
1482397144420,0.08614162355661392,2.045863389968872,-9.482755661010742
1482397144639,0.08614162355661392,2.038684844970703,-9.415757179260254
1482397144855,0.038285162299871445,2.117647886276245,-9.456435203552246
1482397145057,0.11485548317432404,2.115255117416382,-9.387042999267578
1482397145273,0.06699903309345245,2.0745770931243896,-9.449256896972656
1482397145495,0.07178468257188797,2.1056838035583496,-9.394222259521484
1482397145696,0.15314064919948578,1.9956141710281372,-9.454042434692383
1482397145944,0.06699903309345245,2.0721843242645264,-9.475577354431152
1482397146176,0.09092726558446884,2.031506299972534,-9.413363456726074
1482397146433,0.0813559740781784,2.0578274726867676,-9.44447135925293
1482397146653,0.038285162299871445,1.9812570810317993,-9.470791816711426
1482397146894,0.1339980661869049,2.0338993072509766,-9.528220176696777
1482397147143,0.07657032459974289,2.115255117416382,-9.42054271697998
1482397147388,0.1052841916680336,2.0554347038269043,-9.439685821533203
1482397147612,0.07657032459974289,2.069791555404663,-9.480363845825195
1482397147816,0.1339980661869049,2.0961124897003174,-9.456435203552246
1482397148048,0.1052841916680336,2.060220241546631,-9.439685821533203
1482397148251,0.019142581149935722,2.0650060176849365,-9.418149948120117
1482397148466,0.08614162355661392,2.1128623485565186,-9.442078590393066
1482397148690,0.15314064919948578,2.0195422172546387,-9.482755661010742
1482397148939,0.09092726558446884,2.146361827850342,-9.470791816711426
1482397149172,0.08614162355661392,1.9573287963867188,-9.53779125213623
1482397149424,0.13878372311592102,2.115255117416382,-9.4660062789917
1482397149648,0.09092726558446884,2.1439690589904785,-9.410971641540527
1482397149888,0.07178468257188797,2.0673987865448,-9.456435203552246
1482397150138,0.10049854964017868,2.1343977451324463,-9.434900283813477
1482397150379,0.08614162355661392,2.038684844970703,-9.461220741271973
1482397150607,0.10049854964017868,2.0410776138305664,-9.439685821533203
1482397150846,0.014356935396790504,2.007578134536743,-9.506684303283691
1482397151085,0.11964112520217896,2.146361827850342,-9.439685821533203
1482397151333,0.09092726558446884,1.9932212829589844,-9.449256896972656
1482397151580,0.13878372311592102,2.1535403728485107,-9.449256896972656
1482397151804,0.10049854964017868,2.0506489276885986,-9.422935485839844
1482397152043,0.11006984114646912,2.139183282852173,-9.44447135925293
1482397152283,0.10049854964017868,2.076970100402832,-9.396614074707031
1482397152530,0.14356936514377594,2.1750757694244385,-9.370293617248535
1482397152778,0.014356935396790504,2.043470621109009,-9.480363845825195
1482397153000,0.062213387340307236,2.0721843242645264,-9.413363456726074
1482397153201,0.06699903309345245,2.139183282852173,-9.432506561279297
1482397153441,0.14356936514377594,2.0554347038269043,-9.42054271697998
1482397153673,0.07178468257188797,2.100898265838623,-9.434900283813477
1482397153880,0.06699903309345245,2.062613010406494,-9.509077072143555
1482397154129,0.04307081177830696,2.053041696548462,-9.461220741271973
1482397154360,0.04307081177830696,2.2301106452941895,-9.384650230407715
1482397154599,0.11006984114646912,2.1894328594207764,-9.367900848388672
1482397154838,0.0813559740781784,2.0865414142608643,-9.425328254699707
1482397155075,0.0813559740781784,2.1822540760040283,-9.504291534423828
1482397155276,0.06699903309345245,2.170289993286133,-9.437292098999023
1482397155477,0.06699903309345245,2.155933380126953,-9.482755661010742
1482397155726,0.04785645008087158,2.2205395698547363,-9.437292098999023
1482397155960,0.12442677468061447,2.179861307144165,-9.44447135925293
1482397156199,0.05742774158716202,2.210968255996704,-9.470791816711426
1482397156434,0.1052841916680336,2.2612173557281494,-9.403792381286621
1482397156671,0.0813559740781784,2.251646041870117,-9.387042999267578
1482397156919,0.09092726558446884,2.172683000564575,-9.473184585571289
1482397157122,0.09571290016174316,2.2444677352905273,-9.413363456726074
1482397157353,0.08614162355661392,2.2444677352905273,-9.44447135925293
1482397157611,0.14356936514377594,2.2851457595825195,-9.370293617248535
1482397157832,0.0526420958340168,2.282752752304077,-9.4061861038208
1482397158071,0.038285162299871445,2.2564315795898438,-9.4061861038208
1482397158320,0.07657032459974289,2.2923240661621094,-9.418149948120117
1482397158559,0.04307081177830696,2.2372891902923584,-9.4061861038208
1482397158794,0.04307081177830696,2.2301106452941895,-9.358329772949219
1482397159031,0.06699903309345245,2.2372891902923584,-9.456435203552246
1482397159269,0.05742774158716202,2.2444677352905273,-9.449256896972656
1482397159518,-0.02392822504043579,2.124826431274414,-9.418149948120117
1482397159770,0.07178468257188797,2.232503652572632,-9.473184585571289
1482397159987,0.06699903309345245,2.234896183013916,-9.382257461547852
1482397160226,0.07657032459974289,2.287538528442383,-9.394222259521484
1482397160466,0.019142581149935722,2.287538528442383,-9.410971641540527
1482397160716,0.12442677468061447,2.2205395698547363,-9.482755661010742
1482397160959,0.009571290574967861,2.2085752487182617,-9.415757179260254
1482397161186,0.04785645008087158,2.2013967037200928,-9.408578872680664
1482397161401,0.11006984114646912,2.227717876434326,-9.408578872680664
1482397161622,0.019142581149935722,2.342573404312134,-9.358329772949219
1482397161824,0.05742774158716202,2.3401806354522705,-9.403792381286621
1482397162064,0.0813559740781784,2.2995026111602783,-9.456435203552246
1482397162313,0.05742774158716202,2.263610363006592,-9.367900848388672
1482397162545,0.038285162299871445,2.266003131866455,-9.401400566101074
1482397162787,0.07178468257188797,2.263610363006592,-9.396614074707031
1482397163020,0.02871387079358101,2.311466693878174,-9.358329772949219
1482397163221,0.03349951654672623,2.3018953800201416,-9.4061861038208
1482397163460,0.04785645008087158,2.2995026111602783,-9.396614074707031
1482397163711,0.009571290574967861,2.2396819591522217,-9.446864128112793
1482397163941,0.04785645008087158,2.2851457595825195,-9.401400566101074
1482397164180,0.0526420958340168,2.2396819591522217,-9.461220741271973
1482397164418,0.004785645287483931,2.2683956623077393,-9.425328254699707
1482397164659,0.11006984114646912,2.1607186794281006,-9.31047248840332
1482397164907,0.0526420958340168,2.2157537937164307,-9.437292098999023
1482397165139,0.05742774158716202,2.177468776702881,-9.530611991882324
1482397165392,0.09092726558446884,2.139183282852173,-9.477970123291016
1482397165617,0.04307081177830696,2.1678972244262695,-9.535398483276367
1482397165855,0.08614162355661392,2.1678972244262695,-9.42772102355957
1482397166103,0.11485548317432404,2.3090739250183105,-9.34875774383545
1482397166350,-0.004785645287483931,2.218146562576294,-9.396614074707031
1482397166575,0.0526420958340168,2.1535403728485107,-9.44447135925293
1482397166815,0.11006984114646912,2.0985054969787598,-9.521041870117188
1482397167054,0.06699903309345245,2.1918253898620605,-9.425328254699707
1482397167302,0.10049854964017868,2.155933380126953,-9.454042434692383
1482397167503,0.06699903309345245,2.179861307144165,-9.370293617248535
1482397167733,0.07178468257188797,2.2372891902923584,-9.379864692687988
1482397167947,0.0813559740781784,2.177468776702881,-9.351150512695312
1482397168171,0.05742774158716202,2.115255117416382,-9.415757179260254
1482397168384,0.09092726558446884,2.014756679534912,-9.482755661010742
1482397168609,0.09571290016174316,2.1056838035583496,-9.454042434692383
1482397168811,0.12442677468061447,2.1032910346984863,-9.489934921264648
1482397169025,0.14356936514377594,2.1367905139923096,-9.422935485839844
1482397169248,0.08614162355661392,2.084148406982422,-9.461220741271973
1482397169499,0.11964112520217896,2.122433662414551,-9.413363456726074
1482397169729,0.11964112520217896,2.117647886276245,-9.394222259521484
1482397169979,0.04785645008087158,2.122433662414551,-9.408578872680664
1482397170208,0.019142581149935722,2.1415762901306152,-9.482755661010742
1482397170447,0.11485548317432404,2.146361827850342,-9.45164966583252
1482397170696,0.0813559740781784,2.1750757694244385,-9.355937004089355
1482397170935,0.09092726558446884,2.146361827850342,-9.425328254699707
1482397171166,0.038285162299871445,2.1583259105682373,-9.487542152404785
1482397171420,0.09571290016174316,2.1607186794281006,-9.387042999267578
1482397171645,0.08614162355661392,2.1846470832824707,-9.449256896972656
1482397171892,0.014356935396790504,2.289931058883667,-9.339186668395996
1482397172126,0.0526420958340168,2.282752752304077,-9.391828536987305
1482397172381,0.09571290016174316,2.1128623485565186,-9.492327690124512