,timestamp,ax,ay,az
0,0.0,-0.8954314589500427,-4.0976762771606445,9.405621528625488
1,100.0,-0.8954314589500427,-4.0976762771606445,9.405621528625488
2,200.0,-2.604292869567871,-5.1158103942871085,8.344391822814941
3,300.0,-2.604292869567871,-5.1158103942871085,8.344391822814941
4,400.0,-2.3241713047027592,0.15981295704841614,9.761758804321287
5,500.0,-2.3241713047027592,0.15981295704841614,9.761758804321287
6,600.0,-4.909909248352051,-1.4113819599151611,6.494272232055664
7,700.0,-4.909909248352051,-1.4113819599151611,6.494272232055664
8,800.0,-7.328052997589111,-6.3931169509887695,2.49834942817688
9,900.0,-13.18008041381836,-18.15822410583496,-0.36571431159973145
10,1000.0,-13.18008041381836,-18.15822410583496,-0.36571431159973145
11,1100.0,-3.5051112174987797,-10.451289176940918,5.649118900299072
12,1200.0,-3.5051112174987797,-10.451289176940918,5.649118900299072
13,1300.0,1.2084733247756958,-7.832630634307861,-0.3621230125427246
14,1400.0,1.2084733247756958,-7.832630634307861,-0.3621230125427246
15,1500.0,4.6070427894592285,-8.428787231445312,-0.3429693877696991
16,1600.0,4.6070427894592285,-8.428787231445312,-0.3429693877696991
17,1700.0,3.2339680194854736,-8.938153266906738,1.7417817115783691
18,1800.0,3.9737763404846187,-8.884284019470215,1.2946646213531494
19,1900.0,3.9737763404846187,-8.884284019470215,1.2946646213531494
20,2000.0,3.0190882682800293,-9.467870712280273,2.5767595767974854
21,2100.0,3.0190882682800293,-9.467870712280273,2.5767595767974854
22,2200.0,2.534262418746948,-7.7853455543518075,2.8491001129150386
23,2300.0,2.534262418746948,-7.7853455543518075,2.8491001129150386
24,2400.0,0.8750807046890259,-7.985859870910644,1.3365631103515625
25,2500.0,0.8750807046890259,-7.985859870910644,1.3365631103515625
26,2600.0,3.0400376319885254,-11.417947769165039,2.761113166809082
27,2700.0,3.0400376319885254,-11.417947769165039,2.761113166809082
28,2800.0,4.426878929138184,-8.348581314086914,0.05386953800916672
29,2900.0,3.3824083805084233,-6.7714009284973145,2.3056161403656006
30,1500.0,4.6070427894592285,-8.428787231445312,-0.3429693877696991
31,1600.0,4.6070427894592285,-8.428787231445312,-0.3429693877696991
32,1700.0,3.2339680194854736,-8.938153266906738,1.7417817115783691
33,1800.0,3.9737763404846187,-8.884284019470215,1.2946646213531494
34,1900.0,3.9737763404846187,-8.884284019470215,1.2946646213531494
35,2000.0,3.0190882682800293,-9.467870712280273,2.5767595767974854
36,2100.0,3.0190882682800293,-9.467870712280273,2.5767595767974854
37,2200.0,2.534262418746948,-7.7853455543518075,2.8491001129150386
38,2300.0,2.534262418746948,-7.7853455543518075,2.8491001129150386
39,2400.0,0.8750807046890259,-7.985859870910644,1.3365631103515625
40,2500.0,0.8750807046890259,-7.985859870910644,1.3365631103515625
41,2600.0,3.0400376319885254,-11.417947769165039,2.761113166809082
42,2700.0,3.0400376319885254,-11.417947769165039,2.761113166809082
43,2800.0,4.426878929138184,-8.348581314086914,0.05386953800916672
44,2900.0,3.3824083805084233,-6.7714009284973145,2.3056161403656006
45,3000.0,3.3824083805084233,-6.7714009284973145,2.3056161403656006
46,3100.0,4.651933670043945,-8.107365608215332,0.7679402232170105
47,3200.0,4.651933670043945,-8.107365608215332,0.7679402232170105
48,3300.0,4.034828186035156,-9.132682800292967,1.3898340463638306
49,3400.0,4.034828186035156,-9.132682800292967,1.3898340463638306
50,3500.0,3.57753586769104,-8.449137687683105,2.106298923492432
51,3600.0,3.57753586769104,-8.449137687683105,2.106298923492432
52,3700.0,3.812766313552856,-8.570643424987793,1.2557587623596191
53,3800.0,3.138199806213379,-8.965686798095703,0.1628057211637497
54,3900.0,3.138199806213379,-8.965686798095703,0.1628057211637497
55,4000.0,3.448847532272339,-8.87171459197998,0.6883329749107361
56,4100.0,3.448847532272339,-8.87171459197998,0.6883329749107361
57,4200.0,3.269282341003418,-8.89026927947998,1.6286556720733645
58,4300.0,3.269282341003418,-8.89026927947998,1.6286556720733645
59,4400.0,2.4612393379211426,-9.02015495300293,1.787870168685913
60,3000.0,3.3824083805084233,-6.7714009284973145,2.3056161403656006
61,3100.0,4.651933670043945,-8.107365608215332,0.7679402232170105
62,3200.0,4.651933670043945,-8.107365608215332,0.7679402232170105
63,3300.0,4.034828186035156,-9.132682800292967,1.3898340463638306
64,3400.0,4.034828186035156,-9.132682800292967,1.3898340463638306
65,3500.0,3.57753586769104,-8.449137687683105,2.106298923492432
66,3600.0,3.57753586769104,-8.449137687683105,2.106298923492432
67,3700.0,3.812766313552856,-8.570643424987793,1.2557587623596191
68,3800.0,3.138199806213379,-8.965686798095703,0.1628057211637497
69,3900.0,3.138199806213379,-8.965686798095703,0.1628057211637497
70,4000.0,3.448847532272339,-8.87171459197998,0.6883329749107361
71,4100.0,3.448847532272339,-8.87171459197998,0.6883329749107361
72,4200.0,3.269282341003418,-8.89026927947998,1.6286556720733645
73,4300.0,3.269282341003418,-8.89026927947998,1.6286556720733645
74,4400.0,2.4612393379211426,-9.02015495300293,1.787870168685913
75,4500.0,2.4612393379211426,-9.02015495300293,1.787870168685913
76,4600.0,4.141370296478272,-8.628104209899902,1.2779051065444946
77,4700.0,2.649184226989746,-9.02135181427002,1.8968062400817869
78,4800.0,2.649184226989746,-9.02135181427002,1.8968062400817869
79,4900.0,3.16513466835022,-8.596980094909668,1.7824832201004028
80,5000.0,3.16513466835022,-8.596980094909668,1.7824832201004028
81,5100.0,4.2975921630859375,-8.780735015869139,1.9674352407455444
82,5200.0,4.2975921630859375,-8.780735015869139,1.9674352407455444
83,5300.0,3.6762967109680176,-8.057086944580076,0.9756371974945068
84,5400.0,3.6762967109680176,-8.057086944580076,0.9756371974945068
85,5500.0,2.33913516998291,-8.760982513427733,2.07397723197937
86,5600.0,2.5324668884277344,-9.19552993774414,1.4616601467132568
87,5700.0,2.5324668884277344,-9.19552993774414,1.4616601467132568
88,5800.0,1.8513164520263672,-9.458293914794922,1.5849615335464478
89,5900.0,1.8513164520263672,-9.458293914794922,1.5849615335464478
90,4500.0,2.4612393379211426,-9.02015495300293,1.787870168685913
91,4600.0,4.141370296478272,-8.628104209899902,1.2779051065444946
92,4700.0,2.649184226989746,-9.02135181427002,1.8968062400817869
93,4800.0,2.649184226989746,-9.02135181427002,1.8968062400817869
94,4900.0,3.16513466835022,-8.596980094909668,1.7824832201004028
95,5000.0,3.16513466835022,-8.596980094909668,1.7824832201004028
96,5100.0,4.2975921630859375,-8.780735015869139,1.9674352407455444
97,5200.0,4.2975921630859375,-8.780735015869139,1.9674352407455444
98,5300.0,3.6762967109680176,-8.057086944580076,0.9756371974945068
99,5400.0,3.6762967109680176,-8.057086944580076,0.9756371974945068
100,5500.0,2.33913516998291,-8.760982513427733,2.07397723197937
101,5600.0,2.5324668884277344,-9.19552993774414,1.4616601467132568
102,5700.0,2.5324668884277344,-9.19552993774414,1.4616601467132568
103,5800.0,1.8513164520263672,-9.458293914794922,1.5849615335464478
104,5900.0,1.8513164520263672,-9.458293914794922,1.5849615335464478
105,6000.0,3.195062160491944,-8.887276649475098,1.2934675216674805
106,6100.0,3.195062160491944,-8.887276649475098,1.2934675216674805
107,6200.0,3.24953031539917,-9.096170425415039,0.3908534348011017
108,6300.0,3.24953031539917,-9.096170425415039,0.3908534348011017
109,6400.0,2.472611904144287,-9.179967880249023,0.8487445116043091
110,6500.0,2.7108349800109863,-9.038111686706543,1.145026922225952
111,6600.0,2.7108349800109863,-9.038111686706543,1.145026922225952
112,6700.0,2.964620351791382,-8.588001251220701,0.3633201122283936
113,6800.0,2.964620351791382,-8.588001251220701,0.3633201122283936
114,6900.0,2.3576900959014893,-8.760383605957031,1.3299790620803833
115,7000.0,2.3576900959014893,-8.760383605957031,1.3299790620803833
116,7100.0,2.980781078338623,-8.334216117858888,0.6171054840087891
117,7200.0,2.980781078338623,-8.334216117858888,0.6171054840087891
118,7300.0,3.3004069328308105,-8.783727645874022,1.2425906658172607
119,7400.0,2.0943279266357417,-8.729259490966799,1.693897724151611
120,6000.0,3.195062160491944,-8.887276649475098,1.2934675216674805
121,6100.0,3.195062160491944,-8.887276649475098,1.2934675216674805
122,6200.0,3.24953031539917,-9.096170425415039,0.3908534348011017
123,6300.0,3.24953031539917,-9.096170425415039,0.3908534348011017
124,6400.0,2.472611904144287,-9.179967880249023,0.8487445116043091
125,6500.0,2.7108349800109863,-9.038111686706543,1.145026922225952
126,6600.0,2.7108349800109863,-9.038111686706543,1.145026922225952
127,6700.0,2.964620351791382,-8.588001251220701,0.3633201122283936
128,6800.0,2.964620351791382,-8.588001251220701,0.3633201122283936
129,6900.0,2.3576900959014893,-8.760383605957031,1.3299790620803833
130,7000.0,2.3576900959014893,-8.760383605957031,1.3299790620803833
131,7100.0,2.980781078338623,-8.334216117858888,0.6171054840087891
132,7200.0,2.980781078338623,-8.334216117858888,0.6171054840087891
133,7300.0,3.3004069328308105,-8.783727645874022,1.2425906658172607
134,7400.0,2.0943279266357417,-8.729259490966799,1.693897724151611
135,7500.0,2.0943279266357417,-8.729259490966799,1.693897724151611
136,7600.0,3.2956185340881348,-8.923788070678711,1.037886381149292
137,7700.0,3.2956185340881348,-8.923788070678711,1.037886381149292
138,7800.0,2.4552538394927983,-9.241618156433104,1.0947487354278564
139,7900.0,2.4552538394927983,-9.241618156433104,1.0947487354278564
140,8000.0,2.278082847595215,-9.118915557861328,1.2455834150314329
141,8100.0,2.278082847595215,-9.118915557861328,1.2455834150314329
142,8200.0,3.758896589279175,-8.934561729431152,0.6625953316688538
143,8300.0,2.9508535861968994,-9.355941772460938,0.3770867586135864
144,8400.0,2.9508535861968994,-9.355941772460938,0.3770867586135864
145,8500.0,2.583942174911499,-9.191938400268556,1.1575964689254759
146,8600.0,2.583942174911499,-9.191938400268556,1.1575964689254759
147,8700.0,2.451662540435791,-8.699930191040039,-0.20350714027881625
148,8800.0,2.451662540435791,-8.699930191040039,-0.20350714027881625
149,8900.0,2.3995885848999023,-9.070432662963867,-0.32680854201316833
150,7500.0,2.0943279266357417,-8.729259490966799,1.693897724151611
151,7600.0,3.2956185340881348,-8.923788070678711,1.037886381149292
152,7700.0,3.2956185340881348,-8.923788070678711,1.037886381149292
153,7800.0,2.4552538394927983,-9.241618156433104,1.0947487354278564
154,7900.0,2.4552538394927983,-9.241618156433104,1.0947487354278564
155,8000.0,2.278082847595215,-9.118915557861328,1.2455834150314329
156,8100.0,2.278082847595215,-9.118915557861328,1.2455834150314329
157,8200.0,3.758896589279175,-8.934561729431152,0.6625953316688538
158,8300.0,2.9508535861968994,-9.355941772460938,0.3770867586135864
159,8400.0,2.9508535861968994,-9.355941772460938,0.3770867586135864
160,8500.0,2.583942174911499,-9.191938400268556,1.1575964689254759
161,8600.0,2.583942174911499,-9.191938400268556,1.1575964689254759
162,8700.0,2.451662540435791,-8.699930191040039,-0.20350714027881625
163,8800.0,2.451662540435791,-8.699930191040039,-0.20350714027881625
164,8900.0,2.3995885848999023,-9.070432662963867,-0.32680854201316833
165,9000.0,2.3995885848999023,-9.070432662963867,-0.32680854201316833
166,9100.0,2.7066450119018555,-9.408614158630373,0.3740940093994141
167,9200.0,2.1529858112335205,-9.251194953918457,0.7122750282287598
168,9300.0,2.1529858112335205,-9.251194953918457,0.7122750282287598
169,9400.0,2.2445640563964844,-9.361927032470703,0.974440097808838
170,9500.0,2.2445640563964844,-9.361927032470703,0.974440097808838
171,9600.0,3.5948939323425293,-9.002198219299316,0.2477998733520508
172,9700.0,3.5948939323425293,-9.002198219299316,0.2477998733520508
173,9800.0,2.677914619445801,-9.20929718017578,0.6919242739677429
174,9900.0,2.677914619445801,-9.20929718017578,0.6919242739677429
175,10000.0,2.692279815673828,-9.223662376403807,0.6470330357551575
176,10100.0,2.785653591156006,-9.10993766784668,0.5327098965644836
177,10200.0,2.785653591156006,-9.10993766784668,0.5327098965644836
178,10300.0,3.2537200450897217,-9.130288124084473,0.7439981698989868
179,10400.0,3.2537200450897217,-9.130288124084473,0.7439981698989868
180,9000.0,2.3995885848999023,-9.070432662963867,-0.32680854201316833
181,9100.0,2.7066450119018555,-9.408614158630373,0.3740940093994141
182,9200.0,2.1529858112335205,-9.251194953918457,0.7122750282287598
183,9300.0,2.1529858112335205,-9.251194953918457,0.7122750282287598
184,9400.0,2.2445640563964844,-9.361927032470703,0.974440097808838
185,9500.0,2.2445640563964844,-9.361927032470703,0.974440097808838
186,9600.0,3.5948939323425293,-9.002198219299316,0.2477998733520508
187,9700.0,3.5948939323425293,-9.002198219299316,0.2477998733520508
188,9800.0,2.677914619445801,-9.20929718017578,0.6919242739677429
189,9900.0,2.677914619445801,-9.20929718017578,0.6919242739677429
190,10000.0,2.692279815673828,-9.223662376403807,0.6470330357551575
191,10100.0,2.785653591156006,-9.10993766784668,0.5327098965644836
192,10200.0,2.785653591156006,-9.10993766784668,0.5327098965644836
193,10300.0,3.2537200450897217,-9.130288124084473,0.7439981698989868
194,10400.0,3.2537200450897217,-9.130288124084473,0.7439981698989868
195,10500.0,2.9508535861968994,-9.260771751403807,0.6613982319831848
196,10600.0,2.9508535861968994,-9.260771751403807,0.6613982319831848
197,10700.0,2.85987401008606,-8.919598579406738,0.3854664862155914
198,10800.0,2.85987401008606,-8.919598579406738,0.3854664862155914
199,10900.0,3.032256364822388,-8.984840393066406,1.4431051015853882
200,11000.0,2.9951462745666504,-9.220070838928224,0.8852560520172119
201,11100.0,2.9951462745666504,-9.220070838928224,0.8852560520172119
202,11200.0,2.786850690841675,-9.018359184265137,1.0001777410507202
203,11300.0,2.786850690841675,-9.018359184265137,1.0001777410507202
204,11400.0,3.667917013168335,-8.884284019470215,0.6302735805511475
205,11500.0,3.667917013168335,-8.884284019470215,0.6302735805511475
206,11600.0,3.22139835357666,-9.021950721740724,0.7781155705451965
207,11700.0,3.22139835357666,-9.021950721740724,0.7781155705451965
208,11800.0,2.897582530975342,-9.214683532714844,1.0749965906143188
209,11900.0,3.0831332206726074,-9.117119789123537,0.7661445140838623
210,10500.0,2.9508535861968994,-9.260771751403807,0.6613982319831848
211,10600.0,2.9508535861968994,-9.260771751403807,0.6613982319831848
212,10700.0,2.85987401008606,-8.919598579406738,0.3854664862155914
213,10800.0,2.85987401008606,-8.919598579406738,0.3854664862155914
214,10900.0,3.032256364822388,-8.984840393066406,1.4431051015853882
215,11000.0,2.9951462745666504,-9.220070838928224,0.8852560520172119
216,11100.0,2.9951462745666504,-9.220070838928224,0.8852560520172119
217,11200.0,2.786850690841675,-9.018359184265137,1.0001777410507202
218,11300.0,2.786850690841675,-9.018359184265137,1.0001777410507202
219,11400.0,3.667917013168335,-8.884284019470215,0.6302735805511475
220,11500.0,3.667917013168335,-8.884284019470215,0.6302735805511475
221,11600.0,3.22139835357666,-9.021950721740724,0.7781155705451965
222,11700.0,3.22139835357666,-9.021950721740724,0.7781155705451965
223,11800.0,2.897582530975342,-9.214683532714844,1.0749965906143188
224,11900.0,3.0831332206726074,-9.117119789123537,0.7661445140838623
225,12000.0,3.0831332206726074,-9.117119789123537,0.7661445140838623
226,12100.0,2.7036523818969727,-8.974664688110352,0.6859387755393982
227,12200.0,2.7036523818969727,-8.974664688110352,0.6859387755393982
228,12300.0,2.759916067123413,-9.158419609069824,0.8732850551605225
229,12400.0,2.759916067123413,-9.158419609069824,0.8732850551605225
230,12500.0,2.892195701599121,-9.208099365234377,0.5560533404350281
231,12600.0,2.892195701599121,-9.208099365234377,0.5560533404350281
232,12700.0,2.8101942539215092,-9.15542697906494,-0.1430535465478897
233,12800.0,2.471414804458618,-9.13687229156494,1.3551181554794312
234,12900.0,2.471414804458618,-9.13687229156494,1.3551181554794312
235,13000.0,3.136404275894165,-9.083600997924805,0.3830722570419312
236,13100.0,3.136404275894165,-9.083600997924805,0.3830722570419312
237,13200.0,3.443460702896118,-9.115324020385742,0.17956513166427612
238,13300.0,3.443460702896118,-9.115324020385742,0.17956513166427612
239,13400.0,2.834136247634888,-9.23682975769043,0.5452794432640076
240,12000.0,3.0831332206726074,-9.117119789123537,0.7661445140838623
241,12100.0,2.7036523818969727,-8.974664688110352,0.6859387755393982
242,12200.0,2.7036523818969727,-8.974664688110352,0.6859387755393982
243,12300.0,2.759916067123413,-9.158419609069824,0.8732850551605225
244,12400.0,2.759916067123413,-9.158419609069824,0.8732850551605225
245,12500.0,2.892195701599121,-9.208099365234377,0.5560533404350281
246,12600.0,2.892195701599121,-9.208099365234377,0.5560533404350281
247,12700.0,2.8101942539215092,-9.15542697906494,-0.1430535465478897
248,12800.0,2.471414804458618,-9.13687229156494,1.3551181554794312
249,12900.0,2.471414804458618,-9.13687229156494,1.3551181554794312
250,13000.0,3.136404275894165,-9.083600997924805,0.3830722570419312
251,13100.0,3.136404275894165,-9.083600997924805,0.3830722570419312
252,13200.0,3.443460702896118,-9.115324020385742,0.17956513166427612
253,13300.0,3.443460702896118,-9.115324020385742,0.17956513166427612
254,13400.0,2.834136247634888,-9.23682975769043,0.5452794432640076
255,13500.0,2.834136247634888,-9.23682975769043,0.5452794432640076
256,13600.0,2.895188331604004,-9.132083892822266,0.3890577852725983
257,13700.0,2.8203697204589844,-9.114127159118652,0.9145850539207458
258,13800.0,2.8203697204589844,-9.114127159118652,0.9145850539207458
259,13900.0,3.2190041542053223,-8.984840393066406,0.6350619792938232
260,14000.0,3.2190041542053223,-8.984840393066406,0.6350619792938232
261,14100.0,2.675520420074463,-9.117119789123537,0.8780734539031982
262,14200.0,2.675520420074463,-9.117119789123537,0.8780734539031982
263,14300.0,2.806004285812378,-9.1662015914917,1.2791022062301636
264,14400.0,2.806004285812378,-9.1662015914917,1.2791022062301636
265,14500.0,2.9502551555633545,-8.841188430786133,1.5544354915618896
266,14600.0,2.5336639881134038,-9.036913871765137,0.9433154463768004
267,14700.0,2.5336639881134038,-9.036913871765137,0.9433154463768004
268,14800.0,3.2321722507476807,-8.819042205810547,0.7511807680130005
269,14900.0,3.2321722507476807,-8.819042205810547,0.7511807680130005
270,13500.0,2.834136247634888,-9.23682975769043,0.5452794432640076
271,13600.0,2.895188331604004,-9.132083892822266,0.3890577852725983
272,13700.0,2.8203697204589844,-9.114127159118652,0.9145850539207458
273,13800.0,2.8203697204589844,-9.114127159118652,0.9145850539207458
274,13900.0,3.2190041542053223,-8.984840393066406,0.6350619792938232
275,14000.0,3.2190041542053223,-8.984840393066406,0.6350619792938232
276,14100.0,2.675520420074463,-9.117119789123537,0.8780734539031982
277,14200.0,2.675520420074463,-9.117119789123537,0.8780734539031982
278,14300.0,2.806004285812378,-9.1662015914917,1.2791022062301636
279,14400.0,2.806004285812378,-9.1662015914917,1.2791022062301636
280,14500.0,2.9502551555633545,-8.841188430786133,1.5544354915618896
281,14600.0,2.5336639881134038,-9.036913871765137,0.9433154463768004
282,14700.0,2.5336639881134038,-9.036913871765137,0.9433154463768004
283,14800.0,3.2321722507476807,-8.819042205810547,0.7511807680130005
284,14900.0,3.2321722507476807,-8.819042205810547,0.7511807680130005
285,15000.0,2.1248540878295903,-9.303269386291504,0.9702502489089966
286,15100.0,2.1248540878295903,-9.303269386291504,0.9702502489089966
287,15200.0,3.0921115875244136,-9.190143585205078,0.8577227592468262
288,15300.0,3.0921115875244136,-9.190143585205078,0.8577227592468262
289,15400.0,2.3768436908721924,-9.159018516540527,0.8756792545318604
290,15500.0,2.9430725574493413,-9.08838939666748,0.5309142470359802
291,15600.0,2.9430725574493413,-9.08838939666748,0.5309142470359802
292,15700.0,2.590526342391968,-9.124302864074707,0.8523358106613159
293,15800.0,2.590526342391968,-9.124302864074707,0.8523358106613159
294,15900.0,3.2525229454040527,-9.228450775146484,0.5087678432464601
295,16000.0,3.2525229454040527,-9.228450775146484,0.5087678432464601
296,16100.0,2.0919337272644043,-9.205705642700195,0.5327098965644836
297,16200.0,2.0919337272644043,-9.205705642700195,0.5327098965644836
298,16300.0,4.028244495391847,-8.765172004699707,0.42437225580215454
299,16400.0,2.4420857429504395,-9.068038940429688,1.016338586807251
300,15000.0,2.1248540878295903,-9.303269386291504,0.9702502489089966
301,15100.0,2.1248540878295903,-9.303269386291504,0.9702502489089966
302,15200.0,3.0921115875244136,-9.190143585205078,0.8577227592468262
303,15300.0,3.0921115875244136,-9.190143585205078,0.8577227592468262
304,15400.0,2.3768436908721924,-9.159018516540527,0.8756792545318604
305,15500.0,2.9430725574493413,-9.08838939666748,0.5309142470359802
306,15600.0,2.9430725574493413,-9.08838939666748,0.5309142470359802
307,15700.0,2.590526342391968,-9.124302864074707,0.8523358106613159
308,15800.0,2.590526342391968,-9.124302864074707,0.8523358106613159
309,15900.0,3.2525229454040527,-9.228450775146484,0.5087678432464601
310,16000.0,3.2525229454040527,-9.228450775146484,0.5087678432464601
311,16100.0,2.0919337272644043,-9.205705642700195,0.5327098965644836
312,16200.0,2.0919337272644043,-9.205705642700195,0.5327098965644836
313,16300.0,4.028244495391847,-8.765172004699707,0.42437225580215454
314,16400.0,2.4420857429504395,-9.068038940429688,1.016338586807251
315,16500.0,2.4420857429504395,-9.068038940429688,1.016338586807251
316,16600.0,3.522469282150269,-9.081805229187012,1.0666168928146362
317,16700.0,3.522469282150269,-9.081805229187012,1.0666168928146362
318,16800.0,3.37402868270874,-8.862137794494629,1.3850456476211548
319,16900.0,3.37402868270874,-8.862137794494629,1.3850456476211548
320,17000.0,2.9023709297180176,-9.21588134765625,1.8584990501403809
321,17100.0,2.9023709297180176,-9.21588134765625,1.8584990501403809
322,17200.0,3.5655648708343506,-9.450512886047363,1.2653355598449707
323,17300.0,3.032256364822388,-9.242815971374512,1.390432596206665
324,17400.0,3.032256364822388,-9.242815971374512,1.390432596206665
325,17500.0,3.090914487838745,-9.113529205322266,1.2832920551300049
326,17600.0,3.090914487838745,-9.113529205322266,1.2832920551300049
327,17700.0,1.9369091987609863,-9.281721115112305,1.4610615968704224
328,17800.0,1.9369091987609863,-9.281721115112305,1.4610615968704224
329,17900.0,2.7455508708953857,-9.033921241760254,1.4359225034713743
330,16500.0,2.4420857429504395,-9.068038940429688,1.016338586807251
331,16600.0,3.522469282150269,-9.081805229187012,1.0666168928146362
332,16700.0,3.522469282150269,-9.081805229187012,1.0666168928146362
333,16800.0,3.37402868270874,-8.862137794494629,1.3850456476211548
334,16900.0,3.37402868270874,-8.862137794494629,1.3850456476211548
335,17000.0,2.9023709297180176,-9.21588134765625,1.8584990501403809
336,17100.0,2.9023709297180176,-9.21588134765625,1.8584990501403809
337,17200.0,3.5655648708343506,-9.450512886047363,1.2653355598449707
338,17300.0,3.032256364822388,-9.242815971374512,1.390432596206665
339,17400.0,3.032256364822388,-9.242815971374512,1.390432596206665
340,17500.0,3.090914487838745,-9.113529205322266,1.2832920551300049
341,17600.0,3.090914487838745,-9.113529205322266,1.2832920551300049
342,17700.0,1.9369091987609863,-9.281721115112305,1.4610615968704224
343,17800.0,1.9369091987609863,-9.281721115112305,1.4610615968704224
344,17900.0,2.7455508708953857,-9.033921241760254,1.4359225034713743
345,18000.0,2.7455508708953857,-9.033921241760254,1.4359225034713743
346,18100.0,3.4721910953521733,-8.942941665649414,1.0187327861785889
347,18200.0,2.7120320796966557,-9.123106002807617,1.3820528984069824
348,18300.0,2.7120320796966557,-9.123106002807617,1.3820528984069824
349,18400.0,3.466205596923828,-8.687360763549805,0.029927521944046017
350,18500.0,3.466205596923828,-8.687360763549805,0.029927521944046017
351,18600.0,5.509656429290772,-8.868123054504395,0.1933317929506302
352,18700.0,5.509656429290772,-8.868123054504395,0.1933317929506302
353,18800.0,2.2685060501098637,-7.877521991729736,2.042253971099853
354,18900.0,2.2685060501098637,-7.877521991729736,2.042253971099853
355,19000.0,7.064690589904785,-8.665214538574219,1.8004397153854368
356,19100.0,1.4407109022140503,-11.271303176879885,1.0971429347991943
357,19200.0,1.4407109022140503,-11.271303176879885,1.0971429347991943
358,19300.0,3.0178911685943604,-9.196727752685547,0.9187749028205872
359,19400.0,3.0178911685943604,-9.196727752685547,0.9187749028205872
360,18000.0,2.7455508708953857,-9.033921241760254,1.4359225034713743
361,18100.0,3.4721910953521733,-8.942941665649414,1.0187327861785889
362,18200.0,2.7120320796966557,-9.123106002807617,1.3820528984069824
363,18300.0,2.7120320796966557,-9.123106002807617,1.3820528984069824
364,18400.0,3.466205596923828,-8.687360763549805,0.029927521944046017
365,18500.0,3.466205596923828,-8.687360763549805,0.029927521944046017
366,18600.0,5.509656429290772,-8.868123054504395,0.1933317929506302
367,18700.0,5.509656429290772,-8.868123054504395,0.1933317929506302
368,18800.0,2.2685060501098637,-7.877521991729736,2.042253971099853
369,18900.0,2.2685060501098637,-7.877521991729736,2.042253971099853
370,19000.0,7.064690589904785,-8.665214538574219,1.8004397153854368
371,19100.0,1.4407109022140503,-11.271303176879885,1.0971429347991943
372,19200.0,1.4407109022140503,-11.271303176879885,1.0971429347991943
373,19300.0,3.0178911685943604,-9.196727752685547,0.9187749028205872
374,19400.0,3.0178911685943604,-9.196727752685547,0.9187749028205872
375,19500.0,2.9095535278320317,-9.107542991638184,0.3842693865299225
376,19600.0,2.9095535278320317,-9.107542991638184,0.3842693865299225
377,19700.0,2.2631192207336426,-9.329007148742676,1.0438719987869265
378,19800.0,2.2631192207336426,-9.329007148742676,1.0438719987869265
379,19900.0,2.602497339248657,-9.30805778503418,0.5638344883918762
380,20000.0,2.602497339248657,-9.30805778503418,0.5638344883918762
381,20100.0,3.4967315196990967,-9.135076522827148,0.41778820753097534
382,20200.0,2.8760347366333012,-8.987235069274902,-0.1933317929506302
383,20300.0,2.8760347366333012,-8.987235069274902,-0.1933317929506302
384,20400.0,2.7311856746673584,-9.342175483703613,0.5219359993934631
385,20500.0,2.7311856746673584,-9.342175483703613,0.5219359993934631
386,20600.0,3.5631706714630127,-8.897452354431152,-0.3992331326007843
387,20700.0,3.5631706714630127,-8.897452354431152,-0.3992331326007843
388,20800.0,3.1980550289154053,-9.16081428527832,0.06584054976701736
389,20900.0,2.0584149360656743,-9.31045150756836,0.8690952062606812
390,19500.0,2.9095535278320317,-9.107542991638184,0.3842693865299225
391,19600.0,2.9095535278320317,-9.107542991638184,0.3842693865299225
392,19700.0,2.2631192207336426,-9.329007148742676,1.0438719987869265
393,19800.0,2.2631192207336426,-9.329007148742676,1.0438719987869265
394,19900.0,2.602497339248657,-9.30805778503418,0.5638344883918762
395,20000.0,2.602497339248657,-9.30805778503418,0.5638344883918762
396,20100.0,3.4967315196990967,-9.135076522827148,0.41778820753097534
397,20200.0,2.8760347366333012,-8.987235069274902,-0.1933317929506302
398,20300.0,2.8760347366333012,-8.987235069274902,-0.1933317929506302
399,20400.0,2.7311856746673584,-9.342175483703613,0.5219359993934631
400,20500.0,2.7311856746673584,-9.342175483703613,0.5219359993934631
401,20600.0,3.5631706714630127,-8.897452354431152,-0.3992331326007843
402,20700.0,3.5631706714630127,-8.897452354431152,-0.3992331326007843
403,20800.0,3.1980550289154053,-9.16081428527832,0.06584054976701736
404,20900.0,2.0584149360656743,-9.31045150756836,0.8690952062606812
405,21000.0,2.0584149360656743,-9.31045150756836,0.8690952062606812
406,21100.0,2.5043349266052246,-9.303269386291504,0.04728548228740692
407,21200.0,2.5043349266052246,-9.303269386291504,0.04728548228740692
408,21300.0,3.99532413482666,-9.23682975769043,-0.8607155084609985
409,21400.0,3.99532413482666,-9.23682975769043,-0.8607155084609985
410,21500.0,1.679532527923584,-9.257779121398926,1.057040095329285
411,21600.0,1.679532527923584,-9.257779121398926,1.057040095329285
412,21700.0,2.676717519760132,-9.230844497680664,0.8379706144332886
413,21800.0,2.676717519760132,-9.230844497680664,0.8379706144332886
414,21900.0,2.4660277366638184,-9.132682800292967,0.3663128614425659
415,22000.0,2.367266893386841,-9.418190956115724,0.3699041604995728
416,22100.0,2.367266893386841,-9.418190956115724,0.3699041604995728
417,22200.0,1.6436194181442259,-9.640253067016602,0.5985504388809204
418,22300.0,1.6436194181442259,-9.640253067016602,0.5985504388809204
419,22400.0,3.023876667022705,-9.156025886535645,0.1322796493768692
420,21000.0,2.0584149360656743,-9.31045150756836,0.8690952062606812
421,21100.0,2.5043349266052246,-9.303269386291504,0.04728548228740692
422,21200.0,2.5043349266052246,-9.303269386291504,0.04728548228740692
423,21300.0,3.99532413482666,-9.23682975769043,-0.8607155084609985
424,21400.0,3.99532413482666,-9.23682975769043,-0.8607155084609985
425,21500.0,1.679532527923584,-9.257779121398926,1.057040095329285
426,21600.0,1.679532527923584,-9.257779121398926,1.057040095329285
427,21700.0,2.676717519760132,-9.230844497680664,0.8379706144332886
428,21800.0,2.676717519760132,-9.230844497680664,0.8379706144332886
429,21900.0,2.4660277366638184,-9.132682800292967,0.3663128614425659
430,22000.0,2.367266893386841,-9.418190956115724,0.3699041604995728
431,22100.0,2.367266893386841,-9.418190956115724,0.3699041604995728
432,22200.0,1.6436194181442259,-9.640253067016602,0.5985504388809204
433,22300.0,1.6436194181442259,-9.640253067016602,0.5985504388809204
434,22400.0,3.023876667022705,-9.156025886535645,0.1322796493768692
435,22500.0,3.023876667022705,-9.156025886535645,0.1322796493768692
436,22600.0,1.334767460823059,-9.604938507080078,0.8517372608184814
437,22700.0,3.5709519386291504,-8.9866361618042,0.4752490520477295
438,22800.0,3.5709519386291504,-8.9866361618042,0.4752490520477295
439,22900.0,3.15974760055542,-7.688978672027588,3.2100260257720947
440,23000.0,3.15974760055542,-7.688978672027588,3.2100260257720947
441,23100.0,1.8381483554840088,-7.49923849105835,2.6007015705108643
442,23200.0,1.8381483554840088,-7.49923849105835,2.6007015705108643
443,23300.0,2.9316999912261963,-6.827664852142334,-1.2054805755615234
444,23400.0,2.9316999912261963,-6.827664852142334,-1.2054805755615234
445,23500.0,3.1322143077850337,-8.723872184753418,0.5027823448181152
446,23600.0,3.1322143077850337,-8.723872184753418,0.5027823448181152
447,23700.0,1.821987509727478,-8.953117370605469,0.9163807034492492
448,23800.0,2.895787000656128,-8.892663955688477,1.080383539199829
449,23900.0,2.895787000656128,-8.892663955688477,1.080383539199829
450,22500.0,3.023876667022705,-9.156025886535645,0.1322796493768692
451,22600.0,1.334767460823059,-9.604938507080078,0.8517372608184814
452,22700.0,3.5709519386291504,-8.9866361618042,0.4752490520477295
453,22800.0,3.5709519386291504,-8.9866361618042,0.4752490520477295
454,22900.0,3.15974760055542,-7.688978672027588,3.2100260257720947
455,23000.0,3.15974760055542,-7.688978672027588,3.2100260257720947
456,23100.0,1.8381483554840088,-7.49923849105835,2.6007015705108643
457,23200.0,1.8381483554840088,-7.49923849105835,2.6007015705108643
458,23300.0,2.9316999912261963,-6.827664852142334,-1.2054805755615234
459,23400.0,2.9316999912261963,-6.827664852142334,-1.2054805755615234
460,23500.0,3.1322143077850337,-8.723872184753418,0.5027823448181152
461,23600.0,3.1322143077850337,-8.723872184753418,0.5027823448181152
462,23700.0,1.821987509727478,-8.953117370605469,0.9163807034492492
463,23800.0,2.895787000656128,-8.892663955688477,1.080383539199829
464,23900.0,2.895787000656128,-8.892663955688477,1.080383539199829
465,24000.0,3.0190882682800293,-9.00160026550293,1.0971429347991943
466,24100.0,3.0190882682800293,-9.00160026550293,1.0971429347991943
467,24200.0,3.40216064453125,-8.921394348144531,1.8555063009262085
468,24300.0,3.40216064453125,-8.921394348144531,1.8555063009262085
469,24400.0,3.1274259090423584,-8.737040519714355,1.105522632598877
470,24500.0,3.1274259090423584,-8.737040519714355,1.105522632598877
471,24600.0,3.2638955116271973,-9.157821655273438,0.9882067441940308
472,24700.0,3.777451753616333,-8.926780700683594,0.8858546018600464
473,24800.0,3.777451753616333,-8.926780700683594,0.8858546018600464
474,24900.0,2.800617456436157,-8.910021781921387,2.100313425064087
475,25000.0,2.800617456436157,-8.910021781921387,2.100313425064087
476,25100.0,3.0178911685943604,-8.938153266906738,1.9608511924743648
477,25200.0,3.0178911685943604,-8.938153266906738,1.9608511924743648
478,25300.0,3.489548921585083,-8.82203483581543,1.4628572463989258
479,25400.0,3.489548921585083,-8.82203483581543,1.4628572463989258
480,24000.0,3.0190882682800293,-9.00160026550293,1.0971429347991943
481,24100.0,3.0190882682800293,-9.00160026550293,1.0971429347991943
482,24200.0,3.40216064453125,-8.921394348144531,1.8555063009262085
483,24300.0,3.40216064453125,-8.921394348144531,1.8555063009262085
484,24400.0,3.1274259090423584,-8.737040519714355,1.105522632598877
485,24500.0,3.1274259090423584,-8.737040519714355,1.105522632598877
486,24600.0,3.2638955116271973,-9.157821655273438,0.9882067441940308
487,24700.0,3.777451753616333,-8.926780700683594,0.8858546018600464
488,24800.0,3.777451753616333,-8.926780700683594,0.8858546018600464
489,24900.0,2.800617456436157,-8.910021781921387,2.100313425064087
490,25000.0,2.800617456436157,-8.910021781921387,2.100313425064087
491,25100.0,3.0178911685943604,-8.938153266906738,1.9608511924743648
492,25200.0,3.0178911685943604,-8.938153266906738,1.9608511924743648
493,25300.0,3.489548921585083,-8.82203483581543,1.4628572463989258
494,25400.0,3.489548921585083,-8.82203483581543,1.4628572463989258
495,25500.0,3.6978445053100586,-8.529343605041504,1.5466543436050415
496,25600.0,2.3116016387939453,-8.000225067138674,3.457825899124145
497,25700.0,2.3116016387939453,-8.000225067138674,3.457825899124145
498,25800.0,3.624821424484253,-7.9685020446777335,2.3313539028167725
499,25900.0,3.624821424484253,-7.9685020446777335,2.3313539028167725
500,26000.0,4.018068790435791,-9.218873977661133,0.9888052940368652
501,26100.0,4.018068790435791,-9.218873977661133,0.9888052940368652
502,26200.0,2.781463861465454,-8.793902397155763,0.5219359993934631
503,26300.0,2.781463861465454,-8.793902397155763,0.5219359993934631
504,26400.0,2.82515811920166,-8.847772598266602,1.839944005012512
505,26500.0,2.69646954536438,-8.778939247131348,1.113303780555725
506,26600.0,2.69646954536438,-8.778939247131348,1.113303780555725
507,26700.0,1.802833914756775,-9.059659004211426,0.924760401248932
508,26800.0,1.802833914756775,-9.059659004211426,0.924760401248932
509,26900.0,2.20386266708374,-9.263166427612305,0.7050924301147461
510,25500.0,3.6978445053100586,-8.529343605041504,1.5466543436050415
511,25600.0,2.3116016387939453,-8.000225067138674,3.457825899124145
512,25700.0,2.3116016387939453,-8.000225067138674,3.457825899124145
513,25800.0,3.624821424484253,-7.9685020446777335,2.3313539028167725
514,25900.0,3.624821424484253,-7.9685020446777335,2.3313539028167725
515,26000.0,4.018068790435791,-9.218873977661133,0.9888052940368652
516,26100.0,4.018068790435791,-9.218873977661133,0.9888052940368652
517,26200.0,2.781463861465454,-8.793902397155763,0.5219359993934631
518,26300.0,2.781463861465454,-8.793902397155763,0.5219359993934631
519,26400.0,2.82515811920166,-8.847772598266602,1.839944005012512
520,26500.0,2.69646954536438,-8.778939247131348,1.113303780555725
521,26600.0,2.69646954536438,-8.778939247131348,1.113303780555725
522,26700.0,1.802833914756775,-9.059659004211426,0.924760401248932
523,26800.0,1.802833914756775,-9.059659004211426,0.924760401248932
524,26900.0,2.20386266708374,-9.263166427612305,0.7050924301147461
525,27000.0,2.20386266708374,-9.263166427612305,0.7050924301147461
526,27100.0,2.3283610343933105,-9.38167953491211,0.7080851793289185
527,27200.0,2.3283610343933105,-9.38167953491211,0.7080851793289185
528,27300.0,2.75812029838562,-9.065046310424805,0.6177040338516235
529,27400.0,3.6104562282562256,-8.818443298339844,-0.2902969419956207
530,27500.0,3.6104562282562256,-8.818443298339844,-0.2902969419956207
531,27600.0,1.5053542852401731,-9.852140426635742,1.7986440658569336
532,27700.0,1.5053542852401731,-9.852140426635742,1.7986440658569336
533,27800.0,3.380612850189209,-9.031527519226074,-0.5099649429321289
534,27900.0,3.380612850189209,-9.031527519226074,-0.5099649429321289
535,28000.0,2.434903144836426,-9.330204010009766,0.25977087020874023
536,28100.0,2.434903144836426,-9.330204010009766,0.25977087020874023
537,28200.0,3.3686418533325195,-8.82442855834961,-0.07541735470294952
538,28300.0,3.1711201667785645,-9.084199905395508,0.12928688526153564
539,28400.0,3.1711201667785645,-9.084199905395508,0.12928688526153564
540,27000.0,2.20386266708374,-9.263166427612305,0.7050924301147461
541,27100.0,2.3283610343933105,-9.38167953491211,0.7080851793289185
542,27200.0,2.3283610343933105,-9.38167953491211,0.7080851793289185
543,27300.0,2.75812029838562,-9.065046310424805,0.6177040338516235
544,27400.0,3.6104562282562256,-8.818443298339844,-0.2902969419956207
545,27500.0,3.6104562282562256,-8.818443298339844,-0.2902969419956207
546,27600.0,1.5053542852401731,-9.852140426635742,1.7986440658569336
547,27700.0,1.5053542852401731,-9.852140426635742,1.7986440658569336
548,27800.0,3.380612850189209,-9.031527519226074,-0.5099649429321289
549,27900.0,3.380612850189209,-9.031527519226074,-0.5099649429321289
550,28000.0,2.434903144836426,-9.330204010009766,0.25977087020874023
551,28100.0,2.434903144836426,-9.330204010009766,0.25977087020874023
552,28200.0,3.3686418533325195,-8.82442855834961,-0.07541735470294952
553,28300.0,3.1711201667785645,-9.084199905395508,0.12928688526153564
554,28400.0,3.1711201667785645,-9.084199905395508,0.12928688526153564
555,28500.0,3.2369606494903564,-9.199121475219727,-0.5835866928100586
556,28600.0,3.2369606494903564,-9.199121475219727,-0.5835866928100586
557,28700.0,2.4648306369781494,-9.146449089050293,0.4219780564308167
558,28800.0,2.4648306369781494,-9.146449089050293,0.4219780564308167
559,28900.0,1.953668594360352,-9.1632080078125,0.26156654953956604
560,29000.0,1.953668594360352,-9.1632080078125,0.26156654953956604
561,29100.0,2.828749418258667,-9.223063468933104,-0.1364694982767105
562,29200.0,2.1996726989746094,-9.311050415039064,0.6254851818084717
563,29300.0,2.1996726989746094,-9.311050415039064,0.6254851818084717
564,29400.0,2.795829057693481,-9.387664794921877,0.5931634902954102
565,29500.0,2.795829057693481,-9.387664794921877,0.5931634902954102
566,29600.0,1.8375498056411743,-9.534309387207033,0.6009446382522583
567,29700.0,1.8375498056411743,-9.534309387207033,0.6009446382522583
568,29800.0,2.697068214416504,-9.936535835266113,-0.11192893236875534
569,29900.0,2.697068214416504,-9.936535835266113,-0.11192893236875534
570,28500.0,3.2369606494903564,-9.199121475219727,-0.5835866928100586
571,28600.0,3.2369606494903564,-9.199121475219727,-0.5835866928100586
572,28700.0,2.4648306369781494,-9.146449089050293,0.4219780564308167
573,28800.0,2.4648306369781494,-9.146449089050293,0.4219780564308167
574,28900.0,1.953668594360352,-9.1632080078125,0.26156654953956604
575,29000.0,1.953668594360352,-9.1632080078125,0.26156654953956604
576,29100.0,2.828749418258667,-9.223063468933104,-0.1364694982767105
577,29200.0,2.1996726989746094,-9.311050415039064,0.6254851818084717
578,29300.0,2.1996726989746094,-9.311050415039064,0.6254851818084717
579,29400.0,2.795829057693481,-9.387664794921877,0.5931634902954102
580,29500.0,2.795829057693481,-9.387664794921877,0.5931634902954102
581,29600.0,1.8375498056411743,-9.534309387207033,0.6009446382522583
582,29700.0,1.8375498056411743,-9.534309387207033,0.6009446382522583
583,29800.0,2.697068214416504,-9.936535835266113,-0.11192893236875534
584,29900.0,2.697068214416504,-9.936535835266113,-0.11192893236875534
585,30000.0,2.4606409072875977,-9.23443603515625,0.13287819921970367
586,30100.0,2.5677812099456787,-9.321226119995117,0.023343466222286224
587,30200.0,2.5677812099456787,-9.321226119995117,0.023343466222286224
588,30300.0,2.6431987285614014,-9.288904190063477,-0.27473464608192444
589,30400.0,2.6431987285614014,-9.288904190063477,-0.27473464608192444
590,30500.0,2.8556840419769287,-9.456498146057127,0.2047042399644852
591,30600.0,2.8556840419769287,-9.456498146057127,0.2047042399644852
592,30700.0,2.807800054550171,-9.191938400268556,0.16340427100658414
593,30800.0,2.807800054550171,-9.191938400268556,0.16340427100658414
594,30900.0,2.283469915390014,-9.23323917388916,0.5919663906097412
595,31000.0,3.321356296539306,-8.987833023071289,0.5183446407318115
596,31100.0,3.321356296539306,-8.987833023071289,0.5183446407318115
597,31200.0,2.58813214302063,-9.279327392578123,0.7410054206848145
598,31300.0,2.58813214302063,-9.279327392578123,0.7410054206848145
599,31400.0,1.8968062400817869,-9.436147689819336,1.0564415454864502
600,30000.0,2.4606409072875977,-9.23443603515625,0.13287819921970367
601,30100.0,2.5677812099456787,-9.321226119995117,0.023343466222286224
602,30200.0,2.5677812099456787,-9.321226119995117,0.023343466222286224
603,30300.0,2.6431987285614014,-9.288904190063477,-0.27473464608192444
604,30400.0,2.6431987285614014,-9.288904190063477,-0.27473464608192444
605,30500.0,2.8556840419769287,-9.456498146057127,0.2047042399644852
606,30600.0,2.8556840419769287,-9.456498146057127,0.2047042399644852
607,30700.0,2.807800054550171,-9.191938400268556,0.16340427100658414
608,30800.0,2.807800054550171,-9.191938400268556,0.16340427100658414
609,30900.0,2.283469915390014,-9.23323917388916,0.5919663906097412
610,31000.0,3.321356296539306,-8.987833023071289,0.5183446407318115
611,31100.0,3.321356296539306,-8.987833023071289,0.5183446407318115
612,31200.0,2.58813214302063,-9.279327392578123,0.7410054206848145
613,31300.0,2.58813214302063,-9.279327392578123,0.7410054206848145
614,31400.0,1.8968062400817869,-9.436147689819336,1.0564415454864502
615,31500.0,1.8968062400817869,-9.436147689819336,1.0564415454864502
616,31600.0,3.1142578125,-9.211690902709961,0.6727706789970398
617,31700.0,3.1142578125,-9.211690902709961,0.6727706789970398
618,31800.0,2.940678119659424,-9.208099365234377,0.8433575630187988
619,31900.0,2.589927673339844,-9.11831760406494,0.9151836037635804
620,32000.0,2.589927673339844,-9.11831760406494,0.9151836037635804
621,32100.0,2.948459386825561,-9.023147583007812,0.7739257216453552
622,32200.0,2.948459386825561,-9.023147583007812,0.7739257216453552
623,32300.0,2.692878246307373,-9.041104316711426,0.9331400990486144
624,32400.0,2.692878246307373,-9.041104316711426,0.9331400990486144
625,32500.0,2.7210102081298833,-9.124302864074707,0.7344213724136353
626,32600.0,2.7210102081298833,-9.124302864074707,0.7344213724136353
627,32700.0,3.587711334228516,-8.893860816955566,0.36511576175689703
628,32800.0,2.871246337890625,-8.979453086853027,0.4890156984329224
629,32900.0,2.871246337890625,-8.979453086853027,0.4890156984329224
630,31500.0,1.8968062400817869,-9.436147689819336,1.0564415454864502
631,31600.0,3.1142578125,-9.211690902709961,0.6727706789970398
632,31700.0,3.1142578125,-9.211690902709961,0.6727706789970398
633,31800.0,2.940678119659424,-9.208099365234377,0.8433575630187988
634,31900.0,2.589927673339844,-9.11831760406494,0.9151836037635804
635,32000.0,2.589927673339844,-9.11831760406494,0.9151836037635804
636,32100.0,2.948459386825561,-9.023147583007812,0.7739257216453552
637,32200.0,2.948459386825561,-9.023147583007812,0.7739257216453552
638,32300.0,2.692878246307373,-9.041104316711426,0.9331400990486144
639,32400.0,2.692878246307373,-9.041104316711426,0.9331400990486144
640,32500.0,2.7210102081298833,-9.124302864074707,0.7344213724136353
641,32600.0,2.7210102081298833,-9.124302864074707,0.7344213724136353
642,32700.0,3.587711334228516,-8.893860816955566,0.36511576175689703
643,32800.0,2.871246337890625,-8.979453086853027,0.4890156984329224
644,32900.0,2.871246337890625,-8.979453086853027,0.4890156984329224
645,33000.0,2.994547843933105,-9.232640266418457,0.4345476031303406
646,33100.0,2.994547843933105,-9.232640266418457,0.4345476031303406
647,33200.0,2.4456770420074463,-9.278130531311037,1.3323732614517212
648,33300.0,2.4456770420074463,-9.278130531311037,1.3323732614517212
649,33400.0,2.8778305053710938,-9.054272651672363,0.35075053572654724
650,33500.0,2.8778305053710938,-9.054272651672363,0.35075053572654724
651,33600.0,2.8143839836120605,-9.29309368133545,0.7428010702133179
652,33700.0,2.7461493015289307,-8.875306129455566,1.2216414213180542
653,33800.0,2.7461493015289307,-8.875306129455566,1.2216414213180542
654,33900.0,2.694674015045166,-8.925583839416504,1.1097124814987185
655,34000.0,2.694674015045166,-8.925583839416504,1.1097124814987185
656,34100.0,2.1948843002319336,-9.026739120483398,1.4281413555145264
657,34200.0,2.1948843002319336,-9.026739120483398,1.4281413555145264
658,34300.0,1.699883222579956,-9.71507167816162,1.256955862045288
659,34400.0,1.699883222579956,-9.71507167816162,1.256955862045288
660,33000.0,2.994547843933105,-9.232640266418457,0.4345476031303406
661,33100.0,2.994547843933105,-9.232640266418457,0.4345476031303406
662,33200.0,2.4456770420074463,-9.278130531311037,1.3323732614517212
663,33300.0,2.4456770420074463,-9.278130531311037,1.3323732614517212
664,33400.0,2.8778305053710938,-9.054272651672363,0.35075053572654724
665,33500.0,2.8778305053710938,-9.054272651672363,0.35075053572654724
666,33600.0,2.8143839836120605,-9.29309368133545,0.7428010702133179
667,33700.0,2.7461493015289307,-8.875306129455566,1.2216414213180542
668,33800.0,2.7461493015289307,-8.875306129455566,1.2216414213180542
669,33900.0,2.694674015045166,-8.925583839416504,1.1097124814987185
670,34000.0,2.694674015045166,-8.925583839416504,1.1097124814987185
671,34100.0,2.1948843002319336,-9.026739120483398,1.4281413555145264
672,34200.0,2.1948843002319336,-9.026739120483398,1.4281413555145264
673,34300.0,1.699883222579956,-9.71507167816162,1.256955862045288
674,34400.0,1.699883222579956,-9.71507167816162,1.256955862045288
675,34500.0,1.8561048507690432,-9.35654067993164,1.4814122915267944
676,34600.0,1.656787633895874,-9.44752025604248,1.456871747970581
677,34700.0,1.656787633895874,-9.44752025604248,1.456871747970581
678,34800.0,2.520495891571045,-9.103952407836914,1.6699557304382324
679,34900.0,2.520495891571045,-9.103952407836914,1.6699557304382324
680,35000.0,2.585139274597168,-9.438541412353516,1.3078327178955078
681,35100.0,2.585139274597168,-9.438541412353516,1.3078327178955078
682,35200.0,1.702277421951294,-9.48882007598877,1.173158884048462
683,35300.0,1.702277421951294,-9.48882007598877,1.173158884048462
684,35400.0,1.985990285873413,-9.224859237670898,1.675342679023743
685,35500.0,2.606687068939209,-9.062053680419922,0.6667851805686951
686,35600.0,2.606687068939209,-9.062053680419922,0.6667851805686951
687,35700.0,2.43011474609375,-9.208698272705078,0.924760401248932
688,35800.0,2.43011474609375,-9.208698272705078,0.924760401248932
689,35900.0,2.342726469039917,-9.326014518737793,1.0295066833496094
690,34500.0,1.8561048507690432,-9.35654067993164,1.4814122915267944
691,34600.0,1.656787633895874,-9.44752025604248,1.456871747970581
692,34700.0,1.656787633895874,-9.44752025604248,1.456871747970581
693,34800.0,2.520495891571045,-9.103952407836914,1.6699557304382324
694,34900.0,2.520495891571045,-9.103952407836914,1.6699557304382324
695,35000.0,2.585139274597168,-9.438541412353516,1.3078327178955078
696,35100.0,2.585139274597168,-9.438541412353516,1.3078327178955078
697,35200.0,1.702277421951294,-9.48882007598877,1.173158884048462
698,35300.0,1.702277421951294,-9.48882007598877,1.173158884048462
699,35400.0,1.985990285873413,-9.224859237670898,1.675342679023743
700,35500.0,2.606687068939209,-9.062053680419922,0.6667851805686951
701,35600.0,2.606687068939209,-9.062053680419922,0.6667851805686951
702,35700.0,2.43011474609375,-9.208698272705078,0.924760401248932
703,35800.0,2.43011474609375,-9.208698272705078,0.924760401248932
704,35900.0,2.342726469039917,-9.326014518737793,1.0295066833496094
705,36000.0,2.342726469039917,-9.326014518737793,1.0295066833496094
706,36100.0,2.217030763626098,-9.3643217086792,0.7439981698989868
707,36200.0,2.217030763626098,-9.3643217086792,0.7439981698989868
708,36300.0,2.210446834564209,-9.270947456359863,0.5608417391777039
709,36400.0,2.0901381969451904,-9.349357604980467,0.7308300733566284
710,36500.0,2.0901381969451904,-9.349357604980467,0.7308300733566284
711,36600.0,2.0596120357513428,-9.35055446624756,0.5680243372917175
712,36700.0,2.0596120357513428,-9.35055446624756,0.5680243372917175
713,36800.0,1.2749123573303225,-9.498994827270508,0.8978256583213806
714,36900.0,1.2749123573303225,-9.498994827270508,0.8978256583213806
715,37000.0,1.8100165128707888,-9.409811019897461,0.7655459642410278
716,37100.0,1.8100165128707888,-9.409811019897461,0.7655459642410278
717,37200.0,2.0278887748718257,-9.367912292480467,0.4842272996902466
718,37300.0,2.5246856212615967,-9.307458877563477,0.5925649404525757
719,37400.0,2.5246856212615967,-9.307458877563477,0.5925649404525757
720,36000.0,2.342726469039917,-9.326014518737793,1.0295066833496094
721,36100.0,2.217030763626098,-9.3643217086792,0.7439981698989868
722,36200.0,2.217030763626098,-9.3643217086792,0.7439981698989868
723,36300.0,2.210446834564209,-9.270947456359863,0.5608417391777039
724,36400.0,2.0901381969451904,-9.349357604980467,0.7308300733566284
725,36500.0,2.0901381969451904,-9.349357604980467,0.7308300733566284
726,36600.0,2.0596120357513428,-9.35055446624756,0.5680243372917175
727,36700.0,2.0596120357513428,-9.35055446624756,0.5680243372917175
728,36800.0,1.2749123573303225,-9.498994827270508,0.8978256583213806
729,36900.0,1.2749123573303225,-9.498994827270508,0.8978256583213806
730,37000.0,1.8100165128707888,-9.409811019897461,0.7655459642410278
731,37100.0,1.8100165128707888,-9.409811019897461,0.7655459642410278
732,37200.0,2.0278887748718257,-9.367912292480467,0.4842272996902466
733,37300.0,2.5246856212615967,-9.307458877563477,0.5925649404525757
734,37400.0,2.5246856212615967,-9.307458877563477,0.5925649404525757
735,37500.0,2.8095955848693848,-9.12071132659912,0.38367083668708796
736,37600.0,2.8095955848693848,-9.12071132659912,0.38367083668708796
737,37700.0,2.6892869472503658,-9.135076522827148,0.6171054840087891
738,37800.0,2.6892869472503658,-9.135076522827148,0.6171054840087891
739,37900.0,2.5282769203186035,-9.065644264221193,1.0139443874359129
740,38000.0,2.5282769203186035,-9.065644264221193,1.0139443874359129
741,38100.0,2.872443437576294,-8.972869873046875,1.0342950820922852
742,38200.0,2.9706058502197266,-8.955511093139648,0.849941611289978
743,38300.0,2.9706058502197266,-8.955511093139648,0.849941611289978
744,38400.0,2.9891607761383057,-9.093177795410156,0.8421604633331299
745,38500.0,2.9891607761383057,-9.093177795410156,0.8421604633331299
746,38600.0,3.36325478553772,-8.943540573120117,0.5500678420066833
747,38700.0,3.36325478553772,-8.943540573120117,0.5500678420066833
748,38800.0,1.9590555429458616,-9.23443603515625,0.9014169573783876
749,38900.0,1.9590555429458616,-9.23443603515625,0.9014169573783876
750,37500.0,2.8095955848693848,-9.12071132659912,0.38367083668708796
751,37600.0,2.8095955848693848,-9.12071132659912,0.38367083668708796
752,37700.0,2.6892869472503658,-9.135076522827148,0.6171054840087891
753,37800.0,2.6892869472503658,-9.135076522827148,0.6171054840087891
754,37900.0,2.5282769203186035,-9.065644264221193,1.0139443874359129
755,38000.0,2.5282769203186035,-9.065644264221193,1.0139443874359129
756,38100.0,2.872443437576294,-8.972869873046875,1.0342950820922852
757,38200.0,2.9706058502197266,-8.955511093139648,0.849941611289978
758,38300.0,2.9706058502197266,-8.955511093139648,0.849941611289978
759,38400.0,2.9891607761383057,-9.093177795410156,0.8421604633331299
760,38500.0,2.9891607761383057,-9.093177795410156,0.8421604633331299
761,38600.0,3.36325478553772,-8.943540573120117,0.5500678420066833
762,38700.0,3.36325478553772,-8.943540573120117,0.5500678420066833
763,38800.0,1.9590555429458616,-9.23443603515625,0.9014169573783876
764,38900.0,1.9590555429458616,-9.23443603515625,0.9014169573783876
765,39000.0,3.1304187774658203,-9.257779121398926,0.4501099288463593
766,39100.0,2.879626035690308,-9.175179481506348,0.6009446382522583
767,39200.0,2.879626035690308,-9.175179481506348,0.6009446382522583
768,39300.0,2.6384103298187256,-9.135076522827148,0.36511576175689703
769,39400.0,2.6384103298187256,-9.135076522827148,0.36511576175689703
770,39500.0,2.649184226989746,-9.142857551574707,-0.04668693244457245
771,39600.0,2.649184226989746,-9.142857551574707,-0.04668693244457245
772,39700.0,3.201646327972412,-9.169194221496582,0.3567360639572144
773,39800.0,3.201646327972412,-9.169194221496582,0.3567360639572144
774,39900.0,2.695272445678711,-9.30686092376709,0.6141127347946167
775,40000.0,3.050212860107422,-9.278728485107422,0.4596867263317108
776,40100.0,3.050212860107422,-9.278728485107422,0.4596867263317108
777,40200.0,3.5104982852935787,-8.892663955688477,0.4279635548591614
778,40300.0,3.5104982852935787,-8.892663955688477,0.4279635548591614
779,40400.0,2.735974073410034,-8.678382873535156,1.4443022012710571
780,39000.0,3.1304187774658203,-9.257779121398926,0.4501099288463593
781,39100.0,2.879626035690308,-9.175179481506348,0.6009446382522583
782,39200.0,2.879626035690308,-9.175179481506348,0.6009446382522583
783,39300.0,2.6384103298187256,-9.135076522827148,0.36511576175689703
784,39400.0,2.6384103298187256,-9.135076522827148,0.36511576175689703
785,39500.0,2.649184226989746,-9.142857551574707,-0.04668693244457245
786,39600.0,2.649184226989746,-9.142857551574707,-0.04668693244457245
787,39700.0,3.201646327972412,-9.169194221496582,0.3567360639572144
788,39800.0,3.201646327972412,-9.169194221496582,0.3567360639572144
789,39900.0,2.695272445678711,-9.30686092376709,0.6141127347946167
790,40000.0,3.050212860107422,-9.278728485107422,0.4596867263317108
791,40100.0,3.050212860107422,-9.278728485107422,0.4596867263317108
792,40200.0,3.5104982852935787,-8.892663955688477,0.4279635548591614
793,40300.0,3.5104982852935787,-8.892663955688477,0.4279635548591614
794,40400.0,2.735974073410034,-8.678382873535156,1.4443022012710571
795,40500.0,2.735974073410034,-8.678382873535156,1.4443022012710571
796,40600.0,3.3165678977966313,-8.617929458618164,1.7621324062347412
797,40700.0,3.3165678977966313,-8.617929458618164,1.7621324062347412
798,40800.0,2.595314741134644,-8.82442855834961,1.5406688451766968
799,40900.0,2.5061306953430176,-9.011775016784668,1.0582371950149536
800,41000.0,2.5061306953430176,-9.011775016784668,1.0582371950149536
801,41100.0,2.2032639980316158,-9.273940086364746,0.5644330382347107
802,41200.0,2.2032639980316158,-9.273940086364746,0.5644330382347107
803,41300.0,2.0177135467529297,-9.479841232299805,0.942716896533966
804,41400.0,2.0177135467529297,-9.479841232299805,0.942716896533966
805,41500.0,1.1240776777267456,-9.598953247070312,0.6033388376235962
806,41600.0,1.1240776777267456,-9.598953247070312,0.6033388376235962
807,41700.0,1.2976573705673218,-9.328408241271973,0.4806360006332398
808,41800.0,2.0644004344940186,-9.491812705993652,0.4333505034446716
809,41900.0,2.0644004344940186,-9.491812705993652,0.4333505034446716
810,40500.0,2.735974073410034,-8.678382873535156,1.4443022012710571
811,40600.0,3.3165678977966313,-8.617929458618164,1.7621324062347412
812,40700.0,3.3165678977966313,-8.617929458618164,1.7621324062347412
813,40800.0,2.595314741134644,-8.82442855834961,1.5406688451766968
814,40900.0,2.5061306953430176,-9.011775016784668,1.0582371950149536
815,41000.0,2.5061306953430176,-9.011775016784668,1.0582371950149536
816,41100.0,2.2032639980316158,-9.273940086364746,0.5644330382347107
817,41200.0,2.2032639980316158,-9.273940086364746,0.5644330382347107
818,41300.0,2.0177135467529297,-9.479841232299805,0.942716896533966
819,41400.0,2.0177135467529297,-9.479841232299805,0.942716896533966
820,41500.0,1.1240776777267456,-9.598953247070312,0.6033388376235962
821,41600.0,1.1240776777267456,-9.598953247070312,0.6033388376235962
822,41700.0,1.2976573705673218,-9.328408241271973,0.4806360006332398
823,41800.0,2.0644004344940186,-9.491812705993652,0.4333505034446716
824,41900.0,2.0644004344940186,-9.491812705993652,0.4333505034446716
825,42000.0,1.7501614093780518,-9.804255485534668,0.4471171796321869
826,42100.0,1.7501614093780518,-9.804255485534668,0.4471171796321869
827,42200.0,2.0165164470672607,-9.36013126373291,1.1162965297698977
828,42300.0,2.0165164470672607,-9.36013126373291,1.1162965297698977
829,42400.0,4.0725369453430185,-8.978256225585938,0.05506663769483566
830,42500.0,4.0725369453430185,-8.978256225585938,0.05506663769483566
831,42600.0,2.7317841053009038,-7.890690326690674,1.6765397787094116
832,42700.0,3.866635799407959,-8.215703010559082,1.7028759717941284
833,42800.0,3.866635799407959,-8.215703010559082,1.7028759717941284
834,42900.0,3.8564603328704834,-8.510788917541504,0.2489969730377197
835,43000.0,3.8564603328704834,-8.510788917541504,0.2489969730377197
836,43100.0,3.1735143661499023,-9.14345645904541,1.189319729804993
837,43200.0,3.1735143661499023,-9.14345645904541,1.189319729804993
838,43300.0,3.332728862762451,-9.121908187866213,0.6434416770935059
839,43400.0,3.332728862762451,-9.121908187866213,0.6434416770935059
840,42000.0,1.7501614093780518,-9.804255485534668,0.4471171796321869
841,42100.0,1.7501614093780518,-9.804255485534668,0.4471171796321869
842,42200.0,2.0165164470672607,-9.36013126373291,1.1162965297698977
843,42300.0,2.0165164470672607,-9.36013126373291,1.1162965297698977
844,42400.0,4.0725369453430185,-8.978256225585938,0.05506663769483566
845,42500.0,4.0725369453430185,-8.978256225585938,0.05506663769483566
846,42600.0,2.7317841053009038,-7.890690326690674,1.6765397787094116
847,42700.0,3.866635799407959,-8.215703010559082,1.7028759717941284
848,42800.0,3.866635799407959,-8.215703010559082,1.7028759717941284
849,42900.0,3.8564603328704834,-8.510788917541504,0.2489969730377197
850,43000.0,3.8564603328704834,-8.510788917541504,0.2489969730377197
851,43100.0,3.1735143661499023,-9.14345645904541,1.189319729804993
852,43200.0,3.1735143661499023,-9.14345645904541,1.189319729804993
853,43300.0,3.332728862762451,-9.121908187866213,0.6434416770935059
854,43400.0,3.332728862762451,-9.121908187866213,0.6434416770935059
855,43500.0,2.9496564865112305,-9.072827339172363,0.9786299467086792
856,43600.0,2.9496564865112305,-9.072827339172363,0.9786299467086792
857,43700.0,2.69646954536438,-9.057265281677246,1.2336124181747437
858,43800.0,2.814982652664185,-9.209895133972168,1.4065934419631958
859,43900.0,2.814982652664185,-9.209895133972168,1.4065934419631958
860,44000.0,2.713827610015869,-9.019556045532227,1.1480196714401243
861,44100.0,2.713827610015869,-9.019556045532227,1.1480196714401243
862,44200.0,3.388992547988892,-8.908226013183594,0.09516951441764833
863,44300.0,3.388992547988892,-8.908226013183594,0.09516951441764833
864,44400.0,3.811569213867188,-8.394669532775879,4.064755916595459
865,44500.0,3.811569213867188,-8.394669532775879,4.064755916595459
866,44600.0,4.559158802032472,-6.995258808135986,3.519476413726806
867,44700.0,5.171475887298584,-8.345588684082031,3.2489316463470463
868,44800.0,5.171475887298584,-8.345588684082031,3.2489316463470463
869,44900.0,3.569754838943481,-7.881113529205322,3.002927541732788
870,43500.0,2.9496564865112305,-9.072827339172363,0.9786299467086792
871,43600.0,2.9496564865112305,-9.072827339172363,0.9786299467086792
872,43700.0,2.69646954536438,-9.057265281677246,1.2336124181747437
873,43800.0,2.814982652664185,-9.209895133972168,1.4065934419631958
874,43900.0,2.814982652664185,-9.209895133972168,1.4065934419631958
875,44000.0,2.713827610015869,-9.019556045532227,1.1480196714401243
876,44100.0,2.713827610015869,-9.019556045532227,1.1480196714401243
877,44200.0,3.388992547988892,-8.908226013183594,0.09516951441764833
878,44300.0,3.388992547988892,-8.908226013183594,0.09516951441764833
879,44400.0,3.811569213867188,-8.394669532775879,4.064755916595459
880,44500.0,3.811569213867188,-8.394669532775879,4.064755916595459
881,44600.0,4.559158802032472,-6.995258808135986,3.519476413726806
882,44700.0,5.171475887298584,-8.345588684082031,3.2489316463470463
883,44800.0,5.171475887298584,-8.345588684082031,3.2489316463470463
884,44900.0,3.569754838943481,-7.881113529205322,3.002927541732788
885,45000.0,3.569754838943481,-7.881113529205322,3.002927541732788
886,45100.0,3.6302082538604736,-8.189367294311522,1.108515381813049
887,45200.0,3.6302082538604736,-8.189367294311522,1.108515381813049
888,45300.0,1.3078327178955078,-8.439560890197754,-4.410717964172363
889,45400.0,1.3078327178955078,-8.439560890197754,-4.410717964172363
890,45500.0,1.0648212432861328,-9.576208114624023,0.454898327589035
891,45600.0,1.8052281141281128,-8.918999671936035,0.6177040338516235
892,45700.0,1.8052281141281128,-8.918999671936035,0.6177040338516235
893,45800.0,1.9644424915313718,-9.851541519165039,0.5303156971931458
894,45900.0,1.9644424915313718,-9.851541519165039,0.5303156971931458
895,46000.0,1.1516109704971311,-9.643844604492188,2.3971943855285645
896,46100.0,1.1516109704971311,-9.643844604492188,2.3971943855285645
897,46200.0,2.5665841102600098,-8.306682586669924,0.19393034279346466
898,46300.0,2.5665841102600098,-8.306682586669924,0.19393034279346466
899,46400.0,2.2876596450805664,-8.419210433959961,2.360682964324951
900,45000.0,3.569754838943481,-7.881113529205322,3.002927541732788
901,45100.0,3.6302082538604736,-8.189367294311522,1.108515381813049
902,45200.0,3.6302082538604736,-8.189367294311522,1.108515381813049
903,45300.0,1.3078327178955078,-8.439560890197754,-4.410717964172363
904,45400.0,1.3078327178955078,-8.439560890197754,-4.410717964172363
905,45500.0,1.0648212432861328,-9.576208114624023,0.454898327589035
906,45600.0,1.8052281141281128,-8.918999671936035,0.6177040338516235
907,45700.0,1.8052281141281128,-8.918999671936035,0.6177040338516235
908,45800.0,1.9644424915313718,-9.851541519165039,0.5303156971931458
909,45900.0,1.9644424915313718,-9.851541519165039,0.5303156971931458
910,46000.0,1.1516109704971311,-9.643844604492188,2.3971943855285645
911,46100.0,1.1516109704971311,-9.643844604492188,2.3971943855285645
912,46200.0,2.5665841102600098,-8.306682586669924,0.19393034279346466
913,46300.0,2.5665841102600098,-8.306682586669924,0.19393034279346466
914,46400.0,2.2876596450805664,-8.419210433959961,2.360682964324951
915,46500.0,2.717418909072876,-7.530961513519287,2.6372132301330566
916,46600.0,2.717418909072876,-7.530961513519287,2.6372132301330566
917,46700.0,1.4598644971847534,-10.638036727905273,2.341529369354248
918,46800.0,1.4598644971847534,-10.638036727905273,2.341529369354248
919,46900.0,2.9454667568206787,-9.748590469360352,1.5999252796173096
920,47000.0,2.9454667568206787,-9.748590469360352,1.5999252796173096
921,47100.0,2.5067291259765625,-8.9680814743042,2.617460966110229
922,47200.0,2.5067291259765625,-8.9680814743042,2.617460966110229
923,47300.0,2.7060465812683105,-8.939949035644531,2.3798365592956543
924,47400.0,2.93888258934021,-8.73105525970459,2.167949676513672
925,47500.0,2.93888258934021,-8.73105525970459,2.167949676513672
926,47600.0,2.5797524452209477,-8.782530784606934,2.6210522651672363
927,47700.0,2.5797524452209477,-8.782530784606934,2.6210522651672363
928,47800.0,1.9009962081909182,-9.174580574035645,2.7246015071868896
929,47900.0,1.9009962081909182,-9.174580574035645,2.7246015071868896
930,46500.0,2.717418909072876,-7.530961513519287,2.6372132301330566
931,46600.0,2.717418909072876,-7.530961513519287,2.6372132301330566
932,46700.0,1.4598644971847534,-10.638036727905273,2.341529369354248
933,46800.0,1.4598644971847534,-10.638036727905273,2.341529369354248
934,46900.0,2.9454667568206787,-9.748590469360352,1.5999252796173096
935,47000.0,2.9454667568206787,-9.748590469360352,1.5999252796173096
936,47100.0,2.5067291259765625,-8.9680814743042,2.617460966110229
937,47200.0,2.5067291259765625,-8.9680814743042,2.617460966110229
938,47300.0,2.7060465812683105,-8.939949035644531,2.3798365592956543
939,47400.0,2.93888258934021,-8.73105525970459,2.167949676513672
940,47500.0,2.93888258934021,-8.73105525970459,2.167949676513672
941,47600.0,2.5797524452209477,-8.782530784606934,2.6210522651672363
942,47700.0,2.5797524452209477,-8.782530784606934,2.6210522651672363
943,47800.0,1.9009962081909182,-9.174580574035645,2.7246015071868896
944,47900.0,1.9009962081909182,-9.174580574035645,2.7246015071868896
945,48000.0,2.7688941955566406,-8.711901664733888,2.3965959548950195
946,48100.0,2.7688941955566406,-8.711901664733888,2.3965959548950195
947,48200.0,2.8880057334899902,-8.924386978149414,2.167949676513672
948,48300.0,2.322375535964966,-9.012971878051758,2.1709423065185547
949,48400.0,2.322375535964966,-9.012971878051758,2.1709423065185547
950,48500.0,2.7994203567504883,-8.892065048217773,1.138442873954773
951,48600.0,2.7994203567504883,-8.892065048217773,1.138442873954773
952,48700.0,3.2088289260864262,-8.67598819732666,1.3976151943206787
953,48800.0,3.2088289260864262,-8.67598819732666,1.3976151943206787
954,48900.0,2.7509377002716064,-8.88907241821289,1.781286120414734
955,49000.0,2.7509377002716064,-8.88907241821289,1.781286120414734
956,49100.0,3.642179250717163,-8.866926193237305,1.7525556087493896
957,49200.0,3.0891187191009517,-8.80587387084961,1.8632874488830569
958,49300.0,3.0891187191009517,-8.80587387084961,1.8632874488830569
959,49400.0,4.064157485961913,-8.845976829528809,2.5965118408203125
960,48000.0,2.7688941955566406,-8.711901664733888,2.3965959548950195
961,48100.0,2.7688941955566406,-8.711901664733888,2.3965959548950195
962,48200.0,2.8880057334899902,-8.924386978149414,2.167949676513672
963,48300.0,2.322375535964966,-9.012971878051758,2.1709423065185547
964,48400.0,2.322375535964966,-9.012971878051758,2.1709423065185547
965,48500.0,2.7994203567504883,-8.892065048217773,1.138442873954773
966,48600.0,2.7994203567504883,-8.892065048217773,1.138442873954773
967,48700.0,3.2088289260864262,-8.67598819732666,1.3976151943206787
968,48800.0,3.2088289260864262,-8.67598819732666,1.3976151943206787
969,48900.0,2.7509377002716064,-8.88907241821289,1.781286120414734
970,49000.0,2.7509377002716064,-8.88907241821289,1.781286120414734
971,49100.0,3.642179250717163,-8.866926193237305,1.7525556087493896
972,49200.0,3.0891187191009517,-8.80587387084961,1.8632874488830569
973,49300.0,3.0891187191009517,-8.80587387084961,1.8632874488830569
974,49400.0,4.064157485961913,-8.845976829528809,2.5965118408203125
975,49500.0,4.064157485961913,-8.845976829528809,2.5965118408203125
976,49600.0,1.9422961473464968,-7.890091896057129,2.804807186126709
977,49700.0,1.9422961473464968,-7.890091896057129,2.804807186126709
978,49800.0,2.2373814582824707,-7.35319185256958,1.5466543436050415
979,49900.0,2.2373814582824707,-7.35319185256958,1.5466543436050415
980,50000.0,3.0418331623077397,-8.62271785736084,0.6177040338516235
981,50100.0,3.140594005584717,-8.912415504455566,1.3227964639663696
982,50200.0,3.140594005584717,-8.912415504455566,1.3227964639663696
983,50300.0,3.3315317630767822,-9.23563289642334,0.6554127335548401
984,50400.0,3.3315317630767822,-9.23563289642334,0.6554127335548401
985,50500.0,3.4207155704498287,-8.848969459533691,1.216254472732544
986,50600.0,3.4207155704498287,-8.848969459533691,1.216254472732544
987,50700.0,3.0346505641937256,-8.973467826843262,1.2755109071731567
988,50800.0,3.0346505641937256,-8.973467826843262,1.2755109071731567
989,50900.0,2.9023709297180176,-9.169792175292967,1.3503297567367554
990,49500.0,4.064157485961913,-8.845976829528809,2.5965118408203125
991,49600.0,1.9422961473464968,-7.890091896057129,2.804807186126709
992,49700.0,1.9422961473464968,-7.890091896057129,2.804807186126709
993,49800.0,2.2373814582824707,-7.35319185256958,1.5466543436050415
994,49900.0,2.2373814582824707,-7.35319185256958,1.5466543436050415
995,50000.0,3.0418331623077397,-8.62271785736084,0.6177040338516235
996,50100.0,3.140594005584717,-8.912415504455566,1.3227964639663696
997,50200.0,3.140594005584717,-8.912415504455566,1.3227964639663696
998,50300.0,3.3315317630767822,-9.23563289642334,0.6554127335548401
999,50400.0,3.3315317630767822,-9.23563289642334,0.6554127335548401
1000,50500.0,3.4207155704498287,-8.848969459533691,1.216254472732544
1001,50600.0,3.4207155704498287,-8.848969459533691,1.216254472732544
1002,50700.0,3.0346505641937256,-8.973467826843262,1.2755109071731567
1003,50800.0,3.0346505641937256,-8.973467826843262,1.2755109071731567
1004,50900.0,2.9023709297180176,-9.169792175292967,1.3503297567367554
1005,51000.0,3.123236179351806,-9.00279712677002,1.2844891548156738
1006,51100.0,3.123236179351806,-9.00279712677002,1.2844891548156738
1007,51200.0,3.7882256507873535,-8.806472778320312,1.4203602075576782
1008,51300.0,3.7882256507873535,-8.806472778320312,1.4203602075576782
1009,51400.0,4.442441463470459,-8.255207061767576,1.4006079435348509
1010,51500.0,4.442441463470459,-8.255207061767576,1.4006079435348509
1011,51600.0,2.453458309173584,-8.015189170837402,2.6892869472503658
1012,51700.0,2.453458309173584,-8.015189170837402,2.6892869472503658
1013,51800.0,3.117849111557007,-8.641871452331543,2.3367409706115723
1014,51900.0,3.5158851146698,-8.450334548950195,2.654571056365967
1015,52000.0,3.5158851146698,-8.450334548950195,2.654571056365967
1016,52100.0,2.958036184310913,-8.224681854248049,2.427121877670288
1017,52200.0,2.958036184310913,-8.224681854248049,2.427121877670288
1018,52300.0,3.345298290252685,-8.434173583984375,1.9494787454605105
1019,52400.0,3.345298290252685,-8.434173583984375,1.9494787454605105
1020,51000.0,3.123236179351806,-9.00279712677002,1.2844891548156738
1021,51100.0,3.123236179351806,-9.00279712677002,1.2844891548156738
1022,51200.0,3.7882256507873535,-8.806472778320312,1.4203602075576782
1023,51300.0,3.7882256507873535,-8.806472778320312,1.4203602075576782
1024,51400.0,4.442441463470459,-8.255207061767576,1.4006079435348509
1025,51500.0,4.442441463470459,-8.255207061767576,1.4006079435348509
1026,51600.0,2.453458309173584,-8.015189170837402,2.6892869472503658
1027,51700.0,2.453458309173584,-8.015189170837402,2.6892869472503658
1028,51800.0,3.117849111557007,-8.641871452331543,2.3367409706115723
1029,51900.0,3.5158851146698,-8.450334548950195,2.654571056365967
1030,52000.0,3.5158851146698,-8.450334548950195,2.654571056365967
1031,52100.0,2.958036184310913,-8.224681854248049,2.427121877670288
1032,52200.0,2.958036184310913,-8.224681854248049,2.427121877670288
1033,52300.0,3.345298290252685,-8.434173583984375,1.9494787454605105
1034,52400.0,3.345298290252685,-8.434173583984375,1.9494787454605105
1035,52500.0,2.8419175148010254,-8.513182640075684,0.7846996188163757
1036,52600.0,2.8419175148010254,-8.513182640075684,0.7846996188163757
1037,52700.0,0.5901707410812378,-9.81143856048584,1.2018892765045166
1038,52800.0,2.536656618118286,-9.126696586608887,0.7499836683273315
1039,52900.0,2.536656618118286,-9.126696586608887,0.7499836683273315
1040,53000.0,2.1164743900299072,-9.262567520141602,0.8655039072036743
1041,53100.0,2.1164743900299072,-9.262567520141602,0.8655039072036743
1042,53200.0,1.648407816886902,-9.28650951385498,0.8900445103645325
1043,53300.0,1.648407816886902,-9.28650951385498,0.8900445103645325
1044,53400.0,2.6581623554229736,-8.87410831451416,0.7439981698989868
1045,53500.0,2.6581623554229736,-8.87410831451416,0.7439981698989868
1046,53600.0,2.994547843933105,-9.132682800292967,0.5973533391952515
1047,53700.0,2.542642116546631,-8.937555313110352,1.1994950771331787
1048,53800.0,2.542642116546631,-8.937555313110352,1.1994950771331787
1049,53900.0,2.691082715988159,-8.60655689239502,1.5759832859039309
1050,52500.0,2.8419175148010254,-8.513182640075684,0.7846996188163757
1051,52600.0,2.8419175148010254,-8.513182640075684,0.7846996188163757
1052,52700.0,0.5901707410812378,-9.81143856048584,1.2018892765045166
1053,52800.0,2.536656618118286,-9.126696586608887,0.7499836683273315
1054,52900.0,2.536656618118286,-9.126696586608887,0.7499836683273315
1055,53000.0,2.1164743900299072,-9.262567520141602,0.8655039072036743
1056,53100.0,2.1164743900299072,-9.262567520141602,0.8655039072036743
1057,53200.0,1.648407816886902,-9.28650951385498,0.8900445103645325
1058,53300.0,1.648407816886902,-9.28650951385498,0.8900445103645325
1059,53400.0,2.6581623554229736,-8.87410831451416,0.7439981698989868
1060,53500.0,2.6581623554229736,-8.87410831451416,0.7439981698989868
1061,53600.0,2.994547843933105,-9.132682800292967,0.5973533391952515
1062,53700.0,2.542642116546631,-8.937555313110352,1.1994950771331787
1063,53800.0,2.542642116546631,-8.937555313110352,1.1994950771331787
1064,53900.0,2.691082715988159,-8.60655689239502,1.5759832859039309
1065,54000.0,2.691082715988159,-8.60655689239502,1.5759832859039309
1066,54100.0,3.231573820114136,-8.778939247131348,2.563591480255127
1067,54200.0,3.231573820114136,-8.778939247131348,2.563591480255127
1068,54300.0,3.0819361209869385,-8.60236644744873,2.297835111618042
1069,54400.0,3.0819361209869385,-8.60236644744873,2.297835111618042
1070,54500.0,2.568978309631348,-8.992621421813965,2.342726469039917
1071,54600.0,2.82515811920166,-8.782530784606934,2.1805191040039062
1072,54700.0,2.82515811920166,-8.782530784606934,2.1805191040039062
1073,54800.0,2.912546396255493,-8.911218643188477,2.0254945755004883
1074,54900.0,2.912546396255493,-8.911218643188477,2.0254945755004883
1075,55000.0,3.0735564231872563,-8.779537200927733,1.9806033372879028
1076,55100.0,3.0735564231872563,-8.779537200927733,1.9806033372879028
1077,55200.0,2.8772318363189697,-8.743025779724121,2.078166961669922
1078,55300.0,2.8772318363189697,-8.743025779724121,2.078166961669922
1079,55400.0,2.8832173347473145,-8.738836288452147,2.25473952293396
1080,54000.0,2.691082715988159,-8.60655689239502,1.5759832859039309
1081,54100.0,3.231573820114136,-8.778939247131348,2.563591480255127
1082,54200.0,3.231573820114136,-8.778939247131348,2.563591480255127
1083,54300.0,3.0819361209869385,-8.60236644744873,2.297835111618042
1084,54400.0,3.0819361209869385,-8.60236644744873,2.297835111618042
1085,54500.0,2.568978309631348,-8.992621421813965,2.342726469039917
1086,54600.0,2.82515811920166,-8.782530784606934,2.1805191040039062
1087,54700.0,2.82515811920166,-8.782530784606934,2.1805191040039062
1088,54800.0,2.912546396255493,-8.911218643188477,2.0254945755004883
1089,54900.0,2.912546396255493,-8.911218643188477,2.0254945755004883
1090,55000.0,3.0735564231872563,-8.779537200927733,1.9806033372879028
1091,55100.0,3.0735564231872563,-8.779537200927733,1.9806033372879028
1092,55200.0,2.8772318363189697,-8.743025779724121,2.078166961669922
1093,55300.0,2.8772318363189697,-8.743025779724121,2.078166961669922
1094,55400.0,2.8832173347473145,-8.738836288452147,2.25473952293396
1095,55500.0,2.653972625732422,-8.837596893310547,2.27209734916687
1096,55600.0,2.653972625732422,-8.837596893310547,2.27209734916687
1097,55700.0,2.9544448852539062,-8.892663955688477,1.8339585065841677
1098,55800.0,2.9544448852539062,-8.892663955688477,1.8339585065841677
1099,55900.0,3.1250317096710205,-8.762179374694824,1.7579425573349
1100,56000.0,3.1250317096710205,-8.762179374694824,1.7579425573349
1101,56100.0,2.8963854312896733,-8.737639427185059,1.9686323404312132
1102,56200.0,2.8963854312896733,-8.737639427185059,1.9686323404312132
1103,56300.0,2.8191723823547363,-8.67718505859375,1.7549498081207275
1104,56400.0,2.9017724990844727,-8.813055992126465,1.8944120407104488
1105,56500.0,2.9017724990844727,-8.813055992126465,1.8944120407104488
1106,56600.0,3.1585505008697514,-8.857349395751953,1.6537947654724119
1107,56700.0,3.1585505008697514,-8.857349395751953,1.6537947654724119
1108,56800.0,3.0508115291595463,-8.965087890625,1.7328034639358518
1109,56900.0,3.0508115291595463,-8.965087890625,1.7328034639358518
1110,55500.0,2.653972625732422,-8.837596893310547,2.27209734916687
1111,55600.0,2.653972625732422,-8.837596893310547,2.27209734916687
1112,55700.0,2.9544448852539062,-8.892663955688477,1.8339585065841677
1113,55800.0,2.9544448852539062,-8.892663955688477,1.8339585065841677
1114,55900.0,3.1250317096710205,-8.762179374694824,1.7579425573349
1115,56000.0,3.1250317096710205,-8.762179374694824,1.7579425573349
1116,56100.0,2.8963854312896733,-8.737639427185059,1.9686323404312132
1117,56200.0,2.8963854312896733,-8.737639427185059,1.9686323404312132
1118,56300.0,2.8191723823547363,-8.67718505859375,1.7549498081207275
1119,56400.0,2.9017724990844727,-8.813055992126465,1.8944120407104488
1120,56500.0,2.9017724990844727,-8.813055992126465,1.8944120407104488
1121,56600.0,3.1585505008697514,-8.857349395751953,1.6537947654724119
1122,56700.0,3.1585505008697514,-8.857349395751953,1.6537947654724119
1123,56800.0,3.0508115291595463,-8.965087890625,1.7328034639358518
1124,56900.0,3.0508115291595463,-8.965087890625,1.7328034639358518
1125,57000.0,2.0578162670135502,-8.556278228759767,3.2399535179138184
1126,57100.0,2.0578162670135502,-8.556278228759767,3.2399535179138184
1127,57200.0,3.6553473472595215,-7.829039573669434,1.1905168294906616
1128,57300.0,3.813364744186402,-9.113529205322266,1.6011223793029783
1129,57400.0,3.813364744186402,-9.113529205322266,1.6011223793029783
1130,57500.0,1.9345149993896484,-9.371503829956056,1.514931082725525
1131,57600.0,1.9345149993896484,-9.371503829956056,1.514931082725525
1132,57700.0,2.453458309173584,-9.73781681060791,0.7864952683448792
1133,57800.0,2.453458309173584,-9.73781681060791,0.7864952683448792
1134,57900.0,3.0113072395324707,-8.916605949401855,0.3806780576705933
1135,58000.0,3.0113072395324707,-8.916605949401855,0.3806780576705933
1136,58100.0,2.4175450801849365,-9.470264434814453,0.9433154463768004
1137,58200.0,1.7052701711654663,-9.94970417022705,0.6356605291366577
1138,58300.0,1.7052701711654663,-9.94970417022705,0.6356605291366577
1139,58400.0,2.056619167327881,-9.154230117797852,0.974440097808838
1140,57000.0,2.0578162670135502,-8.556278228759767,3.2399535179138184
1141,57100.0,2.0578162670135502,-8.556278228759767,3.2399535179138184
1142,57200.0,3.6553473472595215,-7.829039573669434,1.1905168294906616
1143,57300.0,3.813364744186402,-9.113529205322266,1.6011223793029783
1144,57400.0,3.813364744186402,-9.113529205322266,1.6011223793029783
1145,57500.0,1.9345149993896484,-9.371503829956056,1.514931082725525
1146,57600.0,1.9345149993896484,-9.371503829956056,1.514931082725525
1147,57700.0,2.453458309173584,-9.73781681060791,0.7864952683448792
1148,57800.0,2.453458309173584,-9.73781681060791,0.7864952683448792
1149,57900.0,3.0113072395324707,-8.916605949401855,0.3806780576705933
1150,58000.0,3.0113072395324707,-8.916605949401855,0.3806780576705933
1151,58100.0,2.4175450801849365,-9.470264434814453,0.9433154463768004
1152,58200.0,1.7052701711654663,-9.94970417022705,0.6356605291366577
1153,58300.0,1.7052701711654663,-9.94970417022705,0.6356605291366577
1154,58400.0,2.056619167327881,-9.154230117797852,0.974440097808838
1155,58500.0,2.056619167327881,-9.154230117797852,0.974440097808838
1156,58600.0,1.8471266031265257,-9.408015251159668,0.8882488012313843
1157,58700.0,1.8471266031265257,-9.408015251159668,0.8882488012313843
1158,58800.0,2.2637176513671875,-9.34157657623291,0.8571242094039917
1159,58900.0,2.2637176513671875,-9.34157657623291,0.8571242094039917
1160,59000.0,2.7240030765533447,-9.327211380004883,0.4632780253887177
1161,59100.0,2.0655975341796875,-9.386467933654783,1.071405291557312
1162,59200.0,2.0655975341796875,-9.386467933654783,1.071405291557312
1163,59300.0,2.427121877670288,-8.8878755569458,0.872686505317688
1164,59400.0,2.427121877670288,-8.8878755569458,0.872686505317688
1165,59500.0,2.73537540435791,-9.220070838928224,0.9133879542350768
1166,59600.0,2.73537540435791,-9.220070838928224,0.9133879542350768
1167,59700.0,2.761711597442627,-9.15542697906494,0.6386532783508301
1168,59800.0,2.761711597442627,-9.15542697906494,0.6386532783508301
1169,59900.0,2.385822057723999,-9.242815971374512,0.8218097090721129
1170,58500.0,2.056619167327881,-9.154230117797852,0.974440097808838
1171,58600.0,1.8471266031265257,-9.408015251159668,0.8882488012313843
1172,58700.0,1.8471266031265257,-9.408015251159668,0.8882488012313843
1173,58800.0,2.2637176513671875,-9.34157657623291,0.8571242094039917
1174,58900.0,2.2637176513671875,-9.34157657623291,0.8571242094039917
1175,59000.0,2.7240030765533447,-9.327211380004883,0.4632780253887177
1176,59100.0,2.0655975341796875,-9.386467933654783,1.071405291557312
1177,59200.0,2.0655975341796875,-9.386467933654783,1.071405291557312
1178,59300.0,2.427121877670288,-8.8878755569458,0.872686505317688
1179,59400.0,2.427121877670288,-8.8878755569458,0.872686505317688
1180,59500.0,2.73537540435791,-9.220070838928224,0.9133879542350768
1181,59600.0,2.73537540435791,-9.220070838928224,0.9133879542350768
1182,59700.0,2.761711597442627,-9.15542697906494,0.6386532783508301
1183,59800.0,2.761711597442627,-9.15542697906494,0.6386532783508301
1184,59900.0,2.385822057723999,-9.242815971374512,0.8218097090721129
1185,60000.0,2.52109432220459,-9.1847562789917,0.6853402256965637
1186,60100.0,2.52109432220459,-9.1847562789917,0.6853402256965637
1187,60200.0,2.429516077041626,-9.205705642700195,0.7505822181701659
1188,60300.0,2.429516077041626,-9.205705642700195,0.7505822181701659
1189,60400.0,2.6479871273040767,-9.130288124084473,0.6697779297828674
1190,60500.0,2.6479871273040767,-9.130288124084473,0.6697779297828674
1191,60600.0,2.6240451335906982,-9.216479301452637,0.812831461429596
1192,60700.0,2.6240451335906982,-9.216479301452637,0.812831461429596
1193,60800.0,2.143409013748169,-9.233837127685547,1.0504560470581057
1194,60900.0,2.867056608200073,-9.097368240356444,0.4004302322864533
1195,61000.0,2.867056608200073,-9.097368240356444,0.4004302322864533
1196,61100.0,3.0202853679656982,-9.1045503616333,0.5620388388633728
1197,61200.0,3.0202853679656982,-9.1045503616333,0.5620388388633728
1198,61300.0,2.0829553604125977,-9.117119789123537,0.9702502489089966
1199,61400.0,2.0829553604125977,-9.117119789123537,0.9702502489089966
1200,60000.0,2.52109432220459,-9.1847562789917,0.6853402256965637
1201,60100.0,2.52109432220459,-9.1847562789917,0.6853402256965637
1202,60200.0,2.429516077041626,-9.205705642700195,0.7505822181701659
1203,60300.0,2.429516077041626,-9.205705642700195,0.7505822181701659
1204,60400.0,2.6479871273040767,-9.130288124084473,0.6697779297828674
1205,60500.0,2.6479871273040767,-9.130288124084473,0.6697779297828674
1206,60600.0,2.6240451335906982,-9.216479301452637,0.812831461429596
1207,60700.0,2.6240451335906982,-9.216479301452637,0.812831461429596
1208,60800.0,2.143409013748169,-9.233837127685547,1.0504560470581057
1209,60900.0,2.867056608200073,-9.097368240356444,0.4004302322864533
1210,61000.0,2.867056608200073,-9.097368240356444,0.4004302322864533
1211,61100.0,3.0202853679656982,-9.1045503616333,0.5620388388633728
1212,61200.0,3.0202853679656982,-9.1045503616333,0.5620388388633728
1213,61300.0,2.0829553604125977,-9.117119789123537,0.9702502489089966
1214,61400.0,2.0829553604125977,-9.117119789123537,0.9702502489089966
1215,61500.0,2.6348190307617188,-9.170989990234377,0.7194576263427734
1216,61600.0,2.6348190307617188,-9.170989990234377,0.7194576263427734
1217,61700.0,1.9776105880737305,-9.525331497192383,0.8313865661621094
1218,61800.0,2.124255418777466,-9.23443603515625,0.5422866940498352
1219,61900.0,2.124255418777466,-9.23443603515625,0.5422866940498352
1220,62000.0,2.761711597442627,-9.453505516052246,0.8086416125297546
1221,62100.0,2.761711597442627,-9.453505516052246,0.8086416125297546
1222,62200.0,2.9047651290893555,-9.20929718017578,0.5524620413780212
1223,62300.0,2.9047651290893555,-9.20929718017578,0.5524620413780212
1224,62400.0,3.669114112854004,-8.752602577209473,0.6206967830657959
1225,62500.0,3.669114112854004,-8.752602577209473,0.6206967830657959
1226,62600.0,3.8941690921783447,-8.547898292541504,0.33339259028434753
1227,62700.0,3.619434356689453,-8.968679428100586,1.173158884048462
1228,62800.0,3.619434356689453,-8.968679428100586,1.173158884048462
1229,62900.0,4.022857189178467,-9.185953140258787,1.2946646213531494
1230,61500.0,2.6348190307617188,-9.170989990234377,0.7194576263427734
1231,61600.0,2.6348190307617188,-9.170989990234377,0.7194576263427734
1232,61700.0,1.9776105880737305,-9.525331497192383,0.8313865661621094
1233,61800.0,2.124255418777466,-9.23443603515625,0.5422866940498352
1234,61900.0,2.124255418777466,-9.23443603515625,0.5422866940498352
1235,62000.0,2.761711597442627,-9.453505516052246,0.8086416125297546
1236,62100.0,2.761711597442627,-9.453505516052246,0.8086416125297546
1237,62200.0,2.9047651290893555,-9.20929718017578,0.5524620413780212
1238,62300.0,2.9047651290893555,-9.20929718017578,0.5524620413780212
1239,62400.0,3.669114112854004,-8.752602577209473,0.6206967830657959
1240,62500.0,3.669114112854004,-8.752602577209473,0.6206967830657959
1241,62600.0,3.8941690921783447,-8.547898292541504,0.33339259028434753
1242,62700.0,3.619434356689453,-8.968679428100586,1.173158884048462
1243,62800.0,3.619434356689453,-8.968679428100586,1.173158884048462
1244,62900.0,4.022857189178467,-9.185953140258787,1.2946646213531494
1245,63000.0,4.022857189178467,-9.185953140258787,1.2946646213531494
1246,63100.0,3.2100260257720947,-9.060855865478516,1.0863690376281738
1247,63200.0,3.2100260257720947,-9.060855865478516,1.0863690376281738
1248,63300.0,3.1705214977264404,-8.967482566833496,0.9367313981056212
1249,63400.0,3.1705214977264404,-8.967482566833496,0.9367313981056212
1250,63500.0,3.001131772994995,-8.88907241821289,0.8571242094039917
1251,63600.0,3.4775779247283936,-8.85794734954834,0.6536170840263367
1252,63700.0,3.4775779247283936,-8.85794734954834,0.6536170840263367
1253,63800.0,2.96162748336792,-9.07222843170166,0.7936778664588928
1254,63900.0,2.96162748336792,-9.07222843170166,0.7936778664588928
1255,64000.0,1.3251906633377075,-9.43914031982422,1.6059107780456543
1256,64100.0,1.3251906633377075,-9.43914031982422,1.6059107780456543
1257,64200.0,3.135207176208496,-9.1045503616333,0.3908534348011017
1258,64300.0,3.135207176208496,-9.1045503616333,0.3908534348011017
1259,64400.0,1.9009962081909182,-9.397241592407227,0.13706804811954498
1260,63000.0,4.022857189178467,-9.185953140258787,1.2946646213531494
1261,63100.0,3.2100260257720947,-9.060855865478516,1.0863690376281738
1262,63200.0,3.2100260257720947,-9.060855865478516,1.0863690376281738
1263,63300.0,3.1705214977264404,-8.967482566833496,0.9367313981056212
1264,63400.0,3.1705214977264404,-8.967482566833496,0.9367313981056212
1265,63500.0,3.001131772994995,-8.88907241821289,0.8571242094039917
1266,63600.0,3.4775779247283936,-8.85794734954834,0.6536170840263367
1267,63700.0,3.4775779247283936,-8.85794734954834,0.6536170840263367
1268,63800.0,2.96162748336792,-9.07222843170166,0.7936778664588928
1269,63900.0,2.96162748336792,-9.07222843170166,0.7936778664588928
1270,64000.0,1.3251906633377075,-9.43914031982422,1.6059107780456543
1271,64100.0,1.3251906633377075,-9.43914031982422,1.6059107780456543
1272,64200.0,3.135207176208496,-9.1045503616333,0.3908534348011017
1273,64300.0,3.135207176208496,-9.1045503616333,0.3908534348011017
1274,64400.0,1.9009962081909182,-9.397241592407227,0.13706804811954498
1275,64500.0,1.8602946996688845,-9.418190956115724,0.5698199868202211
1276,64600.0,1.8602946996688845,-9.418190956115724,0.5698199868202211
1277,64700.0,0.5871779918670654,-9.641449928283693,0.4776432514190674
1278,64800.0,0.5871779918670654,-9.641449928283693,0.4776432514190674
1279,64900.0,1.22642982006073,-9.552266120910645,0.6769605278968811
1280,65000.0,1.22642982006073,-9.552266120910645,0.6769605278968811
1281,65100.0,1.0630255937576294,-9.46487808227539,0.3866635859012604
1282,65200.0,1.0630255937576294,-9.46487808227539,0.3866635859012604
1283,65300.0,1.600523829460144,-9.684545516967773,0.8032546639442444
1284,65400.0,1.600523829460144,-9.684545516967773,0.8032546639442444
1285,65500.0,3.3010056018829346,-8.488641738891603,0.3148375153541565
1286,65600.0,3.0663738250732417,-9.84376049041748,2.8233623504638667
1287,65700.0,3.0663738250732417,-9.84376049041748,2.8233623504638667
1288,65800.0,2.757521867752075,-6.841431140899657,2.457049608230591
1289,65900.0,2.757521867752075,-6.841431140899657,2.457049608230591
1290,64500.0,1.8602946996688845,-9.418190956115724,0.5698199868202211
1291,64600.0,1.8602946996688845,-9.418190956115724,0.5698199868202211
1292,64700.0,0.5871779918670654,-9.641449928283693,0.4776432514190674
1293,64800.0,0.5871779918670654,-9.641449928283693,0.4776432514190674
1294,64900.0,1.22642982006073,-9.552266120910645,0.6769605278968811
1295,65000.0,1.22642982006073,-9.552266120910645,0.6769605278968811
1296,65100.0,1.0630255937576294,-9.46487808227539,0.3866635859012604
1297,65200.0,1.0630255937576294,-9.46487808227539,0.3866635859012604
1298,65300.0,1.600523829460144,-9.684545516967773,0.8032546639442444
1299,65400.0,1.600523829460144,-9.684545516967773,0.8032546639442444
1300,65500.0,3.3010056018829346,-8.488641738891603,0.3148375153541565
1301,65600.0,3.0663738250732417,-9.84376049041748,2.8233623504638667
1302,65700.0,3.0663738250732417,-9.84376049041748,2.8233623504638667
1303,65800.0,2.757521867752075,-6.841431140899657,2.457049608230591
1304,65900.0,2.757521867752075,-6.841431140899657,2.457049608230591
1305,66000.0,4.2305545806884775,-8.212710380554201,3.4356794357299805
1306,66100.0,4.2305545806884775,-8.212710380554201,3.4356794357299805
1307,66200.0,3.133411407470703,-8.67598819732666,4.420294761657715
1308,66300.0,3.133411407470703,-8.67598819732666,4.420294761657715
1309,66400.0,3.7122097015380864,-7.9655089378356925,3.511695384979248
1310,66500.0,3.867832899093628,-7.720701694488525,3.597886562347412
1311,66600.0,3.867832899093628,-7.720701694488525,3.597886562347412
1312,66700.0,3.4243068695068364,-7.359776020050049,2.9233202934265137
1313,66800.0,3.4243068695068364,-7.359776020050049,2.9233202934265137
1314,66900.0,8.255805969238281,-13.096881866455078,2.3122003078460693
1315,67000.0,8.255805969238281,-13.096881866455078,2.3122003078460693
1316,67100.0,4.310760021209717,-10.459070205688477,3.831321239471436
1317,67200.0,2.607285737991333,-10.24119758605957,3.044826030731201
1318,67300.0,2.607285737991333,-10.24119758605957,3.044826030731201
1319,67400.0,2.3241713047027592,-9.479243278503418,0.4908113479614258
1320,66000.0,4.2305545806884775,-8.212710380554201,3.4356794357299805
1321,66100.0,4.2305545806884775,-8.212710380554201,3.4356794357299805
1322,66200.0,3.133411407470703,-8.67598819732666,4.420294761657715
1323,66300.0,3.133411407470703,-8.67598819732666,4.420294761657715
1324,66400.0,3.7122097015380864,-7.9655089378356925,3.511695384979248
1325,66500.0,3.867832899093628,-7.720701694488525,3.597886562347412
1326,66600.0,3.867832899093628,-7.720701694488525,3.597886562347412
1327,66700.0,3.4243068695068364,-7.359776020050049,2.9233202934265137
1328,66800.0,3.4243068695068364,-7.359776020050049,2.9233202934265137
1329,66900.0,8.255805969238281,-13.096881866455078,2.3122003078460693
1330,67000.0,8.255805969238281,-13.096881866455078,2.3122003078460693
1331,67100.0,4.310760021209717,-10.459070205688477,3.831321239471436
1332,67200.0,2.607285737991333,-10.24119758605957,3.044826030731201
1333,67300.0,2.607285737991333,-10.24119758605957,3.044826030731201
1334,67400.0,2.3241713047027592,-9.479243278503418,0.4908113479614258
1335,67500.0,2.3241713047027592,-9.479243278503418,0.4908113479614258
1336,67600.0,2.2475569248199463,-9.05247688293457,0.30286651849746704
1337,67700.0,2.2475569248199463,-9.05247688293457,0.30286651849746704
1338,67800.0,1.942894697189331,-9.358335494995117,0.2861070930957794
1339,67900.0,1.942894697189331,-9.358335494995117,0.2861070930957794
1340,68000.0,2.273294448852539,-9.30386734008789,0.6673837304115295
1341,68100.0,1.7633295059204102,-9.48343276977539,0.7990648150444031
1342,68200.0,1.7633295059204102,-9.48343276977539,0.7990648150444031
1343,68300.0,1.5951368808746338,-9.263765335083008,1.2767080068588257
1344,68400.0,1.5951368808746338,-9.263765335083008,1.2767080068588257
1345,68500.0,1.7292121648788452,-9.710882186889648,0.9307458996772766
1346,68600.0,1.7292121648788452,-9.710882186889648,0.9307458996772766
1347,68700.0,2.7694928646087646,-8.865729331970215,1.734000563621521
1348,68800.0,2.7694928646087646,-8.865729331970215,1.734000563621521
1349,68900.0,2.6390087604522705,-8.913613319396973,2.188300371170044
1350,67500.0,2.3241713047027592,-9.479243278503418,0.4908113479614258
1351,67600.0,2.2475569248199463,-9.05247688293457,0.30286651849746704
1352,67700.0,2.2475569248199463,-9.05247688293457,0.30286651849746704
1353,67800.0,1.942894697189331,-9.358335494995117,0.2861070930957794
1354,67900.0,1.942894697189331,-9.358335494995117,0.2861070930957794
1355,68000.0,2.273294448852539,-9.30386734008789,0.6673837304115295
1356,68100.0,1.7633295059204102,-9.48343276977539,0.7990648150444031
1357,68200.0,1.7633295059204102,-9.48343276977539,0.7990648150444031
1358,68300.0,1.5951368808746338,-9.263765335083008,1.2767080068588257
1359,68400.0,1.5951368808746338,-9.263765335083008,1.2767080068588257
1360,68500.0,1.7292121648788452,-9.710882186889648,0.9307458996772766
1361,68600.0,1.7292121648788452,-9.710882186889648,0.9307458996772766
1362,68700.0,2.7694928646087646,-8.865729331970215,1.734000563621521
1363,68800.0,2.7694928646087646,-8.865729331970215,1.734000563621521
1364,68900.0,2.6390087604522705,-8.913613319396973,2.188300371170044
1365,69000.0,2.6390087604522705,-8.913613319396973,2.188300371170044
1366,69100.0,2.845508813858032,-8.87171459197998,2.2242133617401123
1367,69200.0,2.651578426361084,-8.939350128173828,1.9291280508041384
1368,69300.0,2.651578426361084,-8.939350128173828,1.9291280508041384
1369,69400.0,2.7904419898986816,-8.859145164489746,1.8716671466827397
1370,69500.0,2.7904419898986816,-8.859145164489746,1.8716671466827397
1371,69600.0,2.560598611831665,-8.910619735717773,1.4562731981277466
1372,69700.0,2.560598611831665,-8.910619735717773,1.4562731981277466
1373,69800.0,1.8561048507690432,-9.460089683532717,1.918952703475952
1374,69900.0,1.8561048507690432,-9.460089683532717,1.918952703475952
1375,70000.0,2.949058055877685,-8.846575736999512,1.590348482131958
1376,70100.0,2.69646954536438,-8.944737434387207,1.3617022037506104
1377,70200.0,2.69646954536438,-8.944737434387207,1.3617022037506104
1378,70300.0,2.6761188507080083,-9.027337074279783,1.5233107805252075
1379,70400.0,2.6761188507080083,-9.027337074279783,1.5233107805252075
1380,69000.0,2.6390087604522705,-8.913613319396973,2.188300371170044
1381,69100.0,2.845508813858032,-8.87171459197998,2.2242133617401123
1382,69200.0,2.651578426361084,-8.939350128173828,1.9291280508041384
1383,69300.0,2.651578426361084,-8.939350128173828,1.9291280508041384
1384,69400.0,2.7904419898986816,-8.859145164489746,1.8716671466827397
1385,69500.0,2.7904419898986816,-8.859145164489746,1.8716671466827397
1386,69600.0,2.560598611831665,-8.910619735717773,1.4562731981277466
1387,69700.0,2.560598611831665,-8.910619735717773,1.4562731981277466
1388,69800.0,1.8561048507690432,-9.460089683532717,1.918952703475952
1389,69900.0,1.8561048507690432,-9.460089683532717,1.918952703475952
1390,70000.0,2.949058055877685,-8.846575736999512,1.590348482131958
1391,70100.0,2.69646954536438,-8.944737434387207,1.3617022037506104
1392,70200.0,2.69646954536438,-8.944737434387207,1.3617022037506104
1393,70300.0,2.6761188507080083,-9.027337074279783,1.5233107805252075
1394,70400.0,2.6761188507080083,-9.027337074279783,1.5233107805252075
1395,70500.0,2.96701455116272,-8.933364868164062,1.4879963397979736
1396,70600.0,2.96701455116272,-8.933364868164062,1.4879963397979736
1397,70700.0,2.5288755893707275,-9.051877975463867,1.533486247062683
1398,70800.0,2.5288755893707275,-9.051877975463867,1.533486247062683
1399,70900.0,2.472013235092163,-9.072827339172363,1.7046716213226318
1400,71000.0,2.853888511657715,-8.938153266906738,1.7310078144073486
1401,71100.0,2.853888511657715,-8.938153266906738,1.7310078144073486
1402,71200.0,2.43011474609375,-9.15004062652588,2.39120888710022
1403,71300.0,2.43011474609375,-9.15004062652588,2.39120888710022
1404,71400.0,2.204461097717285,-9.123106002807617,2.0494365692138667
1405,71500.0,2.204461097717285,-9.123106002807617,2.0494365692138667
1406,71600.0,2.827552318572998,-8.738237380981445,2.3942017555236816
1407,71700.0,2.827552318572998,-8.738237380981445,2.3942017555236816
1408,71800.0,2.543240785598755,-8.814851760864258,2.5911247730255127
1409,71900.0,3.426701068878174,-8.969876289367676,3.123236179351806
1410,70500.0,2.96701455116272,-8.933364868164062,1.4879963397979736
1411,70600.0,2.96701455116272,-8.933364868164062,1.4879963397979736
1412,70700.0,2.5288755893707275,-9.051877975463867,1.533486247062683
1413,70800.0,2.5288755893707275,-9.051877975463867,1.533486247062683
1414,70900.0,2.472013235092163,-9.072827339172363,1.7046716213226318
1415,71000.0,2.853888511657715,-8.938153266906738,1.7310078144073486
1416,71100.0,2.853888511657715,-8.938153266906738,1.7310078144073486
1417,71200.0,2.43011474609375,-9.15004062652588,2.39120888710022
1418,71300.0,2.43011474609375,-9.15004062652588,2.39120888710022
1419,71400.0,2.204461097717285,-9.123106002807617,2.0494365692138667
1420,71500.0,2.204461097717285,-9.123106002807617,2.0494365692138667
1421,71600.0,2.827552318572998,-8.738237380981445,2.3942017555236816
1422,71700.0,2.827552318572998,-8.738237380981445,2.3942017555236816
1423,71800.0,2.543240785598755,-8.814851760864258,2.5911247730255127
1424,71900.0,3.426701068878174,-8.969876289367676,3.123236179351806
1425,72000.0,3.426701068878174,-8.969876289367676,3.123236179351806
1426,72100.0,0.7733271718025208,-7.762001991271973,3.3578679561614986
1427,72200.0,0.7733271718025208,-7.762001991271973,3.3578679561614986
1428,72300.0,4.446630954742432,-10.54406452178955,2.8784289360046387
1429,72400.0,4.446630954742432,-10.54406452178955,2.8784289360046387
1430,72500.0,2.5079262256622314,-9.90361499786377,1.9949685335159304
1431,72600.0,2.5079262256622314,-9.90361499786377,1.9949685335159304
1432,72700.0,3.4829649925231934,-8.659229278564451,0.951695203781128
1433,72800.0,2.584540843963623,-9.271546363830566,0.4716577231884002
1434,72900.0,2.584540843963623,-9.271546363830566,0.4716577231884002
1435,73000.0,2.9735984802246094,-9.062651634216307,1.060032844543457
1436,73100.0,2.9735984802246094,-9.062651634216307,1.060032844543457
1437,73200.0,2.079364061355591,-9.430760383605957,0.9014169573783876
1438,73300.0,2.079364061355591,-9.430760383605957,0.9014169573783876
1439,73400.0,3.775057554244995,-8.950124740600586,0.6272808313369751
1440,72000.0,3.426701068878174,-8.969876289367676,3.123236179351806
1441,72100.0,0.7733271718025208,-7.762001991271973,3.3578679561614986
1442,72200.0,0.7733271718025208,-7.762001991271973,3.3578679561614986
1443,72300.0,4.446630954742432,-10.54406452178955,2.8784289360046387
1444,72400.0,4.446630954742432,-10.54406452178955,2.8784289360046387
1445,72500.0,2.5079262256622314,-9.90361499786377,1.9949685335159304
1446,72600.0,2.5079262256622314,-9.90361499786377,1.9949685335159304
1447,72700.0,3.4829649925231934,-8.659229278564451,0.951695203781128
1448,72800.0,2.584540843963623,-9.271546363830566,0.4716577231884002
1449,72900.0,2.584540843963623,-9.271546363830566,0.4716577231884002
1450,73000.0,2.9735984802246094,-9.062651634216307,1.060032844543457
1451,73100.0,2.9735984802246094,-9.062651634216307,1.060032844543457
1452,73200.0,2.079364061355591,-9.430760383605957,0.9014169573783876
1453,73300.0,2.079364061355591,-9.430760383605957,0.9014169573783876
1454,73400.0,3.775057554244995,-8.950124740600586,0.6272808313369751
1455,73500.0,3.775057554244995,-8.950124740600586,0.6272808313369751
1456,73600.0,3.0137014389038086,-8.974664688110352,1.1713632345199585
1457,73700.0,2.1529858112335205,-9.125499725341797,1.3521254062652588
1458,73800.0,2.1529858112335205,-9.125499725341797,1.3521254062652588
1459,73900.0,2.96701455116272,-9.11831760406494,1.6472107172012331
1460,74000.0,2.96701455116272,-9.11831760406494,1.6472107172012331
1461,74100.0,2.523488521575928,-9.114726066589355,1.2449848651885986
1462,74200.0,2.523488521575928,-9.114726066589355,1.2449848651885986
1463,74300.0,3.2345664501190186,-9.05367374420166,1.0696096420288086
1464,74400.0,3.2345664501190186,-9.05367374420166,1.0696096420288086
1465,74500.0,2.8101942539215092,-9.131484985351564,0.8056488633155823
1466,74600.0,3.0101101398468018,-8.921992301940918,0.6560112833976746
1467,74700.0,3.0101101398468018,-8.921992301940918,0.6560112833976746
1468,74800.0,2.1027076244354252,-9.069235801696776,1.7310078144073486
1469,74900.0,2.1027076244354252,-9.069235801696776,1.7310078144073486
1470,73500.0,3.775057554244995,-8.950124740600586,0.6272808313369751
1471,73600.0,3.0137014389038086,-8.974664688110352,1.1713632345199585
1472,73700.0,2.1529858112335205,-9.125499725341797,1.3521254062652588
1473,73800.0,2.1529858112335205,-9.125499725341797,1.3521254062652588
1474,73900.0,2.96701455116272,-9.11831760406494,1.6472107172012331
1475,74000.0,2.96701455116272,-9.11831760406494,1.6472107172012331
1476,74100.0,2.523488521575928,-9.114726066589355,1.2449848651885986
1477,74200.0,2.523488521575928,-9.114726066589355,1.2449848651885986
1478,74300.0,3.2345664501190186,-9.05367374420166,1.0696096420288086
1479,74400.0,3.2345664501190186,-9.05367374420166,1.0696096420288086
1480,74500.0,2.8101942539215092,-9.131484985351564,0.8056488633155823
1481,74600.0,3.0101101398468018,-8.921992301940918,0.6560112833976746
1482,74700.0,3.0101101398468018,-8.921992301940918,0.6560112833976746
1483,74800.0,2.1027076244354252,-9.069235801696776,1.7310078144073486
1484,74900.0,2.1027076244354252,-9.069235801696776,1.7310078144073486
1485,75000.0,2.683301448822021,-9.063849449157717,1.215057373046875
1486,75100.0,2.683301448822021,-9.063849449157717,1.215057373046875
1487,75200.0,3.126228809356689,-8.777143478393555,1.0851719379425049
1488,75300.0,3.126228809356689,-8.777143478393555,1.0851719379425049
1489,75400.0,1.2659341096878052,-9.01895809173584,0.6224924325942993
1490,75500.0,3.260902643203736,-8.495824813842772,0.7451952695846558
1491,75600.0,3.260902643203736,-8.495824813842772,0.7451952695846558
1492,75700.0,1.2521674633026123,-10.560225486755373,-1.0552444458007812
1493,75800.0,1.2521674633026123,-10.560225486755373,-1.0552444458007812
1494,75900.0,3.952826976776123,-8.847772598266602,1.5364789962768557
1495,76000.0,3.952826976776123,-8.847772598266602,1.5364789962768557
1496,76100.0,2.6593594551086426,-8.646659851074219,2.7928361892700195
1497,76200.0,2.6593594551086426,-8.646659851074219,2.7928361892700195
1498,76300.0,3.468599796295166,-7.685986042022705,3.5954923629760738
1499,76400.0,3.05260705947876,-8.37192440032959,1.8770540952682493
1500,75000.0,2.683301448822021,-9.063849449157717,1.215057373046875
1501,75100.0,2.683301448822021,-9.063849449157717,1.215057373046875
1502,75200.0,3.126228809356689,-8.777143478393555,1.0851719379425049
1503,75300.0,3.126228809356689,-8.777143478393555,1.0851719379425049
1504,75400.0,1.2659341096878052,-9.01895809173584,0.6224924325942993
1505,75500.0,3.260902643203736,-8.495824813842772,0.7451952695846558
1506,75600.0,3.260902643203736,-8.495824813842772,0.7451952695846558
1507,75700.0,1.2521674633026123,-10.560225486755373,-1.0552444458007812
1508,75800.0,1.2521674633026123,-10.560225486755373,-1.0552444458007812
1509,75900.0,3.952826976776123,-8.847772598266602,1.5364789962768557
1510,76000.0,3.952826976776123,-8.847772598266602,1.5364789962768557
1511,76100.0,2.6593594551086426,-8.646659851074219,2.7928361892700195
1512,76200.0,2.6593594551086426,-8.646659851074219,2.7928361892700195
1513,76300.0,3.468599796295166,-7.685986042022705,3.5954923629760738
1514,76400.0,3.05260705947876,-8.37192440032959,1.8770540952682493
1515,76500.0,3.05260705947876,-8.37192440032959,1.8770540952682493
1516,76600.0,3.0849289894104004,-9.3643217086792,2.093130826950073
1517,76700.0,3.0849289894104004,-9.3643217086792,2.093130826950073
1518,76800.0,2.855085611343384,-9.209895133972168,1.1863269805908203
1519,76900.0,2.855085611343384,-9.209895133972168,1.1863269805908203
1520,77000.0,1.7405846118927002,-9.436745643615724,1.095347285270691
1521,77100.0,1.7405846118927002,-9.436745643615724,1.095347285270691
1522,77200.0,1.103128433227539,-9.727043151855467,0.7284358739852905
1523,77300.0,2.3702597618103027,-9.317035675048828,0.8804676532745361
1524,77400.0,2.3702597618103027,-9.317035675048828,0.8804676532745361
1525,77500.0,2.1314380168914795,-9.468469619750977,0.8696937561035156
1526,77600.0,2.1314380168914795,-9.468469619750977,0.8696937561035156
1527,77700.0,1.5544354915618896,-9.296685218811037,0.7451952695846558
1528,77800.0,1.5544354915618896,-9.296685218811037,0.7451952695846558
1529,77900.0,2.5252842903137207,-9.285911560058594,1.234210968017578
1530,76500.0,3.05260705947876,-8.37192440032959,1.8770540952682493
1531,76600.0,3.0849289894104004,-9.3643217086792,2.093130826950073
1532,76700.0,3.0849289894104004,-9.3643217086792,2.093130826950073
1533,76800.0,2.855085611343384,-9.209895133972168,1.1863269805908203
1534,76900.0,2.855085611343384,-9.209895133972168,1.1863269805908203
1535,77000.0,1.7405846118927002,-9.436745643615724,1.095347285270691
1536,77100.0,1.7405846118927002,-9.436745643615724,1.095347285270691
1537,77200.0,1.103128433227539,-9.727043151855467,0.7284358739852905
1538,77300.0,2.3702597618103027,-9.317035675048828,0.8804676532745361
1539,77400.0,2.3702597618103027,-9.317035675048828,0.8804676532745361
1540,77500.0,2.1314380168914795,-9.468469619750977,0.8696937561035156
1541,77600.0,2.1314380168914795,-9.468469619750977,0.8696937561035156
1542,77700.0,1.5544354915618896,-9.296685218811037,0.7451952695846558
1543,77800.0,1.5544354915618896,-9.296685218811037,0.7451952695846558
1544,77900.0,2.5252842903137207,-9.285911560058594,1.234210968017578
1545,78000.0,2.5252842903137207,-9.285911560058594,1.234210968017578
1546,78100.0,2.384026288986206,-9.245808601379396,0.6500257849693298
1547,78200.0,2.6874914169311523,-9.205705642700195,0.801459014415741
1548,78300.0,2.6874914169311523,-9.205705642700195,0.801459014415741
1549,78400.0,2.1278467178344727,-9.421782493591307,0.9475052952766418
1550,78500.0,2.1278467178344727,-9.421782493591307,0.9475052952766418
1551,78600.0,2.052429437637329,-9.437344551086426,0.7326257228851318
1552,78700.0,2.052429437637329,-9.437344551086426,0.7326257228851318
1553,78800.0,2.484582901000977,-9.34157657623291,0.74040687084198
1554,78900.0,2.484582901000977,-9.34157657623291,0.74040687084198
1555,79000.0,2.276885747909546,-9.244611740112305,0.7212532758712769
1556,79100.0,2.896984100341797,-9.50617790222168,0.9510966539382936
1557,79200.0,2.896984100341797,-9.50617790222168,0.9510966539382936
1558,79300.0,2.9993362426757812,-8.779537200927733,1.0259153842926023
1559,79400.0,2.9993362426757812,-8.779537200927733,1.0259153842926023
1560,78000.0,2.5252842903137207,-9.285911560058594,1.234210968017578
1561,78100.0,2.384026288986206,-9.245808601379396,0.6500257849693298
1562,78200.0,2.6874914169311523,-9.205705642700195,0.801459014415741
1563,78300.0,2.6874914169311523,-9.205705642700195,0.801459014415741
1564,78400.0,2.1278467178344727,-9.421782493591307,0.9475052952766418
1565,78500.0,2.1278467178344727,-9.421782493591307,0.9475052952766418
1566,78600.0,2.052429437637329,-9.437344551086426,0.7326257228851318
1567,78700.0,2.052429437637329,-9.437344551086426,0.7326257228851318
1568,78800.0,2.484582901000977,-9.34157657623291,0.74040687084198
1569,78900.0,2.484582901000977,-9.34157657623291,0.74040687084198
1570,79000.0,2.276885747909546,-9.244611740112305,0.7212532758712769
1571,79100.0,2.896984100341797,-9.50617790222168,0.9510966539382936
1572,79200.0,2.896984100341797,-9.50617790222168,0.9510966539382936
1573,79300.0,2.9993362426757812,-8.779537200927733,1.0259153842926023
1574,79400.0,2.9993362426757812,-8.779537200927733,1.0259153842926023
1575,79500.0,1.9841946363449097,-8.647856712341309,1.3311761617660522
1576,79600.0,1.9841946363449097,-8.647856712341309,1.3311761617660522
1577,79700.0,2.2397756576538086,-8.965686798095703,1.0396820306777954
1578,79800.0,2.2397756576538086,-8.965686798095703,1.0396820306777954
1579,79900.0,1.7375918626785278,-9.40741729736328,1.493383288383484
1580,80000.0,1.9405004978179927,-9.314641952514648,0.8852560520172119
1581,80100.0,1.9405004978179927,-9.314641952514648,0.8852560520172119
1582,80200.0,2.160168409347534,-9.479243278503418,0.7260416746139526
1583,80300.0,2.160168409347534,-9.479243278503418,0.7260416746139526
1584,80400.0,1.6723499298095703,-9.39365005493164,0.8026561141014099
1585,80500.0,1.6723499298095703,-9.39365005493164,0.8026561141014099
1586,80600.0,1.3886369466781616,-9.671976089477539,0.4572925269603729
1587,80700.0,1.3886369466781616,-9.671976089477539,0.4572925269603729
1588,80800.0,0.871489405632019,-9.39365005493164,0.5303156971931458
1589,80900.0,1.759738206863403,-9.245209693908693,1.1222820281982422
1590,79500.0,1.9841946363449097,-8.647856712341309,1.3311761617660522
1591,79600.0,1.9841946363449097,-8.647856712341309,1.3311761617660522
1592,79700.0,2.2397756576538086,-8.965686798095703,1.0396820306777954
1593,79800.0,2.2397756576538086,-8.965686798095703,1.0396820306777954
1594,79900.0,1.7375918626785278,-9.40741729736328,1.493383288383484
1595,80000.0,1.9405004978179927,-9.314641952514648,0.8852560520172119
1596,80100.0,1.9405004978179927,-9.314641952514648,0.8852560520172119
1597,80200.0,2.160168409347534,-9.479243278503418,0.7260416746139526
1598,80300.0,2.160168409347534,-9.479243278503418,0.7260416746139526
1599,80400.0,1.6723499298095703,-9.39365005493164,0.8026561141014099
1600,80500.0,1.6723499298095703,-9.39365005493164,0.8026561141014099
1601,80600.0,1.3886369466781616,-9.671976089477539,0.4572925269603729
1602,80700.0,1.3886369466781616,-9.671976089477539,0.4572925269603729
1603,80800.0,0.871489405632019,-9.39365005493164,0.5303156971931458
1604,80900.0,1.759738206863403,-9.245209693908693,1.1222820281982422
1605,81000.0,1.759738206863403,-9.245209693908693,1.1222820281982422
1606,81100.0,2.2068555355072017,-9.468469619750977,0.7769184708595276
1607,81200.0,2.2068555355072017,-9.468469619750977,0.7769184708595276
1608,81300.0,2.782062292098999,-9.244012832641602,0.2436100244522095
1609,81400.0,2.782062292098999,-9.244012832641602,0.2436100244522095
1610,81500.0,1.972822189331055,-9.220070838928224,0.6943184733390808
1611,81600.0,1.972822189331055,-9.220070838928224,0.6943184733390808
1612,81700.0,2.61087703704834,-9.43375301361084,0.5578489899635315
1613,81800.0,1.5658079385757446,-9.366117477416992,0.2657563984394073
1614,81900.0,1.5658079385757446,-9.366117477416992,0.2657563984394073
1615,82000.0,2.3774423599243164,-9.352949142456056,0.333991140127182
1616,82100.0,2.3774423599243164,-9.352949142456056,0.333991140127182
1617,82200.0,2.7670986652374268,-9.337985038757324,-0.6009446382522583
1618,82300.0,2.7670986652374268,-9.337985038757324,-0.6009446382522583
1619,82400.0,1.868674397468567,-9.399636268615724,0.6715735793113708
1620,81000.0,1.759738206863403,-9.245209693908693,1.1222820281982422
1621,81100.0,2.2068555355072017,-9.468469619750977,0.7769184708595276
1622,81200.0,2.2068555355072017,-9.468469619750977,0.7769184708595276
1623,81300.0,2.782062292098999,-9.244012832641602,0.2436100244522095
1624,81400.0,2.782062292098999,-9.244012832641602,0.2436100244522095
1625,81500.0,1.972822189331055,-9.220070838928224,0.6943184733390808
1626,81600.0,1.972822189331055,-9.220070838928224,0.6943184733390808
1627,81700.0,2.61087703704834,-9.43375301361084,0.5578489899635315
1628,81800.0,1.5658079385757446,-9.366117477416992,0.2657563984394073
1629,81900.0,1.5658079385757446,-9.366117477416992,0.2657563984394073
1630,82000.0,2.3774423599243164,-9.352949142456056,0.333991140127182
1631,82100.0,2.3774423599243164,-9.352949142456056,0.333991140127182
1632,82200.0,2.7670986652374268,-9.337985038757324,-0.6009446382522583
1633,82300.0,2.7670986652374268,-9.337985038757324,-0.6009446382522583
1634,82400.0,1.868674397468567,-9.399636268615724,0.6715735793113708
1635,82500.0,1.868674397468567,-9.399636268615724,0.6715735793113708
1636,82600.0,2.6437971591949463,-9.207501411437988,0.6314706802368164
1637,82700.0,2.294243812561035,-9.336788177490234,0.4944026470184326
1638,82800.0,2.294243812561035,-9.336788177490234,0.4944026470184326
1639,82900.0,2.492363929748535,-9.32421875,0.6643909811973572
1640,83000.0,2.492363929748535,-9.32421875,0.6643909811973572
1641,83100.0,3.026270866394043,-9.208099365234377,0.008379706181585789
1642,83200.0,3.026270866394043,-9.208099365234377,0.008379706181585789
1643,83300.0,2.100912094116211,-9.379284858703613,0.6093243360519409
1644,83400.0,2.100912094116211,-9.379284858703613,0.6093243360519409
1645,83500.0,2.3720552921295166,-8.905233383178711,1.0109516382217407
1646,83600.0,3.007715940475464,-9.105149269104004,0.6494272351264954
1647,83700.0,3.007715940475464,-9.105149269104004,0.6494272351264954
1648,83800.0,2.4839842319488525,-9.07222843170166,0.18734627962112427
1649,83900.0,2.4839842319488525,-9.07222843170166,0.18734627962112427
1650,82500.0,1.868674397468567,-9.399636268615724,0.6715735793113708
1651,82600.0,2.6437971591949463,-9.207501411437988,0.6314706802368164
1652,82700.0,2.294243812561035,-9.336788177490234,0.4944026470184326
1653,82800.0,2.294243812561035,-9.336788177490234,0.4944026470184326
1654,82900.0,2.492363929748535,-9.32421875,0.6643909811973572
1655,83000.0,2.492363929748535,-9.32421875,0.6643909811973572
1656,83100.0,3.026270866394043,-9.208099365234377,0.008379706181585789
1657,83200.0,3.026270866394043,-9.208099365234377,0.008379706181585789
1658,83300.0,2.100912094116211,-9.379284858703613,0.6093243360519409
1659,83400.0,2.100912094116211,-9.379284858703613,0.6093243360519409
1660,83500.0,2.3720552921295166,-8.905233383178711,1.0109516382217407
1661,83600.0,3.007715940475464,-9.105149269104004,0.6494272351264954
1662,83700.0,3.007715940475464,-9.105149269104004,0.6494272351264954
1663,83800.0,2.4839842319488525,-9.07222843170166,0.18734627962112427
1664,83900.0,2.4839842319488525,-9.07222843170166,0.18734627962112427
1665,84000.0,2.272696018218994,-9.33199977874756,0.7787141203880309
1666,84100.0,2.272696018218994,-9.33199977874756,0.7787141203880309
1667,84200.0,2.213439464569092,-9.463082313537598,0.5027823448181152
1668,84300.0,2.213439464569092,-9.463082313537598,0.5027823448181152
1669,84400.0,2.5935189723968506,-9.397241592407227,0.9828197956085204
1670,84500.0,2.632424831390381,-9.278130531311037,0.8912416100502014
1671,84600.0,2.632424831390381,-9.278130531311037,0.8912416100502014
1672,84700.0,2.052429437637329,-9.322422981262207,0.93254154920578
1673,84800.0,2.052429437637329,-9.322422981262207,0.93254154920578
1674,84900.0,2.3151929378509517,-9.193734169006348,0.7930793166160583
1675,85000.0,2.3151929378509517,-9.193734169006348,0.7930793166160583
1676,85100.0,2.3792378902435303,-9.240421295166016,1.0283095836639404
1677,85200.0,2.3792378902435303,-9.240421295166016,1.0283095836639404
1678,85300.0,2.4175450801849365,-9.2841157913208,0.6991068720817566
1679,85400.0,1.5167267322540283,-9.248801231384276,0.7194576263427734
1680,84000.0,2.272696018218994,-9.33199977874756,0.7787141203880309
1681,84100.0,2.272696018218994,-9.33199977874756,0.7787141203880309
1682,84200.0,2.213439464569092,-9.463082313537598,0.5027823448181152
1683,84300.0,2.213439464569092,-9.463082313537598,0.5027823448181152
1684,84400.0,2.5935189723968506,-9.397241592407227,0.9828197956085204
1685,84500.0,2.632424831390381,-9.278130531311037,0.8912416100502014
1686,84600.0,2.632424831390381,-9.278130531311037,0.8912416100502014
1687,84700.0,2.052429437637329,-9.322422981262207,0.93254154920578
1688,84800.0,2.052429437637329,-9.322422981262207,0.93254154920578
1689,84900.0,2.3151929378509517,-9.193734169006348,0.7930793166160583
1690,85000.0,2.3151929378509517,-9.193734169006348,0.7930793166160583
1691,85100.0,2.3792378902435303,-9.240421295166016,1.0283095836639404
1692,85200.0,2.3792378902435303,-9.240421295166016,1.0283095836639404
1693,85300.0,2.4175450801849365,-9.2841157913208,0.6991068720817566
1694,85400.0,1.5167267322540283,-9.248801231384276,0.7194576263427734
1695,85500.0,1.5167267322540283,-9.248801231384276,0.7194576263427734
1696,85600.0,2.405574083328247,-9.289502143859863,0.8792705535888672
1697,85700.0,2.405574083328247,-9.289502143859863,0.8792705535888672
1698,85800.0,3.360860586166382,-9.545681953430176,1.0522516965866089
1699,85900.0,3.360860586166382,-9.545681953430176,1.0522516965866089
1700,86000.0,2.617460966110229,-7.29154109954834,3.811569213867188
1701,86100.0,2.617460966110229,-7.29154109954834,3.811569213867188
1702,86200.0,2.387617588043213,-7.7643961906433105,2.5995044708251958
1703,86300.0,0.9283517003059388,-6.382941722869872,1.492186188697815
1704,86400.0,0.9283517003059388,-6.382941722869872,1.492186188697815
1705,86500.0,2.8383262157440186,-8.681973457336426,0.7727286219596863
1706,86600.0,2.8383262157440186,-8.681973457336426,0.7727286219596863
1707,86700.0,1.9823989868164065,-9.170391082763672,0.25737667083740234
1708,86800.0,1.9823989868164065,-9.170391082763672,0.25737667083740234
1709,86900.0,2.3499090671539307,-9.529520988464355,0.28311434388160706
1710,85500.0,1.5167267322540283,-9.248801231384276,0.7194576263427734
1711,85600.0,2.405574083328247,-9.289502143859863,0.8792705535888672
1712,85700.0,2.405574083328247,-9.289502143859863,0.8792705535888672
1713,85800.0,3.360860586166382,-9.545681953430176,1.0522516965866089
1714,85900.0,3.360860586166382,-9.545681953430176,1.0522516965866089
1715,86000.0,2.617460966110229,-7.29154109954834,3.811569213867188
1716,86100.0,2.617460966110229,-7.29154109954834,3.811569213867188
1717,86200.0,2.387617588043213,-7.7643961906433105,2.5995044708251958
1718,86300.0,0.9283517003059388,-6.382941722869872,1.492186188697815
1719,86400.0,0.9283517003059388,-6.382941722869872,1.492186188697815
1720,86500.0,2.8383262157440186,-8.681973457336426,0.7727286219596863
1721,86600.0,2.8383262157440186,-8.681973457336426,0.7727286219596863
1722,86700.0,1.9823989868164065,-9.170391082763672,0.25737667083740234
1723,86800.0,1.9823989868164065,-9.170391082763672,0.25737667083740234
1724,86900.0,2.3499090671539307,-9.529520988464355,0.28311434388160706
1725,87000.0,2.3499090671539307,-9.529520988464355,0.28311434388160706
1726,87100.0,2.288856744766236,-9.563638687133787,-0.1801636815071106
1727,87200.0,2.288856744766236,-9.563638687133787,-0.1801636815071106
1728,87300.0,2.5558102130889893,-9.10215663909912,0.8637082576751709
1729,87400.0,2.583942174911499,-9.289502143859863,1.2677297592163086
1730,87500.0,2.583942174911499,-9.289502143859863,1.2677297592163086
1731,87600.0,2.300827741622925,-9.510367393493652,1.12467622756958
1732,87700.0,2.300827741622925,-9.510367393493652,1.12467622756958
1733,87800.0,3.4841620922088623,-8.809465408325195,0.2358288615942001
1734,87900.0,3.4841620922088623,-8.809465408325195,0.2358288615942001
1735,88000.0,2.8101942539215092,-9.07641887664795,1.1073182821273804
1736,88100.0,2.8101942539215092,-9.07641887664795,1.1073182821273804
1737,88200.0,2.9023709297180176,-8.922591209411621,1.1402385234832764
1738,88300.0,2.6587610244750977,-9.1045503616333,1.4520833492279053
1739,88400.0,2.6587610244750977,-9.1045503616333,1.4520833492279053
1740,87000.0,2.3499090671539307,-9.529520988464355,0.28311434388160706
1741,87100.0,2.288856744766236,-9.563638687133787,-0.1801636815071106
1742,87200.0,2.288856744766236,-9.563638687133787,-0.1801636815071106
1743,87300.0,2.5558102130889893,-9.10215663909912,0.8637082576751709
1744,87400.0,2.583942174911499,-9.289502143859863,1.2677297592163086
1745,87500.0,2.583942174911499,-9.289502143859863,1.2677297592163086
1746,87600.0,2.300827741622925,-9.510367393493652,1.12467622756958
1747,87700.0,2.300827741622925,-9.510367393493652,1.12467622756958
1748,87800.0,3.4841620922088623,-8.809465408325195,0.2358288615942001
1749,87900.0,3.4841620922088623,-8.809465408325195,0.2358288615942001
1750,88000.0,2.8101942539215092,-9.07641887664795,1.1073182821273804
1751,88100.0,2.8101942539215092,-9.07641887664795,1.1073182821273804
1752,88200.0,2.9023709297180176,-8.922591209411621,1.1402385234832764
