,timestamp,ax,ay,az
0,7000.0,8.834300994873047,3.3068809509277344,-2.4047868251800537
1,7100.0,8.834300994873047,3.3068809509277344,-2.4047868251800537
2,7200.0,8.834300994873047,3.3068809509277344,-2.4047868251800537
3,7300.0,8.82951545715332,3.273381233215332,-2.438286304473877
4,7400.0,8.82951545715332,3.273381233215332,-2.438286304473877
5,7500.0,8.839086532592773,3.304487943649292,-2.4430718421936035
6,7600.0,8.839086532592773,3.304487943649292,-2.4430718421936035
7,7700.0,8.805586814880371,3.2973096370697017,-2.483749866485596
8,7800.0,8.805586814880371,3.2973096370697017,-2.483749866485596
9,7900.0,8.805586814880371,3.2973096370697017,-2.483749866485596
10,8000.0,8.863015174865723,3.2446675300598145,-2.5076780319213867
11,8100.0,8.863015174865723,3.2446675300598145,-2.5076780319213867
12,8200.0,8.815157890319824,3.2781667709350586,-2.531606435775757
13,8300.0,8.815157890319824,3.2781667709350586,-2.531606435775757
14,8400.0,8.786444664001465,3.2829525470733643,-2.5292134284973145
15,8500.0,8.786444664001465,3.2829525470733643,-2.5292134284973145
16,8600.0,8.786444664001465,3.2829525470733643,-2.5292134284973145
17,8700.0,8.824729919433594,3.3140592575073238,-2.3473589420318604
18,8800.0,8.824729919433594,3.3140592575073238,-2.3473589420318604
19,8900.0,8.738588333129883,3.2446675300598145,-2.581855773925781
20,9000.0,8.738588333129883,3.2446675300598145,-2.581855773925781
21,9100.0,8.695517539978027,3.28773832321167,-2.825923442840576
22,9200.0,8.695517539978027,3.28773832321167,-2.825923442840576
23,9300.0,8.695517539978027,3.28773832321167,-2.825923442840576
24,9400.0,8.685946464538574,3.084348201751709,-2.7254250049591064
25,9500.0,8.685946464538574,3.084348201751709,-2.7254250049591064
26,9600.0,8.709875106811522,3.2255251407623287,-2.7589242458343506
27,9700.0,8.709875106811522,3.2255251407623287,-2.7589242458343506
28,9800.0,8.743373870849611,3.2039895057678223,-2.629711866378784
29,9900.0,8.743373870849611,3.2039895057678223,-2.629711866378784
30,10000.0,8.556733131408691,3.263810157775879,-2.7014968395233154
31,10100.0,8.556733131408691,3.263810157775879,-2.7014968395233154
32,10200.0,8.556733131408691,3.263810157775879,-2.7014968395233154
33,10300.0,8.743373870849611,2.8115665912628174,-3.3427734375
34,10400.0,8.743373870849611,2.8115665912628174,-3.3427734375
35,10500.0,8.671588897705076,2.8426735401153564,-3.3427734375
36,10600.0,8.671588897705076,2.8426735401153564,-3.3427734375
37,10700.0,8.733802795410156,3.268595933914185,-2.885744333267212
38,10800.0,8.733802795410156,3.268595933914185,-2.885744333267212
39,10900.0,8.556733131408691,2.746960401535034,-2.9551358222961426
40,11000.0,8.556733131408691,2.746960401535034,-2.9551358222961426
41,11100.0,8.676375389099121,3.2470602989196777,-2.857030153274536
42,11200.0,8.676375389099121,3.2470602989196777,-2.857030153274536
43,11300.0,8.752944946289062,3.1968109607696533,-2.7182462215423584
44,11400.0,8.752944946289062,3.1968109607696533,-2.7182462215423584
45,11500.0,8.752944946289062,3.1968109607696533,-2.7182462215423584
46,11600.0,8.786444664001465,3.2207393646240234,-2.6799612045288086
47,11700.0,8.786444664001465,3.2207393646240234,-2.6799612045288086
48,11800.0,8.743373870849611,3.218346357345581,-2.706282377243042
49,11900.0,8.743373870849611,3.218346357345581,-2.706282377243042
50,12000.0,8.843873023986816,3.242274522781372,-2.6081764698028564
51,12100.0,8.843873023986816,3.242274522781372,-2.6081764698028564
52,12200.0,8.819944381713867,3.0987055301666264,-2.648854732513428
53,12300.0,8.819944381713867,3.0987055301666264,-2.648854732513428
54,12400.0,8.800802230834961,3.10109806060791,-2.548356056213379
55,12500.0,8.800802230834961,3.10109806060791,-2.548356056213379
56,12600.0,8.872586250305176,3.218346357345581,-2.4741785526275635
57,12700.0,8.872586250305176,3.218346357345581,-2.4741785526275635
58,12800.0,8.872586250305176,3.218346357345581,-2.4741785526275635
59,12900.0,8.791230201721191,3.177668571472168,-2.6081764698028564
60,13000.0,8.791230201721191,3.177668571472168,-2.6081764698028564
61,13100.0,8.752944946289062,3.184847116470337,-2.522034883499145
62,13200.0,8.752944946289062,3.184847116470337,-2.522034883499145
63,13300.0,8.762516975402832,3.168097257614136,-2.455036163330078
64,13400.0,8.762516975402832,3.168097257614136,-2.455036163330078
65,13500.0,8.776873588562013,2.9790639877319336,-2.3569302558898926
66,13600.0,8.776873588562013,2.9790639877319336,-2.3569302558898926
67,13700.0,8.791230201721191,3.3236305713653564,-2.7326035499572754
68,13800.0,8.791230201721191,3.3236305713653564,-2.7326035499572754
69,13900.0,8.791230201721191,3.3236305713653564,-2.7326035499572754
70,14000.0,8.86780071258545,3.160918712615967,-2.311466693878174
71,14100.0,8.86780071258545,3.160918712615967,-2.311466693878174
72,14200.0,8.652446746826174,3.359522819519043,-2.5986053943634038
73,14300.0,8.652446746826174,3.359522819519043,-2.5986053943634038
74,14400.0,8.757731437683105,3.34995174407959,-2.68953275680542
75,14500.0,8.757731437683105,3.34995174407959,-2.68953275680542
76,14600.0,8.767301559448242,3.2973096370697017,-2.589033842086792
77,14700.0,8.767301559448242,3.2973096370697017,-2.589033842086792
78,14800.0,8.767301559448242,3.2973096370697017,-2.589033842086792
79,14900.0,8.796016693115233,3.1992037296295166,-2.6632115840911865
80,15000.0,8.796016693115233,3.1992037296295166,-2.6632115840911865
81,15100.0,8.839086532592773,3.426522016525269,-2.7254250049591064
82,15200.0,8.839086532592773,3.426522016525269,-2.7254250049591064
83,15300.0,8.781659126281737,3.335594892501831,-2.6632115840911865
84,15400.0,8.781659126281737,3.335594892501831,-2.6632115840911865
85,15500.0,8.781659126281737,3.335594892501831,-2.6632115840911865
86,15600.0,8.772088050842285,3.1728827953338623,-2.6560330390930176
87,15700.0,8.772088050842285,3.1728827953338623,-2.6560330390930176
88,15800.0,8.70508861541748,3.273381233215332,-2.612962245941162
89,15900.0,8.70508861541748,3.273381233215332,-2.612962245941162
90,16000.0,8.70508861541748,3.273381233215332,-2.612962245941162
91,16100.0,8.657232284545897,3.208775281906128,-2.579463005065918
92,16200.0,8.657232284545897,3.208775281906128,-2.579463005065918
93,16300.0,8.681159973144531,3.3164520263671875,-2.5076780319213867
94,16400.0,8.681159973144531,3.3164520263671875,-2.5076780319213867
95,16500.0,8.709875106811522,3.3236305713653564,-2.610569477081299
96,16600.0,8.709875106811522,3.3236305713653564,-2.610569477081299
97,16700.0,8.724230766296388,3.2279179096221924,-2.6081764698028564
98,16800.0,8.724230766296388,3.2279179096221924,-2.6081764698028564
99,16900.0,8.724230766296388,3.2279179096221924,-2.6081764698028564
100,17000.0,8.71944522857666,3.1130621433258057,-2.644068956375122
101,17100.0,8.71944522857666,3.1130621433258057,-2.644068956375122
102,17200.0,8.781659126281737,3.292524099349976,-2.636890411376953
103,17300.0,8.781659126281737,3.292524099349976,-2.636890411376953
104,17400.0,8.781659126281737,3.292524099349976,-2.636890411376953
105,17500.0,8.695517539978027,3.177668571472168,-2.629711866378784
106,17600.0,8.695517539978027,3.177668571472168,-2.629711866378784
107,17700.0,8.853443145751953,3.146562099456787,-2.6392831802368164
108,17800.0,8.853443145751953,3.146562099456787,-2.6392831802368164
109,17900.0,8.748159408569336,3.2255251407623287,-2.914458036422729
110,18000.0,8.748159408569336,3.2255251407623287,-2.914458036422729
111,18100.0,8.695517539978027,3.230310440063477,-2.6775684356689453
112,18200.0,8.695517539978027,3.230310440063477,-2.6775684356689453
113,18300.0,8.695517539978027,3.230310440063477,-2.6775684356689453
114,18400.0,8.776873588562013,3.058027505874634,-2.687139749526977
115,18500.0,8.776873588562013,3.058027505874634,-2.687139749526977
116,18600.0,8.843873023986816,3.211168050765991,-2.557927370071411
117,18700.0,8.843873023986816,3.211168050765991,-2.557927370071411
118,18800.0,8.843873023986816,3.211168050765991,-2.557927370071411
119,18900.0,8.805586814880371,3.1968109607696533,-2.71346116065979
120,19000.0,8.805586814880371,3.1968109607696533,-2.71346116065979
121,19100.0,8.800802230834961,3.208775281906128,-2.517249345779419
122,19200.0,8.800802230834961,3.208775281906128,-2.517249345779419
123,19300.0,8.800802230834961,3.208775281906128,-2.517249345779419
124,19400.0,8.71944522857666,3.1944179534912114,-2.644068956375122
125,19500.0,8.71944522857666,3.1944179534912114,-2.644068956375122
126,19600.0,8.681159973144531,3.2518460750579834,-2.6392831802368164
127,19700.0,8.681159973144531,3.2518460750579834,-2.6392831802368164
128,19800.0,8.709875106811522,3.2279179096221924,-2.627319574356079
129,19900.0,8.709875106811522,3.2279179096221924,-2.627319574356079
130,20000.0,8.738588333129883,3.206382274627685,-2.589033842086792
131,20100.0,8.738588333129883,3.206382274627685,-2.589033842086792
132,20200.0,8.738588333129883,3.206382274627685,-2.589033842086792
133,20300.0,8.762516975402832,3.3236305713653564,-2.6560330390930176
134,20400.0,8.762516975402832,3.3236305713653564,-2.6560330390930176
135,20500.0,8.662017822265625,3.242274522781372,-2.699103832244873
136,20600.0,8.662017822265625,3.242274522781372,-2.699103832244873
137,20700.0,8.662017822265625,3.242274522781372,-2.699103832244873
138,20800.0,8.690732002258299,3.3140592575073238,-2.548356056213379
139,20900.0,8.690732002258299,3.3140592575073238,-2.548356056213379
140,21000.0,8.839086532592773,3.328416109085083,-2.5292134284973145
141,21100.0,8.839086532592773,3.328416109085083,-2.5292134284973145
142,21200.0,8.791230201721191,3.304487943649292,-2.627319574356079
143,21300.0,8.791230201721191,3.304487943649292,-2.627319574356079
144,21400.0,8.776873588562013,3.4025940895080566,-2.5866410732269287
145,21500.0,8.776873588562013,3.4025940895080566,-2.5866410732269287
146,21600.0,8.776873588562013,3.4025940895080566,-2.5866410732269287
147,21700.0,8.676375389099121,3.16331148147583,-2.67278265953064
148,21800.0,8.676375389099121,3.16331148147583,-2.67278265953064
149,21900.0,8.700303077697754,3.1896328926086426,-2.5555346012115483
150,22000.0,8.700303077697754,3.1896328926086426,-2.5555346012115483
151,22100.0,8.767301559448242,3.3308091163635254,-2.603391170501709
152,22200.0,8.767301559448242,3.3308091163635254,-2.603391170501709
153,22300.0,8.767301559448242,3.3308091163635254,-2.603391170501709
154,22400.0,8.819944381713867,3.249453067779541,-2.627319574356079
155,22500.0,8.819944381713867,3.249453067779541,-2.627319574356079
156,22600.0,8.757731437683105,3.359522819519043,-2.596212387084961
157,22700.0,8.757731437683105,3.359522819519043,-2.596212387084961
158,22800.0,8.776873588562013,3.2709887027740483,-2.569891452789306
159,22900.0,8.776873588562013,3.2709887027740483,-2.569891452789306
160,23000.0,8.776873588562013,3.2709887027740483,-2.569891452789306
161,23100.0,8.748159408569336,3.184847116470337,-2.4957141876220703
162,23200.0,8.748159408569336,3.184847116470337,-2.4957141876220703
163,23300.0,8.71944522857666,3.3403804302215576,-2.5363922119140625
164,23400.0,8.71944522857666,3.3403804302215576,-2.5363922119140625
165,23500.0,8.800802230834961,3.34995174407959,-2.567498683929444
166,23600.0,8.800802230834961,3.34995174407959,-2.567498683929444
167,23700.0,8.800802230834961,3.34995174407959,-2.567498683929444
168,23800.0,8.757731437683105,3.232703685760498,-2.531606435775757
169,23900.0,8.757731437683105,3.232703685760498,-2.531606435775757
170,24000.0,8.810372352600098,3.3164520263671875,-2.553141593933105
171,24100.0,8.810372352600098,3.3164520263671875,-2.553141593933105
172,24200.0,8.676375389099121,3.081955671310425,-2.1415762901306152
173,24300.0,8.676375389099121,3.081955671310425,-2.1415762901306152
174,24400.0,8.676375389099121,3.081955671310425,-2.1415762901306152
175,24500.0,8.748159408569336,3.421736478805542,-2.569891452789306
176,24600.0,8.748159408569336,3.421736478805542,-2.569891452789306
177,24700.0,8.786444664001465,3.1968109607696533,-2.486142873764038
178,24800.0,8.786444664001465,3.1968109607696533,-2.486142873764038
179,24900.0,8.786444664001465,3.1968109607696533,-2.486142873764038
180,25000.0,8.896513938903809,3.230310440063477,-2.5052852630615234
181,25100.0,8.896513938903809,3.230310440063477,-2.5052852630615234
182,25200.0,8.772088050842285,3.1944179534912114,-2.522034883499145
183,25300.0,8.772088050842285,3.1944179534912114,-2.522034883499145
184,25400.0,8.791230201721191,3.2470602989196777,-2.4502503871917725
185,25500.0,8.791230201721191,3.2470602989196777,-2.4502503871917725
186,25600.0,8.839086532592773,3.086741209030152,-2.392822742462158
187,25700.0,8.839086532592773,3.086741209030152,-2.392822742462158
188,25800.0,8.839086532592773,3.086741209030152,-2.392822742462158
189,25900.0,8.796016693115233,3.050848960876465,-2.392822742462158
190,26000.0,8.796016693115233,3.050848960876465,-2.392822742462158
191,26100.0,8.796016693115233,3.1944179534912114,-2.411965131759644
192,26200.0,8.796016693115233,3.1944179534912114,-2.411965131759644
193,26300.0,8.796016693115233,3.1202406883239746,-2.3569302558898926
194,26400.0,8.796016693115233,3.1202406883239746,-2.3569302558898926
195,26500.0,8.729016304016112,3.168097257614136,-2.4717857837677
196,26600.0,8.729016304016112,3.168097257614136,-2.4717857837677
197,26700.0,8.729016304016112,3.168097257614136,-2.4717857837677
198,26800.0,8.839086532592773,3.239881753921509,-2.553141593933105
199,26900.0,8.839086532592773,3.239881753921509,-2.553141593933105
200,27000.0,8.796016693115233,3.0197420120239262,-2.297109842300415
201,27100.0,8.796016693115233,3.0197420120239262,-2.297109842300415
202,27200.0,8.805586814880371,3.2159535884857178,-2.51007080078125
203,27300.0,8.805586814880371,3.2159535884857178,-2.51007080078125
204,27400.0,8.805586814880371,3.2159535884857178,-2.51007080078125
205,27500.0,8.872586250305176,3.230310440063477,-2.4813570976257324
206,27600.0,8.872586250305176,3.230310440063477,-2.4813570976257324
207,27700.0,8.810372352600098,3.2039895057678223,-2.3784656524658203
208,27800.0,8.810372352600098,3.2039895057678223,-2.3784656524658203
209,27900.0,8.805586814880371,3.1896328926086426,-2.4646072387695312
210,28000.0,8.805586814880371,3.1896328926086426,-2.4646072387695312
211,28100.0,8.781659126281737,3.2470602989196777,-2.4191436767578125
212,28200.0,8.781659126281737,3.2470602989196777,-2.4191436767578125
213,28300.0,8.863015174865723,3.2518460750579834,-2.407179594039917
214,28400.0,8.863015174865723,3.2518460750579834,-2.407179594039917
215,28500.0,8.762516975402832,3.211168050765991,-2.5124638080596924
216,28600.0,8.762516975402832,3.211168050765991,-2.5124638080596924
217,28700.0,8.762516975402832,3.211168050765991,-2.5124638080596924
218,28800.0,8.800802230834961,3.294916868209839,-2.414358139038086
219,28900.0,8.800802230834961,3.294916868209839,-2.414358139038086
220,29000.0,8.910871505737305,3.290131092071533,-2.567498683929444
221,29100.0,8.910871505737305,3.290131092071533,-2.567498683929444
222,29200.0,8.910871505737305,3.290131092071533,-2.567498683929444
223,29300.0,8.748159408569336,3.208775281906128,-2.4430718421936035
224,29400.0,8.748159408569336,3.208775281906128,-2.4430718421936035
225,29500.0,8.800802230834961,3.2446675300598145,-2.426322221755981
226,29600.0,8.800802230834961,3.2446675300598145,-2.426322221755981
227,29700.0,8.810372352600098,3.1130621433258057,-2.4287149906158447
228,29800.0,8.810372352600098,3.1130621433258057,-2.4287149906158447
229,29900.0,8.791230201721191,3.201596736907959,-2.3736801147460938
230,30000.0,8.791230201721191,3.201596736907959,-2.3736801147460938
231,30100.0,8.791230201721191,3.201596736907959,-2.3736801147460938
232,30200.0,8.86780071258545,3.2757742404937744,-2.445464611053467
233,30300.0,8.86780071258545,3.2757742404937744,-2.445464611053467
234,30400.0,8.872586250305176,3.2039895057678223,-2.3186452388763428
235,30500.0,8.872586250305176,3.2039895057678223,-2.3186452388763428
236,30600.0,8.872586250305176,3.2039895057678223,-2.3186452388763428
237,30700.0,8.877371788024902,3.208775281906128,-2.5842485427856445
238,30800.0,8.877371788024902,3.208775281906128,-2.5842485427856445
239,30900.0,8.843873023986816,3.304487943649292,-2.4717857837677
240,31000.0,8.843873023986816,3.304487943649292,-2.4717857837677
241,31100.0,8.863015174865723,3.13220477104187,-2.4430718421936035
242,31200.0,8.863015174865723,3.13220477104187,-2.4430718421936035
243,31300.0,8.819944381713867,3.156132936477661,-2.3545374870300293
244,31400.0,8.819944381713867,3.156132936477661,-2.3545374870300293
245,31500.0,8.901299476623535,3.268595933914185,-2.438286304473877
246,31600.0,8.901299476623535,3.268595933914185,-2.438286304473877
247,31700.0,8.901299476623535,3.268595933914185,-2.438286304473877
248,31800.0,8.786444664001465,3.192025184631348,-2.4023938179016118
249,31900.0,8.786444664001465,3.192025184631348,-2.4023938179016118
250,32000.0,8.815157890319824,3.146562099456787,-2.3425734043121342
251,32100.0,8.815157890319824,3.146562099456787,-2.3425734043121342
252,32200.0,8.815157890319824,3.146562099456787,-2.3425734043121342
253,32300.0,8.796016693115233,3.1704900264739986,-2.3545374870300293
254,32400.0,8.796016693115233,3.1704900264739986,-2.3545374870300293
255,32500.0,8.906085968017578,3.28773832321167,-2.4717857837677
256,32600.0,8.906085968017578,3.28773832321167,-2.4717857837677
257,32700.0,8.805586814880371,3.2255251407623287,-2.230110645294189
258,32800.0,8.805586814880371,3.2255251407623287,-2.230110645294189
259,32900.0,8.805586814880371,3.2255251407623287,-2.230110645294189
260,33000.0,8.882158279418945,3.1537401676177983,-2.445464611053467
261,33100.0,8.882158279418945,3.1537401676177983,-2.445464611053467
262,33200.0,8.925228118896484,3.1728827953338623,-2.3497519493103027
263,33300.0,8.925228118896484,3.1728827953338623,-2.3497519493103027
264,33400.0,8.834300994873047,3.268595933914185,-2.4430718421936035
265,33500.0,8.834300994873047,3.268595933914185,-2.4430718421936035
266,33600.0,8.834300994873047,3.268595933914185,-2.4430718421936035
267,33700.0,8.800802230834961,3.1896328926086426,-2.337787628173828
268,33800.0,8.800802230834961,3.1896328926086426,-2.337787628173828
269,33900.0,8.776873588562013,3.25663161277771,-2.4813570976257324
270,34000.0,8.776873588562013,3.25663161277771,-2.4813570976257324
271,34100.0,8.776873588562013,3.290131092071533,-2.4909284114837646
272,34200.0,8.776873588562013,3.290131092071533,-2.4909284114837646
273,34300.0,8.796016693115233,3.28773832321167,-2.421536445617676
274,34400.0,8.796016693115233,3.28773832321167,-2.421536445617676
275,34500.0,8.776873588562013,3.249453067779541,-2.4287149906158447
276,34600.0,8.776873588562013,3.249453067779541,-2.4287149906158447
277,34700.0,8.733802795410156,3.2255251407623287,-2.476571559906006
278,34800.0,8.733802795410156,3.2255251407623287,-2.476571559906006
279,34900.0,8.733802795410156,3.2255251407623287,-2.476571559906006
280,35000.0,8.776873588562013,3.053241729736328,-2.4741785526275635
281,35100.0,8.776873588562013,3.053241729736328,-2.4741785526275635
282,35200.0,8.896513938903809,3.0939197540283203,-2.2947168350219727
283,35300.0,8.896513938903809,3.0939197540283203,-2.2947168350219727
284,35400.0,8.896513938903809,3.0939197540283203,-2.2947168350219727
285,35500.0,8.930014610290527,3.208775281906128,-2.579463005065918
286,35600.0,8.930014610290527,3.208775281906128,-2.579463005065918
287,35700.0,8.819944381713867,3.053241729736328,-2.4741785526275635
288,35800.0,8.819944381713867,3.053241729736328,-2.4741785526275635
289,35900.0,9.030512809753418,3.232703685760498,-2.565105676651001
290,36000.0,9.030512809753418,3.232703685760498,-2.565105676651001
291,36100.0,8.863015174865723,3.0747771263122563,-2.4670000076293945
292,36200.0,8.863015174865723,3.0747771263122563,-2.4670000076293945
293,36300.0,8.863015174865723,3.0747771263122563,-2.4670000076293945
294,36400.0,8.863015174865723,3.1178479194641118,-2.426322221755981
295,36500.0,8.863015174865723,3.1178479194641118,-2.426322221755981
296,36600.0,8.709875106811522,2.9718859195709233,-2.438286304473877
297,36700.0,8.709875106811522,2.9718859195709233,-2.438286304473877
298,36800.0,8.733802795410156,3.1106693744659424,-2.313859462738037
299,36900.0,8.733802795410156,3.1106693744659424,-2.313859462738037
300,37000.0,8.762516975402832,3.16331148147583,-2.553141593933105
301,37100.0,8.762516975402832,3.16331148147583,-2.553141593933105
302,37200.0,8.843873023986816,3.230310440063477,-2.4502503871917725
303,37300.0,8.843873023986816,3.230310440063477,-2.4502503871917725
304,37400.0,8.872586250305176,3.192025184631348,-2.3784656524658203
305,37500.0,8.872586250305176,3.192025184631348,-2.3784656524658203
306,37600.0,8.872586250305176,3.192025184631348,-2.3784656524658203
307,37700.0,8.82951545715332,3.292524099349976,-2.421536445617676
308,37800.0,8.82951545715332,3.292524099349976,-2.421536445617676
309,37900.0,8.724230766296388,3.1992037296295166,-2.179861307144165
310,38000.0,8.724230766296388,3.1992037296295166,-2.179861307144165
311,38100.0,8.724230766296388,3.1992037296295166,-2.179861307144165
312,38200.0,8.819944381713867,3.1537401676177983,-2.335394859313965
313,38300.0,8.819944381713867,3.1537401676177983,-2.335394859313965
314,38400.0,8.882158279418945,3.239881753921509,-2.352144718170166
315,38500.0,8.882158279418945,3.239881753921509,-2.352144718170166
316,38600.0,8.958727836608887,3.4049866199493413,-2.4885356426239014
317,38700.0,8.958727836608887,3.4049866199493413,-2.4885356426239014
318,38800.0,9.016156196594238,3.0963122844696045,-2.328216552734375
319,38900.0,9.016156196594238,3.0963122844696045,-2.328216552734375
320,39000.0,9.016156196594238,3.0963122844696045,-2.328216552734375
321,39100.0,8.834300994873047,3.2231321334838867,-2.242074966430664
322,39200.0,8.834300994873047,3.2231321334838867,-2.242074966430664
323,39300.0,8.987441062927246,3.263810157775879,-2.3497519493103027
324,39400.0,8.987441062927246,3.263810157775879,-2.3497519493103027
325,39500.0,8.987441062927246,3.263810157775879,-2.3497519493103027
326,39600.0,8.925228118896484,3.091526985168457,-2.280359983444214
327,39700.0,8.925228118896484,3.091526985168457,-2.280359983444214
328,39800.0,8.858229637145996,3.2279179096221924,-2.390429735183716
329,39900.0,8.858229637145996,3.2279179096221924,-2.390429735183716
330,40000.0,8.839086532592773,3.2709887027740483,-2.4335007667541504
331,40100.0,8.839086532592773,3.2709887027740483,-2.4335007667541504
332,40200.0,8.839086532592773,3.2709887027740483,-2.4335007667541504
333,40300.0,8.858229637145996,3.1968109607696533,-2.3617160320281982
334,40400.0,8.858229637145996,3.1968109607696533,-2.3617160320281982
335,40500.0,8.834300994873047,3.3212375640869136,-2.476571559906006
336,40600.0,8.834300994873047,3.3212375640869136,-2.476571559906006
337,40700.0,8.767301559448242,3.10109806060791,-2.3473589420318604
338,40800.0,8.767301559448242,3.10109806060791,-2.3473589420318604
339,40900.0,8.786444664001465,3.1704900264739986,-2.359323024749756
340,41000.0,8.786444664001465,3.1704900264739986,-2.359323024749756
341,41100.0,8.786444664001465,3.1704900264739986,-2.359323024749756
342,41200.0,8.834300994873047,3.239881753921509,-2.383251428604126
343,41300.0,8.834300994873047,3.239881753921509,-2.383251428604126
344,41400.0,8.891729354858398,3.2853453159332275,-2.4430718421936035
345,41500.0,8.891729354858398,3.2853453159332275,-2.4430718421936035
346,41600.0,8.819944381713867,3.3140592575073238,-2.4430718421936035
347,41700.0,8.819944381713867,3.3140592575073238,-2.4430718421936035
348,41800.0,8.757731437683105,3.211168050765991,-2.3712873458862305
349,41900.0,8.757731437683105,3.211168050765991,-2.3712873458862305
350,42000.0,8.757731437683105,3.211168050765991,-2.3712873458862305
351,42100.0,8.748159408569336,3.2829525470733643,-2.483749866485596
352,42200.0,8.748159408569336,3.2829525470733643,-2.483749866485596
353,42300.0,8.71466064453125,3.3236305713653564,-2.4047868251800537
354,42400.0,8.71466064453125,3.3236305713653564,-2.4047868251800537
355,42500.0,8.786444664001465,3.328416109085083,-2.483749866485596
356,42600.0,8.786444664001465,3.328416109085083,-2.483749866485596
357,42700.0,8.786444664001465,3.328416109085083,-2.483749866485596
358,42800.0,8.776873588562013,3.273381233215332,-2.411965131759644
359,42900.0,8.776873588562013,3.273381233215332,-2.411965131759644
360,43000.0,8.805586814880371,3.3714869022369385,-2.414358139038086
361,43100.0,8.805586814880371,3.3714869022369385,-2.414358139038086
362,43200.0,8.752944946289062,3.2231321334838867,-2.452643394470215
363,43300.0,8.752944946289062,3.2231321334838867,-2.452643394470215
364,43400.0,8.810372352600098,3.230310440063477,-2.51007080078125
365,43500.0,8.810372352600098,3.230310440063477,-2.51007080078125
366,43600.0,8.786444664001465,3.3379876613616943,-2.4358932971954346
367,43700.0,8.786444664001465,3.3379876613616943,-2.4358932971954346
368,43800.0,8.709875106811522,3.292524099349976,-2.5004994869232178
369,43900.0,8.709875106811522,3.292524099349976,-2.5004994869232178
370,44000.0,8.709875106811522,3.292524099349976,-2.5004994869232178
371,44100.0,8.743373870849611,3.2231321334838867,-2.452643394470215
372,44200.0,8.743373870849611,3.2231321334838867,-2.452643394470215
373,44300.0,8.791230201721191,3.211168050765991,-2.407179594039917
374,44400.0,8.791230201721191,3.211168050765991,-2.407179594039917
375,44500.0,8.800802230834961,3.25663161277771,-2.4813570976257324
376,44600.0,8.800802230834961,3.25663161277771,-2.4813570976257324
377,44700.0,8.800802230834961,3.25663161277771,-2.4813570976257324
378,44800.0,8.796016693115233,3.1944179534912114,-2.366501569747925
379,44900.0,8.796016693115233,3.1944179534912114,-2.366501569747925
380,45000.0,8.767301559448242,3.230310440063477,-2.3545374870300293
381,45100.0,8.767301559448242,3.230310440063477,-2.3545374870300293
382,45200.0,8.858229637145996,3.2446675300598145,-2.567498683929444
383,45300.0,8.858229637145996,3.2446675300598145,-2.567498683929444
384,45400.0,8.819944381713867,3.168097257614136,-2.426322221755981
385,45500.0,8.819944381713867,3.168097257614136,-2.426322221755981
386,45600.0,8.839086532592773,3.2279179096221924,-2.4670000076293945
387,45700.0,8.839086532592773,3.2279179096221924,-2.4670000076293945
388,45800.0,8.839086532592773,3.2279179096221924,-2.4670000076293945
389,45900.0,8.843873023986816,3.235095977783203,-2.4741785526275635
390,46000.0,8.843873023986816,3.235095977783203,-2.4741785526275635
391,46100.0,8.839086532592773,3.2135608196258545,-2.4909284114837646
392,46200.0,8.839086532592773,3.2135608196258545,-2.4909284114837646
393,46300.0,8.839086532592773,3.2135608196258545,-2.4909284114837646
394,46400.0,8.796016693115233,3.2518460750579834,-2.452643394470215
395,46500.0,8.796016693115233,3.2518460750579834,-2.452643394470215
396,46600.0,8.800802230834961,2.739781856536865,-2.687139749526977
397,46700.0,8.800802230834961,2.739781856536865,-2.687139749526977
398,46800.0,8.819944381713867,3.1537401676177983,-2.380858421325684
399,46900.0,8.819944381713867,3.1537401676177983,-2.380858421325684
400,47000.0,8.781659126281737,3.232703685760498,-2.4693927764892583
401,47100.0,8.781659126281737,3.232703685760498,-2.4693927764892583
402,47200.0,8.810372352600098,3.2374887466430664,-2.4693927764892583
403,47300.0,8.810372352600098,3.2374887466430664,-2.4693927764892583
404,47400.0,8.810372352600098,3.1752755641937256,-2.4335007667541504
405,47500.0,8.810372352600098,3.1752755641937256,-2.4335007667541504
406,47600.0,8.810372352600098,3.1752755641937256,-2.4335007667541504
407,47700.0,8.791230201721191,3.259024381637573,-2.5363922119140625
408,47800.0,8.791230201721191,3.259024381637573,-2.5363922119140625
409,47900.0,8.810372352600098,3.2135608196258545,-2.502892255783081
410,48000.0,8.810372352600098,3.2135608196258545,-2.502892255783081
411,48100.0,8.810372352600098,3.1752755641937256,-2.4191436767578125
412,48200.0,8.810372352600098,3.1752755641937256,-2.4191436767578125
413,48300.0,8.810372352600098,3.1752755641937256,-2.4191436767578125
414,48400.0,8.839086532592773,3.1992037296295166,-2.44067907333374
415,48500.0,8.839086532592773,3.1992037296295166,-2.44067907333374
416,48600.0,8.805586814880371,3.232703685760498,-2.531606435775757
417,48700.0,8.805586814880371,3.232703685760498,-2.531606435775757
418,48800.0,8.796016693115233,3.208775281906128,-2.5076780319213867
419,48900.0,8.796016693115233,3.208775281906128,-2.5076780319213867
420,49000.0,8.666803359985353,3.2757742404937744,-2.4957141876220703
421,49100.0,8.666803359985353,3.2757742404937744,-2.4957141876220703
422,49200.0,8.666803359985353,3.2757742404937744,-2.4957141876220703
423,49300.0,8.767301559448242,3.1800613403320312,-2.538784980773926
424,49400.0,8.767301559448242,3.1800613403320312,-2.538784980773926
425,49500.0,8.71944522857666,3.072384119033813,-2.517249345779419
426,49600.0,8.71944522857666,3.072384119033813,-2.517249345779419
427,49700.0,8.762516975402832,3.2781667709350586,-2.596212387084961
428,49800.0,8.762516975402832,3.2781667709350586,-2.596212387084961
429,49900.0,8.762516975402832,3.2781667709350586,-2.596212387084961
430,50000.0,8.762516975402832,3.208775281906128,-2.6081764698028564
431,50100.0,8.762516975402832,3.208775281906128,-2.6081764698028564
432,50200.0,8.815157890319824,3.13220477104187,-2.53399920463562
433,50300.0,8.815157890319824,3.13220477104187,-2.53399920463562
434,50400.0,8.901299476623535,3.091526985168457,-2.4095723628997803
435,50500.0,8.901299476623535,3.091526985168457,-2.4095723628997803
436,50600.0,8.901299476623535,3.091526985168457,-2.4095723628997803
437,50700.0,8.71944522857666,3.1896328926086426,-2.675175428390503
438,50800.0,8.71944522857666,3.1896328926086426,-2.675175428390503
439,50900.0,8.724230766296388,3.0987055301666264,-2.4430718421936035
440,51000.0,8.724230766296388,3.0987055301666264,-2.4430718421936035
441,51100.0,8.776873588562013,3.0460631847381587,-2.514856576919556
442,51200.0,8.776873588562013,3.0460631847381587,-2.514856576919556
443,51300.0,8.853443145751953,2.96949315071106,-2.651247262954712
444,51400.0,8.853443145751953,2.96949315071106,-2.651247262954712
445,51500.0,8.886943817138672,2.974278450012207,-2.538784980773926
446,51600.0,8.886943817138672,2.974278450012207,-2.538784980773926
447,51700.0,8.772088050842285,3.1130621433258057,-2.553141593933105
448,51800.0,8.772088050842285,3.1130621433258057,-2.553141593933105
449,51900.0,8.772088050842285,3.1130621433258057,-2.553141593933105
450,52000.0,8.848658561706543,3.058027505874634,-2.553141593933105
451,52100.0,8.848658561706543,3.058027505874634,-2.553141593933105
452,52200.0,8.915657043457031,3.1106693744659424,-2.51007080078125
453,52300.0,8.915657043457031,3.1106693744659424,-2.51007080078125
454,52400.0,8.800802230834961,3.156132936477661,-2.8713872432708736
455,52500.0,8.800802230834961,3.156132936477661,-2.8713872432708736
456,52600.0,8.800802230834961,3.156132936477661,-2.8713872432708736
457,52700.0,8.752944946289062,3.1202406883239746,-2.833101987838745
458,52800.0,8.752944946289062,3.1202406883239746,-2.833101987838745
459,52900.0,8.82951545715332,3.1752755641937256,-2.620140790939331
460,53000.0,8.82951545715332,3.1752755641937256,-2.620140790939331
461,53100.0,8.752944946289062,3.1345977783203125,-2.71346116065979
462,53200.0,8.752944946289062,3.1345977783203125,-2.71346116065979
463,53300.0,8.762516975402832,3.086741209030152,-2.548356056213379
464,53400.0,8.762516975402832,3.086741209030152,-2.548356056213379
465,53500.0,8.762516975402832,3.086741209030152,-2.548356056213379
466,53600.0,8.810372352600098,3.177668571472168,-2.612962245941162
467,53700.0,8.810372352600098,3.177668571472168,-2.612962245941162
468,53800.0,8.848658561706543,3.177668571472168,-2.6081764698028564
469,53900.0,8.848658561706543,3.177668571472168,-2.6081764698028564
470,54000.0,8.848658561706543,3.177668571472168,-2.6081764698028564
471,54100.0,8.810372352600098,3.192025184631348,-2.603391170501709
472,54200.0,8.810372352600098,3.192025184631348,-2.603391170501709
473,54300.0,8.815157890319824,3.1704900264739986,-2.5866410732269287
474,54400.0,8.815157890319824,3.1704900264739986,-2.5866410732269287
475,54500.0,8.791230201721191,3.1489543914794917,-2.4885356426239014
476,54600.0,8.791230201721191,3.1489543914794917,-2.4885356426239014
477,54700.0,8.791230201721191,3.1489543914794917,-2.4885356426239014
478,54800.0,8.819944381713867,3.13220477104187,-2.502892255783081
479,54900.0,8.819944381713867,3.13220477104187,-2.502892255783081
480,55000.0,8.877371788024902,3.184847116470337,-2.4909284114837646
481,55100.0,8.877371788024902,3.184847116470337,-2.4909284114837646
482,55200.0,8.877371788024902,3.184847116470337,-2.4909284114837646
483,55300.0,8.848658561706543,3.1992037296295166,-2.567498683929444
484,55400.0,8.848658561706543,3.1992037296295166,-2.567498683929444
485,55500.0,8.98265552520752,3.160918712615967,-2.483749866485596
486,55600.0,8.98265552520752,3.160918712615967,-2.483749866485596
487,55700.0,8.886943817138672,3.1130621433258057,-2.4741785526275635
488,55800.0,8.886943817138672,3.1130621433258057,-2.4741785526275635
489,55900.0,8.781659126281737,3.10109806060791,-2.5124638080596924
490,56000.0,8.781659126281737,3.10109806060791,-2.5124638080596924
491,56100.0,8.86780071258545,3.2231321334838867,-2.4885356426239014
492,56200.0,8.86780071258545,3.2231321334838867,-2.4885356426239014
493,56300.0,8.86780071258545,3.2231321334838867,-2.4885356426239014
494,56400.0,8.872586250305176,3.1178479194641118,-2.517249345779419
495,56500.0,8.872586250305176,3.1178479194641118,-2.517249345779419
496,56600.0,8.781659126281737,3.0269205570220947,-2.366501569747925
497,56700.0,8.781659126281737,3.0269205570220947,-2.366501569747925
498,56800.0,8.781659126281737,3.0269205570220947,-2.366501569747925
499,56900.0,8.800802230834961,3.1585259437561035,-2.53399920463562
500,57000.0,8.800802230834961,3.1585259437561035,-2.53399920463562
501,57100.0,8.724230766296388,3.177668571472168,-2.6249265670776367
502,57200.0,8.724230766296388,3.177668571472168,-2.6249265670776367
503,57300.0,8.729016304016112,3.160918712615967,-2.4981069564819336
504,57400.0,8.729016304016112,3.160918712615967,-2.4981069564819336
505,57500.0,8.743373870849611,3.2446675300598145,-2.617748022079468
506,57600.0,8.743373870849611,3.2446675300598145,-2.617748022079468
507,57700.0,8.743373870849611,3.2446675300598145,-2.617748022079468
508,57800.0,8.834300994873047,3.0556347370147705,-2.0793628692626958
509,57900.0,8.834300994873047,3.0556347370147705,-2.0793628692626958
510,58000.0,8.791230201721191,3.3308091163635254,-2.538784980773926
511,58100.0,8.791230201721191,3.3308091163635254,-2.538784980773926
512,58200.0,8.786444664001465,3.1130621433258057,-2.565105676651001
513,58300.0,8.786444664001465,3.1130621433258057,-2.565105676651001
514,58400.0,8.786444664001465,3.1130621433258057,-2.565105676651001
515,58500.0,8.781659126281737,3.062812805175781,-2.565105676651001
516,58600.0,8.781659126281737,3.062812805175781,-2.565105676651001
517,58700.0,8.815157890319824,3.242274522781372,-2.548356056213379
518,58800.0,8.815157890319824,3.242274522781372,-2.548356056213379
519,58900.0,8.796016693115233,3.1944179534912114,-2.447857618331909
520,59000.0,8.796016693115233,3.1944179534912114,-2.447857618331909
521,59100.0,8.863015174865723,3.2135608196258545,-2.502892255783081
522,59200.0,8.863015174865723,3.2135608196258545,-2.502892255783081
523,59300.0,8.863015174865723,3.2135608196258545,-2.502892255783081
524,59400.0,8.724230766296388,3.2279179096221924,-2.4574286937713623
525,59500.0,8.724230766296388,3.2279179096221924,-2.4574286937713623
526,59600.0,8.776873588562013,3.2039895057678223,-2.569891452789306
527,59700.0,8.776873588562013,3.2039895057678223,-2.569891452789306
528,59800.0,8.724230766296388,3.177668571472168,-2.483749866485596
529,59900.0,8.724230766296388,3.177668571472168,-2.483749866485596
530,60000.0,8.70508861541748,3.1704900264739986,-2.6153552532196045
531,60100.0,8.70508861541748,3.1704900264739986,-2.6153552532196045
532,60200.0,8.819944381713867,3.3308091163635254,-2.553141593933105
533,60300.0,8.819944381713867,3.3308091163635254,-2.553141593933105
534,60400.0,8.819944381713867,3.3308091163635254,-2.553141593933105
535,60500.0,8.800802230834961,3.1896328926086426,-2.493321180343628
536,60600.0,8.800802230834961,3.1896328926086426,-2.493321180343628
537,60700.0,8.858229637145996,3.192025184631348,-2.562713146209717
538,60800.0,8.858229637145996,3.192025184631348,-2.562713146209717
539,60900.0,8.815157890319824,3.218346357345581,-2.4909284114837646
540,61000.0,8.815157890319824,3.218346357345581,-2.4909284114837646
541,61100.0,8.815157890319824,3.218346357345581,-2.4909284114837646
542,61200.0,8.781659126281737,3.2470602989196777,-2.486142873764038
543,61300.0,8.781659126281737,3.2470602989196777,-2.486142873764038
544,61400.0,8.863015174865723,3.242274522781372,-2.526820659637451
545,61500.0,8.863015174865723,3.242274522781372,-2.526820659637451
546,61600.0,8.791230201721191,3.2039895057678223,-2.4287149906158447
547,61700.0,8.791230201721191,3.2039895057678223,-2.4287149906158447
548,61800.0,8.791230201721191,3.2039895057678223,-2.4287149906158447
549,61900.0,8.805586814880371,3.2973096370697017,-2.514856576919556
550,62000.0,8.805586814880371,3.2973096370697017,-2.514856576919556
551,62100.0,8.824729919433594,3.263810157775879,-2.596212387084961
552,62200.0,8.824729919433594,3.263810157775879,-2.596212387084961
553,62300.0,8.700303077697754,3.31166672706604,-2.51007080078125
554,62400.0,8.700303077697754,3.31166672706604,-2.51007080078125
555,62500.0,8.700303077697754,3.31166672706604,-2.51007080078125
556,62600.0,8.848658561706543,3.2446675300598145,-2.737389087677002
557,62700.0,8.848658561706543,3.2446675300598145,-2.737389087677002
558,62800.0,8.733802795410156,3.273381233215332,-2.380858421325684
559,62900.0,8.733802795410156,3.273381233215332,-2.380858421325684
560,63000.0,8.896513938903809,3.230310440063477,-2.4957141876220703
561,63100.0,8.896513938903809,3.230310440063477,-2.4957141876220703
562,63200.0,8.896513938903809,3.230310440063477,-2.4957141876220703
563,63300.0,8.796016693115233,3.3236305713653564,-2.5507488250732417
564,63400.0,8.796016693115233,3.3236305713653564,-2.5507488250732417
565,63500.0,8.762516975402832,3.1800613403320312,-2.4023938179016118
566,63600.0,8.762516975402832,3.1800613403320312,-2.4023938179016118
567,63700.0,8.834300994873047,3.1728827953338623,-2.4598214626312256
568,63800.0,8.834300994873047,3.1728827953338623,-2.4598214626312256
569,63900.0,8.805586814880371,3.1992037296295166,-2.4717857837677
570,64000.0,8.805586814880371,3.1992037296295166,-2.4717857837677
571,64100.0,8.805586814880371,3.1992037296295166,-2.4717857837677
572,64200.0,8.800802230834961,3.206382274627685,-2.514856576919556
573,64300.0,8.800802230834961,3.206382274627685,-2.514856576919556
574,64400.0,8.863015174865723,3.208775281906128,-2.502892255783081
575,64500.0,8.863015174865723,3.208775281906128,-2.502892255783081
576,64600.0,8.767301559448242,3.218346357345581,-2.445464611053467
577,64700.0,8.767301559448242,3.218346357345581,-2.445464611053467
578,64800.0,8.767301559448242,3.218346357345581,-2.445464611053467
579,64900.0,8.800802230834961,3.2446675300598145,-2.416750907897949
580,65000.0,8.800802230834961,3.2446675300598145,-2.416750907897949
581,65100.0,8.843873023986816,3.177668571472168,-2.411965131759644
582,65200.0,8.843873023986816,3.177668571472168,-2.411965131759644
583,65300.0,8.858229637145996,3.2231321334838867,-2.411965131759644
584,65400.0,8.858229637145996,3.2231321334838867,-2.411965131759644
585,65500.0,8.858229637145996,3.2231321334838867,-2.411965131759644
586,65600.0,8.848658561706543,3.2231321334838867,-2.3617160320281982
587,65700.0,8.848658561706543,3.2231321334838867,-2.3617160320281982
588,65800.0,8.762516975402832,3.2997026443481445,-2.47896409034729
589,65900.0,8.762516975402832,3.2997026443481445,-2.47896409034729
590,66000.0,8.762516975402832,3.1106693744659424,-2.4047868251800537
591,66100.0,8.762516975402832,3.1106693744659424,-2.4047868251800537
592,66200.0,8.762516975402832,3.1106693744659424,-2.4047868251800537
593,66300.0,8.805586814880371,3.2709887027740483,-2.617748022079468
594,66400.0,8.805586814880371,3.2709887027740483,-2.617748022079468
595,66500.0,8.700303077697754,3.1704900264739986,-2.3736801147460938
596,66600.0,8.700303077697754,3.1704900264739986,-2.3736801147460938
597,66700.0,8.752944946289062,3.206382274627685,-2.4646072387695312
598,66800.0,8.752944946289062,3.206382274627685,-2.4646072387695312
599,66900.0,8.839086532592773,3.235095977783203,-2.5842485427856445
600,67000.0,8.839086532592773,3.235095977783203,-2.5842485427856445
601,67100.0,8.858229637145996,3.160918712615967,-2.557927370071411
602,67200.0,8.858229637145996,3.160918712615967,-2.557927370071411
603,67300.0,8.858229637145996,3.160918712615967,-2.557927370071411
604,67400.0,8.886943817138672,3.294916868209839,-2.304288148880005
605,67500.0,8.886943817138672,3.294916868209839,-2.304288148880005
606,67600.0,8.86780071258545,3.1944179534912114,-2.4023938179016118
607,67700.0,8.86780071258545,3.1944179534912114,-2.4023938179016118
608,67800.0,8.86780071258545,3.235095977783203,-2.3545374870300293
609,67900.0,8.86780071258545,3.235095977783203,-2.3545374870300293
610,68000.0,8.86780071258545,3.235095977783203,-2.3545374870300293
611,68100.0,8.86780071258545,3.1537401676177983,-2.258824586868286
612,68200.0,8.86780071258545,3.1537401676177983,-2.258824586868286
613,68300.0,8.910871505737305,3.089133977890014,-2.462214469909668
614,68400.0,8.910871505737305,3.089133977890014,-2.462214469909668
615,68500.0,8.815157890319824,3.242274522781372,-2.421536445617676
616,68600.0,8.815157890319824,3.242274522781372,-2.421536445617676
617,68700.0,8.886943817138672,3.232703685760498,-2.44067907333374
618,68800.0,8.886943817138672,3.232703685760498,-2.44067907333374
619,68900.0,8.815157890319824,3.089133977890014,-2.411965131759644
620,69000.0,8.815157890319824,3.089133977890014,-2.411965131759644
621,69100.0,8.810372352600098,3.25663161277771,-2.462214469909668
622,69200.0,8.810372352600098,3.25663161277771,-2.462214469909668
623,69300.0,8.810372352600098,3.25663161277771,-2.462214469909668
624,69400.0,8.824729919433594,3.1657044887542725,-2.5124638080596924
625,69500.0,8.824729919433594,3.1657044887542725,-2.5124638080596924
626,69600.0,8.791230201721191,3.206382274627685,-2.3736801147460938
627,69700.0,8.791230201721191,3.206382274627685,-2.3736801147460938
628,69800.0,8.791230201721191,3.206382274627685,-2.3736801147460938
629,69900.0,8.882158279418945,3.1800613403320312,-2.431107759475708
630,70000.0,8.882158279418945,3.1800613403320312,-2.431107759475708
631,70100.0,8.901299476623535,3.31166672706604,-2.4335007667541504
632,70200.0,8.901299476623535,3.31166672706604,-2.4335007667541504
633,70300.0,8.819944381713867,3.184847116470337,-2.3401806354522705
634,70400.0,8.819944381713867,3.184847116470337,-2.3401806354522705
635,70500.0,8.925228118896484,3.208775281906128,-2.517249345779419
636,70600.0,8.925228118896484,3.208775281906128,-2.517249345779419
637,70700.0,8.925228118896484,3.208775281906128,-2.517249345779419
638,70800.0,8.815157890319824,3.10109806060791,-2.1750757694244385
639,70900.0,8.815157890319824,3.10109806060791,-2.1750757694244385
640,71000.0,8.815157890319824,3.2542388439178467,-2.569891452789306
641,71100.0,8.815157890319824,3.2542388439178467,-2.569891452789306
642,71200.0,8.815157890319824,3.2542388439178467,-2.569891452789306
643,71300.0,8.810372352600098,3.0221347808837886,-2.411965131759644
644,71400.0,8.810372352600098,3.0221347808837886,-2.411965131759644
645,71500.0,8.848658561706543,3.273381233215332,-2.502892255783081
646,71600.0,8.848658561706543,3.273381233215332,-2.502892255783081
647,71700.0,8.901299476623535,3.2039895057678223,-2.423929214477539
648,71800.0,8.901299476623535,3.2039895057678223,-2.423929214477539
649,71900.0,8.800802230834961,3.103491306304932,-2.426322221755981
650,72000.0,8.800802230834961,3.103491306304932,-2.426322221755981
651,72100.0,8.86780071258545,3.168097257614136,-2.486142873764038
652,72200.0,8.86780071258545,3.168097257614136,-2.486142873764038
653,72300.0,8.86780071258545,3.168097257614136,-2.486142873764038
654,72400.0,8.896513938903809,3.1202406883239746,-2.4047868251800537
655,72500.0,8.896513938903809,3.1202406883239746,-2.4047868251800537
656,72600.0,8.858229637145996,3.1274189949035645,-2.4693927764892583
657,72700.0,8.858229637145996,3.1274189949035645,-2.4693927764892583
658,72800.0,8.858229637145996,3.1274189949035645,-2.4693927764892583
659,72900.0,8.886943817138672,3.192025184631348,-2.452643394470215
660,73000.0,8.886943817138672,3.192025184631348,-2.452643394470215
661,73100.0,8.791230201721191,3.0436704158782963,-2.445464611053467
662,73200.0,8.791230201721191,3.0436704158782963,-2.445464611053467
663,73300.0,8.824729919433594,3.146562099456787,-2.6081764698028564
664,73400.0,8.824729919433594,3.146562099456787,-2.6081764698028564
665,73500.0,8.800802230834961,3.1704900264739986,-2.6608188152313232
666,73600.0,8.800802230834961,3.1704900264739986,-2.6608188152313232
667,73700.0,8.772088050842285,3.1130621433258057,-2.6392831802368164
668,73800.0,8.772088050842285,3.1130621433258057,-2.6392831802368164
669,73900.0,8.772088050842285,3.1130621433258057,-2.6392831802368164
670,74000.0,8.752944946289062,3.218346357345581,-2.53399920463562
671,74100.0,8.752944946289062,3.218346357345581,-2.53399920463562
672,74200.0,8.796016693115233,3.103491306304932,-2.723031997680664
673,74300.0,8.796016693115233,3.103491306304932,-2.723031997680664
674,74400.0,8.810372352600098,3.086741209030152,-2.6679973602294917
675,74500.0,8.810372352600098,3.086741209030152,-2.6679973602294917
676,74600.0,8.810372352600098,3.086741209030152,-2.6679973602294917
677,74700.0,8.767301559448242,3.192025184631348,-2.589033842086792
678,74800.0,8.767301559448242,3.192025184631348,-2.589033842086792
679,74900.0,8.772088050842285,3.079562902450561,-2.541177749633789
680,75000.0,8.772088050842285,3.079562902450561,-2.541177749633789
681,75100.0,8.815157890319824,3.1800613403320312,-2.526820659637451
682,75200.0,8.815157890319824,3.1800613403320312,-2.526820659637451
683,75300.0,8.815157890319824,3.1800613403320312,-2.526820659637451
684,75400.0,8.805586814880371,3.1202406883239746,-2.4957141876220703
685,75500.0,8.805586814880371,3.1202406883239746,-2.4957141876220703
686,75600.0,8.843873023986816,3.060420036315918,-2.5459630489349365
687,75700.0,8.843873023986816,3.060420036315918,-2.5459630489349365
688,75800.0,8.86780071258545,3.13938307762146,-2.51007080078125
689,75900.0,8.86780071258545,3.13938307762146,-2.51007080078125
690,76000.0,8.86780071258545,3.13938307762146,-2.51007080078125
691,76100.0,8.839086532592773,3.089133977890014,-2.5076780319213867
692,76200.0,8.839086532592773,3.089133977890014,-2.5076780319213867
693,76300.0,8.819944381713867,3.0652055740356445,-2.569891452789306
694,76400.0,8.819944381713867,3.0652055740356445,-2.569891452789306
695,76500.0,8.776873588562013,3.177668571472168,-2.5124638080596924
696,76600.0,8.776873588562013,3.177668571472168,-2.5124638080596924
697,76700.0,8.805586814880371,3.084348201751709,-2.589033842086792
698,76800.0,8.805586814880371,3.084348201751709,-2.589033842086792
699,76900.0,8.805586814880371,3.084348201751709,-2.589033842086792
700,77000.0,8.853443145751953,2.9838497638702397,-2.4813570976257324
701,77100.0,8.853443145751953,2.9838497638702397,-2.4813570976257324
702,77200.0,8.834300994873047,3.079562902450561,-2.5555346012115483
703,77300.0,8.834300994873047,3.079562902450561,-2.5555346012115483
704,77400.0,8.853443145751953,3.0221347808837886,-2.3784656524658203
705,77500.0,8.853443145751953,3.0221347808837886,-2.3784656524658203
706,77600.0,8.877371788024902,2.96949315071106,-2.514856576919556
707,77700.0,8.877371788024902,2.96949315071106,-2.514856576919556
708,77800.0,8.848658561706543,3.081955671310425,-2.455036163330078
709,77900.0,8.848658561706543,3.081955671310425,-2.455036163330078
710,78000.0,8.858229637145996,3.1274189949035645,-2.4598214626312256
711,78100.0,8.858229637145996,3.1274189949035645,-2.4598214626312256
712,78200.0,8.858229637145996,3.1274189949035645,-2.4598214626312256
713,78300.0,8.858229637145996,3.122633695602417,-2.5459630489349365
714,78400.0,8.858229637145996,3.122633695602417,-2.5459630489349365
715,78500.0,8.858229637145996,3.072384119033813,-2.531606435775757
716,78600.0,8.858229637145996,3.072384119033813,-2.531606435775757
717,78700.0,8.848658561706543,2.995814085006714,-2.5124638080596924
718,78800.0,8.848658561706543,2.995814085006714,-2.5124638080596924
719,78900.0,8.848658561706543,2.995814085006714,-2.5124638080596924
720,79000.0,8.910871505737305,3.041277408599853,-2.531606435775757
721,79100.0,8.910871505737305,3.041277408599853,-2.531606435775757
722,79200.0,8.824729919433594,3.0652055740356445,-2.63449764251709
723,79300.0,8.824729919433594,3.0652055740356445,-2.63449764251709
724,79400.0,8.843873023986816,3.0484561920166016,-2.538784980773926
725,79500.0,8.843873023986816,3.0484561920166016,-2.538784980773926
726,79600.0,8.872586250305176,3.1274189949035645,-2.5004994869232178
727,79700.0,8.872586250305176,3.1274189949035645,-2.5004994869232178
728,79800.0,8.872586250305176,3.1274189949035645,-2.5004994869232178
729,79900.0,8.86780071258545,3.0747771263122563,-2.4909284114837646
730,80000.0,8.86780071258545,3.0747771263122563,-2.4909284114837646
731,80100.0,8.82951545715332,3.115455150604248,-2.483749866485596
732,80200.0,8.82951545715332,3.115455150604248,-2.483749866485596
733,80300.0,8.82951545715332,3.115455150604248,-2.483749866485596
734,80400.0,8.843873023986816,3.053241729736328,-2.4430718421936035
735,80500.0,8.843873023986816,3.053241729736328,-2.4430718421936035
736,80600.0,8.863015174865723,3.0747771263122563,-2.4502503871917725
737,80700.0,8.863015174865723,3.0747771263122563,-2.4502503871917725
738,80800.0,8.877371788024902,3.1178479194641118,-2.53399920463562
739,80900.0,8.877371788024902,3.1178479194641118,-2.53399920463562
740,81000.0,8.772088050842285,3.0317063331604004,-2.395215511322021
741,81100.0,8.772088050842285,3.0317063331604004,-2.395215511322021
742,81200.0,8.772088050842285,3.0317063331604004,-2.395215511322021
743,81300.0,8.853443145751953,3.122633695602417,-2.4909284114837646
744,81400.0,8.853443145751953,3.122633695602417,-2.4909284114837646
745,81500.0,8.877371788024902,3.0269205570220947,-2.421536445617676
746,81600.0,8.877371788024902,3.0269205570220947,-2.421536445617676
747,81700.0,8.800802230834961,3.168097257614136,-2.4909284114837646
748,81800.0,8.800802230834961,3.168097257614136,-2.4909284114837646
749,81900.0,8.800802230834961,3.168097257614136,-2.4909284114837646
750,82000.0,8.886943817138672,3.206382274627685,-2.4981069564819336
751,82100.0,8.886943817138672,3.206382274627685,-2.4981069564819336
752,82200.0,8.877371788024902,3.1106693744659424,-2.4335007667541504
753,82300.0,8.877371788024902,3.1106693744659424,-2.4335007667541504
754,82400.0,8.891729354858398,3.1944179534912114,-2.4430718421936035
755,82500.0,8.891729354858398,3.1944179534912114,-2.4430718421936035
756,82600.0,8.872586250305176,3.115455150604248,-2.416750907897949
757,82700.0,8.872586250305176,3.115455150604248,-2.416750907897949
758,82800.0,8.872586250305176,3.115455150604248,-2.416750907897949
759,82900.0,8.796016693115233,3.1824538707733154,-2.4717857837677
760,83000.0,8.796016693115233,3.1824538707733154,-2.4717857837677
761,83100.0,8.848658561706543,3.1944179534912114,-2.4430718421936035
762,83200.0,8.848658561706543,3.1944179534912114,-2.4430718421936035
763,83300.0,8.848658561706543,3.1944179534912114,-2.4023938179016118
764,83400.0,8.848658561706543,3.1944179534912114,-2.4023938179016118
765,83500.0,8.839086532592773,3.268595933914185,-2.4574286937713623
766,83600.0,8.839086532592773,3.268595933914185,-2.4574286937713623
767,83700.0,8.839086532592773,3.268595933914185,-2.4574286937713623
768,83800.0,8.776873588562013,3.129812002182007,-2.462214469909668
769,83900.0,8.776873588562013,3.129812002182007,-2.462214469909668
770,84000.0,8.671588897705076,3.0269205570220947,-2.502892255783081
771,84100.0,8.671588897705076,3.0269205570220947,-2.502892255783081
772,84200.0,8.810372352600098,3.2231321334838867,-2.53399920463562
773,84300.0,8.810372352600098,3.2231321334838867,-2.53399920463562
774,84400.0,8.762516975402832,3.2231321334838867,-2.4981069564819336
775,84500.0,8.762516975402832,3.2231321334838867,-2.4981069564819336
776,84600.0,8.762516975402832,3.2231321334838867,-2.4981069564819336
777,84700.0,8.872586250305176,3.1441688537597656,-2.493321180343628
778,84800.0,8.872586250305176,3.1441688537597656,-2.493321180343628
779,84900.0,8.839086532592773,3.086741209030152,-2.452643394470215
780,85000.0,8.839086532592773,3.086741209030152,-2.452643394470215
781,85100.0,8.839086532592773,3.086741209030152,-2.452643394470215
782,85200.0,8.882158279418945,3.235095977783203,-2.493321180343628
783,85300.0,8.882158279418945,3.235095977783203,-2.493321180343628
784,85400.0,8.824729919433594,3.1704900264739986,-2.541177749633789
785,85500.0,8.824729919433594,3.1704900264739986,-2.541177749633789
786,85600.0,8.886943817138672,3.0939197540283203,-2.304288148880005
787,85700.0,8.886943817138672,3.0939197540283203,-2.304288148880005
788,85800.0,8.776873588562013,3.2470602989196777,-2.486142873764038
789,85900.0,8.776873588562013,3.2470602989196777,-2.486142873764038
790,86000.0,8.915657043457031,3.208775281906128,-2.5076780319213867
791,86100.0,8.915657043457031,3.208775281906128,-2.5076780319213867
792,86200.0,8.915657043457031,3.208775281906128,-2.5076780319213867
793,86300.0,8.896513938903809,3.146562099456787,-2.620140790939331
794,86400.0,8.896513938903809,3.146562099456787,-2.620140790939331
795,86500.0,8.82951545715332,3.1944179534912114,-2.3976082801818848
796,86600.0,8.82951545715332,3.1944179534912114,-2.3976082801818848
797,86700.0,8.82951545715332,3.1944179534912114,-2.3976082801818848
798,86800.0,8.834300994873047,3.2853453159332275,-2.589033842086792
799,86900.0,8.834300994873047,3.2853453159332275,-2.589033842086792
800,87000.0,8.738588333129883,3.1704900264739986,-2.3856441974639893
801,87100.0,8.738588333129883,3.1704900264739986,-2.3856441974639893
802,87200.0,8.743373870849611,3.263810157775879,-2.445464611053467
803,87300.0,8.743373870849611,3.263810157775879,-2.445464611053467
804,87400.0,8.834300994873047,3.2135608196258545,-2.5363922119140625
805,87500.0,8.834300994873047,3.2135608196258545,-2.5363922119140625
806,87600.0,8.834300994873047,3.2135608196258545,-2.5363922119140625
807,87700.0,8.824729919433594,3.1704900264739986,-2.359323024749756
808,87800.0,8.824729919433594,3.1704900264739986,-2.359323024749756
809,87900.0,8.858229637145996,3.2231321334838867,-2.4693927764892583
810,88000.0,8.858229637145996,3.2231321334838867,-2.4693927764892583
811,88100.0,8.86780071258545,3.208775281906128,-2.5076780319213867
812,88200.0,8.86780071258545,3.208775281906128,-2.5076780319213867
813,88300.0,8.86780071258545,3.208775281906128,-2.5076780319213867
814,88400.0,8.843873023986816,3.0939197540283203,-2.364108800888061
815,88500.0,8.843873023986816,3.0939197540283203,-2.364108800888061
816,88600.0,8.82951545715332,3.232703685760498,-2.4693927764892583
817,88700.0,8.82951545715332,3.232703685760498,-2.4693927764892583
818,88800.0,8.757731437683105,3.1441688537597656,-2.5196423530578613
819,88900.0,8.757731437683105,3.1441688537597656,-2.5196423530578613
820,89000.0,8.815157890319824,3.091526985168457,-2.4717857837677
821,89100.0,8.815157890319824,3.091526985168457,-2.4717857837677
822,89200.0,8.815157890319824,3.091526985168457,-2.4717857837677
823,89300.0,8.800802230834961,3.0484561920166016,-2.47896409034729
824,89400.0,8.800802230834961,3.0484561920166016,-2.47896409034729
825,89500.0,8.853443145751953,3.1944179534912114,-2.567498683929444
826,89600.0,8.853443145751953,3.1944179534912114,-2.567498683929444
827,89700.0,8.82951545715332,3.103491306304932,-2.426322221755981
828,89800.0,8.82951545715332,3.103491306304932,-2.426322221755981
829,89900.0,8.82951545715332,3.103491306304932,-2.426322221755981
830,90000.0,8.767301559448242,3.0987055301666264,-2.548356056213379
831,90100.0,8.767301559448242,3.0987055301666264,-2.548356056213379
832,90200.0,8.791230201721191,3.146562099456787,-2.517249345779419
833,90300.0,8.791230201721191,3.146562099456787,-2.517249345779419
834,90400.0,8.858229637145996,3.2231321334838867,-2.65842604637146
835,90500.0,8.858229637145996,3.2231321334838867,-2.65842604637146
836,90600.0,8.930014610290527,3.029313325881958,-2.4909284114837646
837,90700.0,8.930014610290527,3.029313325881958,-2.4909284114837646
838,90800.0,8.930014610290527,3.029313325881958,-2.4909284114837646
839,90900.0,8.819944381713867,3.2542388439178467,-2.785245418548584
840,91000.0,8.819944381713867,3.2542388439178467,-2.785245418548584
841,91100.0,8.762516975402832,3.3212375640869136,-2.636890411376953
842,91200.0,8.762516975402832,3.3212375640869136,-2.636890411376953
843,91300.0,8.843873023986816,3.2614171504974365,-2.778067111968994
844,91400.0,8.843873023986816,3.2614171504974365,-2.778067111968994
845,91500.0,8.82951545715332,3.0484561920166016,-2.337787628173828
846,91600.0,8.82951545715332,3.0484561920166016,-2.337787628173828
847,91700.0,8.82951545715332,3.0484561920166016,-2.337787628173828
848,91800.0,8.882158279418945,3.146562099456787,-2.452643394470215
849,91900.0,8.882158279418945,3.146562099456787,-2.452643394470215
850,92000.0,8.877371788024902,3.2446675300598145,-2.5555346012115483
851,92100.0,8.877371788024902,3.2446675300598145,-2.5555346012115483
852,92200.0,8.877371788024902,3.2446675300598145,-2.5555346012115483
853,92300.0,8.819944381713867,3.1345977783203125,-2.416750907897949
854,92400.0,8.819944381713867,3.1345977783203125,-2.416750907897949
855,92500.0,8.796016693115233,3.1130621433258057,-2.352144718170166
856,92600.0,8.796016693115233,3.1130621433258057,-2.352144718170166
857,92700.0,8.800802230834961,3.122633695602417,-2.531606435775757
858,92800.0,8.800802230834961,3.122633695602417,-2.531606435775757
859,92900.0,8.848658561706543,3.060420036315918,-2.359323024749756
860,93000.0,8.848658561706543,3.060420036315918,-2.359323024749756
861,93100.0,8.848658561706543,3.060420036315918,-2.359323024749756
862,93200.0,8.901299476623535,3.10109806060791,-2.5124638080596924
863,93300.0,8.901299476623535,3.10109806060791,-2.5124638080596924
864,93400.0,8.863015174865723,3.1058835983276367,-2.4670000076293945
865,93500.0,8.863015174865723,3.1058835983276367,-2.4670000076293945
866,93600.0,8.863015174865723,3.1058835983276367,-2.4670000076293945
867,93700.0,8.853443145751953,3.1202406883239746,-2.476571559906006
868,93800.0,8.853443145751953,3.1202406883239746,-2.476571559906006
869,93900.0,8.776873588562013,3.1441688537597656,-2.5076780319213867
870,94000.0,8.776873588562013,3.1441688537597656,-2.5076780319213867
871,94100.0,8.834300994873047,3.2159535884857178,-2.4957141876220703
872,94200.0,8.834300994873047,3.2159535884857178,-2.4957141876220703
873,94300.0,8.834300994873047,3.2159535884857178,-2.4957141876220703
874,94400.0,8.776873588562013,3.201596736907959,-2.5459630489349365
875,94500.0,8.776873588562013,3.201596736907959,-2.5459630489349365
876,94600.0,8.819944381713867,3.242274522781372,-2.452643394470215
877,94700.0,8.819944381713867,3.242274522781372,-2.452643394470215
878,94800.0,8.796016693115233,3.1896328926086426,-2.4598214626312256
879,94900.0,8.796016693115233,3.1896328926086426,-2.4598214626312256
880,95000.0,8.796016693115233,3.1896328926086426,-2.4598214626312256
881,95100.0,8.757731437683105,3.206382274627685,-2.524427890777588
882,95200.0,8.757731437683105,3.206382274627685,-2.524427890777588
883,95300.0,8.757731437683105,3.2255251407623287,-2.431107759475708
884,95400.0,8.757731437683105,3.2255251407623287,-2.431107759475708
885,95500.0,8.824729919433594,3.3068809509277344,-2.526820659637451
886,95600.0,8.824729919433594,3.3068809509277344,-2.526820659637451
887,95700.0,8.810372352600098,3.1896328926086426,-2.414358139038086
888,95800.0,8.810372352600098,3.1896328926086426,-2.414358139038086
889,95900.0,8.810372352600098,3.1896328926086426,-2.414358139038086
890,96000.0,8.748159408569336,3.2159535884857178,-2.4191436767578125
891,96100.0,8.748159408569336,3.2159535884857178,-2.4191436767578125
892,96200.0,8.781659126281737,3.2470602989196777,-2.486142873764038
893,96300.0,8.781659126281737,3.2470602989196777,-2.486142873764038
894,96400.0,8.834300994873047,3.3523442745208736,-2.5124638080596924
895,96500.0,8.834300994873047,3.3523442745208736,-2.5124638080596924
896,96600.0,8.834300994873047,3.3523442745208736,-2.5124638080596924
897,96700.0,8.762516975402832,3.249453067779541,-2.565105676651001
898,96800.0,8.762516975402832,3.249453067779541,-2.565105676651001
899,96900.0,8.729016304016112,3.1130621433258057,-2.4430718421936035
900,97000.0,8.729016304016112,3.1130621433258057,-2.4430718421936035
901,97100.0,8.743373870849611,3.218346357345581,-2.4909284114837646
902,97200.0,8.743373870849611,3.218346357345581,-2.4909284114837646
903,97300.0,8.810372352600098,3.2446675300598145,-2.445464611053467
904,97400.0,8.810372352600098,3.2446675300598145,-2.445464611053467
905,97500.0,8.834300994873047,3.25663161277771,-2.462214469909668
906,97600.0,8.834300994873047,3.25663161277771,-2.462214469909668
907,97700.0,8.834300994873047,3.25663161277771,-2.462214469909668
908,97800.0,8.863015174865723,3.177668571472168,-2.3784656524658203
909,97900.0,8.863015174865723,3.177668571472168,-2.3784656524658203
910,98000.0,8.848658561706543,3.25663161277771,-2.4358932971954346
911,98100.0,8.848658561706543,3.25663161277771,-2.4358932971954346
912,98200.0,8.858229637145996,3.211168050765991,-2.421536445617676
913,98300.0,8.858229637145996,3.211168050765991,-2.421536445617676
914,98400.0,8.858229637145996,3.211168050765991,-2.421536445617676
915,98500.0,8.86780071258545,3.1513471603393555,-2.3569302558898926
916,98600.0,8.86780071258545,3.1513471603393555,-2.3569302558898926
917,98700.0,8.863015174865723,3.177668571472168,-2.411965131759644
918,98800.0,8.863015174865723,3.177668571472168,-2.411965131759644
919,98900.0,8.863015174865723,3.2135608196258545,-2.380858421325684
920,99000.0,8.863015174865723,3.2135608196258545,-2.380858421325684
921,99100.0,8.863015174865723,3.2135608196258545,-2.380858421325684
922,99200.0,8.853443145751953,3.177668571472168,-2.452643394470215
923,99300.0,8.853443145751953,3.177668571472168,-2.452643394470215
924,99400.0,8.776873588562013,3.239881753921509,-2.4287149906158447
925,99500.0,8.776873588562013,3.239881753921509,-2.4287149906158447
926,99600.0,8.877371788024902,3.1944179534912114,-2.4023938179016118
927,99700.0,8.877371788024902,3.1944179534912114,-2.4023938179016118
928,99800.0,8.877371788024902,3.1944179534912114,-2.4023938179016118
929,99900.0,8.810372352600098,3.2279179096221924,-2.452643394470215
930,100000.0,8.810372352600098,3.2279179096221924,-2.452643394470215
931,100100.0,8.815157890319824,3.206382274627685,-2.447857618331909
932,100200.0,8.815157890319824,3.206382274627685,-2.447857618331909
933,100300.0,8.824729919433594,3.2039895057678223,-2.414358139038086
934,100400.0,8.824729919433594,3.2039895057678223,-2.414358139038086
935,100500.0,8.824729919433594,3.2039895057678223,-2.414358139038086
936,100600.0,8.82951545715332,3.273381233215332,-2.502892255783081
937,100700.0,8.82951545715332,3.273381233215332,-2.502892255783081
938,100800.0,8.786444664001465,3.2470602989196777,-2.4358932971954346
939,100900.0,8.786444664001465,3.2470602989196777,-2.4358932971954346
940,101000.0,8.82951545715332,3.3212375640869136,-2.3569302558898926
941,101100.0,8.82951545715332,3.3212375640869136,-2.3569302558898926
942,101200.0,8.82951545715332,3.3212375640869136,-2.3569302558898926
943,101300.0,8.685946464538574,3.3451659679412837,-2.538784980773926
944,101400.0,8.685946464538574,3.3451659679412837,-2.538784980773926
945,101500.0,8.71466064453125,3.2231321334838867,-2.53399920463562
946,101600.0,8.71466064453125,3.2231321334838867,-2.53399920463562
947,101700.0,8.772088050842285,3.3308091163635254,-2.553141593933105
948,101800.0,8.772088050842285,3.3308091163635254,-2.553141593933105
949,101900.0,8.772088050842285,3.3308091163635254,-2.553141593933105
950,102000.0,8.729016304016112,3.3786656856536865,-2.6536402702331543
951,102100.0,8.729016304016112,3.3786656856536865,-2.6536402702331543
952,102200.0,8.791230201721191,3.263810157775879,-2.610569477081299
953,102300.0,8.791230201721191,3.263810157775879,-2.610569477081299
954,102400.0,8.71944522857666,3.177668571472168,-2.4717857837677
955,102500.0,8.71944522857666,3.177668571472168,-2.4717857837677
956,102600.0,8.757731437683105,3.2231321334838867,-2.6703903675079346
957,102700.0,8.757731437683105,3.2231321334838867,-2.6703903675079346
958,102800.0,8.767301559448242,3.242274522781372,-2.71346116065979
959,102900.0,8.767301559448242,3.242274522781372,-2.71346116065979
960,103000.0,8.767301559448242,3.242274522781372,-2.71346116065979
961,103100.0,8.733802795410156,3.1728827953338623,-2.5196423530578613
962,103200.0,8.733802795410156,3.1728827953338623,-2.5196423530578613
963,103300.0,8.767301559448242,3.0436704158782963,-2.627319574356079
964,103400.0,8.767301559448242,3.0436704158782963,-2.627319574356079
965,103500.0,8.834300994873047,3.146562099456787,-2.5124638080596924
966,103600.0,8.834300994873047,3.146562099456787,-2.5124638080596924
967,103700.0,8.834300994873047,3.146562099456787,-2.5124638080596924
968,103800.0,8.791230201721191,3.0939197540283203,-2.5866410732269287
969,103900.0,8.791230201721191,3.0939197540283203,-2.5866410732269287
970,104000.0,8.796016693115233,3.1274189949035645,-2.53399920463562
971,104100.0,8.796016693115233,3.1274189949035645,-2.53399920463562
972,104200.0,8.791230201721191,3.263810157775879,-2.629711866378784
973,104300.0,8.791230201721191,3.263810157775879,-2.629711866378784
974,104400.0,8.71944522857666,3.1441688537597656,-2.5986053943634038
975,104500.0,8.71944522857666,3.1441688537597656,-2.5986053943634038
976,104600.0,8.781659126281737,3.1082763671875,-2.6009981632232666
977,104700.0,8.781659126281737,3.1082763671875,-2.6009981632232666
978,104800.0,8.781659126281737,3.1082763671875,-2.6009981632232666
979,104900.0,8.805586814880371,3.232703685760498,-2.596212387084961
980,105000.0,8.805586814880371,3.232703685760498,-2.596212387084961
981,105100.0,8.834300994873047,3.211168050765991,-2.617748022079468
982,105200.0,8.834300994873047,3.211168050765991,-2.617748022079468
983,105300.0,8.834300994873047,3.211168050765991,-2.617748022079468
984,105400.0,8.805586814880371,3.1178479194641118,-2.5986053943634038
985,105500.0,8.805586814880371,3.1178479194641118,-2.5986053943634038
986,105600.0,8.757731437683105,3.13220477104187,-2.4670000076293945
987,105700.0,8.757731437683105,3.13220477104187,-2.4670000076293945
988,105800.0,8.729016304016112,3.445664882659912,-2.6009981632232666
989,105900.0,8.729016304016112,3.445664882659912,-2.6009981632232666
990,106000.0,8.729016304016112,3.445664882659912,-2.6009981632232666
991,106100.0,8.772088050842285,3.2446675300598145,-2.5555346012115483
992,106200.0,8.772088050842285,3.2446675300598145,-2.5555346012115483
993,106300.0,8.738588333129883,3.187239646911621,-2.5004994869232178
994,106400.0,8.738588333129883,3.187239646911621,-2.5004994869232178
995,106500.0,8.738588333129883,3.187239646911621,-2.5004994869232178
996,106600.0,8.762516975402832,3.4169507026672363,-2.57228422164917
997,106700.0,8.762516975402832,3.4169507026672363,-2.57228422164917
998,106800.0,8.800802230834961,3.218346357345581,-2.4598214626312256
999,106900.0,8.800802230834961,3.218346357345581,-2.4598214626312256
1000,107000.0,8.882158279418945,3.3308091163635254,-2.553141593933105
1001,107100.0,8.882158279418945,3.3308091163635254,-2.553141593933105
1002,107200.0,8.666803359985353,3.2829525470733643,-2.438286304473877
1003,107300.0,8.666803359985353,3.2829525470733643,-2.438286304473877
1004,107400.0,8.776873588562013,3.249453067779541,-2.5555346012115483
1005,107500.0,8.776873588562013,3.249453067779541,-2.5555346012115483
1006,107600.0,8.776873588562013,3.249453067779541,-2.5555346012115483
1007,107700.0,8.71944522857666,3.304487943649292,-2.4717857837677
1008,107800.0,8.71944522857666,3.304487943649292,-2.4717857837677
1009,107900.0,8.709875106811522,3.2853453159332275,-2.416750907897949
1010,108000.0,8.709875106811522,3.2853453159332275,-2.416750907897949
1011,108100.0,8.729016304016112,3.3475589752197266,-2.557927370071411
1012,108200.0,8.729016304016112,3.3475589752197266,-2.557927370071411
1013,108300.0,8.729016304016112,3.3475589752197266,-2.557927370071411
1014,108400.0,8.700303077697754,3.290131092071533,-2.57228422164917
1015,108500.0,8.700303077697754,3.290131092071533,-2.57228422164917
1016,108600.0,8.748159408569336,3.3092737197875977,-2.4909284114837646
1017,108700.0,8.748159408569336,3.3092737197875977,-2.4909284114837646
1018,108800.0,8.733802795410156,3.239881753921509,-2.383251428604126
1019,108900.0,8.733802795410156,3.239881753921509,-2.383251428604126
1020,109000.0,8.819944381713867,3.31884503364563,-2.452643394470215
1021,109100.0,8.819944381713867,3.31884503364563,-2.452643394470215
1022,109200.0,8.819944381713867,3.31884503364563,-2.452643394470215
1023,109300.0,8.882158279418945,3.177668571472168,-2.438286304473877
1024,109400.0,8.882158279418945,3.177668571472168,-2.438286304473877
1025,109500.0,8.815157890319824,3.206382274627685,-2.4023938179016118
1026,109600.0,8.815157890319824,3.206382274627685,-2.4023938179016118
1027,109700.0,8.805586814880371,3.268595933914185,-2.4693927764892583
1028,109800.0,8.805586814880371,3.268595933914185,-2.4693927764892583
1029,109900.0,8.805586814880371,3.268595933914185,-2.4693927764892583
1030,110000.0,8.743373870849611,3.201596736907959,-2.526820659637451
1031,110100.0,8.743373870849611,3.201596736907959,-2.526820659637451
1032,110200.0,8.752944946289062,3.3020951747894287,-2.5746772289276123
1033,110300.0,8.752944946289062,3.3020951747894287,-2.5746772289276123
1034,110400.0,8.748159408569336,3.32602334022522,-2.541177749633789
1035,110500.0,8.748159408569336,3.32602334022522,-2.541177749633789
1036,110600.0,8.748159408569336,3.32602334022522,-2.541177749633789
1037,110700.0,8.772088050842285,3.2829525470733643,-2.589033842086792
1038,110800.0,8.772088050842285,3.2829525470733643,-2.589033842086792
1039,110900.0,8.82951545715332,3.3547375202178955,-2.455036163330078
1040,111000.0,8.82951545715332,3.3547375202178955,-2.455036163330078
1041,111100.0,8.805586814880371,3.294916868209839,-2.4287149906158447
1042,111200.0,8.805586814880371,3.294916868209839,-2.4287149906158447
1043,111300.0,8.819944381713867,3.3164520263671875,-2.462214469909668
1044,111400.0,8.819944381713867,3.3164520263671875,-2.462214469909668
1045,111500.0,8.819944381713867,3.3164520263671875,-2.462214469909668
1046,111600.0,8.791230201721191,3.2757742404937744,-2.3712873458862305
1047,111700.0,8.791230201721191,3.2757742404937744,-2.3712873458862305
1048,111800.0,8.743373870849611,3.2135608196258545,-2.5363922119140625
1049,111900.0,8.743373870849611,3.2135608196258545,-2.5363922119140625
1050,112000.0,8.800802230834961,3.2805597782135014,-2.4909284114837646
1051,112100.0,8.800802230834961,3.2805597782135014,-2.4909284114837646
1052,112200.0,8.800802230834961,3.2805597782135014,-2.4909284114837646
1053,112300.0,8.810372352600098,3.2614171504974365,-2.541177749633789
1054,112400.0,8.810372352600098,3.2614171504974365,-2.541177749633789
1055,112500.0,8.805586814880371,3.2709887027740483,-2.5124638080596924
1056,112600.0,8.805586814880371,3.2709887027740483,-2.5124638080596924
1057,112700.0,8.853443145751953,3.3020951747894287,-2.447857618331909
1058,112800.0,8.853443145751953,3.3020951747894287,-2.447857618331909
1059,112900.0,8.762516975402832,3.2805597782135014,-2.4957141876220703
1060,113000.0,8.762516975402832,3.2805597782135014,-2.4957141876220703
1061,113100.0,8.82951545715332,3.2805597782135014,-2.4646072387695312
1062,113200.0,8.82951545715332,3.2805597782135014,-2.4646072387695312
1063,113300.0,8.82951545715332,3.2805597782135014,-2.4646072387695312
1064,113400.0,8.748159408569336,3.1968109607696533,-2.4813570976257324
1065,113500.0,8.748159408569336,3.1968109607696533,-2.4813570976257324
1066,113600.0,8.791230201721191,3.3020951747894287,-2.483749866485596
1067,113700.0,8.791230201721191,3.3020951747894287,-2.483749866485596
1068,113800.0,8.896513938903809,3.3308091163635254,-2.4598214626312256
1069,113900.0,8.896513938903809,3.3308091163635254,-2.4598214626312256
1070,114000.0,8.896513938903809,3.3308091163635254,-2.4598214626312256
1071,114100.0,8.752944946289062,3.1585259437561035,-2.258824586868286
1072,114200.0,8.752944946289062,3.1585259437561035,-2.258824586868286
1073,114300.0,8.743373870849611,3.1657044887542725,-2.447857618331909
1074,114400.0,8.743373870849611,3.1657044887542725,-2.447857618331909
1075,114500.0,8.819944381713867,3.259024381637573,-2.502892255783081
1076,114600.0,8.819944381713867,3.259024381637573,-2.502892255783081
1077,114700.0,8.877371788024902,3.263810157775879,-2.44067907333374
1078,114800.0,8.877371788024902,3.263810157775879,-2.44067907333374
1079,114900.0,8.877371788024902,3.263810157775879,-2.44067907333374
1080,115000.0,8.915657043457031,3.2781667709350586,-2.6560330390930176
1081,115100.0,8.915657043457031,3.2781667709350586,-2.6560330390930176
1082,115200.0,8.786444664001465,3.192025184631348,-2.5292134284973145
1083,115300.0,8.786444664001465,3.192025184631348,-2.5292134284973145
1084,115400.0,8.772088050842285,3.2255251407623287,-2.5124638080596924
1085,115500.0,8.772088050842285,3.2255251407623287,-2.5124638080596924
1086,115600.0,8.772088050842285,3.2255251407623287,-2.5124638080596924
1087,115700.0,8.709875106811522,3.28773832321167,-2.6679973602294917
1088,115800.0,8.709875106811522,3.28773832321167,-2.6679973602294917
1089,115900.0,8.738588333129883,3.2518460750579834,-2.6967110633850098
1090,116000.0,8.738588333129883,3.2518460750579834,-2.6967110633850098
1091,116100.0,8.752944946289062,3.122633695602417,-2.4909284114837646
1092,116200.0,8.752944946289062,3.122633695602417,-2.4909284114837646
1093,116300.0,8.824729919433594,3.1345977783203125,-2.416750907897949
1094,116400.0,8.824729919433594,3.1345977783203125,-2.416750907897949
1095,116500.0,8.819944381713867,3.2159535884857178,-2.526820659637451
1096,116600.0,8.819944381713867,3.2159535884857178,-2.526820659637451
1097,116700.0,8.819944381713867,3.2159535884857178,-2.526820659637451
1098,116800.0,8.843873023986816,3.235095977783203,-2.4741785526275635
1099,116900.0,8.843873023986816,3.235095977783203,-2.4741785526275635
1100,117000.0,8.824729919433594,3.3714869022369385,-2.4909284114837646
1101,117100.0,8.824729919433594,3.3714869022369385,-2.4909284114837646
1102,117200.0,8.776873588562013,3.1106693744659424,-2.524427890777588
1103,117300.0,8.776873588562013,3.1106693744659424,-2.524427890777588
1104,117400.0,8.776873588562013,3.1106693744659424,-2.524427890777588
1105,117500.0,8.762516975402832,3.32602334022522,-2.5555346012115483
1106,117600.0,8.762516975402832,3.32602334022522,-2.5555346012115483
1107,117700.0,8.767301559448242,3.2829525470733643,-2.4981069564819336
1108,117800.0,8.767301559448242,3.2829525470733643,-2.4981069564819336
1109,117900.0,8.752944946289062,3.211168050765991,-2.5124638080596924
1110,118000.0,8.752944946289062,3.211168050765991,-2.5124638080596924
1111,118100.0,8.762516975402832,3.201596736907959,-2.5004994869232178
1112,118200.0,8.762516975402832,3.201596736907959,-2.5004994869232178
1113,118300.0,8.762516975402832,3.201596736907959,-2.5004994869232178
1114,118400.0,8.824729919433594,3.211168050765991,-2.543570280075073
1115,118500.0,8.824729919433594,3.211168050765991,-2.543570280075073
1116,118600.0,8.819944381713867,3.206382274627685,-2.651247262954712
1117,118700.0,8.819944381713867,3.206382274627685,-2.651247262954712
1118,118800.0,8.819944381713867,3.206382274627685,-2.651247262954712
1119,118900.0,8.834300994873047,3.084348201751709,-2.4430718421936035
1120,119000.0,8.834300994873047,3.084348201751709,-2.4430718421936035
1121,119100.0,8.752944946289062,3.156132936477661,-2.5914268493652344
1122,119200.0,8.752944946289062,3.156132936477661,-2.5914268493652344
1123,119300.0,8.724230766296388,3.2231321334838867,-2.4885356426239014
1124,119400.0,8.724230766296388,3.2231321334838867,-2.4885356426239014
1125,119500.0,8.724230766296388,3.2231321334838867,-2.4885356426239014
1126,119600.0,8.776873588562013,3.1513471603393555,-2.486142873764038
1127,119700.0,8.776873588562013,3.1513471603393555,-2.486142873764038
1128,119800.0,8.853443145751953,3.129812002182007,-2.47896409034729
1129,119900.0,8.853443145751953,3.129812002182007,-2.47896409034729
1130,120000.0,8.805586814880371,3.259024381637573,-2.4574286937713623
1131,120100.0,8.805586814880371,3.259024381637573,-2.4574286937713623
1132,120200.0,8.590232849121094,3.072384119033813,-2.531606435775757
1133,120300.0,8.590232849121094,3.072384119033813,-2.531606435775757
1134,120400.0,8.561518669128418,3.2255251407623287,-2.7732813358306885
1135,120500.0,8.561518669128418,3.2255251407623287,-2.7732813358306885
1136,120600.0,8.561518669128418,3.2255251407623287,-2.7732813358306885
1137,120700.0,8.848658561706543,3.2614171504974365,-2.3856441974639893
1138,120800.0,8.848658561706543,3.2614171504974365,-2.3856441974639893
1139,120900.0,8.839086532592773,3.156132936477661,-2.514856576919556
1140,121000.0,8.839086532592773,3.156132936477661,-2.514856576919556
1141,121100.0,8.776873588562013,3.1441688537597656,-2.5052852630615234
1142,121200.0,8.776873588562013,3.1441688537597656,-2.5052852630615234
1143,121300.0,8.776873588562013,3.1441688537597656,-2.5052852630615234
1144,121400.0,8.786444664001465,3.3212375640869136,-2.4909284114837646
1145,121500.0,8.786444664001465,3.3212375640869136,-2.4909284114837646
1146,121600.0,8.786444664001465,3.1752755641937256,-2.569891452789306
1147,121700.0,8.786444664001465,3.1752755641937256,-2.569891452789306
1148,121800.0,8.757731437683105,3.2159535884857178,-2.541177749633789
1149,121900.0,8.757731437683105,3.2159535884857178,-2.541177749633789
1150,122000.0,8.757731437683105,3.2207393646240234,-2.569891452789306
1151,122100.0,8.757731437683105,3.2207393646240234,-2.569891452789306
1152,122200.0,8.757731437683105,3.2207393646240234,-2.569891452789306
1153,122300.0,8.781659126281737,3.3762726783752437,-2.6464619636535645
1154,122400.0,8.781659126281737,3.3762726783752437,-2.6464619636535645
1155,122500.0,8.738588333129883,3.2757742404937744,-2.5363922119140625
1156,122600.0,8.738588333129883,3.2757742404937744,-2.5363922119140625
1157,122700.0,8.762516975402832,3.146562099456787,-2.4670000076293945
1158,122800.0,8.762516975402832,3.146562099456787,-2.4670000076293945
1159,122900.0,8.762516975402832,3.146562099456787,-2.4670000076293945
1160,123000.0,8.796016693115233,3.259024381637573,-2.4909284114837646
1161,123100.0,8.796016693115233,3.259024381637573,-2.4909284114837646
1162,123200.0,8.834300994873047,3.359522819519043,-2.596212387084961
1163,123300.0,8.834300994873047,3.359522819519043,-2.596212387084961
1164,123400.0,8.772088050842285,3.115455150604248,-2.4023938179016118
1165,123500.0,8.772088050842285,3.115455150604248,-2.4023938179016118
1166,123600.0,8.815157890319824,3.268595933914185,-2.675175428390503
1167,123700.0,8.815157890319824,3.268595933914185,-2.675175428390503
1168,123800.0,8.772088050842285,3.2279179096221924,-2.581855773925781
1169,123900.0,8.772088050842285,3.2279179096221924,-2.581855773925781
1170,124000.0,8.772088050842285,3.2279179096221924,-2.581855773925781
1171,124100.0,8.709875106811522,3.029313325881958,-2.651247262954712
1172,124200.0,8.709875106811522,3.029313325881958,-2.651247262954712
1173,124300.0,8.681159973144531,3.062812805175781,-2.4909284114837646
1174,124400.0,8.681159973144531,3.062812805175781,-2.4909284114837646
1175,124500.0,8.748159408569336,3.086741209030152,-2.562713146209717
1176,124600.0,8.748159408569336,3.086741209030152,-2.562713146209717
1177,124700.0,8.776873588562013,3.141776323318481,-2.6560330390930176
1178,124800.0,8.776873588562013,3.141776323318481,-2.6560330390930176
1179,124900.0,8.776873588562013,3.141776323318481,-2.6560330390930176
1180,125000.0,8.772088050842285,3.1537401676177983,-2.723031997680664
1181,125100.0,8.772088050842285,3.1537401676177983,-2.723031997680664
1182,125200.0,8.834300994873047,3.10109806060791,-2.6536402702331543
1183,125300.0,8.834300994873047,3.10109806060791,-2.6536402702331543
1184,125400.0,8.743373870849611,3.0149567127227783,-2.541177749633789
1185,125500.0,8.743373870849611,3.0149567127227783,-2.541177749633789
1186,125600.0,8.638089179992676,3.1202406883239746,-2.6081764698028564
1187,125700.0,8.638089179992676,3.1202406883239746,-2.6081764698028564
1188,125800.0,8.638089179992676,3.1202406883239746,-2.6081764698028564
1189,125900.0,8.781659126281737,3.086741209030152,-2.562713146209717
1190,126000.0,8.781659126281737,3.086741209030152,-2.562713146209717
1191,126100.0,8.776873588562013,3.1992037296295166,-2.691925525665283
1192,126200.0,8.776873588562013,3.1992037296295166,-2.691925525665283
1193,126300.0,8.757731437683105,3.2446675300598145,-2.5555346012115483
1194,126400.0,8.757731437683105,3.2446675300598145,-2.5555346012115483
1195,126500.0,8.757731437683105,3.2446675300598145,-2.5555346012115483
1196,126600.0,8.839086532592773,3.091526985168457,-2.560320377349853
1197,126700.0,8.839086532592773,3.091526985168457,-2.560320377349853
1198,126800.0,8.724230766296388,3.2159535884857178,-2.651247262954712
1199,126900.0,8.724230766296388,3.2159535884857178,-2.651247262954712
1200,127000.0,8.757731437683105,3.3140592575073238,-2.53399920463562
1201,127100.0,8.757731437683105,3.3140592575073238,-2.53399920463562
1202,127200.0,8.786444664001465,3.1968109607696533,-2.636890411376953
1203,127300.0,8.786444664001465,3.1968109607696533,-2.636890411376953
1204,127400.0,8.786444664001465,3.1968109607696533,-2.636890411376953
1205,127500.0,8.757731437683105,3.2518460750579834,-2.543570280075073
1206,127600.0,8.757731437683105,3.2518460750579834,-2.543570280075073
1207,127700.0,8.757731437683105,3.2614171504974365,-2.5866410732269287
1208,127800.0,8.757731437683105,3.2614171504974365,-2.5866410732269287
1209,127900.0,8.676375389099121,3.1896328926086426,-2.648854732513428
1210,128000.0,8.676375389099121,3.1896328926086426,-2.648854732513428
1211,128100.0,8.786444664001465,3.1968109607696533,-2.557927370071411
1212,128200.0,8.786444664001465,3.1968109607696533,-2.557927370071411
1213,128300.0,8.786444664001465,3.1968109607696533,-2.557927370071411
1214,128400.0,8.781659126281737,3.25663161277771,-2.648854732513428
1215,128500.0,8.781659126281737,3.25663161277771,-2.648854732513428
1216,128600.0,8.724230766296388,3.2446675300598145,-2.6009981632232666
1217,128700.0,8.724230766296388,3.2446675300598145,-2.6009981632232666
1218,128800.0,8.752944946289062,3.3164520263671875,-2.47896409034729
1219,128900.0,8.752944946289062,3.3164520263671875,-2.47896409034729
1220,129000.0,8.729016304016112,3.3092737197875977,-2.6464619636535645
1221,129100.0,8.729016304016112,3.3092737197875977,-2.6464619636535645
1222,129200.0,8.729016304016112,3.3092737197875977,-2.6464619636535645
1223,129300.0,8.738588333129883,3.2662029266357417,-2.4047868251800537
1224,129400.0,8.738588333129883,3.2662029266357417,-2.4047868251800537
1225,129500.0,8.815157890319824,3.328416109085083,-2.6392831802368164
1226,129600.0,8.815157890319824,3.328416109085083,-2.6392831802368164
1227,129700.0,8.729016304016112,3.235095977783203,-2.5555346012115483
1228,129800.0,8.729016304016112,3.235095977783203,-2.5555346012115483
1229,129900.0,8.729016304016112,3.235095977783203,-2.5555346012115483
1230,130000.0,8.700303077697754,3.369094133377075,-2.6081764698028564
1231,130100.0,8.700303077697754,3.369094133377075,-2.6081764698028564
1232,130200.0,8.695517539978027,3.177668571472168,-2.6081764698028564
1233,130300.0,8.695517539978027,3.177668571472168,-2.6081764698028564
1234,130400.0,8.738588333129883,3.239881753921509,-2.5986053943634038
1235,130500.0,8.738588333129883,3.239881753921509,-2.5986053943634038
1236,130600.0,8.738588333129883,3.239881753921509,-2.5986053943634038
1237,130700.0,8.70508861541748,3.1968109607696533,-2.6081764698028564
1238,130800.0,8.70508861541748,3.1968109607696533,-2.6081764698028564
1239,130900.0,8.781659126281737,3.2374887466430664,-2.548356056213379
1240,131000.0,8.781659126281737,3.2374887466430664,-2.548356056213379
1241,131100.0,8.810372352600098,3.2542388439178467,-2.569891452789306
1242,131200.0,8.810372352600098,3.2542388439178467,-2.569891452789306
1243,131300.0,8.834300994873047,3.16331148147583,-2.562713146209717
1244,131400.0,8.834300994873047,3.16331148147583,-2.562713146209717
1245,131500.0,8.834300994873047,3.16331148147583,-2.562713146209717
1246,131600.0,8.791230201721191,3.1537401676177983,-2.4909284114837646
1247,131700.0,8.791230201721191,3.1537401676177983,-2.4909284114837646
1248,131800.0,8.767301559448242,3.2853453159332275,-2.589033842086792
1249,131900.0,8.767301559448242,3.2853453159332275,-2.589033842086792
1250,132000.0,8.767301559448242,3.2853453159332275,-2.589033842086792
1251,132100.0,8.800802230834961,3.1968109607696533,-2.526820659637451
1252,132200.0,8.800802230834961,3.1968109607696533,-2.526820659637451
1253,132300.0,8.791230201721191,3.1704900264739986,-2.560320377349853
1254,132400.0,8.791230201721191,3.1704900264739986,-2.560320377349853
1255,132500.0,8.767301559448242,3.2781667709350586,-2.5507488250732417
1256,132600.0,8.767301559448242,3.2781667709350586,-2.5507488250732417
1257,132700.0,8.743373870849611,3.1728827953338623,-2.514856576919556
1258,132800.0,8.743373870849611,3.1728827953338623,-2.514856576919556
1259,132900.0,8.743373870849611,3.1728827953338623,-2.514856576919556
1260,133000.0,8.709875106811522,3.211168050765991,-2.6536402702331543
1261,133100.0,8.709875106811522,3.211168050765991,-2.6536402702331543
1262,133200.0,8.772088050842285,3.2255251407623287,-2.5076780319213867
1263,133300.0,8.772088050842285,3.2255251407623287,-2.5076780319213867
1264,133400.0,8.772088050842285,3.2255251407623287,-2.5076780319213867
1265,133500.0,8.805586814880371,3.2039895057678223,-2.6464619636535645
1266,133600.0,8.805586814880371,3.2039895057678223,-2.6464619636535645
1267,133700.0,8.71466064453125,3.160918712615967,-2.493321180343628
1268,133800.0,8.71466064453125,3.160918712615967,-2.493321180343628
1269,133900.0,8.743373870849611,3.218346357345581,-2.5507488250732417
1270,134000.0,8.743373870849611,3.218346357345581,-2.5507488250732417
1271,134100.0,8.796016693115233,3.2231321334838867,-2.7349963188171387
1272,134200.0,8.796016693115233,3.2231321334838867,-2.7349963188171387
1273,134300.0,8.819944381713867,3.1537401676177983,-2.380858421325684
1274,134400.0,8.819944381713867,3.1537401676177983,-2.380858421325684
1275,134500.0,8.819944381713867,3.1537401676177983,-2.380858421325684
1276,134600.0,8.786444664001465,3.2159535884857178,-2.778067111968994
1277,134700.0,8.786444664001465,3.2159535884857178,-2.778067111968994
1278,134800.0,8.681159973144531,3.259024381637573,-2.522034883499145
1279,134900.0,8.681159973144531,3.259024381637573,-2.522034883499145
1280,135000.0,8.681159973144531,3.259024381637573,-2.522034883499145
1281,135100.0,8.776873588562013,3.235095977783203,-2.447857618331909
1282,135200.0,8.776873588562013,3.235095977783203,-2.447857618331909
1283,135300.0,8.800802230834961,3.232703685760498,-2.6703903675079346
1284,135400.0,8.800802230834961,3.232703685760498,-2.6703903675079346
1285,135500.0,8.776873588562013,3.2662029266357417,-2.524427890777588
1286,135600.0,8.776873588562013,3.2662029266357417,-2.524427890777588
1287,135700.0,8.872586250305176,3.208775281906128,-2.548356056213379
1288,135800.0,8.872586250305176,3.208775281906128,-2.548356056213379
1289,135900.0,8.872586250305176,3.208775281906128,-2.548356056213379
1290,136000.0,8.796016693115233,3.1896328926086426,-2.5196423530578613
1291,136100.0,8.796016693115233,3.1896328926086426,-2.5196423530578613
1292,136200.0,8.752944946289062,3.1824538707733154,-2.4670000076293945
1293,136300.0,8.752944946289062,3.1824538707733154,-2.4670000076293945
1294,136400.0,8.752944946289062,3.1824538707733154,-2.4670000076293945
1295,136500.0,8.863015174865723,3.1944179534912114,-2.6632115840911865
1296,136600.0,8.863015174865723,3.1944179534912114,-2.6632115840911865
1297,136700.0,8.781659126281737,3.232703685760498,-2.423929214477539
1298,136800.0,8.781659126281737,3.232703685760498,-2.423929214477539
1299,136900.0,8.86780071258545,3.2279179096221924,-2.567498683929444
1300,137000.0,8.86780071258545,3.2279179096221924,-2.567498683929444
1301,137100.0,8.86780071258545,3.2279179096221924,-2.567498683929444
1302,137200.0,8.819944381713867,3.1657044887542725,-2.431107759475708
1303,137300.0,8.819944381713867,3.1657044887542725,-2.431107759475708
1304,137400.0,8.767301559448242,3.2973096370697017,-2.4646072387695312
1305,137500.0,8.767301559448242,3.2973096370697017,-2.4646072387695312
1306,137600.0,8.796016693115233,3.206382274627685,-2.452643394470215
1307,137700.0,8.796016693115233,3.206382274627685,-2.452643394470215
1308,137800.0,8.82951545715332,3.249453067779541,-2.4598214626312256
1309,137900.0,8.82951545715332,3.249453067779541,-2.4598214626312256
1310,138000.0,8.805586814880371,3.218346357345581,-2.5507488250732417
1311,138100.0,8.805586814880371,3.218346357345581,-2.5507488250732417
1312,138200.0,8.815157890319824,3.1944179534912114,-2.256431579589844
1313,138300.0,8.815157890319824,3.1944179534912114,-2.256431579589844
1314,138400.0,8.815157890319824,3.1944179534912114,-2.256431579589844
1315,138500.0,8.810372352600098,3.3236305713653564,-2.531606435775757
1316,138600.0,8.810372352600098,3.3236305713653564,-2.531606435775757
1317,138700.0,8.724230766296388,3.34995174407959,-2.567498683929444
1318,138800.0,8.724230766296388,3.34995174407959,-2.567498683929444
1319,138900.0,8.819944381713867,3.242274522781372,-2.3617160320281982
1320,139000.0,8.819944381713867,3.242274522781372,-2.3617160320281982
1321,139100.0,8.819944381713867,3.242274522781372,-2.3617160320281982
1322,139200.0,8.810372352600098,3.2709887027740483,-2.337787628173828
1323,139300.0,8.810372352600098,3.2709887027740483,-2.337787628173828
1324,139400.0,8.752944946289062,3.2997026443481445,-2.493321180343628
1325,139500.0,8.752944946289062,3.2997026443481445,-2.493321180343628
1326,139600.0,8.824729919433594,3.263810157775879,-2.2851457595825195
1327,139700.0,8.824729919433594,3.263810157775879,-2.2851457595825195
1328,139800.0,8.781659126281737,3.2470602989196777,-2.4047868251800537
1329,139900.0,8.781659126281737,3.2470602989196777,-2.4047868251800537
1330,140000.0,8.781659126281737,3.2470602989196777,-2.4047868251800537
1331,140100.0,8.848658561706543,3.235095977783203,-2.2779672145843506
1332,140200.0,8.848658561706543,3.235095977783203,-2.2779672145843506
1333,140300.0,8.805586814880371,3.218346357345581,-2.514856576919556
1334,140400.0,8.805586814880371,3.218346357345581,-2.514856576919556
1335,140500.0,8.786444664001465,3.294916868209839,-2.414358139038086
1336,140600.0,8.786444664001465,3.294916868209839,-2.414358139038086
1337,140700.0,8.810372352600098,3.211168050765991,-2.3712873458862305
1338,140800.0,8.810372352600098,3.211168050765991,-2.3712873458862305
1339,140900.0,8.810372352600098,3.211168050765991,-2.3712873458862305
1340,141000.0,8.815157890319824,3.1441688537597656,-2.4335007667541504
1341,141100.0,8.815157890319824,3.1441688537597656,-2.4335007667541504
1342,141200.0,8.810372352600098,3.1896328926086426,-2.493321180343628
1343,141300.0,8.810372352600098,3.1896328926086426,-2.493321180343628
1344,141400.0,8.815157890319824,3.1896328926086426,-2.447857618331909
1345,141500.0,8.815157890319824,3.1896328926086426,-2.447857618331909
1346,141600.0,8.786444664001465,3.2374887466430664,-2.53399920463562
1347,141700.0,8.786444664001465,3.2374887466430664,-2.53399920463562
1348,141800.0,8.791230201721191,3.103491306304932,-2.462214469909668
1349,141900.0,8.791230201721191,3.103491306304932,-2.462214469909668
1350,142000.0,8.791230201721191,3.103491306304932,-2.462214469909668
1351,142100.0,8.863015174865723,3.1489543914794917,-2.567498683929444
1352,142200.0,8.863015174865723,3.1489543914794917,-2.567498683929444
1353,142300.0,8.800802230834961,3.211168050765991,-2.543570280075073
1354,142400.0,8.800802230834961,3.211168050765991,-2.543570280075073
1355,142500.0,8.796016693115233,3.1345977783203125,-2.5076780319213867
1356,142600.0,8.796016693115233,3.1345977783203125,-2.5076780319213867
1357,142700.0,8.796016693115233,3.1345977783203125,-2.5076780319213867
1358,142800.0,8.843873023986816,3.1800613403320312,-2.5076780319213867
1359,142900.0,8.843873023986816,3.1800613403320312,-2.5076780319213867
1360,143000.0,8.800802230834961,3.2207393646240234,-2.770888566970825
1361,143100.0,8.800802230834961,3.2207393646240234,-2.770888566970825
1362,143200.0,8.676375389099121,3.036492109298706,-2.5196423530578613
1363,143300.0,8.676375389099121,3.036492109298706,-2.5196423530578613
1364,143400.0,8.834300994873047,3.1704900264739986,-2.57228422164917
1365,143500.0,8.834300994873047,3.1704900264739986,-2.57228422164917
1366,143600.0,8.834300994873047,3.1704900264739986,-2.57228422164917
1367,143700.0,8.82951545715332,3.2853453159332275,-2.629711866378784
1368,143800.0,8.82951545715332,3.2853453159332275,-2.629711866378784
1369,143900.0,8.781659126281737,3.1824538707733154,-2.4813570976257324
1370,144000.0,8.781659126281737,3.1824538707733154,-2.4813570976257324
1371,144100.0,8.819944381713867,3.177668571472168,-2.6081764698028564
1372,144200.0,8.819944381713867,3.177668571472168,-2.6081764698028564
1373,144300.0,8.776873588562013,3.1896328926086426,-2.6608188152313232
1374,144400.0,8.776873588562013,3.1896328926086426,-2.6608188152313232
1375,144500.0,8.776873588562013,3.1896328926086426,-2.6608188152313232
1376,144600.0,8.71944522857666,3.208775281906128,-2.53399920463562
1377,144700.0,8.71944522857666,3.208775281906128,-2.53399920463562
1378,144800.0,8.796016693115233,3.2255251407623287,-2.617748022079468
1379,144900.0,8.796016693115233,3.2255251407623287,-2.617748022079468
1380,145000.0,8.776873588562013,3.1441688537597656,-2.5052852630615234
1381,145100.0,8.776873588562013,3.1441688537597656,-2.5052852630615234
1382,145200.0,8.776873588562013,3.1441688537597656,-2.5052852630615234
1383,145300.0,8.776873588562013,3.2159535884857178,-2.5459630489349365
1384,145400.0,8.776873588562013,3.2159535884857178,-2.5459630489349365
1385,145500.0,8.800802230834961,3.1441688537597656,-2.3976082801818848
1386,145600.0,8.800802230834961,3.1441688537597656,-2.3976082801818848
1387,145700.0,8.791230201721191,3.32602334022522,-2.524427890777588
1388,145800.0,8.791230201721191,3.32602334022522,-2.524427890777588
1389,145900.0,8.781659126281737,3.1824538707733154,-2.390429735183716
1390,146000.0,8.781659126281737,3.1824538707733154,-2.390429735183716
1391,146100.0,8.781659126281737,3.1824538707733154,-2.390429735183716
1392,146200.0,8.824729919433594,3.1106693744659424,-2.4191436767578125
1393,146300.0,8.824729919433594,3.1106693744659424,-2.4191436767578125
1394,146400.0,8.791230201721191,3.160918712615967,-2.3880369663238525
1395,146500.0,8.791230201721191,3.160918712615967,-2.3880369663238525
1396,146600.0,8.834300994873047,3.1896328926086426,-2.383251428604126
1397,146700.0,8.834300994873047,3.1896328926086426,-2.383251428604126
1398,146800.0,8.834300994873047,3.1896328926086426,-2.383251428604126
1399,146900.0,8.848658561706543,3.211168050765991,-2.390429735183716
1400,147000.0,8.848658561706543,3.211168050765991,-2.390429735183716
1401,147100.0,8.834300994873047,3.1824538707733154,-2.344966173171997
1402,147200.0,8.834300994873047,3.1824538707733154,-2.344966173171997
1403,147300.0,8.891729354858398,3.232703685760498,-2.44067907333374
1404,147400.0,8.891729354858398,3.232703685760498,-2.44067907333374
1405,147500.0,8.891729354858398,3.232703685760498,-2.44067907333374
1406,147600.0,8.843873023986816,3.25663161277771,-2.376072883605957
1407,147700.0,8.843873023986816,3.25663161277771,-2.376072883605957
1408,147800.0,8.800802230834961,3.160918712615967,-2.4023938179016118
1409,147900.0,8.800802230834961,3.160918712615967,-2.4023938179016118
1410,148000.0,8.853443145751953,3.1752755641937256,-2.3066811561584477
1411,148100.0,8.853443145751953,3.1752755641937256,-2.3066811561584477
1412,148200.0,8.853443145751953,3.1752755641937256,-2.3066811561584477
1413,148300.0,8.848658561706543,3.268595933914185,-2.4430718421936035
1414,148400.0,8.848658561706543,3.268595933914185,-2.4430718421936035
1415,148500.0,8.776873588562013,3.2829525470733643,-2.3736801147460938
1416,148600.0,8.776873588562013,3.2829525470733643,-2.3736801147460938
1417,148700.0,8.776873588562013,3.2829525470733643,-2.3736801147460938
1418,148800.0,8.762516975402832,3.2973096370697017,-2.423929214477539
1419,148900.0,8.762516975402832,3.2973096370697017,-2.423929214477539
1420,149000.0,8.800802230834961,3.273381233215332,-2.407179594039917
1421,149100.0,8.800802230834961,3.273381233215332,-2.407179594039917
1422,149200.0,8.819944381713867,3.268595933914185,-2.4981069564819336
1423,149300.0,8.819944381713867,3.268595933914185,-2.4981069564819336
1424,149400.0,8.71944522857666,3.2159535884857178,-2.4502503871917725
1425,149500.0,8.71944522857666,3.2159535884857178,-2.4502503871917725
1426,149600.0,8.71944522857666,3.2159535884857178,-2.4502503871917725
1427,149700.0,8.743373870849611,3.3379876613616943,-2.5124638080596924
1428,149800.0,8.743373870849611,3.3379876613616943,-2.5124638080596924
1429,149900.0,8.729016304016112,3.1992037296295166,-2.581855773925781
1430,150000.0,8.729016304016112,3.1992037296295166,-2.581855773925781
1431,150100.0,8.762516975402832,3.1968109607696533,-2.486142873764038
1432,150200.0,8.762516975402832,3.1968109607696533,-2.486142873764038
1433,150300.0,8.762516975402832,3.1968109607696533,-2.486142873764038
1434,150400.0,8.743373870849611,3.31884503364563,-2.553141593933105
1435,150500.0,8.743373870849611,3.31884503364563,-2.553141593933105
1436,150600.0,8.781659126281737,3.3212375640869136,-2.57228422164917
1437,150700.0,8.781659126281737,3.3212375640869136,-2.57228422164917
1438,150800.0,8.700303077697754,3.28773832321167,-2.502892255783081
1439,150900.0,8.700303077697754,3.28773832321167,-2.502892255783081
1440,151000.0,8.700303077697754,3.28773832321167,-2.502892255783081
1441,151100.0,8.762516975402832,3.168097257614136,-2.562713146209717
1442,151200.0,8.762516975402832,3.168097257614136,-2.562713146209717
1443,151300.0,8.757731437683105,3.259024381637573,-2.553141593933105
1444,151400.0,8.757731437683105,3.259024381637573,-2.553141593933105
1445,151500.0,8.676375389099121,3.235095977783203,-2.5196423530578613
1446,151600.0,8.676375389099121,3.235095977783203,-2.5196423530578613
1447,151700.0,8.676375389099121,3.235095977783203,-2.5196423530578613
1448,151800.0,8.762516975402832,3.232703685760498,-2.423929214477539
1449,151900.0,8.762516975402832,3.232703685760498,-2.423929214477539
1450,152000.0,8.762516975402832,3.25663161277771,-2.6536402702331543
1451,152100.0,8.762516975402832,3.25663161277771,-2.6536402702331543
1452,152200.0,8.791230201721191,3.160918712615967,-2.3569302558898926
1453,152300.0,8.791230201721191,3.160918712615967,-2.3569302558898926
1454,152400.0,8.800802230834961,3.168097257614136,-2.476571559906006
1455,152500.0,8.800802230834961,3.168097257614136,-2.476571559906006
1456,152600.0,8.800802230834961,3.168097257614136,-2.476571559906006
1457,152700.0,8.810372352600098,3.235095977783203,-2.538784980773926
1458,152800.0,8.810372352600098,3.235095977783203,-2.538784980773926
1459,152900.0,8.800802230834961,3.1896328926086426,-2.51007080078125
1460,153000.0,8.800802230834961,3.1896328926086426,-2.51007080078125
1461,153100.0,8.690732002258299,3.184847116470337,-2.617748022079468
1462,153200.0,8.690732002258299,3.184847116470337,-2.617748022079468
1463,153300.0,8.791230201721191,3.249453067779541,-2.524427890777588
1464,153400.0,8.791230201721191,3.249453067779541,-2.524427890777588
1465,153500.0,8.791230201721191,3.249453067779541,-2.524427890777588
1466,153600.0,8.738588333129883,3.1800613403320312,-2.543570280075073
1467,153700.0,8.738588333129883,3.1800613403320312,-2.543570280075073
1468,153800.0,8.853443145751953,3.122633695602417,-2.517249345779419
1469,153900.0,8.853443145751953,3.122633695602417,-2.517249345779419
1470,154000.0,8.805586814880371,3.208775281906128,-2.562713146209717
1471,154100.0,8.805586814880371,3.208775281906128,-2.562713146209717
1472,154200.0,8.805586814880371,3.208775281906128,-2.562713146209717
1473,154300.0,8.810372352600098,3.242274522781372,-2.71346116065979
1474,154400.0,8.810372352600098,3.242274522781372,-2.71346116065979
1475,154500.0,8.824729919433594,3.0652055740356445,-2.4646072387695312
1476,154600.0,8.824729919433594,3.0652055740356445,-2.4646072387695312
1477,154700.0,8.772088050842285,3.192025184631348,-2.620140790939331
1478,154800.0,8.772088050842285,3.192025184631348,-2.620140790939331
1479,154900.0,8.824729919433594,3.2231321334838867,-2.6249265670776367
1480,155000.0,8.824729919433594,3.2231321334838867,-2.6249265670776367
1481,155100.0,8.796016693115233,3.0652055740356445,-2.524427890777588
1482,155200.0,8.796016693115233,3.0652055740356445,-2.524427890777588
1483,155300.0,8.738588333129883,3.1728827953338623,-2.610569477081299
1484,155400.0,8.738588333129883,3.1728827953338623,-2.610569477081299
1485,155500.0,8.810372352600098,3.156132936477661,-2.4047868251800537
1486,155600.0,8.810372352600098,3.156132936477661,-2.4047868251800537
1487,155700.0,8.810372352600098,3.156132936477661,-2.4047868251800537
1488,155800.0,8.752944946289062,3.242274522781372,-2.6679973602294917
1489,155900.0,8.752944946289062,3.242274522781372,-2.6679973602294917
1490,156000.0,8.781659126281737,3.292524099349976,-2.4502503871917725
1491,156100.0,8.781659126281737,3.292524099349976,-2.4502503871917725
1492,156200.0,8.781659126281737,3.292524099349976,-2.4502503871917725
1493,156300.0,8.762516975402832,3.206382274627685,-2.447857618331909
1494,156400.0,8.762516975402832,3.206382274627685,-2.447857618331909
1495,156500.0,8.872586250305176,3.2829525470733643,-2.589033842086792
1496,156600.0,8.872586250305176,3.2829525470733643,-2.589033842086792
1497,156700.0,8.858229637145996,3.3427734375,-2.6967110633850098
1498,156800.0,8.858229637145996,3.3427734375,-2.6967110633850098
1499,156900.0,8.858229637145996,3.3427734375,-2.6967110633850098
1500,157000.0,8.681159973144531,3.294916868209839,-2.3234307765960693
1501,157100.0,8.681159973144531,3.294916868209839,-2.3234307765960693
1502,157200.0,8.767301559448242,3.201596736907959,-2.5555346012115483
1503,157300.0,8.767301559448242,3.201596736907959,-2.5555346012115483
1504,157400.0,8.767301559448242,3.201596736907959,-2.5555346012115483
1505,157500.0,8.834300994873047,3.232703685760498,-2.5004994869232178
1506,157600.0,8.834300994873047,3.232703685760498,-2.5004994869232178
1507,157700.0,8.824729919433594,3.359522819519043,-2.414358139038086
1508,157800.0,8.824729919433594,3.359522819519043,-2.414358139038086
1509,157900.0,8.772088050842285,3.239881753921509,-2.553141593933105
1510,158000.0,8.772088050842285,3.239881753921509,-2.553141593933105
1511,158100.0,8.772088050842285,3.249453067779541,-2.364108800888061
1512,158200.0,8.772088050842285,3.249453067779541,-2.364108800888061
1513,158300.0,8.834300994873047,3.206382274627685,-2.447857618331909
1514,158400.0,8.834300994873047,3.206382274627685,-2.447857618331909
1515,158500.0,8.810372352600098,3.230310440063477,-2.526820659637451
1516,158600.0,8.810372352600098,3.230310440063477,-2.526820659637451
1517,158700.0,8.810372352600098,3.230310440063477,-2.526820659637451
1518,158800.0,8.724230766296388,3.25663161277771,-2.4670000076293945
1519,158900.0,8.724230766296388,3.25663161277771,-2.4670000076293945
1520,159000.0,8.800802230834961,3.3020951747894287,-2.4981069564819336
1521,159100.0,8.800802230834961,3.3020951747894287,-2.4981069564819336
1522,159200.0,8.82951545715332,3.273381233215332,-2.3473589420318604
1523,159300.0,8.82951545715332,3.273381233215332,-2.3473589420318604
1524,159400.0,8.82951545715332,3.273381233215332,-2.3473589420318604
1525,159500.0,8.86780071258545,3.122633695602417,-2.364108800888061
1526,159600.0,8.86780071258545,3.122633695602417,-2.364108800888061
1527,159700.0,8.877371788024902,3.2614171504974365,-2.4670000076293945
1528,159800.0,8.877371788024902,3.2614171504974365,-2.4670000076293945
1529,159900.0,8.824729919433594,3.2207393646240234,-2.4023938179016118
1530,160000.0,8.824729919433594,3.2207393646240234,-2.4023938179016118
1531,160100.0,8.824729919433594,3.2207393646240234,-2.4023938179016118
1532,160200.0,8.848658561706543,3.0460631847381587,-2.4095723628997803
1533,160300.0,8.848658561706543,3.0460631847381587,-2.4095723628997803
1534,160400.0,8.800802230834961,3.192025184631348,-2.4693927764892583
1535,160500.0,8.800802230834961,3.192025184631348,-2.4693927764892583
1536,160600.0,8.805586814880371,3.242274522781372,-2.531606435775757
1537,160700.0,8.805586814880371,3.242274522781372,-2.531606435775757
1538,160800.0,8.805586814880371,3.242274522781372,-2.531606435775757
1539,160900.0,8.824729919433594,3.1489543914794917,-2.612962245941162
1540,161000.0,8.824729919433594,3.1489543914794917,-2.612962245941162
1541,161100.0,8.700303077697754,3.0173492431640625,-2.148754596710205
1542,161200.0,8.700303077697754,3.0173492431640625,-2.148754596710205
1543,161300.0,8.762516975402832,3.28773832321167,-2.7038896083831787
1544,161400.0,8.762516975402832,3.28773832321167,-2.7038896083831787
1545,161500.0,8.891729354858398,3.1250264644622803,-2.3880369663238525
1546,161600.0,8.891729354858398,3.1250264644622803,-2.3880369663238525
1547,161700.0,8.891729354858398,3.1250264644622803,-2.3880369663238525
1548,161800.0,8.810372352600098,3.0197420120239262,-2.560320377349853
1549,161900.0,8.810372352600098,3.0197420120239262,-2.560320377349853
1550,162000.0,8.800802230834961,3.1824538707733154,-2.6416761875152592
1551,162100.0,8.800802230834961,3.1824538707733154,-2.6416761875152592
1552,162200.0,8.815157890319824,3.079562902450561,-2.620140790939331
1553,162300.0,8.815157890319824,3.079562902450561,-2.620140790939331
1554,162400.0,8.815157890319824,3.079562902450561,-2.620140790939331
1555,162500.0,8.810372352600098,3.177668571472168,-2.7038896083831787
1556,162600.0,8.810372352600098,3.177668571472168,-2.7038896083831787
1557,162700.0,8.776873588562013,3.0987055301666264,-2.68953275680542
1558,162800.0,8.776873588562013,3.0987055301666264,-2.68953275680542
1559,162900.0,8.810372352600098,3.122633695602417,-2.577069997787476
1560,163000.0,8.810372352600098,3.122633695602417,-2.577069997787476
1561,163100.0,8.810372352600098,3.122633695602417,-2.577069997787476
1562,163200.0,8.796016693115233,3.034099102020264,-2.63449764251709
1563,163300.0,8.796016693115233,3.034099102020264,-2.63449764251709
1564,163400.0,8.834300994873047,3.1441688537597656,-2.675175428390503
1565,163500.0,8.834300994873047,3.1441688537597656,-2.675175428390503
1566,163600.0,8.800802230834961,3.141776323318481,-2.610569477081299
1567,163700.0,8.800802230834961,3.141776323318481,-2.610569477081299
1568,163800.0,8.800802230834961,3.141776323318481,-2.610569477081299
1569,163900.0,8.815157890319824,3.129812002182007,-2.553141593933105
1570,164000.0,8.815157890319824,3.129812002182007,-2.553141593933105
1571,164100.0,8.863015174865723,3.067598581314087,-2.5842485427856445
1572,164200.0,8.863015174865723,3.067598581314087,-2.5842485427856445
1573,164300.0,8.752944946289062,3.053241729736328,-2.548356056213379
1574,164400.0,8.752944946289062,3.053241729736328,-2.548356056213379
1575,164500.0,8.752944946289062,3.053241729736328,-2.548356056213379
1576,164600.0,8.858229637145996,3.1824538707733154,-2.65842604637146
1577,164700.0,8.858229637145996,3.1824538707733154,-2.65842604637146
1578,164800.0,8.776873588562013,3.089133977890014,-2.4909284114837646
1579,164900.0,8.776873588562013,3.089133977890014,-2.4909284114837646
1580,165000.0,8.767301559448242,3.1513471603393555,-2.7014968395233154
1581,165100.0,8.767301559448242,3.1513471603393555,-2.7014968395233154
1582,165200.0,8.767301559448242,3.1513471603393555,-2.7014968395233154
1583,165300.0,8.786444664001465,3.1130621433258057,-2.5196423530578613
1584,165400.0,8.786444664001465,3.1130621433258057,-2.5196423530578613
1585,165500.0,8.796016693115233,3.1585259437561035,-2.6249265670776367
1586,165600.0,8.796016693115233,3.1585259437561035,-2.6249265670776367
1587,165700.0,8.858229637145996,3.1274189949035645,-2.579463005065918
1588,165800.0,8.858229637145996,3.1274189949035645,-2.579463005065918
1589,165900.0,8.824729919433594,3.1130621433258057,-2.5196423530578613
1590,166000.0,8.824729919433594,3.1130621433258057,-2.5196423530578613
1591,166100.0,8.824729919433594,3.1130621433258057,-2.5196423530578613
1592,166200.0,8.776873588562013,3.122633695602417,-2.5507488250732417
1593,166300.0,8.776873588562013,3.122633695602417,-2.5507488250732417
1594,166400.0,8.805586814880371,3.1345977783203125,-2.526820659637451
1595,166500.0,8.805586814880371,3.1345977783203125,-2.526820659637451
1596,166600.0,8.767301559448242,3.1130621433258057,-2.5938196182250977
1597,166700.0,8.767301559448242,3.1130621433258057,-2.5938196182250977
1598,166800.0,8.767301559448242,3.1130621433258057,-2.5938196182250977
1599,166900.0,8.767301559448242,3.1585259437561035,-2.5842485427856445
1600,167000.0,8.767301559448242,3.1585259437561035,-2.5842485427856445
1601,167100.0,8.767301559448242,3.0963122844696045,-2.589033842086792
1602,167200.0,8.767301559448242,3.0963122844696045,-2.589033842086792
1603,167300.0,8.872586250305176,3.115455150604248,-2.603391170501709
1604,167400.0,8.872586250305176,3.115455150604248,-2.603391170501709
1605,167500.0,8.791230201721191,3.081955671310425,-2.53399920463562
1606,167600.0,8.791230201721191,3.081955671310425,-2.53399920463562
1607,167700.0,8.767301559448242,3.1202406883239746,-2.648854732513428
1608,167800.0,8.767301559448242,3.1202406883239746,-2.648854732513428
1609,167900.0,8.767301559448242,3.1202406883239746,-2.648854732513428
1610,168000.0,8.82951545715332,3.1704900264739986,-2.6321046352386475
1611,168100.0,8.82951545715332,3.1704900264739986,-2.6321046352386475
1612,168200.0,8.786444664001465,3.086741209030152,-2.7038896083831787
1613,168300.0,8.786444664001465,3.086741209030152,-2.7038896083831787
1614,168400.0,8.743373870849611,3.0771698951721187,-2.7014968395233154
1615,168500.0,8.743373870849611,3.0771698951721187,-2.7014968395233154
1616,168600.0,8.743373870849611,3.0771698951721187,-2.7014968395233154
1617,168700.0,8.815157890319824,3.0747771263122563,-2.651247262954712
1618,168800.0,8.815157890319824,3.0747771263122563,-2.651247262954712
1619,168900.0,8.815157890319824,3.012563943862915,-2.612962245941162
1620,169000.0,8.815157890319824,3.012563943862915,-2.612962245941162
1621,169100.0,8.815157890319824,3.0101709365844727,-2.557927370071411
1622,169200.0,8.815157890319824,3.0101709365844727,-2.557927370071411
1623,169300.0,8.815157890319824,3.0101709365844727,-2.557927370071411
1624,169400.0,8.791230201721191,3.053241729736328,-2.6799612045288086
1625,169500.0,8.791230201721191,3.053241729736328,-2.6799612045288086
1626,169600.0,8.839086532592773,3.084348201751709,-2.6943180561065674
1627,169700.0,8.839086532592773,3.084348201751709,-2.6943180561065674
1628,169800.0,8.757731437683105,3.1369905471801762,-2.596212387084961
1629,169900.0,8.757731437683105,3.1369905471801762,-2.596212387084961
1630,170000.0,8.757731437683105,3.1369905471801762,-2.596212387084961
1631,170100.0,8.796016693115233,3.192025184631348,-2.699103832244873
1632,170200.0,8.796016693115233,3.192025184631348,-2.699103832244873
1633,170300.0,8.681159973144531,3.067598581314087,-2.749353408813477
1634,170400.0,8.681159973144531,3.067598581314087,-2.749353408813477
1635,170500.0,8.810372352600098,3.1585259437561035,-2.6608188152313232
1636,170600.0,8.810372352600098,3.1585259437561035,-2.6608188152313232
1637,170700.0,8.819944381713867,3.1250264644622803,-2.7278177738189697
1638,170800.0,8.819944381713867,3.1250264644622803,-2.7278177738189697
1639,170900.0,8.819944381713867,3.1250264644622803,-2.7278177738189697
1640,171000.0,8.772088050842285,3.156132936477661,-2.711068153381348
1641,171100.0,8.772088050842285,3.156132936477661,-2.711068153381348
1642,171200.0,8.685946464538574,3.1274189949035645,-2.7349963188171387
1643,171300.0,8.685946464538574,3.1274189949035645,-2.7349963188171387
1644,171400.0,8.685946464538574,3.1274189949035645,-2.7349963188171387
1645,171500.0,8.71466064453125,3.0939197540283203,-2.723031997680664
1646,171600.0,8.71466064453125,3.0939197540283203,-2.723031997680664
1647,171700.0,8.762516975402832,3.0963122844696045,-2.6847469806671143
1648,171800.0,8.762516975402832,3.0963122844696045,-2.6847469806671143
1649,171900.0,8.752944946289062,3.146562099456787,-2.8211379051208496
1650,172000.0,8.752944946289062,3.146562099456787,-2.8211379051208496
1651,172100.0,8.752944946289062,3.1704900264739986,-2.620140790939331
1652,172200.0,8.752944946289062,3.1704900264739986,-2.620140790939331
1653,172300.0,8.752944946289062,3.1106693744659424,-2.730210542678833
1654,172400.0,8.752944946289062,3.1106693744659424,-2.730210542678833
1655,172500.0,8.738588333129883,3.1106693744659424,-2.6967110633850098
1656,172600.0,8.738588333129883,3.1106693744659424,-2.6967110633850098
1657,172700.0,8.738588333129883,3.1106693744659424,-2.6967110633850098
1658,172800.0,8.863015174865723,3.0652055740356445,-2.5555346012115483
1659,172900.0,8.863015174865723,3.0652055740356445,-2.5555346012115483
1660,173000.0,8.800802230834961,3.081955671310425,-2.6249265670776367
1661,173100.0,8.800802230834961,3.081955671310425,-2.6249265670776367
1662,173200.0,8.776873588562013,3.2279179096221924,-2.6392831802368164
1663,173300.0,8.776873588562013,3.2279179096221924,-2.6392831802368164
1664,173400.0,8.776873588562013,3.2279179096221924,-2.6392831802368164
1665,173500.0,8.805586814880371,3.1800613403320312,-2.648854732513428
1666,173600.0,8.805586814880371,3.1800613403320312,-2.648854732513428
1667,173700.0,8.786444664001465,3.1106693744659424,-2.620140790939331
1668,173800.0,8.786444664001465,3.1106693744659424,-2.620140790939331
1669,173900.0,8.724230766296388,3.16331148147583,-2.5938196182250977
1670,174000.0,8.724230766296388,3.16331148147583,-2.5938196182250977
1671,174100.0,8.786444664001465,3.1202406883239746,-2.6081764698028564
1672,174200.0,8.786444664001465,3.1202406883239746,-2.6081764698028564
1673,174300.0,8.786444664001465,3.1202406883239746,-2.6081764698028564
1674,174400.0,8.647661209106445,3.0963122844696045,-2.483749866485596
1675,174500.0,8.647661209106445,3.0963122844696045,-2.483749866485596
1676,174600.0,8.781659126281737,3.1585259437561035,-2.569891452789306
1677,174700.0,8.781659126281737,3.1585259437561035,-2.569891452789306
1678,174800.0,8.910871505737305,3.156132936477661,-2.5292134284973145
1679,174900.0,8.910871505737305,3.156132936477661,-2.5292134284973145
1680,175000.0,8.910871505737305,3.156132936477661,-2.5292134284973145
1681,175100.0,8.757731437683105,3.1178479194641118,-2.622533798217773
1682,175200.0,8.757731437683105,3.1178479194641118,-2.622533798217773
1683,175300.0,8.805586814880371,3.1704900264739986,-2.51007080078125
1684,175400.0,8.805586814880371,3.1704900264739986,-2.51007080078125
1685,175500.0,8.796016693115233,3.2446675300598145,-2.723031997680664
1686,175600.0,8.796016693115233,3.2446675300598145,-2.723031997680664
1687,175700.0,8.796016693115233,3.2446675300598145,-2.723031997680664
1688,175800.0,8.738588333129883,3.1992037296295166,-2.7086753845214844
1689,175900.0,8.738588333129883,3.1992037296295166,-2.7086753845214844
1690,176000.0,8.762516975402832,3.086741209030152,-2.6679973602294917
1691,176100.0,8.762516975402832,3.086741209030152,-2.6679973602294917
1692,176200.0,8.796016693115233,3.1657044887542725,-2.5914268493652344
1693,176300.0,8.796016693115233,3.1657044887542725,-2.5914268493652344
1694,176400.0,8.796016693115233,3.1657044887542725,-2.5914268493652344
1695,176500.0,8.843873023986816,3.235095977783203,-2.620140790939331
1696,176600.0,8.843873023986816,3.235095977783203,-2.620140790939331
1697,176700.0,8.781659126281737,3.1082763671875,-2.610569477081299
1698,176800.0,8.781659126281737,3.1082763671875,-2.610569477081299
1699,176900.0,8.82951545715332,3.103491306304932,-2.627319574356079
1700,177000.0,8.82951545715332,3.103491306304932,-2.627319574356079
1701,177100.0,8.82951545715332,3.103491306304932,-2.627319574356079
1702,177200.0,8.786444664001465,3.187239646911621,-2.565105676651001
1703,177300.0,8.786444664001465,3.187239646911621,-2.565105676651001
1704,177400.0,8.767301559448242,3.1704900264739986,-2.665604591369629
1705,177500.0,8.767301559448242,3.1704900264739986,-2.665604591369629
1706,177600.0,8.839086532592773,3.060420036315918,-2.531606435775757
1707,177700.0,8.839086532592773,3.060420036315918,-2.531606435775757
1708,177800.0,8.839086532592773,3.060420036315918,-2.531606435775757
1709,177900.0,8.71944522857666,3.067598581314087,-2.579463005065918
1710,178000.0,8.71944522857666,3.067598581314087,-2.579463005065918
1711,178100.0,8.834300994873047,3.115455150604248,-2.603391170501709
1712,178200.0,8.834300994873047,3.115455150604248,-2.603391170501709
1713,178300.0,8.791230201721191,3.0939197540283203,-2.47896409034729
1714,178400.0,8.791230201721191,3.0939197540283203,-2.47896409034729
1715,178500.0,8.791230201721191,3.0939197540283203,-2.47896409034729
1716,178600.0,8.848658561706543,3.1369905471801762,-2.610569477081299
1717,178700.0,8.848658561706543,3.1369905471801762,-2.610569477081299
1718,178800.0,8.863015174865723,3.16331148147583,-2.5842485427856445
1719,178900.0,8.863015174865723,3.16331148147583,-2.5842485427856445
1720,179000.0,8.805586814880371,2.89052963256836,-2.514856576919556
1721,179100.0,8.805586814880371,2.89052963256836,-2.514856576919556
1722,179200.0,8.810372352600098,2.9623143672943115,-2.53399920463562
1723,179300.0,8.810372352600098,2.9623143672943115,-2.53399920463562
1724,179400.0,8.891729354858398,2.9623143672943115,-2.5076780319213867
1725,179500.0,8.891729354858398,2.9623143672943115,-2.5076780319213867
1726,179600.0,8.891729354858398,2.9623143672943115,-2.5076780319213867
1727,179700.0,9.025726318359377,3.1800613403320312,-2.567498683929444
1728,179800.0,9.025726318359377,3.1800613403320312,-2.567498683929444
1729,179900.0,8.843873023986816,3.2135608196258545,-2.7038896083831787
1730,180000.0,8.843873023986816,3.2135608196258545,-2.7038896083831787
1731,180100.0,8.843873023986816,3.2135608196258545,-2.7038896083831787
1732,180200.0,8.843873023986816,2.847458839416504,-2.3545374870300293
1733,180300.0,8.843873023986816,2.847458839416504,-2.3545374870300293
1734,180400.0,9.020941734313963,2.84506630897522,-3.0388848781585693
1735,180500.0,9.020941734313963,2.84506630897522,-3.0388848781585693
1736,180600.0,8.791230201721191,3.2614171504974365,-2.8498516082763667
1737,180700.0,8.791230201721191,3.2614171504974365,-2.8498516082763667
1738,180800.0,8.800802230834961,2.988635540008545,-2.4598214626312256
1739,180900.0,8.800802230834961,2.988635540008545,-2.4598214626312256
1740,181000.0,8.800802230834961,2.988635540008545,-2.4598214626312256
1741,181100.0,8.853443145751953,3.206382274627685,-2.857030153274536
1742,181200.0,8.853443145751953,3.206382274627685,-2.857030153274536
1743,181300.0,8.82951545715332,3.1274189949035645,-2.6847469806671143
1744,181400.0,8.82951545715332,3.1274189949035645,-2.6847469806671143
1745,181500.0,8.776873588562013,3.0652055740356445,-2.560320377349853
1746,181600.0,8.776873588562013,3.0652055740356445,-2.560320377349853
1747,181700.0,8.776873588562013,3.0556347370147705,-2.562713146209717
1748,181800.0,8.776873588562013,3.0556347370147705,-2.562713146209717
