,timestamp,ax,ay,az
0,5000.0,1.9548656940460205,-9.403226852416992,-1.0642226934432983
1,5100.0,1.9548656940460205,-9.403226852416992,-1.0642226934432983
2,5200.0,1.9548656940460205,-9.403226852416992,-1.0642226934432983
3,5300.0,1.862090349197388,-9.44752025604248,-0.9151836037635804
4,5400.0,1.869871497154236,-9.41400146484375,-0.9385270476341248
5,5500.0,1.869871497154236,-9.41400146484375,-0.9385270476341248
6,5600.0,1.2533645629882812,-9.515754699707033,-1.0330979824066162
7,5700.0,1.2533645629882812,-9.515754699707033,-1.0330979824066162
8,5800.0,1.3772644996643066,-9.434351921081543,-0.628477931022644
9,5900.0,1.3772644996643066,-9.434351921081543,-0.628477931022644
10,6000.0,1.7423802614212036,-9.443329811096193,-0.7565677165985107
11,6100.0,1.7423802614212036,-9.443329811096193,-0.7565677165985107
12,6200.0,1.3174095153808594,-9.545681953430176,-0.6506243348121643
13,6300.0,1.3174095153808594,-9.545681953430176,-0.6506243348121643
14,6400.0,1.4778209924697876,-9.583989143371582,-0.2992752194404602
15,6500.0,1.4927847385406494,-9.464279174804688,-0.8164227604866028
16,6600.0,1.4927847385406494,-9.464279174804688,-0.8164227604866028
17,6700.0,1.7513585090637207,-9.415796279907227,-0.6961141228675842
18,6800.0,1.7513585090637207,-9.415796279907227,-0.6961141228675842
19,6900.0,1.52630352973938,-9.55825138092041,-1.1569979190826416
20,7000.0,1.52630352973938,-9.55825138092041,-1.1569979190826416
21,7100.0,1.8160020112991333,-9.422380447387695,-1.0013748407363892
22,7200.0,1.8160020112991333,-9.422380447387695,-1.0013748407363892
23,7300.0,1.8339585065841677,-9.46607494354248,-0.9475052952766418
24,7400.0,1.7130513191223145,-9.424775123596193,-0.9558850526809692
25,7500.0,1.7130513191223145,-9.424775123596193,-0.9558850526809692
26,7600.0,1.8716671466827397,-9.44871711730957,-1.0360907316207886
27,7700.0,1.8716671466827397,-9.44871711730957,-1.0360907316207886
28,7800.0,1.8908207416534424,-9.41400146484375,-0.9445125460624696
29,7900.0,1.8908207416534424,-9.41400146484375,-0.9445125460624696
30,8000.0,1.7860745191574097,-9.451709747314453,-0.964264750480652
31,8100.0,1.7860745191574097,-9.451709747314453,-0.964264750480652
32,8200.0,1.6777368783950806,-9.494805335998537,-0.7332242727279663
33,8300.0,1.6633716821670532,-9.466673851013184,-0.9463081955909728
34,8400.0,1.6633716821670532,-9.466673851013184,-0.9463081955909728
35,8500.0,1.906383156776428,-9.419986724853516,-0.8756792545318604
36,8600.0,1.906383156776428,-9.419986724853516,-0.8756792545318604
37,8700.0,1.8602946996688845,-9.445125579833984,-0.9145850539207458
38,8800.0,1.8602946996688845,-9.445125579833984,-0.9145850539207458
39,8900.0,1.7699135541915894,-9.421782493591307,-1.004966139793396
40,9000.0,1.7699135541915894,-9.421782493591307,-1.004966139793396
41,9100.0,1.7717092037200928,-9.408015251159668,-0.8493430614471436
42,9200.0,1.8477251529693604,-9.41519832611084,-0.9169792532920836
43,9300.0,1.8477251529693604,-9.41519832611084,-0.9169792532920836
44,9400.0,1.8004397153854368,-9.50498104095459,-0.9074024558067322
45,9500.0,1.8004397153854368,-9.50498104095459,-0.9074024558067322
46,9600.0,1.832162857055664,-9.440337181091307,-0.93254154920578
47,9700.0,1.832162857055664,-9.440337181091307,-0.93254154920578
48,9800.0,1.8285715579986568,-9.441534042358398,-0.9534908533096312
49,9900.0,1.8285715579986568,-9.441534042358398,-0.9534908533096312
50,10000.0,1.7944542169570925,-9.436147689819336,-0.9157821536064148
51,10100.0,1.845929503440857,-9.446322441101074,-1.0067617893218994
52,10200.0,1.845929503440857,-9.446322441101074,-1.0067617893218994
53,10300.0,1.8297686576843264,-9.440337181091307,-0.8331822156906128
54,10400.0,1.8297686576843264,-9.440337181091307,-0.8331822156906128
55,10500.0,1.8303672075271609,-9.391256332397461,-1.0330979824066162
56,10600.0,1.8303672075271609,-9.391256332397461,-1.0330979824066162
57,10700.0,1.8082208633422847,-9.41759204864502,-0.9415197968482972
58,10800.0,1.8082208633422847,-9.41759204864502,-0.9415197968482972
59,10900.0,1.7872716188430786,-9.409811019897461,-0.9451110959053041
60,11000.0,1.868674397468567,-9.403226852416992,-1.060032844543457
61,11100.0,1.868674397468567,-9.403226852416992,-1.060032844543457
62,11200.0,1.7794904708862305,-9.441534042358398,-0.9217676520347596
63,11300.0,1.7794904708862305,-9.441534042358398,-0.9217676520347596
64,11400.0,1.8309657573699951,-9.450512886047363,-0.8912416100502014
65,11500.0,1.8309657573699951,-9.450512886047363,-0.8912416100502014
66,11600.0,1.8758569955825808,-9.426570892333984,-1.0905588865280151
67,11700.0,1.8758569955825808,-9.426570892333984,-1.0905588865280151
68,11800.0,1.777096152305603,-9.453505516052246,-1.0540473461151123
69,11900.0,1.8584990501403809,-9.44752025604248,-0.8523358106613159
70,12000.0,1.8584990501403809,-9.44752025604248,-0.8523358106613159
71,12100.0,1.6729484796524048,-9.44871711730957,-0.9343371987342834
72,12200.0,1.6729484796524048,-9.44871711730957,-0.9343371987342834
73,12300.0,1.8507179021835327,-9.433155059814453,-0.8607155084609985
74,12400.0,1.8507179021835327,-9.433155059814453,-0.8607155084609985
75,12500.0,1.7848774194717407,-9.461885452270508,-0.9864110946655272
76,12600.0,1.7848774194717407,-9.461885452270508,-0.9864110946655272
77,12700.0,1.8064252138137815,-9.421183586120604,-1.0145429372787476
78,12800.0,1.756745457649231,-9.445125579833984,-1.015141487121582
79,12900.0,1.756745457649231,-9.445125579833984,-1.015141487121582
80,13000.0,1.6645687818527222,-9.506776809692383,-0.839766263961792
81,13100.0,1.6645687818527222,-9.506776809692383,-0.839766263961792
82,13200.0,1.9297266006469729,-9.445125579833984,-0.9271546006202698
83,13300.0,1.9297266006469729,-9.445125579833984,-0.9271546006202698
84,13400.0,1.83695125579834,-9.431957244873047,-0.943913996219635
85,13500.0,1.83695125579834,-9.431957244873047,-0.943913996219635
86,13600.0,1.799242615699768,-9.423578262329102,-0.9157821536064148
87,13700.0,1.7334020137786863,-9.48343276977539,-0.8403648138046265
88,13800.0,1.7334020137786863,-9.48343276977539,-0.8403648138046265
89,13900.0,1.9381062984466555,-9.419986724853516,-1.1342530250549316
90,14000.0,1.9381062984466555,-9.419986724853516,-1.1342530250549316
91,14100.0,1.6986861228942869,-9.466673851013184,-0.8349778652191162
92,14200.0,1.6986861228942869,-9.466673851013184,-0.8349778652191162
93,14300.0,1.7417817115783691,-9.466673851013184,-0.7445967197418213
94,14400.0,1.7417817115783691,-9.466673851013184,-0.7445967197418213
95,14500.0,1.877652645111084,-9.454702377319336,-0.8194155097007751
96,14600.0,1.7842788696289065,-9.440936088562012,-1.0133458375930786
97,14700.0,1.7842788696289065,-9.440936088562012,-1.0133458375930786
98,14800.0,1.7842788696289065,-9.45410442352295,-0.8074445128440857
99,14900.0,1.7842788696289065,-9.45410442352295,-0.8074445128440857
100,15000.0,1.799242615699768,-9.455301284790039,-0.8810662031173706
101,15100.0,1.799242615699768,-9.455301284790039,-0.8810662031173706
102,15200.0,1.8142063617706297,-9.454702377319336,-0.8313865661621094
103,15300.0,1.8142063617706297,-9.454702377319336,-0.8313865661621094
104,15400.0,1.7675193548202517,-9.476848602294922,-0.8505401611328125
105,15500.0,1.8375498056411743,-9.403226852416992,-0.9091981053352356
106,15600.0,1.8375498056411743,-9.403226852416992,-0.9091981053352356
107,15700.0,1.6543933153152466,-9.50857162475586,-0.5590460896492004
108,15800.0,1.6543933153152466,-9.50857162475586,-0.5590460896492004
109,15900.0,1.726817965507507,-9.44871711730957,-0.8702923059463501
110,16000.0,1.726817965507507,-9.44871711730957,-0.8702923059463501
111,16100.0,1.7118542194366455,-9.463082313537598,-0.8427590131759644
112,16200.0,1.7118542194366455,-9.463082313537598,-0.8427590131759644
113,16300.0,1.71245276927948,-9.470863342285156,-0.8720879554748535
114,16400.0,1.7004817724227903,-9.474454879760742,-0.9540894031524658
115,16500.0,1.7004817724227903,-9.474454879760742,-0.9540894031524658
116,16600.0,1.7519570589065552,-9.44752025604248,-0.9283517003059388
117,16700.0,1.7519570589065552,-9.44752025604248,-0.9283517003059388
118,16800.0,1.7747019529342651,-9.431957244873047,-0.9762357473373412
119,16900.0,1.7747019529342651,-9.431957244873047,-0.9762357473373412
120,17000.0,1.7483657598495483,-9.477447509765623,-0.8595184087753296
121,17100.0,1.7483657598495483,-9.477447509765623,-0.8595184087753296
122,17200.0,1.8046295642852783,-9.436147689819336,-1.0480618476867676
123,17300.0,1.7052701711654663,-9.502586364746094,-0.6242880821228027
124,17400.0,1.7052701711654663,-9.502586364746094,-0.6242880821228027
125,17500.0,1.720233917236328,-9.468469619750977,-0.8080430626869202
126,17600.0,1.720233917236328,-9.468469619750977,-0.8080430626869202
127,17700.0,1.7890672683715818,-9.425373077392578,-1.080383539199829
128,17800.0,1.7890672683715818,-9.425373077392578,-1.080383539199829
129,17900.0,1.7004817724227903,-9.451709747314453,-0.8361749649047852
130,18000.0,1.7004817724227903,-9.451709747314453,-0.8361749649047852
131,18100.0,1.699883222579956,-9.470264434814453,-0.6955155730247498
132,18200.0,1.7286136150360107,-9.473258018493652,-0.8744821548461914
133,18300.0,1.7286136150360107,-9.473258018493652,-0.8744821548461914
134,18400.0,1.7489643096923828,-9.454702377319336,-0.7350199222564697
135,18500.0,1.7489643096923828,-9.454702377319336,-0.7350199222564697
136,18600.0,1.7884687185287476,-9.445125579833984,-0.9283517003059388
137,18700.0,1.7884687185287476,-9.445125579833984,-0.9283517003059388
138,18800.0,1.734000563621521,-9.43494987487793,-0.9618705511093141
139,18900.0,1.734000563621521,-9.43494987487793,-0.9618705511093141
140,19000.0,1.6370353698730469,-9.481039047241213,-0.6374561786651611
141,19100.0,1.702277421951294,-9.494206428527832,-0.8708908557891846
142,19200.0,1.702277421951294,-9.494206428527832,-0.8708908557891846
143,19300.0,1.6944962739944458,-9.493608474731444,-0.8732850551605225
144,19400.0,1.6944962739944458,-9.493608474731444,-0.8732850551605225
145,19500.0,1.569997787475586,-9.522936820983887,-0.5093663930892944
146,19600.0,1.569997787475586,-9.522936820983887,-0.5093663930892944
147,19700.0,1.7046716213226318,-9.457097053527832,-0.9103952050209044
148,19800.0,1.7046716213226318,-9.457097053527832,-0.9103952050209044
149,19900.0,1.746570110321045,-9.451709747314453,-0.8696937561035156
150,20000.0,1.693897724151611,-9.43255615234375,-0.8858546018600464
151,20100.0,1.693897724151611,-9.43255615234375,-0.8858546018600464
152,20200.0,1.7375918626785278,-9.510966300964355,-0.8098387122154236
153,20300.0,1.7375918626785278,-9.510966300964355,-0.8098387122154236
154,20400.0,1.7172411680221558,-9.460687637329102,-0.9528923034667968
155,20500.0,1.7172411680221558,-9.460687637329102,-0.9528923034667968
156,20600.0,1.66696298122406,-9.478644371032717,-0.6883329749107361
157,20700.0,1.66696298122406,-9.478644371032717,-0.6883329749107361
158,20800.0,1.7292121648788452,-9.427767753601074,-0.8948329091072083
159,20900.0,1.6579847335815432,-9.47265911102295,-0.7398083209991455
160,21000.0,1.6579847335815432,-9.47265911102295,-0.7398083209991455
161,21100.0,1.7459715604782104,-9.477447509765623,-0.8816647529602051
162,21200.0,1.7459715604782104,-9.477447509765623,-0.8816647529602051
163,21300.0,1.7286136150360107,-9.455301284790039,-0.8732850551605225
164,21400.0,1.7286136150360107,-9.455301284790039,-0.8732850551605225
165,21500.0,1.781286120414734,-9.450512886047363,-0.8529343605041504
166,21600.0,1.781286120414734,-9.450512886047363,-0.8529343605041504
167,21700.0,1.7178397178649902,-9.478046417236328,-0.8433575630187988
168,21800.0,1.7729063034057615,-9.46607494354248,-0.7846996188163757
169,21900.0,1.7729063034057615,-9.46607494354248,-0.7846996188163757
170,22000.0,1.625662922859192,-9.476848602294922,-0.902015507221222
171,22100.0,1.625662922859192,-9.476848602294922,-0.902015507221222
172,22200.0,1.6645687818527222,-9.460687637329102,-0.8439561128616333
173,22300.0,1.6645687818527222,-9.460687637329102,-0.8439561128616333
174,22400.0,1.7088614702224731,-9.485827445983887,-0.7374141216278076
175,22500.0,1.7088614702224731,-9.485827445983887,-0.7374141216278076
176,22600.0,1.6172832250595093,-9.477447509765623,-0.8948329091072083
177,22700.0,1.7118542194366455,-9.48462963104248,-0.6643909811973572
178,22800.0,1.7118542194366455,-9.48462963104248,-0.6643909811973572
179,22900.0,1.7507599592208862,-9.438541412353516,-0.8888474106788635
180,23000.0,1.7507599592208862,-9.438541412353516,-0.8888474106788635
181,23100.0,1.6543933153152466,-9.455899238586426,-0.9074024558067322
182,23200.0,1.6543933153152466,-9.455899238586426,-0.9074024558067322
183,23300.0,1.693897724151611,-9.494206428527832,-0.7236474752426147
184,23400.0,1.693897724151611,-9.494206428527832,-0.7236474752426147
185,23500.0,1.6956933736801147,-9.45111083984375,-1.0253168344497678
186,23600.0,1.6424223184585571,-9.506776809692383,-0.656609833240509
187,23700.0,1.6424223184585571,-9.506776809692383,-0.656609833240509
188,23800.0,1.6992846727371216,-9.446322441101074,-0.9271546006202698
189,23900.0,1.6992846727371216,-9.446322441101074,-0.9271546006202698
190,24000.0,1.7172411680221558,-9.463082313537598,-0.7038952708244324
191,24100.0,1.7172411680221558,-9.463082313537598,-0.7038952708244324
192,24200.0,1.6585832834243774,-9.461885452270508,-0.8475474119186401
193,24300.0,1.6585832834243774,-9.461885452270508,-0.8475474119186401
194,24400.0,1.7058687210083008,-9.43255615234375,-0.9133879542350768
195,24500.0,1.7058687210083008,-9.43255615234375,-0.9133879542350768
196,24600.0,1.68970787525177,-9.485228538513184,-0.8188169598579407
197,24700.0,1.7040730714797974,-9.470863342285156,-0.7547720670700073
198,24800.0,1.7040730714797974,-9.470863342285156,-0.7547720670700073
199,24900.0,1.6891093254089355,-9.492411613464355,-0.9169792532920836
200,25000.0,1.6891093254089355,-9.492411613464355,-0.9169792532920836
201,25100.0,1.6932991743087769,-9.457097053527832,-0.9343371987342834
202,25200.0,1.6932991743087769,-9.457097053527832,-0.9343371987342834
203,25300.0,1.681926727294922,-9.479841232299805,-0.8732850551605225
204,25400.0,1.681926727294922,-9.479841232299805,-0.8732850551605225
205,25500.0,1.7393875122070312,-9.472060203552246,-0.7918822169303894
206,25600.0,1.7723077535629272,-9.43494987487793,-0.9373299479484558
207,25700.0,1.7723077535629272,-9.43494987487793,-0.9373299479484558
208,25800.0,1.7501614093780518,-9.493608474731444,-0.7858967185020447
209,25900.0,1.7501614093780518,-9.493608474731444,-0.7858967185020447
210,26000.0,1.699883222579956,-9.481637001037598,-0.9169792532920836
211,26100.0,1.699883222579956,-9.481637001037598,-0.9169792532920836
212,26200.0,1.6663644313812256,-9.473258018493652,-0.8487445116043091
213,26300.0,1.6663644313812256,-9.473258018493652,-0.8487445116043091
214,26400.0,1.7555483579635618,-9.465476036071776,-0.8649053573608398
215,26500.0,1.711255669593811,-9.467870712280273,-0.8744821548461914
216,26600.0,1.711255669593811,-9.467870712280273,-0.8744821548461914
217,26700.0,1.7178397178649902,-9.475052833557127,-0.8194155097007751
218,26800.0,1.7178397178649902,-9.475052833557127,-0.8194155097007751
219,26900.0,1.7298107147216797,-9.457097053527832,-0.8140285611152649
220,27000.0,1.7298107147216797,-9.457097053527832,-0.8140285611152649
221,27100.0,1.8309657573699951,-9.408015251159668,-1.004966139793396
222,27200.0,1.8309657573699951,-9.408015251159668,-1.004966139793396
223,27300.0,1.7136498689651491,-9.4822359085083,-0.6470330357551575
224,27400.0,1.6124948263168335,-9.408614158630373,-0.9032126069068908
225,27500.0,1.6124948263168335,-9.408614158630373,-0.9032126069068908
226,27600.0,1.6370353698730469,-9.466673851013184,-0.8948329091072083
227,27700.0,1.6370353698730469,-9.466673851013184,-0.8948329091072083
228,27800.0,1.723825216293335,-9.473855972290039,-0.7308300733566284
229,27900.0,1.723825216293335,-9.473855972290039,-0.7308300733566284
230,28000.0,1.7687164545059204,-9.44991397857666,-1.0019733905792236
231,28100.0,1.7687164545059204,-9.44991397857666,-1.0019733905792236
232,28200.0,1.6962919235229492,-9.476250648498537,-0.8289923667907715
233,28300.0,1.747767210006714,-9.461885452270508,-0.9002198576927185
234,28400.0,1.747767210006714,-9.461885452270508,-0.9002198576927185
235,28500.0,1.778891921043396,-9.429563522338867,-0.9355342984199524
236,28600.0,1.778891921043396,-9.429563522338867,-0.9355342984199524
237,28700.0,1.6717513799667358,-9.484031677246094,-0.8547300100326538
238,28800.0,1.6717513799667358,-9.484031677246094,-0.8547300100326538
239,28900.0,1.745373010635376,-9.470863342285156,-0.899621307849884
240,29000.0,1.745373010635376,-9.470863342285156,-0.899621307849884
241,29100.0,1.7328034639358518,-9.454702377319336,-0.9409212470054626
242,29200.0,1.821987509727478,-9.444527626037598,-0.9277531504631042
243,29300.0,1.821987509727478,-9.444527626037598,-0.9277531504631042
244,29400.0,1.6717513799667358,-9.469067573547363,-0.8888474106788635
245,29500.0,1.6717513799667358,-9.469067573547363,-0.8888474106788635
246,29600.0,1.7256208658218384,-9.505578994750977,-0.7936778664588928
247,29700.0,1.7256208658218384,-9.505578994750977,-0.7936778664588928
248,29800.0,1.811812162399292,-9.439739227294922,-0.979827046394348
249,29900.0,1.811812162399292,-9.439739227294922,-0.979827046394348
250,30000.0,1.8351556062698364,-9.442731857299805,-0.9780313968658448
251,30100.0,1.7507599592208862,-9.41519832611084,-1.015141487121582
252,30200.0,1.7507599592208862,-9.41519832611084,-1.015141487121582
253,30300.0,1.8112136125564573,-9.427168846130373,-0.984615445137024
254,30400.0,1.8112136125564573,-9.427168846130373,-0.984615445137024
255,30500.0,1.7890672683715818,-9.437943458557127,-0.9702502489089966
256,30600.0,1.7890672683715818,-9.437943458557127,-0.9702502489089966
257,30700.0,1.8154034614562988,-9.437943458557127,-0.9618705511093141
258,30800.0,1.8154034614562988,-9.437943458557127,-0.9618705511093141
259,30900.0,1.7232266664505005,-9.47265911102295,-0.9475052952766418
260,31000.0,1.8387469053268437,-9.41519832611084,-0.9528923034667968
261,31100.0,1.8387469053268437,-9.41519832611084,-0.9528923034667968
262,31200.0,1.778891921043396,-9.44991397857666,-0.9379284977912904
263,31300.0,1.778891921043396,-9.44991397857666,-0.9379284977912904
264,31400.0,1.7555483579635618,-9.464279174804688,-0.8505401611328125
265,31500.0,1.7555483579635618,-9.464279174804688,-0.8505401611328125
266,31600.0,1.7633295059204102,-9.420584678649902,-1.05105459690094
267,31700.0,1.7633295059204102,-9.420584678649902,-1.05105459690094
268,31800.0,1.8136078119277956,-9.403825759887695,-1.015141487121582
269,31900.0,1.6478092670440674,-9.520543098449707,-0.8056488633155823
270,32000.0,1.6478092670440674,-9.520543098449707,-0.8056488633155823
271,32100.0,1.7178397178649902,-9.494805335998537,-0.8271966576576233
272,32200.0,1.7178397178649902,-9.494805335998537,-0.8271966576576233
273,32300.0,1.6891093254089355,-9.46607494354248,-0.8954314589500427
274,32400.0,1.6891093254089355,-9.46607494354248,-0.8954314589500427
275,32500.0,1.731606364250183,-9.452906608581543,-0.7739257216453552
276,32600.0,1.731606364250183,-9.452906608581543,-0.7739257216453552
277,32700.0,1.8046295642852783,-9.443928718566896,-1.136048674583435
278,32800.0,1.722628116607666,-9.476848602294922,-0.6536170840263367
279,32900.0,1.722628116607666,-9.476848602294922,-0.6536170840263367
280,33000.0,1.7549498081207275,-9.429563522338867,-0.9870096445083618
281,33100.0,1.7549498081207275,-9.429563522338867,-0.9870096445083618
282,33200.0,1.7375918626785278,-9.454702377319336,-0.7912836670875549
283,33300.0,1.7375918626785278,-9.454702377319336,-0.7912836670875549
284,33400.0,1.7525556087493896,-9.479243278503418,-0.9546879529953004
285,33500.0,1.7525556087493896,-9.479243278503418,-0.9546879529953004
286,33600.0,1.6280571222305298,-9.4636812210083,-0.9175778031349182
287,33700.0,1.68970787525177,-9.478046417236328,-0.882861852645874
288,33800.0,1.68970787525177,-9.478046417236328,-0.882861852645874
289,33900.0,1.7591396570205688,-9.453505516052246,-0.9265560507774352
290,34000.0,1.7591396570205688,-9.453505516052246,-0.9265560507774352
291,34100.0,1.6944962739944458,-9.458293914794922,-0.8206126093864441
292,34200.0,1.6944962739944458,-9.458293914794922,-0.8206126093864441
293,34300.0,1.7968484163284302,-9.437943458557127,-0.8876502513885498
294,34400.0,1.7968484163284302,-9.437943458557127,-0.8876502513885498
295,34500.0,1.768117904663086,-9.4636812210083,-0.8918401598930359
296,34600.0,1.7280150651931765,-9.452308654785156,-0.7541735172271729
297,34700.0,1.7280150651931765,-9.452308654785156,-0.7541735172271729
298,34800.0,1.7459715604782104,-9.430760383605957,-0.9229647517204284
299,34900.0,1.7459715604782104,-9.430760383605957,-0.9229647517204284
300,35000.0,1.7495628595352173,-9.430161476135254,-0.8888474106788635
301,35100.0,1.7495628595352173,-9.430161476135254,-0.8888474106788635
302,35200.0,1.7417817115783691,-9.474454879760742,-0.7835025191307068
303,35300.0,1.7417817115783691,-9.474454879760742,-0.7835025191307068
304,35400.0,1.7986440658569336,-9.412205696105957,-0.9648633003234864
305,35500.0,1.722628116607666,-9.451709747314453,-0.8577227592468262
306,35600.0,1.722628116607666,-9.451709747314453,-0.8577227592468262
307,35700.0,1.6693571805953982,-9.452906608581543,-0.8289923667907715
308,35800.0,1.6693571805953982,-9.452906608581543,-0.8289923667907715
309,35900.0,1.6777368783950806,-9.481637001037598,-0.8852560520172119
310,36000.0,1.6777368783950806,-9.481637001037598,-0.8852560520172119
311,36100.0,1.7806875705718994,-9.442132949829102,-0.8702923059463501
312,36200.0,1.7806875705718994,-9.442132949829102,-0.8702923059463501
313,36300.0,1.7459715604782104,-9.48462963104248,-0.8451532125473022
314,36400.0,1.7519570589065552,-9.44752025604248,-0.8750807046890259
315,36500.0,1.7519570589065552,-9.44752025604248,-0.8750807046890259
316,36600.0,1.6729484796524048,-9.477447509765623,-0.8912416100502014
317,36700.0,1.6729484796524048,-9.477447509765623,-0.8912416100502014
318,36800.0,1.7735048532485962,-9.46607494354248,-0.8164227604866028
319,36900.0,1.7735048532485962,-9.46607494354248,-0.8164227604866028
320,37000.0,1.7555483579635618,-9.4636812210083,-0.912190854549408
321,37100.0,1.7555483579635618,-9.4636812210083,-0.912190854549408
322,37200.0,1.6735470294952393,-9.481637001037598,-0.7374141216278076
323,37300.0,1.655590534210205,-9.49001693725586,-0.8385691642761229
324,37400.0,1.655590534210205,-9.49001693725586,-0.8385691642761229
325,37500.0,1.7220295667648315,-9.45410442352295,-0.829590916633606
326,37600.0,1.7220295667648315,-9.45410442352295,-0.829590916633606
327,37700.0,1.6561890840530396,-9.455301284790039,-0.8876502513885498
328,37800.0,1.6561890840530396,-9.455301284790039,-0.8876502513885498
329,37900.0,1.6531962156295776,-9.489418029785156,-0.8134300112724304
330,38000.0,1.6531962156295776,-9.489418029785156,-0.8134300112724304
331,38100.0,1.781286120414734,-9.455899238586426,-0.7523778676986694
332,38200.0,1.7046716213226318,-9.474454879760742,-0.8044517636299133
333,38300.0,1.7046716213226318,-9.474454879760742,-0.8044517636299133
334,38400.0,1.7860745191574097,-9.423578262329102,-0.9630676507949828
335,38500.0,1.7860745191574097,-9.423578262329102,-0.9630676507949828
336,38600.0,1.7854759693145752,-9.464279174804688,-0.768538773059845
337,38700.0,1.7854759693145752,-9.464279174804688,-0.768538773059845
338,38800.0,1.801636815071106,-9.469067573547363,-0.9085995554924012
339,38900.0,1.801636815071106,-9.469067573547363,-0.9085995554924012
340,39000.0,1.7214310169219968,-9.453505516052246,-0.7493851184844971
341,39100.0,1.766920804977417,-9.44752025604248,-0.8978256583213806
342,39200.0,1.766920804977417,-9.44752025604248,-0.8978256583213806
343,39300.0,1.756745457649231,-9.461885452270508,-0.8972271084785461
344,39400.0,1.756745457649231,-9.461885452270508,-0.8972271084785461
345,39500.0,1.7687164545059204,-9.428964614868164,-0.9181763529777528
346,39600.0,1.7687164545059204,-9.428964614868164,-0.9181763529777528
347,39700.0,1.7292121648788452,-9.469666481018066,-0.9157821536064148
348,39800.0,1.7292121648788452,-9.469666481018066,-0.9157821536064148
349,39900.0,1.7549498081207275,-9.446921348571776,-0.8834604024887085
350,40000.0,1.7369933128356934,-9.460687637329102,-0.8265981078147888
351,40100.0,1.7369933128356934,-9.460687637329102,-0.8265981078147888
352,40200.0,1.7046716213226318,-9.460687637329102,-0.8810662031173706
353,40300.0,1.7046716213226318,-9.460687637329102,-0.8810662031173706
354,40400.0,1.701080322265625,-9.450512886047363,-0.811634361743927
355,40500.0,1.701080322265625,-9.450512886047363,-0.811634361743927
356,40600.0,1.6771383285522459,-9.436745643615724,-0.919972002506256
357,40700.0,1.6771383285522459,-9.436745643615724,-0.919972002506256
358,40800.0,1.6514005661010742,-9.488221168518066,-0.7248445749282837
359,40900.0,1.6759412288665771,-9.481039047241213,-0.8385691642761229
360,41000.0,1.6759412288665771,-9.481039047241213,-0.8385691642761229
361,41100.0,1.6807296276092532,-9.437943458557127,-0.8834604024887085
362,41200.0,1.6807296276092532,-9.437943458557127,-0.8834604024887085
363,41300.0,1.7160440683364868,-9.46607494354248,-0.8337807655334473
364,41400.0,1.7160440683364868,-9.46607494354248,-0.8337807655334473
365,41500.0,1.8656816482543943,-9.440337181091307,-0.8667010068893433
366,41600.0,1.8656816482543943,-9.440337181091307,-0.8667010068893433
367,41700.0,1.801636815071106,-9.445724487304688,-0.99479079246521
368,41800.0,1.753154158592224,-9.4636812210083,-0.872686505317688
369,41900.0,1.753154158592224,-9.4636812210083,-0.872686505317688
370,42000.0,1.8567034006118772,-9.418789863586426,-0.9157821536064148
371,42100.0,1.8567034006118772,-9.418789863586426,-0.9157821536064148
372,42200.0,1.8363527059555051,-9.433155059814453,-0.9726444482803344
373,42300.0,1.8363527059555051,-9.433155059814453,-0.9726444482803344
374,42400.0,1.7848774194717407,-9.433155059814453,-0.9050082564353944
375,42500.0,1.7848774194717407,-9.433155059814453,-0.9050082564353944
376,42600.0,1.6968904733657837,-9.476250648498537,-0.7942764163017273
377,42700.0,1.7363947629928589,-9.428964614868164,-0.899621307849884
378,42800.0,1.7363947629928589,-9.428964614868164,-0.899621307849884
379,42900.0,1.6974890232086182,-9.478046417236328,-0.8661024570465088
380,43000.0,1.6974890232086182,-9.478046417236328,-0.8661024570465088
381,43100.0,1.7094600200653076,-9.48762321472168,-0.790086567401886
382,43200.0,1.7094600200653076,-9.48762321472168,-0.790086567401886
383,43300.0,1.7932571172714231,-9.44752025604248,-0.9295487999916076
384,43400.0,1.7932571172714231,-9.44752025604248,-0.9295487999916076
385,43500.0,1.7824832201004028,-9.43255615234375,-0.9451110959053041
386,43600.0,1.8052281141281128,-9.416994094848633,-0.8798691034317017
387,43700.0,1.8052281141281128,-9.416994094848633,-0.8798691034317017
388,43800.0,1.7908629179000854,-9.426570892333984,-1.0241197347640991
389,43900.0,1.7908629179000854,-9.426570892333984,-1.0241197347640991
390,44000.0,1.7363947629928589,-9.460089683532717,-0.912190854549408
391,44100.0,1.7363947629928589,-9.460089683532717,-0.912190854549408
392,44200.0,1.809417963027954,-9.442132949829102,-0.9157821536064148
393,44300.0,1.809417963027954,-9.442132949829102,-0.9157821536064148
394,44400.0,1.7591396570205688,-9.437344551086426,-0.902015507221222
395,44500.0,1.675342679023743,-9.520543098449707,-0.871489405632019
396,44600.0,1.675342679023743,-9.520543098449707,-0.871489405632019
397,44700.0,1.83695125579834,-9.442731857299805,-0.851138710975647
398,44800.0,1.83695125579834,-9.442731857299805,-0.851138710975647
399,44900.0,1.8136078119277956,-9.427168846130373,-0.9666589498519896
400,45000.0,1.8136078119277956,-9.427168846130373,-0.9666589498519896
401,45100.0,1.6831238269805908,-9.492411613464355,-0.8445546627044678
402,45200.0,1.6831238269805908,-9.492411613464355,-0.8445546627044678
403,45300.0,1.7908629179000854,-9.43375301361084,-0.964264750480652
404,45400.0,1.7974469661712646,-9.441534042358398,-0.9510966539382936
405,45500.0,1.7974469661712646,-9.441534042358398,-0.9510966539382936
406,45600.0,1.7974469661712646,-9.437943458557127,-0.8236053586006165
407,45700.0,1.7974469661712646,-9.437943458557127,-0.8236053586006165
408,45800.0,1.832162857055664,-9.418190956115724,-1.0175356864929201
409,45900.0,1.832162857055664,-9.418190956115724,-1.0175356864929201
410,46000.0,1.7034745216369631,-9.461885452270508,-0.9085995554924012
411,46100.0,1.7034745216369631,-9.461885452270508,-0.9085995554924012
412,46200.0,1.7286136150360107,-9.484031677246094,-0.6877344250679016
413,46300.0,1.7286136150360107,-9.484031677246094,-0.6877344250679016
414,46400.0,1.81959331035614,-9.40741729736328,-0.9995791912078856
415,46500.0,1.7848774194717407,-9.45410442352295,-0.8876502513885498
416,46600.0,1.7848774194717407,-9.45410442352295,-0.8876502513885498
417,46700.0,1.7345991134643557,-9.463082313537598,-0.872686505317688
418,46800.0,1.7345991134643557,-9.463082313537598,-0.872686505317688
419,46900.0,1.8339585065841677,-9.43375301361084,-0.9690531492233276
420,47000.0,1.8339585065841677,-9.43375301361084,-0.9690531492233276
421,47100.0,1.768117904663086,-9.473258018493652,-0.8768763542175293
422,47200.0,1.768117904663086,-9.473258018493652,-0.8768763542175293
423,47300.0,1.8249802589416504,-9.440936088562012,-0.8625111579895021
424,47400.0,1.8022353649139404,-9.41100788116455,-1.042674899101257
425,47500.0,1.8022353649139404,-9.41100788116455,-1.042674899101257
426,47600.0,1.731606364250183,-9.461885452270508,-0.6709750294685364
427,47700.0,1.731606364250183,-9.461885452270508,-0.6709750294685364
428,47800.0,1.7639280557632446,-9.461885452270508,-1.0133458375930786
429,47900.0,1.7639280557632446,-9.461885452270508,-1.0133458375930786
430,48000.0,1.804031014442444,-9.430760383605957,-0.8774749040603638
431,48100.0,1.7854759693145752,-9.429563522338867,-0.9768342971801758
432,48200.0,1.7854759693145752,-9.429563522338867,-0.9768342971801758
433,48300.0,1.7711106538772583,-9.44752025604248,-0.9624691009521484
434,48400.0,1.7711106538772583,-9.44752025604248,-0.9624691009521484
435,48500.0,1.7974469661712646,-9.433155059814453,-0.7870938181877136
436,48600.0,1.7974469661712646,-9.433155059814453,-0.7870938181877136
437,48700.0,1.8004397153854368,-9.420584678649902,-0.9457096457481384
438,48800.0,1.8004397153854368,-9.420584678649902,-0.9457096457481384
439,48900.0,1.8189947605133057,-9.454702377319336,-0.8978256583213806
440,49000.0,1.8189947605133057,-9.454702377319336,-0.8978256583213806
441,49100.0,1.7699135541915894,-9.454702377319336,-0.872686505317688
442,49200.0,1.7806875705718994,-9.445724487304688,-0.8655039072036743
443,49300.0,1.7806875705718994,-9.445724487304688,-0.8655039072036743
444,49400.0,1.7806875705718994,-9.446322441101074,-0.9463081955909728
445,49500.0,1.7806875705718994,-9.446322441101074,-0.9463081955909728
446,49600.0,1.7369933128356934,-9.4636812210083,-0.9002198576927185
447,49700.0,1.7369933128356934,-9.4636812210083,-0.9002198576927185
448,49800.0,1.8010382652282717,-9.422380447387695,-0.9026140570640564
449,49900.0,1.7447744607925415,-9.454702377319336,-0.8702923059463501
450,50000.0,1.7447744607925415,-9.454702377319336,-0.8702923059463501
451,50100.0,1.7286136150360107,-9.45111083984375,-0.8942343592643738
452,50200.0,1.7286136150360107,-9.45111083984375,-0.8942343592643738
453,50300.0,1.6651673316955566,-9.488221168518066,-0.8008604645729065
454,50400.0,1.6651673316955566,-9.488221168518066,-0.8008604645729065
455,50500.0,1.753154158592224,-9.438541412353516,-0.8415619134902954
456,50600.0,1.753154158592224,-9.438541412353516,-0.8415619134902954
457,50700.0,1.646013617515564,-9.397241592407227,-0.9469067454338074
458,50800.0,1.646013617515564,-9.397241592407227,-0.9469067454338074
459,50900.0,1.6376339197158811,-9.475052833557127,-0.760757565498352
460,51000.0,1.7495628595352173,-9.445724487304688,-0.6147112846374512
461,51100.0,1.7495628595352173,-9.445724487304688,-0.6147112846374512
462,51200.0,1.734000563621521,-9.468469619750977,-0.70090252161026
463,51300.0,1.734000563621521,-9.468469619750977,-0.70090252161026
464,51400.0,1.656787633895874,-9.470264434814453,-0.8918401598930359
465,51500.0,1.656787633895874,-9.470264434814453,-0.8918401598930359
466,51600.0,1.7046716213226318,-9.443928718566896,-0.8954314589500427
467,51700.0,1.7046716213226318,-9.443928718566896,-0.8954314589500427
468,51800.0,1.7561469078063965,-9.470264434814453,-0.790086567401886
469,51900.0,1.7561469078063965,-9.470264434814453,-0.790086567401886
470,52000.0,1.7363947629928589,-9.456498146057127,-0.8930372595787048
471,52100.0,1.6950948238372805,-9.493608474731444,-0.8391677141189575
472,52200.0,1.6950948238372805,-9.493608474731444,-0.8391677141189575
473,52300.0,1.7016788721084597,-9.467870712280273,-0.7978677153587341
474,52400.0,1.7016788721084597,-9.467870712280273,-0.7978677153587341
475,52500.0,1.6741455793380735,-9.47265911102295,-0.7242460250854492
476,52600.0,1.6741455793380735,-9.47265911102295,-0.7242460250854492
477,52700.0,1.7483657598495483,-9.427168846130373,-0.9576807022094728
478,52800.0,1.7387889623641968,-9.479841232299805,-0.8080430626869202
479,52900.0,1.7387889623641968,-9.479841232299805,-0.8080430626869202
480,53000.0,1.7322049140930176,-9.420584678649902,-0.8684966564178467
481,53100.0,1.7322049140930176,-9.420584678649902,-0.8684966564178467
482,53200.0,1.7405846118927002,-9.496601104736328,-0.5973533391952515
483,53300.0,1.7405846118927002,-9.496601104736328,-0.5973533391952515
484,53400.0,1.807622313499451,-9.548076629638672,-0.9026140570640564
485,53500.0,1.807622313499451,-9.548076629638672,-0.9026140570640564
486,53600.0,1.7974469661712646,-9.453505516052246,-0.8307880163192749
487,53700.0,1.7160440683364868,-9.497200012207033,-0.8008604645729065
488,53800.0,1.7160440683364868,-9.497200012207033,-0.8008604645729065
489,53900.0,1.6262614727020264,-9.520543098449707,-1.0181342363357544
490,54000.0,1.6262614727020264,-9.520543098449707,-1.0181342363357544
491,54100.0,1.8507179021835327,-9.400833129882812,-1.0708067417144775
492,54200.0,1.8507179021835327,-9.400833129882812,-1.0708067417144775
493,54300.0,1.801636815071106,-9.41519832611084,-0.9080010056495668
494,54400.0,1.801636815071106,-9.41519832611084,-0.9080010056495668
495,54500.0,1.8183962106704712,-9.48343276977539,-0.8445546627044678
496,54600.0,1.9249382019042969,-9.336788177490234,-1.1534066200256348
497,54700.0,1.9249382019042969,-9.336788177490234,-1.1534066200256348
498,54800.0,1.7621324062347412,-9.460089683532717,-0.9068039059638976
499,54900.0,1.7621324062347412,-9.460089683532717,-0.9068039059638976
500,55000.0,1.9093759059906008,-9.418789863586426,-0.900818407535553
501,55100.0,1.9093759059906008,-9.418789863586426,-0.900818407535553
502,55200.0,1.7381904125213623,-9.460687637329102,-0.8158242106437683
503,55300.0,1.7381904125213623,-9.460687637329102,-0.8158242106437683
504,55400.0,1.8579005002975464,-9.40741729736328,-0.9367313981056212
505,55500.0,1.7094600200653076,-9.48882007598877,-0.8732850551605225
506,55600.0,1.7094600200653076,-9.48882007598877,-0.8732850551605225
507,55700.0,1.8183962106704712,-9.424176216125488,-0.9552865028381348
508,55800.0,1.8183962106704712,-9.424176216125488,-0.9552865028381348
509,55900.0,1.911171555519104,-9.385271072387695,-1.0199298858642578
510,56000.0,1.911171555519104,-9.385271072387695,-1.0199298858642578
511,56100.0,1.7136498689651491,-9.537302017211914,-0.6985083222389221
512,56200.0,1.7136498689651491,-9.537302017211914,-0.6985083222389221
513,56300.0,1.6537947654724119,-9.496002197265623,-0.6703764796257019
514,56400.0,1.802833914756775,-9.418190956115724,-0.9253589510917664
515,56500.0,1.802833914756775,-9.418190956115724,-0.9253589510917664
516,56600.0,1.6968904733657837,-9.50737476348877,-0.7475894689559937
517,56700.0,1.6968904733657837,-9.50737476348877,-0.7475894689559937
518,56800.0,1.8148049116134644,-9.418789863586426,-0.8463503122329712
519,56900.0,1.8148049116134644,-9.418789863586426,-0.8463503122329712
520,57000.0,1.7675193548202517,-9.47265911102295,-0.7799112200737
521,57100.0,1.7675193548202517,-9.47265911102295,-0.7799112200737
522,57200.0,1.7848774194717407,-9.444527626037598,-0.9253589510917664
523,57300.0,1.80881941318512,-9.424775123596193,-0.9810241460800172
524,57400.0,1.80881941318512,-9.424775123596193,-0.9810241460800172
525,57500.0,1.8303672075271609,-9.4822359085083,-0.9463081955909728
526,57600.0,1.8303672075271609,-9.4822359085083,-0.9463081955909728
527,57700.0,1.8465280532836916,-9.455899238586426,-0.8343793153762817
528,57800.0,1.8465280532836916,-9.455899238586426,-0.8343793153762817
529,57900.0,1.823184609413147,-9.41759204864502,-1.0319008827209473
530,58000.0,1.823184609413147,-9.41759204864502,-1.0319008827209473
531,58100.0,1.8908207416534424,-9.43375301361084,-0.9876081943511964
532,58200.0,1.7214310169219968,-9.467870712280273,-0.8732850551605225
533,58300.0,1.7214310169219968,-9.467870712280273,-0.8732850551605225
534,58400.0,1.7322049140930176,-9.4636812210083,-0.8050503134727478
535,58500.0,1.7322049140930176,-9.4636812210083,-0.8050503134727478
536,58600.0,1.8148049116134644,-9.424176216125488,-0.912190854549408
537,58700.0,1.8148049116134644,-9.424176216125488,-0.912190854549408
538,58800.0,1.829170107841492,-9.434351921081543,-0.9091981053352356
539,58900.0,1.829170107841492,-9.434351921081543,-0.9091981053352356
540,59000.0,1.816600561141968,-9.428366661071776,-1.003769040107727
541,59100.0,1.799242615699768,-9.458293914794922,-0.8786720037460327
542,59200.0,1.799242615699768,-9.458293914794922,-0.8786720037460327
543,59300.0,1.845929503440857,-9.451709747314453,-0.934935748577118
544,59400.0,1.845929503440857,-9.451709747314453,-0.934935748577118
545,59500.0,1.8261773586273196,-9.435548782348633,-0.910993754863739
546,59600.0,1.8261773586273196,-9.435548782348633,-0.910993754863739
547,59700.0,1.8339585065841677,-9.425373077392578,-0.9780313968658448
548,59800.0,1.8339585065841677,-9.425373077392578,-0.9780313968658448
549,59900.0,1.8674772977828982,-9.465476036071776,-0.7799112200737
550,60000.0,1.928529500961304,-9.41100788116455,-0.7679402232170105
551,60100.0,1.928529500961304,-9.41100788116455,-0.7679402232170105
552,60200.0,1.7615338563919067,-9.46487808227539,-0.974440097808838
553,60300.0,1.7615338563919067,-9.46487808227539,-0.974440097808838
554,60400.0,1.8381483554840088,-9.445125579833984,-1.035492181777954
555,60500.0,1.8381483554840088,-9.445125579833984,-1.035492181777954
556,60600.0,1.7950527667999268,-9.41100788116455,-0.8936358094215393
557,60700.0,1.7950527667999268,-9.41100788116455,-0.8936358094215393
558,60800.0,1.8225860595703125,-9.405621528625488,-1.0702081918716428
559,60900.0,1.7262194156646729,-9.460089683532717,-0.9498994946479796
560,61000.0,1.7262194156646729,-9.460089683532717,-0.9498994946479796
561,61100.0,1.804031014442444,-9.445724487304688,-0.9044097065925598
562,61200.0,1.804031014442444,-9.445724487304688,-0.9044097065925598
563,61300.0,1.8561048507690432,-9.394248962402344,-0.9816226959228516
564,61400.0,1.8561048507690432,-9.394248962402344,-0.9816226959228516
565,61500.0,1.6837223768234253,-9.48462963104248,-0.9050082564353944
566,61600.0,1.6837223768234253,-9.48462963104248,-0.9050082564353944
567,61700.0,1.8429367542266848,-9.427767753601074,-0.8816647529602051
568,61800.0,1.6771383285522459,-9.454702377319336,-0.8547300100326538
569,61900.0,1.6771383285522459,-9.454702377319336,-0.8547300100326538
570,62000.0,1.8614917993545528,-9.41639518737793,-1.0013748407363892
571,62100.0,1.8614917993545528,-9.41639518737793,-1.0013748407363892
572,62200.0,1.7729063034057615,-9.46607494354248,-0.8331822156906128
573,62300.0,1.7729063034057615,-9.46607494354248,-0.8331822156906128
574,62400.0,1.8800468444824217,-9.388263702392578,-0.9385270476341248
575,62500.0,1.8800468444824217,-9.388263702392578,-0.9385270476341248
576,62600.0,1.6597803831100464,-9.48462963104248,-0.8619126081466675
577,62700.0,1.7687164545059204,-9.454702377319336,-0.8780734539031982
578,62800.0,1.7687164545059204,-9.454702377319336,-0.8780734539031982
579,62900.0,1.7717092037200928,-9.45111083984375,-0.8852560520172119
580,63000.0,1.7717092037200928,-9.45111083984375,-0.8852560520172119
581,63100.0,1.7334020137786863,-9.472060203552246,-0.9355342984199524
582,63200.0,1.7334020137786863,-9.472060203552246,-0.9355342984199524
583,63300.0,1.816600561141968,-9.418789863586426,-0.9163807034492492
584,63400.0,1.816600561141968,-9.418789863586426,-0.9163807034492492
585,63500.0,1.7872716188430786,-9.440936088562012,-0.8385691642761229
586,63600.0,1.8052281141281128,-9.443329811096193,-1.0181342363357544
587,63700.0,1.8052281141281128,-9.443329811096193,-1.0181342363357544
588,63800.0,1.8555063009262085,-9.441534042358398,-0.9157821536064148
589,63900.0,1.8555063009262085,-9.441534042358398,-0.9157821536064148
590,64000.0,1.7782933712005615,-9.445724487304688,-0.8152256608009338
591,64100.0,1.7782933712005615,-9.445724487304688,-0.8152256608009338
592,64200.0,1.731606364250183,-9.451709747314453,-0.8960300087928772
593,64300.0,1.731606364250183,-9.451709747314453,-0.8960300087928772
594,64400.0,1.9003976583480835,-9.41400146484375,-1.0121487379074097
595,64500.0,1.840542554855347,-9.448118209838867,-0.9714473485946656
596,64600.0,1.840542554855347,-9.448118209838867,-0.9714473485946656
597,64700.0,1.8052281141281128,-9.423578262329102,-0.9702502489089966
598,64800.0,1.8052281141281128,-9.423578262329102,-0.9702502489089966
599,64900.0,1.83695125579834,-9.420584678649902,-0.9074024558067322
600,65000.0,1.83695125579834,-9.420584678649902,-0.9074024558067322
601,65100.0,1.7836803197860718,-9.421782493591307,-1.0295066833496094
602,65200.0,1.7836803197860718,-9.421782493591307,-1.0295066833496094
603,65300.0,1.746570110321045,-9.461885452270508,-0.7811083197593689
604,65400.0,1.7196353673934937,-9.464279174804688,-0.8708908557891846
605,65500.0,1.7196353673934937,-9.464279174804688,-0.8708908557891846
606,65600.0,1.777096152305603,-9.475651741027832,-0.9217676520347596
607,65700.0,1.777096152305603,-9.475651741027832,-0.9217676520347596
608,65800.0,1.7848774194717407,-9.428964614868164,-0.9283517003059388
609,65900.0,1.7848774194717407,-9.428964614868164,-0.9283517003059388
610,66000.0,1.754351258277893,-9.478644371032717,-0.8535329103469849
611,66100.0,1.754351258277893,-9.478644371032717,-0.8535329103469849
612,66200.0,1.7190368175506592,-9.444527626037598,-0.8307880163192749
613,66300.0,1.8183962106704712,-9.45111083984375,-0.8649053573608398
614,66400.0,1.8183962106704712,-9.45111083984375,-0.8649053573608398
615,66500.0,1.7842788696289065,-9.46487808227539,-0.9786299467086792
616,66600.0,1.7842788696289065,-9.46487808227539,-0.9786299467086792
617,66700.0,1.7363947629928589,-9.414599418640137,-0.984615445137024
618,66800.0,1.7363947629928589,-9.414599418640137,-0.984615445137024
619,66900.0,1.7806875705718994,-9.463082313537598,-0.8924387097358704
620,67000.0,1.7806875705718994,-9.463082313537598,-0.8924387097358704
621,67100.0,1.857301950454712,-9.402029991149902,-0.9792284965515136
622,67200.0,1.7537527084350586,-9.443329811096193,-0.951695203781128
623,67300.0,1.7537527084350586,-9.443329811096193,-0.951695203781128
624,67400.0,1.7328034639358518,-9.450512886047363,-0.8810662031173706
625,67500.0,1.7328034639358518,-9.450512886047363,-0.8810662031173706
626,67600.0,1.759738206863403,-9.44752025604248,-0.9385270476341248
627,67700.0,1.759738206863403,-9.44752025604248,-0.9385270476341248
628,67800.0,1.8058266639709477,-9.473855972290039,-0.8092401623725891
629,67900.0,1.8058266639709477,-9.473855972290039,-0.8092401623725891
630,68000.0,1.747767210006714,-9.414599418640137,-0.8912416100502014
631,68100.0,1.6789339780807495,-9.46487808227539,-0.8044517636299133
632,68200.0,1.6789339780807495,-9.46487808227539,-0.8044517636299133
633,68300.0,1.8513164520263672,-9.429563522338867,-0.861314058303833
634,68400.0,1.8513164520263672,-9.429563522338867,-0.861314058303833
635,68500.0,1.8351556062698364,-9.442731857299805,-0.829590916633606
636,68600.0,1.8351556062698364,-9.442731857299805,-0.829590916633606
637,68700.0,1.7052701711654663,-9.495404243469238,-0.7661445140838623
638,68800.0,1.7052701711654663,-9.495404243469238,-0.7661445140838623
639,68900.0,1.7375918626785278,-9.445125579833984,-0.951695203781128
640,69000.0,1.7375918626785278,-9.445125579833984,-0.951695203781128
641,69100.0,1.7363947629928589,-9.455899238586426,-0.90979665517807
642,69200.0,1.7549498081207275,-9.439739227294922,-0.8583213090896606
643,69300.0,1.7549498081207275,-9.439739227294922,-0.8583213090896606
644,69400.0,1.7537527084350586,-9.452308654785156,-0.8331822156906128
645,69500.0,1.7537527084350586,-9.452308654785156,-0.8331822156906128
646,69600.0,1.6915035247802734,-9.44871711730957,-0.8517372608184814
647,69700.0,1.6915035247802734,-9.44871711730957,-0.8517372608184814
648,69800.0,1.6968904733657837,-9.47265911102295,-0.7553706169128418
649,69900.0,1.6968904733657837,-9.47265911102295,-0.7553706169128418
650,70000.0,1.6621745824813845,-9.448118209838867,-0.9600749015808104
651,70100.0,1.9243396520614624,-9.418789863586426,-0.7457938194274902
652,70200.0,1.9243396520614624,-9.418789863586426,-0.7457938194274902
653,70300.0,1.5765818357467651,-9.464279174804688,-0.9564836025238036
654,70400.0,1.5765818357467651,-9.464279174804688,-0.9564836025238036
655,70500.0,1.6585832834243774,-9.44871711730957,-0.9391255974769592
656,70600.0,1.6585832834243774,-9.44871711730957,-0.9391255974769592
657,70700.0,1.6496049165725708,-9.48343276977539,-0.8457517623901367
658,70800.0,1.6496049165725708,-9.48343276977539,-0.8457517623901367
659,70900.0,1.7154455184936523,-9.49001693725586,-0.6338648796081543
660,71000.0,1.6944962739944458,-9.482834815979004,-0.9415197968482972
661,71100.0,1.6944962739944458,-9.482834815979004,-0.9415197968482972
662,71200.0,1.5388731956481934,-9.497200012207033,-0.7481880187988281
663,71300.0,1.5388731956481934,-9.497200012207033,-0.7481880187988281
664,71400.0,1.678335428237915,-9.48882007598877,-0.8337807655334473
665,71500.0,1.678335428237915,-9.48882007598877,-0.8337807655334473
666,71600.0,1.6514005661010742,-9.485827445983887,-0.6859387755393982
667,71700.0,1.6514005661010742,-9.485827445983887,-0.6859387755393982
668,71800.0,1.6968904733657837,-9.468469619750977,-0.8206126093864441
669,71900.0,1.6849194765090942,-9.4636812210083,-0.7715315222740173
670,72000.0,1.6849194765090942,-9.4636812210083,-0.7715315222740173
671,72100.0,1.6466121673583984,-9.485827445983887,-0.7577648162841797
672,72200.0,1.6466121673583984,-9.485827445983887,-0.7577648162841797
673,72300.0,1.6747441291809082,-9.494805335998537,-0.7829039692878723
674,72400.0,1.6747441291809082,-9.494805335998537,-0.7829039692878723
675,72500.0,1.6801310777664185,-9.475651741027832,-0.8780734539031982
676,72600.0,1.6801310777664185,-9.475651741027832,-0.8780734539031982
677,72700.0,1.7381904125213623,-9.458293914794922,-0.8307880163192749
678,72800.0,1.8471266031265257,-9.331400871276855,-0.6260837316513062
679,72900.0,1.8471266031265257,-9.331400871276855,-0.6260837316513062
680,73000.0,2.1284453868865967,-9.235034942626953,-1.1121066808700562
681,73100.0,2.1284453868865967,-9.235034942626953,-1.1121066808700562
682,73200.0,1.6663644313812256,-9.396044731140137,-0.9762357473373412
683,73300.0,1.6663644313812256,-9.396044731140137,-0.9762357473373412
684,73400.0,1.7699135541915894,-9.402029991149902,-0.9576807022094728
685,73500.0,1.7699135541915894,-9.402029991149902,-0.9576807022094728
686,73600.0,1.7675193548202517,-9.455899238586426,-0.9546879529953004
687,73700.0,1.5526398420333862,-9.528324127197266,-0.9080010056495668
688,73800.0,1.5526398420333862,-9.528324127197266,-0.9080010056495668
689,73900.0,1.6837223768234253,-9.481637001037598,-0.8385691642761229
690,74000.0,1.6837223768234253,-9.481637001037598,-0.8385691642761229
691,74100.0,1.821388959884644,-9.428964614868164,-0.9385270476341248
692,74200.0,1.821388959884644,-9.428964614868164,-0.9385270476341248
693,74300.0,1.7890672683715818,-9.43494987487793,-0.8661024570465088
694,74400.0,1.7890672683715818,-9.43494987487793,-0.8661024570465088
695,74500.0,1.6956933736801147,-9.481039047241213,-0.9828197956085204
696,74600.0,1.6687586307525637,-9.4636812210083,-0.8505401611328125
697,74700.0,1.6687586307525637,-9.4636812210083,-0.8505401611328125
698,74800.0,1.7513585090637207,-9.453505516052246,-0.8912416100502014
699,74900.0,1.7513585090637207,-9.453505516052246,-0.8912416100502014
700,75000.0,1.8483237028121948,-9.399636268615724,-1.0313023328781128
701,75100.0,1.8483237028121948,-9.399636268615724,-1.0313023328781128
702,75200.0,1.58256733417511,-9.51455783843994,-0.828393816947937
703,75300.0,1.58256733417511,-9.51455783843994,-0.828393816947937
704,75400.0,1.7381904125213623,-9.464279174804688,-0.9032126069068908
705,75500.0,1.7214310169219968,-9.451709747314453,-0.8696937561035156
706,75600.0,1.7214310169219968,-9.451709747314453,-0.8696937561035156
707,75700.0,1.746570110321045,-9.450512886047363,-0.8421604633331299
708,75800.0,1.746570110321045,-9.450512886047363,-0.8421604633331299
709,75900.0,1.7130513191223145,-9.453505516052246,-0.8643068075180054
710,76000.0,1.7130513191223145,-9.453505516052246,-0.8643068075180054
711,76100.0,1.7848774194717407,-9.428964614868164,-1.012747287750244
712,76200.0,1.7848774194717407,-9.428964614868164,-1.012747287750244
713,76300.0,1.7747019529342651,-9.426570892333984,-0.9528923034667968
714,76400.0,1.7687164545059204,-9.464279174804688,-0.8619126081466675
715,76500.0,1.7687164545059204,-9.464279174804688,-0.8619126081466675
716,76600.0,1.7938556671142578,-9.421782493591307,-0.9762357473373412
717,76700.0,1.7938556671142578,-9.421782493591307,-0.9762357473373412
718,76800.0,1.7298107147216797,-9.475651741027832,-0.8804676532745361
719,76900.0,1.7298107147216797,-9.475651741027832,-0.8804676532745361
720,77000.0,1.9075802564620967,-9.416994094848633,-0.9481038451194764
721,77100.0,1.9075802564620967,-9.416994094848633,-0.9481038451194764
722,77200.0,1.7345991134643557,-9.458293914794922,-0.9032126069068908
723,77300.0,1.7980455160140991,-9.412205696105957,-0.812831461429596
724,77400.0,1.7980455160140991,-9.412205696105957,-0.812831461429596
725,77500.0,1.7399860620498655,-9.454702377319336,-0.9361328482627868
726,77600.0,1.7399860620498655,-9.454702377319336,-0.9361328482627868
727,77700.0,1.7687164545059204,-9.450512886047363,-0.8086416125297546
728,77800.0,1.7687164545059204,-9.450512886047363,-0.8086416125297546
729,77900.0,1.7399860620498655,-9.451709747314453,-0.9289502501487732
730,78000.0,1.7399860620498655,-9.451709747314453,-0.9289502501487732
731,78100.0,1.7633295059204102,-9.450512886047363,-1.0169371366500854
732,78200.0,1.7417817115783691,-9.485827445983887,-0.8224082589149475
733,78300.0,1.7417817115783691,-9.485827445983887,-0.8224082589149475
734,78400.0,1.7824832201004028,-9.420584678649902,-0.9139865040779114
735,78500.0,1.7824832201004028,-9.420584678649902,-0.9139865040779114
736,78600.0,1.7764976024627686,-9.44752025604248,-0.9223662018775941
737,78700.0,1.7764976024627686,-9.44752025604248,-0.9223662018775941
738,78800.0,1.8154034614562988,-9.435548782348633,-0.9187749028205872
739,78900.0,1.8154034614562988,-9.435548782348633,-0.9187749028205872
740,79000.0,1.780089020729065,-9.449316024780273,-0.8236053586006165
741,79100.0,1.8968062400817869,-9.39903736114502,-1.0516531467437744
742,79200.0,1.8968062400817869,-9.39903736114502,-1.0516531467437744
743,79300.0,1.687313675880432,-9.4636812210083,-0.8361749649047852
744,79400.0,1.687313675880432,-9.4636812210083,-0.8361749649047852
745,79500.0,1.813009262084961,-9.443928718566896,-0.8936358094215393
746,79600.0,1.813009262084961,-9.443928718566896,-0.8936358094215393
747,79700.0,1.7896658182144165,-9.436745643615724,-1.0492589473724363
748,79800.0,1.7896658182144165,-9.436745643615724,-1.0492589473724363
749,79900.0,1.7250223159790041,-9.455899238586426,-0.889445960521698
750,80000.0,1.7190368175506592,-9.509170532226564,-0.861314058303833
751,80100.0,1.7190368175506592,-9.509170532226564,-0.861314058303833
752,80200.0,1.7950527667999268,-9.43914031982422,-0.9403226971626282
753,80300.0,1.7950527667999268,-9.43914031982422,-0.9403226971626282
754,80400.0,1.7627309560775757,-9.438541412353516,-0.979827046394348
755,80500.0,1.7627309560775757,-9.438541412353516,-0.979827046394348
756,80600.0,1.745373010635376,-9.468469619750977,-0.9139865040779114
757,80700.0,1.745373010635376,-9.468469619750977,-0.9139865040779114
758,80800.0,1.7286136150360107,-9.497797966003418,-0.8421604633331299
759,80900.0,1.8010382652282717,-9.419387817382812,-0.9600749015808104
760,81000.0,1.8010382652282717,-9.419387817382812,-0.9600749015808104
761,81100.0,1.759738206863403,-9.45410442352295,-0.9433154463768004
762,81200.0,1.759738206863403,-9.45410442352295,-0.9433154463768004
763,81300.0,1.8148049116134644,-9.450512886047363,-0.93254154920578
764,81400.0,1.8148049116134644,-9.450512886047363,-0.93254154920578
765,81500.0,1.759738206863403,-9.47265911102295,-0.8631097078323364
766,81600.0,1.759738206863403,-9.47265911102295,-0.8631097078323364
767,81700.0,1.8674772977828982,-9.39245319366455,-1.0253168344497678
768,81800.0,1.7651251554489136,-9.428366661071776,-1.007360339164734
769,81900.0,1.7651251554489136,-9.428366661071776,-1.007360339164734
770,82000.0,1.802833914756775,-9.453505516052246,-0.8206126093864441
771,82100.0,1.802833914756775,-9.453505516052246,-0.8206126093864441
772,82200.0,1.7926585674285889,-9.41759204864502,-1.0444705486297607
773,82300.0,1.7926585674285889,-9.41759204864502,-1.0444705486297607
774,82400.0,1.8279730081558228,-9.436147689819336,-0.8882488012313843
775,82500.0,1.8279730081558228,-9.436147689819336,-0.8882488012313843
776,82600.0,1.7334020137786863,-9.466673851013184,-0.9792284965515136
777,82700.0,1.7782933712005615,-9.459490776062012,-0.7529764175415039
778,82800.0,1.7782933712005615,-9.459490776062012,-0.7529764175415039
779,82900.0,1.7836803197860718,-9.441534042358398,-0.9091981053352356
780,83000.0,1.7836803197860718,-9.441534042358398,-0.9091981053352356
781,83100.0,1.7663222551345823,-9.437344551086426,-0.9750386476516724
782,83200.0,1.7663222551345823,-9.437344551086426,-0.9750386476516724
783,83300.0,1.764526605606079,-9.472060203552246,-0.8319851160049438
784,83400.0,1.764526605606079,-9.472060203552246,-0.8319851160049438
785,83500.0,1.8351556062698364,-9.40023422241211,-0.910993754863739
786,83600.0,1.7232266664505005,-9.488221168518066,-0.8361749649047852
787,83700.0,1.7232266664505005,-9.488221168518066,-0.8361749649047852
788,83800.0,1.816600561141968,-9.433155059814453,-0.9618705511093141
789,83900.0,1.816600561141968,-9.433155059814453,-0.9618705511093141
790,84000.0,1.7675193548202517,-9.44752025604248,-0.7655459642410278
791,84100.0,1.7675193548202517,-9.44752025604248,-0.7655459642410278
792,84200.0,1.7214310169219968,-9.443329811096193,-1.0492589473724363
793,84300.0,1.7214310169219968,-9.443329811096193,-1.0492589473724363
794,84400.0,1.7363947629928589,-9.458892822265623,-0.790086567401886
795,84500.0,1.754351258277893,-9.436147689819336,-1.0175356864929201
796,84600.0,1.754351258277893,-9.436147689819336,-1.0175356864929201
797,84700.0,1.8058266639709477,-9.452906608581543,-0.823006808757782
798,84800.0,1.8058266639709477,-9.452906608581543,-0.823006808757782
799,84900.0,1.742978811264038,-9.48343276977539,-0.9451110959053041
800,85000.0,1.742978811264038,-9.48343276977539,-0.9451110959053041
801,85100.0,1.7675193548202517,-9.453505516052246,-0.801459014415741
802,85200.0,1.7675193548202517,-9.453505516052246,-0.801459014415741
803,85300.0,1.7980455160140991,-9.418789863586426,-0.9864110946655272
804,85400.0,1.7633295059204102,-9.48462963104248,-0.8547300100326538
805,85500.0,1.7633295059204102,-9.48462963104248,-0.8547300100326538
806,85600.0,1.7244237661361694,-9.46607494354248,-0.8906430602073669
807,85700.0,1.7244237661361694,-9.46607494354248,-0.8906430602073669
808,85800.0,1.7298107147216797,-9.46727180480957,-0.8708908557891846
809,85900.0,1.7298107147216797,-9.46727180480957,-0.8708908557891846
810,86000.0,1.6651673316955566,-9.48762321472168,-0.8643068075180054
811,86100.0,1.6651673316955566,-9.48762321472168,-0.8643068075180054
812,86200.0,1.7537527084350586,-9.469666481018066,-0.7787141203880309
813,86300.0,1.823184609413147,-9.406219482421877,-1.0307037830352783
814,86400.0,1.823184609413147,-9.406219482421877,-1.0307037830352783
815,86500.0,1.6747441291809082,-9.489418029785156,-0.8738836050033569
816,86600.0,1.6747441291809082,-9.489418029785156,-0.8738836050033569
817,86700.0,1.747767210006714,-9.457097053527832,-0.7499836683273315
818,86800.0,1.747767210006714,-9.457097053527832,-0.7499836683273315
819,86900.0,1.8327614068984983,-9.405022621154783,-1.007360339164734
820,87000.0,1.8327614068984983,-9.405022621154783,-1.007360339164734
821,87100.0,1.7369933128356934,-9.434351921081543,-0.7745242714881897
822,87200.0,1.746570110321045,-9.427767753601074,-0.8822633028030396
823,87300.0,1.746570110321045,-9.427767753601074,-0.8822633028030396
824,87400.0,1.7004817724227903,-9.473855972290039,-0.8708908557891846
825,87500.0,1.7004817724227903,-9.473855972290039,-0.8708908557891846
826,87600.0,1.7986440658569336,-9.446322441101074,-0.8331822156906128
827,87700.0,1.7986440658569336,-9.446322441101074,-0.8331822156906128
828,87800.0,1.7280150651931765,-9.458892822265623,-1.0043675899505615
829,87900.0,1.7280150651931765,-9.458892822265623,-1.0043675899505615
830,88000.0,1.7196353673934937,-9.476848602294922,-0.7529764175415039
831,88100.0,1.7621324062347412,-9.440337181091307,-0.9840168952941896
832,88200.0,1.7621324062347412,-9.440337181091307,-0.9840168952941896
833,88300.0,1.7908629179000854,-9.441534042358398,-0.9277531504631042
834,88400.0,1.7908629179000854,-9.441534042358398,-0.9277531504631042
835,88500.0,1.8183962106704712,-9.44991397857666,-0.8625111579895021
836,88600.0,1.8183962106704712,-9.44991397857666,-0.8625111579895021
837,88700.0,1.8381483554840088,-9.418190956115724,-1.0043675899505615
838,88800.0,1.8381483554840088,-9.418190956115724,-1.0043675899505615
839,88900.0,1.726817965507507,-9.489418029785156,-0.7739257216453552
840,89000.0,1.85430920124054,-9.384073257446287,-1.108515381813049
841,89100.0,1.85430920124054,-9.384073257446287,-1.108515381813049
842,89200.0,1.7423802614212036,-9.467870712280273,-0.8056488633155823
843,89300.0,1.7423802614212036,-9.467870712280273,-0.8056488633155823
844,89400.0,1.802833914756775,-9.445724487304688,-0.9205705523490906
845,89500.0,1.802833914756775,-9.445724487304688,-0.9205705523490906
846,89600.0,1.7747019529342651,-9.404424667358398,-0.9989806413650512
847,89700.0,1.7747019529342651,-9.404424667358398,-0.9989806413650512
848,89800.0,1.699883222579956,-9.460687637329102,-0.9714473485946656
849,89900.0,1.699883222579956,-9.460687637329102,-0.9714473485946656
850,90000.0,1.7735048532485962,-9.467870712280273,-0.8661024570465088
851,90100.0,1.8267759084701536,-9.43375301361084,-0.8684966564178467
852,90200.0,1.8267759084701536,-9.43375301361084,-0.8684966564178467
853,90300.0,1.7286136150360107,-9.48343276977539,-0.9421183466911316
854,90400.0,1.7286136150360107,-9.48343276977539,-0.9421183466911316
855,90500.0,1.753154158592224,-9.45410442352295,-0.788889467716217
856,90600.0,1.753154158592224,-9.45410442352295,-0.788889467716217
857,90700.0,1.660977482795715,-9.473258018493652,-0.8954314589500427
858,90800.0,1.7184382677078247,-9.430760383605957,-0.8158242106437683
859,90900.0,1.7184382677078247,-9.430760383605957,-0.8158242106437683
860,91000.0,1.8034324645996092,-9.424176216125488,-0.9044097065925598
861,91100.0,1.8034324645996092,-9.424176216125488,-0.9044097065925598
862,91200.0,1.7495628595352173,-9.43494987487793,-0.8816647529602051
863,91300.0,1.7495628595352173,-9.43494987487793,-0.8816647529602051
864,91400.0,1.7220295667648315,-9.463082313537598,-0.8589198589324951
865,91500.0,1.7220295667648315,-9.463082313537598,-0.8589198589324951
866,91600.0,1.7345991134643557,-9.470264434814453,-0.8146271109580994
867,91700.0,1.6759412288665771,-9.493608474731444,-0.9558850526809692
868,91800.0,1.6759412288665771,-9.493608474731444,-0.9558850526809692
869,91900.0,1.7651251554489136,-9.411606788635254,-0.7595604658126831
870,92000.0,1.7651251554489136,-9.411606788635254,-0.7595604658126831
871,92100.0,1.7513585090637207,-9.439739227294922,-0.8852560520172119
872,92200.0,1.7513585090637207,-9.439739227294922,-0.8852560520172119
873,92300.0,1.7208324670791626,-9.460089683532717,-0.9684545993804932
874,92400.0,1.7208324670791626,-9.460089683532717,-0.9684545993804932
875,92500.0,1.7280150651931765,-9.473258018493652,-0.8583213090896606
876,92600.0,1.7280150651931765,-9.473258018493652,-0.8583213090896606
877,92700.0,1.7860745191574097,-9.460089683532717,-0.9085995554924012
878,92800.0,1.7998411655426023,-9.461885452270508,-0.9313444495201112
879,92900.0,1.7998411655426023,-9.461885452270508,-0.9313444495201112
880,93000.0,1.8046295642852783,-9.446921348571776,-0.8750807046890259
881,93100.0,1.8046295642852783,-9.446921348571776,-0.8750807046890259
882,93200.0,1.8758569955825808,-9.40023422241211,-0.9331400990486144
883,93300.0,1.8758569955825808,-9.40023422241211,-0.9331400990486144
884,93400.0,1.7830817699432373,-9.439739227294922,-0.8852560520172119
885,93500.0,1.7830817699432373,-9.439739227294922,-0.8852560520172119
886,93600.0,1.9255367517471316,-9.38167953491211,-1.115697979927063
887,93700.0,1.8393454551696775,-9.424775123596193,-0.9558850526809692
888,93800.0,1.8393454551696775,-9.424775123596193,-0.9558850526809692
889,93900.0,1.7950527667999268,-9.445724487304688,-0.9259575009346008
890,94000.0,1.7950527667999268,-9.445724487304688,-0.9259575009346008
891,94100.0,1.8740613460540767,-9.415796279907227,-0.9451110959053041
892,94200.0,1.8740613460540767,-9.415796279907227,-0.9451110959053041
893,94300.0,1.7830817699432373,-9.470863342285156,-0.9409212470054626
894,94400.0,1.7830817699432373,-9.470863342285156,-0.9409212470054626
895,94500.0,1.8112136125564573,-9.443329811096193,-0.9217676520347596
896,94600.0,1.804031014442444,-9.42597198486328,-0.8678981065750122
897,94700.0,1.804031014442444,-9.42597198486328,-0.8678981065750122
898,94800.0,1.79146146774292,-9.446921348571776,-0.9756371974945068
899,94900.0,1.79146146774292,-9.446921348571776,-0.9756371974945068
900,95000.0,1.7968484163284302,-9.419387817382812,-0.8110358119010925
901,95100.0,1.7968484163284302,-9.419387817382812,-0.8110358119010925
902,95200.0,1.834557056427002,-9.419986724853516,-0.9714473485946656
903,95300.0,1.834557056427002,-9.419986724853516,-0.9714473485946656
904,95400.0,1.754351258277893,-9.464279174804688,-0.8367735147476196
905,95500.0,1.8010382652282717,-9.418789863586426,-0.9690531492233276
906,95600.0,1.8010382652282717,-9.418789863586426,-0.9690531492233276
907,95700.0,1.7926585674285889,-9.473258018493652,-0.9074024558067322
908,95800.0,1.7926585674285889,-9.473258018493652,-0.9074024558067322
909,95900.0,1.8267759084701536,-9.440936088562012,-0.9804255962371826
910,96000.0,1.8267759084701536,-9.440936088562012,-0.9804255962371826
911,96100.0,1.8058266639709477,-9.427168846130373,-0.8732850551605225
912,96200.0,1.8058266639709477,-9.427168846130373,-0.8732850551605225
913,96300.0,1.7764976024627686,-9.4822359085083,-0.7673416733741759
914,96400.0,1.8058266639709477,-9.409213066101074,-0.9355342984199524
915,96500.0,1.8058266639709477,-9.409213066101074,-0.9355342984199524
916,96600.0,1.7471686601638794,-9.450512886047363,-0.8032546639442444
917,96700.0,1.7471686601638794,-9.450512886047363,-0.8032546639442444
918,96800.0,1.7711106538772583,-9.427767753601074,-0.912190854549408
919,96900.0,1.7711106538772583,-9.427767753601074,-0.912190854549408
920,97000.0,1.7579425573349,-9.44752025604248,-0.7601590156555176
921,97100.0,1.7579425573349,-9.44752025604248,-0.7601590156555176
922,97200.0,1.80881941318512,-9.424775123596193,-0.9026140570640564
923,97300.0,1.84233820438385,-9.473258018493652,-0.9032126069068908
924,97400.0,1.84233820438385,-9.473258018493652,-0.9032126069068908
925,97500.0,1.7387889623641968,-9.43375301361084,-0.9307458996772766
926,97600.0,1.7387889623641968,-9.43375301361084,-0.9307458996772766
927,97700.0,1.7375918626785278,-9.435548782348633,-0.9618705511093141
928,97800.0,1.7375918626785278,-9.435548782348633,-0.9618705511093141
929,97900.0,1.8866308927536009,-9.423578262329102,-0.9900023937225342
930,98000.0,1.8866308927536009,-9.423578262329102,-0.9900023937225342
931,98100.0,1.88244104385376,-9.408015251159668,-0.9911994934082032
932,98200.0,1.9045875072479248,-9.427767753601074,-0.9367313981056212
933,98300.0,1.9045875072479248,-9.427767753601074,-0.9367313981056212
934,98400.0,1.8177976608276367,-9.434351921081543,-0.8756792545318604
935,98500.0,1.8177976608276367,-9.434351921081543,-0.8756792545318604
936,98600.0,1.8848352432250977,-9.405022621154783,-0.9756371974945068
937,98700.0,1.8848352432250977,-9.405022621154783,-0.9756371974945068
938,98800.0,1.8680758476257324,-9.421782493591307,-0.9816226959228516
939,98900.0,1.8680758476257324,-9.421782493591307,-0.9816226959228516
940,99000.0,1.8638859987258911,-9.418789863586426,-0.9385270476341248
941,99100.0,1.857301950454712,-9.41100788116455,-0.9941922426223756
942,99200.0,1.857301950454712,-9.41100788116455,-0.9941922426223756
943,99300.0,1.843535304069519,-9.41519832611084,-0.921169102191925
944,99400.0,1.843535304069519,-9.41519832611084,-0.921169102191925
945,99500.0,1.787870168685913,-9.424775123596193,-0.9654618501663208
946,99600.0,1.787870168685913,-9.424775123596193,-0.9654618501663208
947,99700.0,1.7471686601638794,-9.461885452270508,-0.7350199222564697
948,99800.0,1.7471686601638794,-9.461885452270508,-0.7350199222564697
949,99900.0,1.807622313499451,-9.469666481018066,-0.9768342971801758
950,100000.0,1.7172411680221558,-9.474454879760742,-0.8182184100151062
951,100100.0,1.7172411680221558,-9.474454879760742,-0.8182184100151062
952,100200.0,1.834557056427002,-9.40741729736328,-1.1192892789840698
953,100300.0,1.834557056427002,-9.40741729736328,-1.1192892789840698
954,100400.0,1.8501193523406985,-9.412803649902344,-0.8816647529602051
955,100500.0,1.8501193523406985,-9.412803649902344,-0.8816647529602051
956,100600.0,1.83695125579834,-9.461286544799805,-0.8487445116043091
957,100700.0,1.83695125579834,-9.461286544799805,-0.8487445116043091
958,100800.0,1.7872716188430786,-9.448118209838867,-0.9648633003234864
959,100900.0,1.7980455160140991,-9.449316024780273,-0.828393816947937
960,101000.0,1.7980455160140991,-9.449316024780273,-0.828393816947937
961,101100.0,1.8722656965255735,-9.420584678649902,-0.9995791912078856
962,101200.0,1.8722656965255735,-9.420584678649902,-0.9995791912078856
963,101300.0,1.753154158592224,-9.455899238586426,-0.7463923692703247
964,101400.0,1.753154158592224,-9.455899238586426,-0.7463923692703247
965,101500.0,1.6765397787094116,-9.492411613464355,-0.9068039059638976
966,101600.0,1.6765397787094116,-9.492411613464355,-0.9068039059638976
967,101700.0,1.8938134908676147,-9.423578262329102,-0.9852139949798584
968,101800.0,1.7908629179000854,-9.41639518737793,-1.0253168344497678
969,101900.0,1.7908629179000854,-9.41639518737793,-1.0253168344497678
970,102000.0,1.7435773611068726,-9.445724487304688,-0.9056068062782288
971,102100.0,1.7435773611068726,-9.445724487304688,-0.9056068062782288
972,102200.0,1.7747019529342651,-9.473855972290039,-0.8870517015457153
973,102300.0,1.7747019529342651,-9.473855972290039,-0.8870517015457153
974,102400.0,1.8752584457397459,-9.423578262329102,-1.0289081335067751
975,102500.0,1.8752584457397459,-9.423578262329102,-1.0289081335067751
976,102600.0,1.820790410041809,-9.440337181091307,-0.8906430602073669
977,102700.0,1.7848774194717407,-9.461885452270508,-0.8355764150619507
978,102800.0,1.7848774194717407,-9.461885452270508,-0.8355764150619507
979,102900.0,1.7471686601638794,-9.448118209838867,-0.9080010056495668
980,103000.0,1.7471686601638794,-9.448118209838867,-0.9080010056495668
981,103100.0,1.8477251529693604,-9.406818389892578,-0.924760401248932
982,103200.0,1.8477251529693604,-9.406818389892578,-0.924760401248932
983,103300.0,1.786673069000244,-9.472060203552246,-0.689530074596405
984,103400.0,1.786673069000244,-9.472060203552246,-0.689530074596405
985,103500.0,1.8046295642852783,-9.41759204864502,-0.8984242081642151
986,103600.0,1.8351556062698364,-9.436147689819336,-0.8792705535888672
987,103700.0,1.8351556062698364,-9.436147689819336,-0.8792705535888672
988,103800.0,1.889025092124939,-9.43135929107666,-0.9217676520347596
989,103900.0,1.889025092124939,-9.43135929107666,-0.9217676520347596
990,104000.0,1.8064252138137815,-9.430161476135254,-0.943913996219635
991,104100.0,1.8064252138137815,-9.430161476135254,-0.943913996219635
992,104200.0,1.7363947629928589,-9.467870712280273,-0.7374141216278076
993,104300.0,1.7363947629928589,-9.467870712280273,-0.7374141216278076
994,104400.0,1.8339585065841677,-9.430161476135254,-1.0295066833496094
995,104500.0,1.8471266031265257,-9.430760383605957,-0.9145850539207458
996,104600.0,1.8471266031265257,-9.430760383605957,-0.9145850539207458
997,104700.0,1.877652645111084,-9.427168846130373,-0.8445546627044678
998,104800.0,1.877652645111084,-9.427168846130373,-0.8445546627044678
999,104900.0,1.809417963027954,-9.437344551086426,-0.974440097808838
1000,105000.0,1.809417963027954,-9.437344551086426,-0.974440097808838
1001,105100.0,1.708262920379639,-9.450512886047363,-0.9343371987342834
1002,105200.0,1.708262920379639,-9.450512886047363,-0.9343371987342834
1003,105300.0,1.7639280557632446,-9.452906608581543,-0.8385691642761229
1004,105400.0,1.8058266639709477,-9.43914031982422,-0.9062053561210632
1005,105500.0,1.8058266639709477,-9.43914031982422,-0.9062053561210632
1006,105600.0,1.7435773611068726,-9.457097053527832,-0.7368155717849731
1007,105700.0,1.7435773611068726,-9.457097053527832,-0.7368155717849731
1008,105800.0,1.8818424940109253,-9.430161476135254,-0.9840168952941896
1009,105900.0,1.8818424940109253,-9.430161476135254,-0.9840168952941896
1010,106000.0,1.7232266664505005,-9.469067573547363,-0.8690952062606812
1011,106100.0,1.7232266664505005,-9.469067573547363,-0.8690952062606812
1012,106200.0,1.747767210006714,-9.446921348571776,-0.7505822181701659
1013,106300.0,1.80881941318512,-9.463082313537598,-0.9337386488914491
1014,106400.0,1.80881941318512,-9.463082313537598,-0.9337386488914491
1015,106500.0,1.835754156112671,-9.442731857299805,-0.872686505317688
1016,106600.0,1.835754156112671,-9.442731857299805,-0.872686505317688
1017,106700.0,1.8555063009262085,-9.42597198486328,-0.7110779285430908
1018,106800.0,1.8555063009262085,-9.42597198486328,-0.7110779285430908
1019,106900.0,1.839944005012512,-9.428964614868164,-1.0193313360214231
1020,107000.0,1.839944005012512,-9.428964614868164,-1.0193313360214231
1021,107100.0,1.834557056427002,-9.428366661071776,-0.8708908557891846
1022,107200.0,1.6879122257232666,-9.475052833557127,-0.7918822169303894
1023,107300.0,1.6879122257232666,-9.475052833557127,-0.7918822169303894
1024,107400.0,1.6879122257232666,-9.475052833557127,-0.7918822169303894
1025,107500.0,1.7836803197860718,-9.452308654785156,-0.9229647517204284
1026,107600.0,1.8225860595703125,-9.429563522338867,-0.8487445116043091
1027,107700.0,1.8225860595703125,-9.429563522338867,-0.8487445116043091
1028,107800.0,1.824381709098816,-9.431957244873047,-0.8325836658477783
1029,107900.0,1.824381709098816,-9.431957244873047,-0.8325836658477783
1030,108000.0,1.7663222551345823,-9.461286544799805,-0.9259575009346008
1031,108100.0,1.701080322265625,-9.480440139770508,-0.8463503122329712
1032,108200.0,1.701080322265625,-9.480440139770508,-0.8463503122329712
1033,108300.0,1.8303672075271609,-9.418190956115724,-0.9840168952941896
1034,108400.0,1.8303672075271609,-9.418190956115724,-0.9840168952941896
1035,108500.0,1.807023763656616,-9.448118209838867,-0.7942764163017273
1036,108600.0,1.807023763656616,-9.448118209838867,-0.7942764163017273
1037,108700.0,1.8112136125564573,-9.41519832611084,-0.9828197956085204
1038,108800.0,1.8112136125564573,-9.41519832611084,-0.9828197956085204
1039,108900.0,1.833359956741333,-9.406219482421877,-0.7559691667556763
1040,109000.0,1.8501193523406985,-9.421183586120604,-0.9493009448051452
1041,109100.0,1.8501193523406985,-9.421183586120604,-0.9493009448051452
1042,109200.0,1.8674772977828982,-9.41400146484375,-0.9002198576927185
1043,109300.0,1.8674772977828982,-9.41400146484375,-0.9002198576927185
1044,109400.0,1.768117904663086,-9.450512886047363,-0.801459014415741
1045,109500.0,1.768117904663086,-9.450512886047363,-0.801459014415741
1046,109600.0,1.8124107122421265,-9.4822359085083,-0.7398083209991455
1047,109700.0,1.8124107122421265,-9.4822359085083,-0.7398083209991455
1048,109800.0,1.6160861253738403,-9.494206428527832,-0.9882067441940308
1049,109900.0,1.7998411655426023,-9.453505516052246,-0.861314058303833
1050,110000.0,1.7998411655426023,-9.453505516052246,-0.861314058303833
1051,110100.0,1.790264368057251,-9.452308654785156,-0.8631097078323364
1052,110200.0,1.790264368057251,-9.452308654785156,-0.8631097078323364
1053,110300.0,1.802833914756775,-9.48343276977539,-0.8026561141014099
1054,110400.0,1.802833914756775,-9.48343276977539,-0.8026561141014099
1055,110500.0,1.8273744583129885,-9.427767753601074,-0.8816647529602051
1056,110600.0,1.8273744583129885,-9.427767753601074,-0.8816647529602051
1057,110700.0,1.8261773586273196,-9.419387817382812,-0.9085995554924012
1058,110800.0,1.8261773586273196,-9.419387817382812,-0.9085995554924012
1059,110900.0,1.7830817699432373,-9.45111083984375,-0.8930372595787048
1060,111000.0,1.8561048507690432,-9.426570892333984,-1.0396820306777954
1061,111100.0,1.8561048507690432,-9.426570892333984,-1.0396820306777954
1062,111200.0,1.7322049140930176,-9.465476036071776,-0.768538773059845
1063,111300.0,1.7322049140930176,-9.465476036071776,-0.768538773059845
1064,111400.0,1.8938134908676147,-9.384073257446287,-0.960673451423645
1065,111500.0,1.8938134908676147,-9.384073257446287,-0.960673451423645
1066,111600.0,1.85430920124054,-9.435548782348633,-0.9528923034667968
1067,111700.0,1.85430920124054,-9.435548782348633,-0.9528923034667968
1068,111800.0,1.8255788087844849,-9.446322441101074,-0.8720879554748535
1069,111900.0,1.85430920124054,-9.4014310836792,-0.9786299467086792
1070,112000.0,1.85430920124054,-9.4014310836792,-0.9786299467086792
1071,112100.0,1.7884687185287476,-9.437943458557127,-0.8912416100502014
1072,112200.0,1.7884687185287476,-9.437943458557127,-0.8912416100502014
1073,112300.0,1.8046295642852783,-9.408015251159668,-0.8852560520172119
1074,112400.0,1.8046295642852783,-9.408015251159668,-0.8852560520172119
1075,112500.0,1.8154034614562988,-9.443928718566896,-1.0193313360214231
1076,112600.0,1.8154034614562988,-9.443928718566896,-1.0193313360214231
1077,112700.0,1.8561048507690432,-9.450512886047363,-0.9911994934082032
1078,112800.0,1.7513585090637207,-9.48462963104248,-0.8361749649047852
1079,112900.0,1.7513585090637207,-9.48462963104248,-0.8361749649047852
1080,113000.0,1.8944120407104488,-9.384672164916992,-1.0199298858642578
1081,113100.0,1.8944120407104488,-9.384672164916992,-1.0199298858642578
1082,113200.0,1.8411411046981807,-9.418190956115724,-1.0462661981582642
1083,113300.0,1.8411411046981807,-9.418190956115724,-1.0462661981582642
1084,113400.0,1.8189947605133057,-9.43375301361084,-0.8182184100151062
1085,113500.0,1.8189947605133057,-9.43375301361084,-0.8182184100151062
1086,113600.0,1.9045875072479248,-9.403825759887695,-0.951695203781128
1087,113700.0,1.85430920124054,-9.41400146484375,-1.0319008827209473
1088,113800.0,1.85430920124054,-9.41400146484375,-1.0319008827209473
1089,113900.0,1.8154034614562988,-9.421782493591307,-0.8469488620758057
1090,114000.0,1.8154034614562988,-9.421782493591307,-0.8469488620758057
1091,114100.0,1.8375498056411743,-9.425373077392578,-1.0785878896713257
1092,114200.0,1.8375498056411743,-9.425373077392578,-1.0785878896713257
1093,114300.0,1.8189947605133057,-9.423578262329102,-0.8684966564178467
1094,114400.0,1.787870168685913,-9.433155059814453,-0.8331822156906128
1095,114500.0,1.787870168685913,-9.433155059814453,-0.8331822156906128
1096,114600.0,1.807622313499451,-9.443928718566896,-0.902015507221222
1097,114700.0,1.807622313499451,-9.443928718566896,-0.902015507221222
1098,114800.0,1.9381062984466555,-9.384672164916992,-1.0564415454864502
1099,114900.0,1.9381062984466555,-9.384672164916992,-1.0564415454864502
1100,115000.0,1.8477251529693604,-9.428366661071776,-0.9498994946479796
1101,115100.0,1.8477251529693604,-9.428366661071776,-0.9498994946479796
1102,115200.0,1.823184609413147,-9.43255615234375,-0.9361328482627868
1103,115300.0,1.823184609413147,-9.43255615234375,-0.9361328482627868
1104,115400.0,1.866280198097229,-9.436147689819336,-0.8942343592643738
1105,115500.0,1.84233820438385,-9.420584678649902,-0.9708487987518309
1106,115600.0,1.84233820438385,-9.420584678649902,-0.9708487987518309
1107,115700.0,1.6885107755661009,-9.46727180480957,-0.8535329103469849
1108,115800.0,1.6885107755661009,-9.46727180480957,-0.8535329103469849
1109,115900.0,1.8477251529693604,-9.443928718566896,-0.9684545993804932
1110,116000.0,1.8477251529693604,-9.443928718566896,-0.9684545993804932
1111,116100.0,1.8034324645996092,-9.426570892333984,-0.8816647529602051
1112,116200.0,1.8034324645996092,-9.426570892333984,-0.8816647529602051
1113,116300.0,1.8782511949539185,-9.429563522338867,-1.0522516965866089
1114,116400.0,1.839944005012512,-9.43914031982422,-0.9421183466911316
1115,116500.0,1.839944005012512,-9.43914031982422,-0.9421183466911316
1116,116600.0,1.8273744583129885,-9.43255615234375,-0.8804676532745361
1117,116700.0,1.8273744583129885,-9.43255615234375,-0.8804676532745361
1118,116800.0,1.8201918601989744,-9.45111083984375,-0.8248024582862854
1119,116900.0,1.8201918601989744,-9.45111083984375,-0.8248024582862854
1120,117000.0,1.7471686601638794,-9.443928718566896,-0.9373299479484558
1121,117100.0,1.7471686601638794,-9.443928718566896,-0.9373299479484558
1122,117200.0,1.8680758476257324,-9.424176216125488,-0.921169102191925
1123,117300.0,1.85430920124054,-9.419986724853516,-0.9558850526809692
1124,117400.0,1.85430920124054,-9.419986724853516,-0.9558850526809692
1125,117500.0,1.8237831592559812,-9.385869026184082,-0.9163807034492492
1126,117600.0,1.8237831592559812,-9.385869026184082,-0.9163807034492492
1127,117700.0,1.866280198097229,-9.418190956115724,-0.9588778018951416
1128,117800.0,1.866280198097229,-9.418190956115724,-0.9588778018951416
1129,117900.0,1.8100165128707888,-9.43375301361084,-1.0432734489440918
1130,118000.0,1.8100165128707888,-9.43375301361084,-1.0432734489440918
1131,118100.0,1.7322049140930176,-9.461286544799805,-0.8678981065750122
1132,118200.0,1.872864246368408,-9.440936088562012,-0.9169792532920836
1133,118300.0,1.872864246368408,-9.440936088562012,-0.9169792532920836
1134,118400.0,1.8471266031265257,-9.416994094848633,-1.0564415454864502
1135,118500.0,1.8471266031265257,-9.416994094848633,-1.0564415454864502
1136,118600.0,1.7471686601638794,-9.460089683532717,-0.811634361743927
1137,118700.0,1.7471686601638794,-9.460089683532717,-0.811634361743927
1138,118800.0,1.8339585065841677,-9.436745643615724,-1.0043675899505615
1139,118900.0,1.8339585065841677,-9.436745643615724,-1.0043675899505615
1140,119000.0,1.9680337905883791,-9.394847869873047,-1.0654197931289673
1141,119100.0,1.786673069000244,-9.43255615234375,-1.0779893398284912
1142,119200.0,1.786673069000244,-9.43255615234375,-1.0779893398284912
1143,119300.0,1.8339585065841677,-9.442132949829102,-0.871489405632019
1144,119400.0,1.8339585065841677,-9.442132949829102,-0.871489405632019
1145,119500.0,1.854907751083374,-9.440337181091307,-1.0223240852355957
1146,119600.0,1.854907751083374,-9.440337181091307,-1.0223240852355957
1147,119700.0,1.7693150043487549,-9.414599418640137,-1.0666168928146362
1148,119800.0,1.7693150043487549,-9.414599418640137,-1.0666168928146362
1149,119900.0,1.756745457649231,-9.456498146057127,-0.9702502489089966
1150,120000.0,1.8710685968399048,-9.418190956115724,-0.9187749028205872
1151,120100.0,1.8710685968399048,-9.418190956115724,-0.9187749028205872
1152,120200.0,1.8447324037551882,-9.37629222869873,-0.9457096457481384
1153,120300.0,1.8447324037551882,-9.37629222869873,-0.9457096457481384
1154,120400.0,1.7926585674285889,-9.452308654785156,-1.0642226934432983
1155,120500.0,1.7926585674285889,-9.452308654785156,-1.0642226934432983
1156,120600.0,1.849520802497864,-9.424775123596193,-0.9804255962371826
1157,120700.0,1.849520802497864,-9.424775123596193,-0.9804255962371826
1158,120800.0,1.9853917360305784,-9.343372344970703,-0.992396593093872
1159,120900.0,1.7369933128356934,-9.409213066101074,-1.0696096420288086
1160,121000.0,1.7369933128356934,-9.409213066101074,-1.0696096420288086
1161,121100.0,1.614290475845337,-9.528923034667967,-0.8445546627044678
1162,121200.0,1.614290475845337,-9.528923034667967,-0.8445546627044678
1163,121300.0,1.8052281141281128,-9.409213066101074,-0.9876081943511964
1164,121400.0,1.8052281141281128,-9.409213066101074,-0.9876081943511964
1165,121500.0,1.7310078144073486,-9.481637001037598,-0.9068039059638976
1166,121600.0,1.7310078144073486,-9.481637001037598,-0.9068039059638976
1167,121700.0,1.7824832201004028,-9.445724487304688,-1.0031704902648926
1168,121800.0,1.7764976024627686,-9.446921348571776,-0.9989806413650512
1169,121900.0,1.7764976024627686,-9.446921348571776,-0.9989806413650512
1170,122000.0,1.8447324037551882,-9.41100788116455,-1.0241197347640991
1171,122100.0,1.8447324037551882,-9.41100788116455,-1.0241197347640991
1172,122200.0,1.7723077535629272,-9.445125579833984,-1.1390414237976074
1173,122300.0,1.7723077535629272,-9.445125579833984,-1.1390414237976074
1174,122400.0,1.8602946996688845,-9.41759204864502,-1.0055646896362305
1175,122500.0,1.8602946996688845,-9.41759204864502,-1.0055646896362305
1176,122600.0,1.8866308927536009,-9.449316024780273,-0.9852139949798584
1177,122700.0,1.8866308927536009,-9.449316024780273,-0.9852139949798584
1178,122800.0,1.8112136125564573,-9.416994094848633,-1.0283095836639404
1179,122900.0,1.7088614702224731,-9.473258018493652,-0.8271966576576233
1180,123000.0,1.7088614702224731,-9.473258018493652,-0.8271966576576233
1181,123100.0,1.7974469661712646,-9.428366661071776,-1.0139443874359129
1182,123200.0,1.7974469661712646,-9.428366661071776,-1.0139443874359129
1183,123300.0,1.7908629179000854,-9.438541412353516,-1.0253168344497678
1184,123400.0,1.7908629179000854,-9.438541412353516,-1.0253168344497678
1185,123500.0,1.7489643096923828,-9.436745643615724,-0.8098387122154236
1186,123600.0,1.6454150676727295,-9.503185272216797,-0.6063315868377686
1187,123700.0,1.6454150676727295,-9.503185272216797,-0.6063315868377686
1188,123800.0,1.8584990501403809,-9.445125579833984,-1.0444705486297607
1189,123900.0,1.8584990501403809,-9.445125579833984,-1.0444705486297607
1190,124000.0,1.7166426181793213,-9.459490776062012,-0.8678981065750122
1191,124100.0,1.7166426181793213,-9.459490776062012,-0.8678981065750122
1192,124200.0,1.7208324670791626,-9.460687637329102,-0.9738415479660034
1193,124300.0,1.7208324670791626,-9.460687637329102,-0.9738415479660034
1194,124400.0,1.7824832201004028,-9.444527626037598,-0.9953893423080444
1195,124500.0,1.7944542169570925,-9.434351921081543,-1.0372878313064575
1196,124600.0,1.7944542169570925,-9.434351921081543,-1.0372878313064575
1197,124700.0,1.7441759109497068,-9.44991397857666,-0.8068459630012512
1198,124800.0,1.7441759109497068,-9.44991397857666,-0.8068459630012512
1199,124900.0,1.7441759109497068,-9.463082313537598,-1.0283095836639404
1200,125000.0,1.7441759109497068,-9.463082313537598,-1.0283095836639404
1201,125100.0,1.835754156112671,-9.456498146057127,-0.9337386488914491
1202,125200.0,1.835754156112671,-9.456498146057127,-0.9337386488914491
1203,125300.0,1.7345991134643557,-9.44752025604248,-0.974440097808838
1204,125400.0,1.780089020729065,-9.428964614868164,-0.9804255962371826
1205,125500.0,1.780089020729065,-9.428964614868164,-0.9804255962371826
1206,125600.0,1.7232266664505005,-9.504382133483887,-0.9217676520347596
1207,125700.0,1.7232266664505005,-9.504382133483887,-0.9217676520347596
1208,125800.0,1.821388959884644,-9.43135929107666,-0.9163807034492492
1209,125900.0,1.821388959884644,-9.43135929107666,-0.9163807034492492
1210,126000.0,1.7908629179000854,-9.445724487304688,-0.9882067441940308
1211,126100.0,1.7908629179000854,-9.445724487304688,-0.9882067441940308
1212,126200.0,1.832162857055664,-9.43494987487793,-0.9929951429367064
1213,126300.0,1.7573440074920654,-9.461885452270508,-0.7230489253997803
1214,126400.0,1.7573440074920654,-9.461885452270508,-0.7230489253997803
1215,126500.0,1.7932571172714231,-9.44752025604248,-1.0187327861785889
1216,126600.0,1.7932571172714231,-9.44752025604248,-1.0187327861785889
1217,126700.0,1.7609353065490725,-9.44752025604248,-0.9690531492233276
1218,126800.0,1.7609353065490725,-9.44752025604248,-0.9690531492233276
1219,126900.0,1.7040730714797974,-9.44752025604248,-0.7924807667732239
1220,127000.0,1.7040730714797974,-9.44752025604248,-0.7924807667732239
1221,127100.0,1.802833914756775,-9.457097053527832,-0.9145850539207458
1222,127200.0,1.7094600200653076,-9.428366661071776,-0.9929951429367064
1223,127300.0,1.7094600200653076,-9.428366661071776,-0.9929951429367064
1224,127400.0,1.6298527717590332,-9.532513618469238,-0.7398083209991455
1225,127500.0,1.6298527717590332,-9.532513618469238,-0.7398083209991455
1226,127600.0,1.7399860620498655,-9.440936088562012,-0.9175778031349182
1227,127700.0,1.7399860620498655,-9.440936088562012,-0.9175778031349182
1228,127800.0,1.7764976024627686,-9.43494987487793,-0.9331400990486144
1229,127900.0,1.7764976024627686,-9.43494987487793,-0.9331400990486144
1230,128000.0,1.7872716188430786,-9.419387817382812,-0.9678560495376588
1231,128100.0,1.7274165153503418,-9.466673851013184,-0.7721300721168518
1232,128200.0,1.7274165153503418,-9.466673851013184,-0.7721300721168518
1233,128300.0,1.8489222526550293,-9.427168846130373,-0.9911994934082032
1234,128400.0,1.8489222526550293,-9.427168846130373,-0.9911994934082032
1235,128500.0,1.723825216293335,-9.452906608581543,-0.8517372608184814
1236,128600.0,1.723825216293335,-9.452906608581543,-0.8517372608184814
1237,128700.0,1.7687164545059204,-9.436147689819336,-0.921169102191925
1238,128800.0,1.7687164545059204,-9.436147689819336,-0.921169102191925
1239,128900.0,1.8884265422821045,-9.388263702392578,-1.0504560470581057
1240,129000.0,1.7687164545059204,-9.437943458557127,-0.9235633015632628
1241,129100.0,1.7687164545059204,-9.437943458557127,-0.9235633015632628
1242,129200.0,1.7106571197509766,-9.464279174804688,-0.7948749661445618
1243,129300.0,1.7106571197509766,-9.464279174804688,-0.7948749661445618
1244,129400.0,1.7818846702575684,-9.446322441101074,-0.8960300087928772
1245,129500.0,1.7818846702575684,-9.446322441101074,-0.8960300087928772
1246,129600.0,1.8447324037551882,-9.408614158630373,-1.0384849309921265
1247,129700.0,1.8447324037551882,-9.408614158630373,-1.0384849309921265
1248,129800.0,1.6879122257232666,-9.490615844726564,-0.800261914730072
1249,129900.0,1.8160020112991333,-9.390657424926758,-0.7835025191307068
1250,130000.0,1.8160020112991333,-9.390657424926758,-0.7835025191307068
1251,130100.0,1.809417963027954,-9.37748908996582,-1.3102269172668457
1252,130200.0,1.809417963027954,-9.37748908996582,-1.3102269172668457
1253,130300.0,1.829170107841492,-9.393052101135254,-1.0833762884140017
1254,130400.0,1.829170107841492,-9.393052101135254,-1.0833762884140017
1255,130500.0,1.8034324645996092,-9.452906608581543,-0.9481038451194764
1256,130600.0,1.8034324645996092,-9.452906608581543,-0.9481038451194764
1257,130700.0,1.6962919235229492,-9.427767753601074,-0.9493009448051452
1258,130800.0,1.6962919235229492,-9.427767753601074,-0.9493009448051452
1259,130900.0,1.8034324645996092,-9.44871711730957,-1.0187327861785889
1260,131000.0,1.85430920124054,-9.43255615234375,-0.9618705511093141
1261,131100.0,1.85430920124054,-9.43255615234375,-0.9618705511093141
1262,131200.0,1.7872716188430786,-9.410409927368164,-0.9989806413650512
1263,131300.0,1.7872716188430786,-9.410409927368164,-0.9989806413650512
1264,131400.0,1.7519570589065552,-9.408015251159668,-0.760757565498352
1265,131500.0,1.7519570589065552,-9.408015251159668,-0.760757565498352
1266,131600.0,1.833359956741333,-9.408015251159668,-1.2204443216323853
1267,131700.0,1.833359956741333,-9.408015251159668,-1.2204443216323853
1268,131800.0,1.5442601442337036,-9.467870712280273,-0.8164227604866028
1269,131900.0,1.8626888990402224,-9.440936088562012,-0.8858546018600464
1270,132000.0,1.8626888990402224,-9.440936088562012,-0.8858546018600464
1271,132100.0,1.7711106538772583,-9.470264434814453,-1.0193313360214231
1272,132200.0,1.7711106538772583,-9.470264434814453,-1.0193313360214231
1273,132300.0,1.614290475845337,-9.539097785949707,-0.6153098344802856
1274,132400.0,1.614290475845337,-9.539097785949707,-0.6153098344802856
1275,132500.0,1.7974469661712646,-9.46727180480957,-1.1701661348342896
1276,132600.0,1.5508441925048828,-9.524134635925293,-1.0606313943862915
1277,132700.0,1.5508441925048828,-9.524134635925293,-1.0606313943862915
1278,132800.0,1.7034745216369631,-9.43494987487793,-0.9576807022094728
1279,132900.0,1.7034745216369631,-9.43494987487793,-0.9576807022094728
1280,133000.0,1.567603588104248,-9.519346237182617,-0.7350199222564697
1281,133100.0,1.567603588104248,-9.519346237182617,-0.7350199222564697
1282,133200.0,1.7968484163284302,-9.425373077392578,-0.7631517648696899
1283,133300.0,1.7968484163284302,-9.425373077392578,-0.7631517648696899
1284,133400.0,1.8531121015548704,-9.409213066101074,-0.9415197968482972
1285,133500.0,1.8531121015548704,-9.409213066101074,-0.9415197968482972
1286,133600.0,1.6855180263519287,-9.4822359085083,-0.902015507221222
1287,133700.0,1.8309657573699951,-9.40741729736328,-0.9630676507949828
1288,133800.0,1.8309657573699951,-9.40741729736328,-0.9630676507949828
1289,133900.0,1.8261773586273196,-9.42597198486328,-1.048660397529602
1290,134000.0,1.8261773586273196,-9.42597198486328,-1.048660397529602
1291,134100.0,1.7214310169219968,-9.46607494354248,-0.882861852645874
1292,134200.0,1.7214310169219968,-9.46607494354248,-0.882861852645874
1293,134300.0,1.6849194765090942,-9.458892822265623,-0.9600749015808104
1294,134400.0,1.8124107122421265,-9.448118209838867,-1.0253168344497678
1295,134500.0,1.8124107122421265,-9.448118209838867,-1.0253168344497678
1296,134600.0,1.7962498664855957,-9.423578262329102,-0.9774328470230104
1297,134700.0,1.7962498664855957,-9.423578262329102,-0.9774328470230104
1298,134800.0,1.6992846727371216,-9.468469619750977,-0.93254154920578
1299,134900.0,1.6992846727371216,-9.468469619750977,-0.93254154920578
1300,135000.0,1.7705121040344238,-9.43375301361084,-1.0947487354278564
1301,135100.0,1.7705121040344238,-9.43375301361084,-1.0947487354278564
1302,135200.0,1.7250223159790041,-9.439739227294922,-1.0289081335067751
1303,135300.0,1.6771383285522459,-9.429563522338867,-0.9391255974769592
1304,135400.0,1.6771383285522459,-9.429563522338867,-0.9391255974769592
1305,135500.0,1.7621324062347412,-9.465476036071776,-1.0133458375930786
1306,135600.0,1.7621324062347412,-9.465476036071776,-1.0133458375930786
1307,135700.0,1.7334020137786863,-9.505578994750977,-1.0217255353927612
1308,135800.0,1.7334020137786863,-9.505578994750977,-1.0217255353927612
1309,135900.0,1.7621324062347412,-9.41100788116455,-1.063624143600464
1310,136000.0,1.7621324062347412,-9.41100788116455,-1.063624143600464
1311,136100.0,1.6927006244659424,-9.45111083984375,-1.1713632345199585
1312,136200.0,1.6927006244659424,-9.45111083984375,-1.1713632345199585
1313,136300.0,1.7753005027770996,-9.428964614868164,-1.0504560470581057
1314,136400.0,1.843535304069519,-9.522936820983887,-0.9085995554924012
1315,136500.0,1.843535304069519,-9.522936820983887,-0.9085995554924012
1316,136600.0,1.7764976024627686,-9.452308654785156,-1.1647791862487793
1317,136700.0,1.7764976024627686,-9.452308654785156,-1.1647791862487793
1318,136800.0,1.8189947605133057,-9.423578262329102,-1.0875661373138428
1319,136900.0,1.8189947605133057,-9.423578262329102,-1.0875661373138428
1320,137000.0,1.7579425573349,-9.449316024780273,-0.934935748577118
1321,137100.0,1.7579425573349,-9.449316024780273,-0.934935748577118
1322,137200.0,1.7094600200653076,-9.472060203552246,-1.0109516382217407
1323,137300.0,1.8740613460540767,-9.421183586120604,-1.0845733880996704
1324,137400.0,1.8740613460540767,-9.421183586120604,-1.0845733880996704
1325,137500.0,1.7920600175857544,-9.41519832611084,-1.0552444458007812
1326,137600.0,1.7920600175857544,-9.41519832611084,-1.0552444458007812
1327,137700.0,1.839944005012512,-9.430760383605957,-0.9582792520523072
1328,137800.0,1.839944005012512,-9.430760383605957,-0.9582792520523072
1329,137900.0,1.8770540952682493,-9.399636268615724,-1.0875661373138428
1330,138000.0,1.8770540952682493,-9.399636268615724,-1.0875661373138428
1331,138100.0,1.8303672075271609,-9.424775123596193,-1.1049240827560425
1332,138200.0,1.781286120414734,-9.46607494354248,-0.9074024558067322
1333,138300.0,1.781286120414734,-9.46607494354248,-0.9074024558067322
1334,138400.0,1.834557056427002,-9.45111083984375,-1.0660183429718018
1335,138500.0,1.834557056427002,-9.45111083984375,-1.0660183429718018
1336,138600.0,1.8740613460540767,-9.430760383605957,-1.0684125423431396
1337,138700.0,1.8740613460540767,-9.430760383605957,-1.0684125423431396
1338,138800.0,1.9279309511184688,-9.424775123596193,-1.1887211799621582
1339,138900.0,1.9279309511184688,-9.424775123596193,-1.1887211799621582
1340,139000.0,1.7399860620498655,-9.45410442352295,-0.8529343605041504
1341,139100.0,1.7190368175506592,-9.479841232299805,-0.9085995554924012
1342,139200.0,1.7190368175506592,-9.479841232299805,-0.9085995554924012
1343,139300.0,1.746570110321045,-9.463082313537598,-0.9774328470230104
1344,139400.0,1.746570110321045,-9.463082313537598,-0.9774328470230104
1345,139500.0,1.711255669593811,-9.475651741027832,-0.9493009448051452
1346,139600.0,1.711255669593811,-9.475651741027832,-0.9493009448051452
1347,139700.0,1.723825216293335,-9.399636268615724,-1.0720038414001465
1348,139800.0,1.723825216293335,-9.399636268615724,-1.0720038414001465
1349,139900.0,1.7040730714797974,-9.4636812210083,-0.8164227604866028
1350,140000.0,1.7459715604782104,-9.470264434814453,-1.0462661981582642
1351,140100.0,1.7459715604782104,-9.470264434814453,-1.0462661981582642
1352,140200.0,1.7387889623641968,-9.448118209838867,-1.1037269830703735
1353,140300.0,1.7387889623641968,-9.448118209838867,-1.1037269830703735
1354,140400.0,1.8273744583129885,-9.44991397857666,-0.8930372595787048
1355,140500.0,1.8273744583129885,-9.44991397857666,-0.8930372595787048
1356,140600.0,1.8154034614562988,-9.44991397857666,-1.125873327255249
1357,140700.0,1.8154034614562988,-9.44991397857666,-1.125873327255249
1358,140800.0,1.753154158592224,-9.43375301361084,-0.8924387097358704
1359,140900.0,1.7896658182144165,-9.403825759887695,-0.9941922426223756
1360,141000.0,1.7896658182144165,-9.403825759887695,-0.9941922426223756
1361,141100.0,1.7357962131500244,-9.47146224975586,-1.145026922225952
1362,141200.0,1.7357962131500244,-9.47146224975586,-1.145026922225952
1363,141300.0,1.720233917236328,-9.457097053527832,-1.000776290893555
1364,141400.0,1.720233917236328,-9.457097053527832,-1.000776290893555
1365,141500.0,1.8183962106704712,-9.408015251159668,-1.0450690984725952
1366,141600.0,1.8183962106704712,-9.408015251159668,-1.0450690984725952
1367,141700.0,1.8022353649139404,-9.46487808227539,-0.9169792532920836
1368,141800.0,1.7046716213226318,-9.467870712280273,-0.9983820915222168
1369,141900.0,1.7046716213226318,-9.467870712280273,-0.9983820915222168
1370,142000.0,1.7405846118927002,-9.43375301361084,-0.8541314601898193
1371,142100.0,1.7405846118927002,-9.43375301361084,-0.8541314601898193
1372,142200.0,1.9632453918457031,-9.372102737426758,-1.2054805755615234
1373,142300.0,1.9632453918457031,-9.372102737426758,-1.2054805755615234
1374,142400.0,1.7699135541915894,-9.436745643615724,-0.9959878921508788
1375,142500.0,1.7699135541915894,-9.436745643615724,-0.9959878921508788
1376,142600.0,1.8279730081558228,-9.43914031982422,-1.149815320968628
1377,142700.0,1.711255669593811,-9.4822359085083,-0.8325836658477783
1378,142800.0,1.711255669593811,-9.4822359085083,-0.8325836658477783
1379,142900.0,1.8339585065841677,-9.436745643615724,-1.1204863786697388
1380,143000.0,1.8339585065841677,-9.436745643615724,-1.1204863786697388
1381,143100.0,1.8142063617706297,-9.409811019897461,-0.9373299479484558
1382,143200.0,1.8142063617706297,-9.409811019897461,-0.9373299479484558
1383,143300.0,1.702277421951294,-9.419986724853516,-0.9331400990486144
1384,143400.0,1.702277421951294,-9.419986724853516,-0.9331400990486144
1385,143500.0,1.84233820438385,-9.41519832611084,-0.9702502489089966
1386,143600.0,1.8830395936965945,-9.444527626037598,-1.1186907291412354
1387,143700.0,1.8830395936965945,-9.444527626037598,-1.1186907291412354
1388,143800.0,1.7794904708862305,-9.455301284790039,-1.0618284940719604
1389,143900.0,1.7794904708862305,-9.455301284790039,-1.0618284940719604
1390,144000.0,1.839944005012512,-9.428964614868164,-0.9487023949623108
1391,144100.0,1.839944005012512,-9.428964614868164,-0.9487023949623108
1392,144200.0,1.7705121040344238,-9.487024307250977,-0.8792705535888672
1393,144300.0,1.7705121040344238,-9.487024307250977,-0.8792705535888672
1394,144400.0,1.843535304069519,-9.390657424926758,-1.0887632369995115
1395,144500.0,1.7435773611068726,-9.400833129882812,-0.9552865028381348
1396,144600.0,1.7435773611068726,-9.400833129882812,-0.9552865028381348
1397,144700.0,1.7830817699432373,-9.445724487304688,-0.8319851160049438
1398,144800.0,1.7830817699432373,-9.445724487304688,-0.8319851160049438
1399,144900.0,1.8387469053268437,-9.438541412353516,-1.0157400369644165
1400,145000.0,1.8387469053268437,-9.438541412353516,-1.0157400369644165
1401,145100.0,1.7220295667648315,-9.428366661071776,-1.145026922225952
1402,145200.0,1.7220295667648315,-9.428366661071776,-1.145026922225952
1403,145300.0,1.7298107147216797,-9.473258018493652,-0.7894880175590515
1404,145400.0,1.7591396570205688,-9.421183586120604,-1.183334231376648
1405,145500.0,1.7591396570205688,-9.421183586120604,-1.183334231376648
1406,145600.0,1.8752584457397459,-9.445724487304688,-1.0450690984725952
1407,145700.0,1.8752584457397459,-9.445724487304688,-1.0450690984725952
1408,145800.0,1.8555063009262085,-9.400833129882812,-0.8319851160049438
1409,145900.0,1.8555063009262085,-9.400833129882812,-0.8319851160049438
1410,146000.0,1.8160020112991333,-9.449316024780273,-0.912190854549408
1411,146100.0,1.8160020112991333,-9.449316024780273,-0.912190854549408
1412,146200.0,1.7764976024627686,-9.446921348571776,-1.0444705486297607
1413,146300.0,1.7986440658569336,-9.415796279907227,-1.0217255353927612
1414,146400.0,1.7986440658569336,-9.415796279907227,-1.0217255353927612
1415,146500.0,1.7968484163284302,-9.425373077392578,-0.8152256608009338
1416,146600.0,1.7968484163284302,-9.425373077392578,-0.8152256608009338
1417,146700.0,1.6454150676727295,-9.479243278503418,-0.9295487999916076
1418,146800.0,1.6454150676727295,-9.479243278503418,-0.9295487999916076
1419,146900.0,1.832162857055664,-9.409811019897461,-1.0678139925003052
1420,147000.0,1.832162857055664,-9.409811019897461,-1.0678139925003052
1421,147100.0,1.7573440074920654,-9.437943458557127,-1.0773907899856567
1422,147200.0,1.8483237028121948,-9.444527626037598,-0.899621307849884
1423,147300.0,1.8483237028121948,-9.444527626037598,-0.899621307849884
1424,147400.0,1.824381709098816,-9.378686904907227,-1.1109095811843872
1425,147500.0,1.824381709098816,-9.378686904907227,-1.1109095811843872
1426,147600.0,1.7555483579635618,-9.429563522338867,-0.9786299467086792
1427,147700.0,1.7555483579635618,-9.429563522338867,-0.9786299467086792
1428,147800.0,1.7764976024627686,-9.433155059814453,-0.9965864419937134
1429,147900.0,1.7764976024627686,-9.433155059814453,-0.9965864419937134
1430,148000.0,1.8381483554840088,-9.416994094848633,-0.9648633003234864
1431,148100.0,1.7196353673934937,-9.448118209838867,-0.9504981040954591
1432,148200.0,1.7196353673934937,-9.448118209838867,-0.9504981040954591
1433,148300.0,1.8704700469970703,-9.378686904907227,-1.0923545360565186
1434,148400.0,1.8704700469970703,-9.378686904907227,-1.0923545360565186
1435,148500.0,1.889025092124939,-9.422380447387695,-0.8786720037460327
1436,148600.0,1.889025092124939,-9.422380447387695,-0.8786720037460327
1437,148700.0,1.8171991109848025,-9.458892822265623,-0.8056488633155823
1438,148800.0,1.8171991109848025,-9.458892822265623,-0.8056488633155823
1439,148900.0,1.8519150018692017,-9.428366661071776,-1.0408791303634644
1440,149000.0,1.816600561141968,-9.435548782348633,-0.8655039072036743
1441,149100.0,1.816600561141968,-9.435548782348633,-0.8655039072036743
1442,149200.0,1.8920178413391116,-9.442731857299805,-1.0043675899505615
1443,149300.0,1.8920178413391116,-9.442731857299805,-1.0043675899505615
1444,149400.0,1.8884265422821045,-9.431957244873047,-0.9840168952941896
1445,149500.0,1.8884265422821045,-9.431957244873047,-0.9840168952941896
1446,149600.0,1.834557056427002,-9.41100788116455,-1.0372878313064575
1447,149700.0,1.834557056427002,-9.41100788116455,-1.0372878313064575
1448,149800.0,1.9530700445175169,-9.440337181091307,-0.9756371974945068
1449,149900.0,1.9195512533187864,-9.400833129882812,-0.8852560520172119
1450,150000.0,1.9195512533187864,-9.400833129882812,-0.8852560520172119
1451,150100.0,1.9195512533187864,-9.400833129882812,-0.8852560520172119
1452,150200.0,1.88782799243927,-9.43494987487793,-0.8960300087928772
1453,150300.0,1.903390407562256,-9.409213066101074,-1.0235211849212646
1454,150400.0,1.903390407562256,-9.409213066101074,-1.0235211849212646
1455,150500.0,1.899200439453125,-9.41100788116455,-0.951695203781128
1456,150600.0,1.899200439453125,-9.41100788116455,-0.951695203781128
1457,150700.0,1.8124107122421265,-9.429563522338867,-0.9217676520347596
1458,150800.0,1.8716671466827397,-9.439739227294922,-0.9708487987518309
1459,150900.0,1.8716671466827397,-9.439739227294922,-0.9708487987518309
1460,151000.0,1.8225860595703125,-9.461286544799805,-0.8798691034317017
1461,151100.0,1.8225860595703125,-9.461286544799805,-0.8798691034317017
1462,151200.0,1.9057846069335935,-9.454702377319336,-0.9510966539382936
1463,151300.0,1.9057846069335935,-9.454702377319336,-0.9510966539382936
1464,151400.0,1.852513551712036,-9.453505516052246,-0.9876081943511964
1465,151500.0,1.852513551712036,-9.453505516052246,-0.9876081943511964
1466,151600.0,1.8393454551696775,-9.430760383605957,-0.9103952050209044
1467,151700.0,1.824381709098816,-9.423578262329102,-1.0097545385360718
1468,151800.0,1.824381709098816,-9.423578262329102,-1.0097545385360718
1469,151900.0,1.911171555519104,-9.406219482421877,-1.0414776802062988
1470,152000.0,1.911171555519104,-9.406219482421877,-1.0414776802062988
1471,152100.0,1.8656816482543943,-9.4636812210083,-0.9265560507774352
1472,152200.0,1.8656816482543943,-9.4636812210083,-0.9265560507774352
1473,152300.0,1.7842788696289065,-9.461286544799805,-0.9026140570640564
1474,152400.0,1.7842788696289065,-9.461286544799805,-0.9026140570640564
1475,152500.0,1.898003339767456,-9.43494987487793,-0.8589198589324951
1476,152600.0,1.8584990501403809,-9.440936088562012,-0.9786299467086792
1477,152700.0,1.8584990501403809,-9.440936088562012,-0.9786299467086792
1478,152800.0,1.845929503440857,-9.414599418640137,-0.9648633003234864
1479,152900.0,1.845929503440857,-9.414599418640137,-0.9648633003234864
1480,153000.0,1.8644845485687256,-9.457097053527832,-1.0205284357070925
1481,153100.0,1.8644845485687256,-9.457097053527832,-1.0205284357070925
1482,153200.0,1.9548656940460205,-9.405621528625488,-0.979827046394348
1483,153300.0,1.9548656940460205,-9.405621528625488,-0.979827046394348
1484,153400.0,1.8944120407104488,-9.409213066101074,-1.048660397529602
1485,153500.0,1.908178806304932,-9.424176216125488,-0.8786720037460327
1486,153600.0,1.908178806304932,-9.424176216125488,-0.8786720037460327
1487,153700.0,1.9961656332015991,-9.371503829956056,-1.0947487354278564
1488,153800.0,1.9961656332015991,-9.371503829956056,-1.0947487354278564
1489,153900.0,1.9530700445175169,-9.388263702392578,-1.0845733880996704
1490,154000.0,1.9530700445175169,-9.388263702392578,-1.0845733880996704
1491,154100.0,1.8632874488830569,-9.415796279907227,-1.1390414237976074
1492,154200.0,1.8632874488830569,-9.415796279907227,-1.1390414237976074
1493,154300.0,1.9243396520614624,-9.396044731140137,-0.9528923034667968
1494,154400.0,1.9243396520614624,-9.396044731140137,-0.9528923034667968
1495,154500.0,1.857301950454712,-9.436745643615724,-0.9810241460800172
1496,154600.0,1.985990285873413,-9.359533309936523,-1.0444705486297607
1497,154700.0,1.985990285873413,-9.359533309936523,-1.0444705486297607
1498,154800.0,1.9003976583480835,-9.416994094848633,-0.943913996219635
1499,154900.0,1.9003976583480835,-9.416994094848633,-0.943913996219635
1500,155000.0,1.8986018896102903,-9.421183586120604,-1.027711033821106
1501,155100.0,1.8986018896102903,-9.421183586120604,-1.027711033821106
1502,155200.0,1.9530700445175169,-9.408015251159668,-1.072602391242981
1503,155300.0,1.9530700445175169,-9.408015251159668,-1.072602391242981
1504,155400.0,1.9758149385452268,-9.39903736114502,-1.0474632978439329
1505,155500.0,1.920748353004456,-9.388861656188963,-1.0408791303634644
1506,155600.0,1.920748353004456,-9.388861656188963,-1.0408791303634644
1507,155700.0,1.8997989892959597,-9.438541412353516,-1.0761936902999878
1508,155800.0,1.8997989892959597,-9.438541412353516,-1.0761936902999878
1509,155900.0,1.8644845485687256,-9.44871711730957,-0.8918401598930359
1510,156000.0,1.8644845485687256,-9.44871711730957,-0.8918401598930359
1511,156100.0,1.873462796211243,-9.446921348571776,-0.9552865028381348
1512,156200.0,2.078765630722046,-9.320627212524414,-1.2527660131454468
1513,156300.0,2.078765630722046,-9.320627212524414,-1.2527660131454468
1514,156400.0,1.902193307876587,-9.420584678649902,-1.0815806388854978
1515,156500.0,1.902193307876587,-9.420584678649902,-1.0815806388854978
1516,156600.0,1.9405004978179927,-9.418190956115724,-0.9558850526809692
1517,156700.0,1.9405004978179927,-9.418190956115724,-0.9558850526809692
1518,156800.0,1.9147628545761108,-9.375694274902344,-1.1767501831054688
1519,156900.0,1.9147628545761108,-9.375694274902344,-1.1767501831054688
1520,157000.0,1.9644424915313718,-9.345766067504883,-1.0313023328781128
1521,157100.0,1.9644424915313718,-9.345766067504883,-1.0313023328781128
1522,157200.0,2.1039047241210938,-9.333795547485352,-1.1701661348342896
1523,157300.0,1.9829975366592407,-9.389460563659668,-1.161187767982483
1524,157400.0,1.9829975366592407,-9.389460563659668,-1.161187767982483
1525,157500.0,1.8124107122421265,-9.441534042358398,-0.9648633003234864
1526,157600.0,1.8124107122421265,-9.441534042358398,-0.9648633003234864
1527,157700.0,1.9279309511184688,-9.400833129882812,-1.0743980407714844
1528,157800.0,1.9279309511184688,-9.400833129882812,-1.0743980407714844
1529,157900.0,1.9584569931030276,-9.390657424926758,-1.1540051698684692
1530,158000.0,1.9584569931030276,-9.390657424926758,-1.1540051698684692
1531,158100.0,1.9375077486038208,-9.421183586120604,-1.1222820281982422
1532,158200.0,2.011129379272461,-9.402029991149902,-0.9062053561210632
1533,158300.0,2.011129379272461,-9.402029991149902,-0.9062053561210632
1534,158400.0,2.056020736694336,-9.362525939941406,-1.1546037197113037
1535,158500.0,2.056020736694336,-9.362525939941406,-1.1546037197113037
1536,158600.0,2.070984363555908,-9.34397029876709,-1.1480196714401243
1537,158700.0,2.070984363555908,-9.34397029876709,-1.1480196714401243
1538,158800.0,1.8962076902389529,-9.375694274902344,-0.9714473485946656
1539,158900.0,1.8962076902389529,-9.375694274902344,-0.9714473485946656
1540,159000.0,2.0135235786437993,-9.355342864990234,-1.2497732639312744
1541,159100.0,1.811812162399292,-9.41759204864502,-0.90979665517807
1542,159200.0,1.811812162399292,-9.41759204864502,-0.90979665517807
1543,159300.0,1.829170107841492,-9.415796279907227,-1.0181342363357544
1544,159400.0,1.829170107841492,-9.415796279907227,-1.0181342363357544
1545,159500.0,1.9027918577194212,-9.443329811096193,-1.0229226350784302
1546,159600.0,1.9027918577194212,-9.443329811096193,-1.0229226350784302
1547,159700.0,1.9638439416885376,-9.375694274902344,-1.0749965906143188
1548,159800.0,1.9638439416885376,-9.375694274902344,-1.0749965906143188
1549,159900.0,1.9009962081909182,-9.410409927368164,-1.0516531467437744
1550,160000.0,2.042852640151977,-9.371503829956056,-1.09654438495636
1551,160100.0,2.042852640151977,-9.371503829956056,-1.09654438495636
1552,160200.0,1.7435773611068726,-9.464279174804688,-0.9750386476516724
1553,160300.0,1.7435773611068726,-9.464279174804688,-0.9750386476516724
1554,160400.0,1.9530700445175169,-9.419986724853516,-0.9433154463768004
1555,160500.0,1.9530700445175169,-9.419986724853516,-0.9433154463768004
1556,160600.0,2.0500352382659908,-9.371503829956056,-1.0857704877853394
1557,160700.0,2.0500352382659908,-9.371503829956056,-1.0857704877853394
1558,160800.0,1.9141643047332764,-9.38048267364502,-1.1677719354629517
1559,160900.0,1.9381062984466555,-9.427767753601074,-1.125873327255249
1560,161000.0,1.9381062984466555,-9.427767753601074,-1.125873327255249
1561,161100.0,1.9710265398025515,-9.409811019897461,-1.1516109704971311
1562,161200.0,1.9710265398025515,-9.409811019897461,-1.1516109704971311
1563,161300.0,1.9261353015899656,-9.389460563659668,-1.171961784362793
1564,161400.0,1.9261353015899656,-9.389460563659668,-1.171961784362793
1565,161500.0,1.8614917993545528,-9.446921348571776,-1.0259153842926023
1566,161600.0,1.8614917993545528,-9.446921348571776,-1.0259153842926023
1567,161700.0,1.9243396520614624,-9.403825759887695,-1.1097124814987185
1568,161800.0,1.965639591217041,-9.389460563659668,-1.1115081310272217
1569,161900.0,1.965639591217041,-9.389460563659668,-1.1115081310272217
1570,162000.0,1.8997989892959597,-9.442731857299805,-1.0947487354278564
1571,162100.0,1.8997989892959597,-9.442731857299805,-1.0947487354278564
1572,162200.0,2.024896144866944,-9.388861656188963,-1.0480618476867676
1573,162300.0,2.024896144866944,-9.388861656188963,-1.0480618476867676
1574,162400.0,1.9464859962463381,-9.402029991149902,-1.0456676483154297
1575,162500.0,1.9464859962463381,-9.402029991149902,-1.0456676483154297
1576,162600.0,1.9482816457748413,-9.365518569946287,-1.1324573755264282
1577,162700.0,1.9009962081909182,-9.394847869873047,-1.1522095203399658
1578,162800.0,1.9009962081909182,-9.394847869873047,-1.1522095203399658
1579,162900.0,1.7393875122070312,-9.46487808227539,-1.0055646896362305
1580,163000.0,1.7393875122070312,-9.46487808227539,-1.0055646896362305
1581,163100.0,1.85430920124054,-9.430161476135254,-1.0145429372787476
1582,163200.0,1.85430920124054,-9.430161476135254,-1.0145429372787476
1583,163300.0,1.8830395936965945,-9.376891136169434,-1.1839327812194824
1584,163400.0,1.8830395936965945,-9.376891136169434,-1.1839327812194824
1585,163500.0,1.8770540952682493,-9.440936088562012,-0.9810241460800172
1586,163600.0,1.9051860570907595,-9.40023422241211,-1.048660397529602
1587,163700.0,1.9051860570907595,-9.40023422241211,-1.048660397529602
1588,163800.0,1.877652645111084,-9.397241592407227,-0.9894038438796996
1589,163900.0,1.877652645111084,-9.397241592407227,-0.9894038438796996
1590,164000.0,1.915361404418945,-9.424176216125488,-1.0743980407714844
1591,164100.0,1.915361404418945,-9.424176216125488,-1.0743980407714844
1592,164200.0,1.8800468444824217,-9.418190956115724,-1.0863690376281738
1593,164300.0,1.8800468444824217,-9.418190956115724,-1.0863690376281738
1594,164400.0,1.7747019529342651,-9.437943458557127,-0.8858546018600464
1595,164500.0,1.8447324037551882,-9.38167953491211,-1.0456676483154297
1596,164600.0,1.8447324037551882,-9.38167953491211,-1.0456676483154297
1597,164700.0,1.932719349861145,-9.39245319366455,-1.0001777410507202
1598,164800.0,1.932719349861145,-9.39245319366455,-1.0001777410507202
1599,164900.0,1.8680758476257324,-9.41759204864502,-0.9983820915222168
1600,165000.0,1.8680758476257324,-9.41759204864502,-0.9983820915222168
1601,165100.0,1.8614917993545528,-9.421183586120604,-0.9911994934082032
1602,165200.0,1.8614917993545528,-9.421183586120604,-0.9911994934082032
1603,165300.0,1.8710685968399048,-9.434351921081543,-1.10193133354187
1604,165400.0,1.8962076902389529,-9.378087997436523,-1.1139023303985596
1605,165500.0,1.8962076902389529,-9.378087997436523,-1.1139023303985596
1606,165600.0,1.8429367542266848,-9.452308654785156,-1.0145429372787476
1607,165700.0,1.8429367542266848,-9.452308654785156,-1.0145429372787476
1608,165800.0,1.8842366933822632,-9.418789863586426,-1.1037269830703735
1609,165900.0,1.8842366933822632,-9.418789863586426,-1.1037269830703735
1610,166000.0,1.8513164520263672,-9.44871711730957,-1.0660183429718018
1611,166100.0,1.8513164520263672,-9.44871711730957,-1.0660183429718018
1612,166200.0,1.8842366933822632,-9.424176216125488,-0.9421183466911316
1613,166300.0,1.8926163911819456,-9.43375301361084,-0.9564836025238036
1614,166400.0,1.8926163911819456,-9.43375301361084,-0.9564836025238036
1615,166500.0,1.801636815071106,-9.381080627441406,-1.1988965272903442
1616,166600.0,1.801636815071106,-9.381080627441406,-1.1988965272903442
1617,166700.0,2.056619167327881,-9.393052101135254,-1.0001777410507202
1618,166800.0,2.056619167327881,-9.393052101135254,-1.0001777410507202
1619,166900.0,1.820790410041809,-9.408015251159668,-1.1827356815338137
1620,167000.0,1.820790410041809,-9.408015251159668,-1.1827356815338137
1621,167100.0,1.8483237028121948,-9.446322441101074,-0.8325836658477783
1622,167200.0,1.9494787454605105,-9.428366661071776,-1.27191960811615
1623,167300.0,1.9494787454605105,-9.428366661071776,-1.27191960811615
1624,167400.0,1.8860323429107664,-9.40023422241211,-1.2946646213531494
1625,167500.0,1.8860323429107664,-9.40023422241211,-1.2946646213531494
1626,167600.0,1.7717092037200928,-9.464279174804688,-0.9133879542350768
1627,167700.0,1.7717092037200928,-9.464279174804688,-0.9133879542350768
1628,167800.0,1.9105730056762693,-9.43914031982422,-0.9265560507774352
1629,167900.0,1.9105730056762693,-9.43914031982422,-0.9265560507774352
1630,168000.0,1.8884265422821045,-9.37629222869873,-1.145026922225952
1631,168100.0,1.8477251529693604,-9.470264434814453,-0.9558850526809692
1632,168200.0,1.8477251529693604,-9.470264434814453,-0.9558850526809692
1633,168300.0,1.908777356147766,-9.419986724853516,-1.1240776777267456
1634,168400.0,1.908777356147766,-9.419986724853516,-1.1240776777267456
1635,168500.0,1.9602526426315308,-9.343372344970703,-1.0648212432861328
1636,168600.0,1.9602526426315308,-9.343372344970703,-1.0648212432861328
1637,168700.0,1.8908207416534424,-9.421183586120604,-0.9672574996948242
1638,168800.0,1.8908207416534424,-9.421183586120604,-0.9672574996948242
1639,168900.0,1.5957354307174685,-9.506776809692383,-1.0797849893569946
1640,169000.0,2.0027496814727783,-9.403226852416992,-0.9295487999916076
1641,169100.0,2.0027496814727783,-9.403226852416992,-0.9295487999916076
1642,169200.0,1.9057846069335935,-9.387664794921877,-1.094150185585022
1643,169300.0,1.9057846069335935,-9.387664794921877,-1.094150185585022
1644,169400.0,1.722628116607666,-9.436745643615724,-1.0199298858642578
1645,169500.0,1.722628116607666,-9.436745643615724,-1.0199298858642578
1646,169600.0,1.8644845485687256,-9.46727180480957,-0.9080010056495668
1647,169700.0,1.8644845485687256,-9.46727180480957,-0.9080010056495668
1648,169800.0,2.015319347381592,-9.346963882446287,-1.3551181554794312
1649,169900.0,1.955464243888855,-9.37629222869873,-1.0319008827209473
1650,170000.0,1.955464243888855,-9.37629222869873,-1.0319008827209473
1651,170100.0,1.81959331035614,-9.48762321472168,-0.8864531517028809
1652,170200.0,1.81959331035614,-9.48762321472168,-0.8864531517028809
1653,170300.0,1.8453309535980225,-9.406818389892578,-1.1659762859344482
1654,170400.0,1.8453309535980225,-9.406818389892578,-1.1659762859344482
1655,170500.0,1.8997989892959597,-9.41639518737793,-0.7811083197593689
1656,170600.0,1.8997989892959597,-9.41639518737793,-0.7811083197593689
1657,170700.0,1.9752163887023928,-9.396642684936523,-1.0684125423431396
1658,170800.0,1.9105730056762693,-9.419986724853516,-1.0642226934432983
1659,170900.0,1.9105730056762693,-9.419986724853516,-1.0642226934432983
1660,171000.0,1.833359956741333,-9.479243278503418,-0.8667010068893433
1661,171100.0,1.833359956741333,-9.479243278503418,-0.8667010068893433
1662,171200.0,1.9045875072479248,-9.44752025604248,-1.0576386451721191
1663,171300.0,1.9045875072479248,-9.44752025604248,-1.0576386451721191
1664,171400.0,1.920748353004456,-9.393052101135254,-1.0342950820922852
1665,171500.0,1.920748353004456,-9.393052101135254,-1.0342950820922852
1666,171600.0,1.9907786846160889,-9.366117477416992,-1.141435623168945
1667,171700.0,1.8632874488830569,-9.455301284790039,-1.14742112159729
1668,171800.0,1.8632874488830569,-9.455301284790039,-1.14742112159729
1669,171900.0,1.8381483554840088,-9.4636812210083,-1.0588357448577879
1670,172000.0,1.8381483554840088,-9.4636812210083,-1.0588357448577879
1671,172100.0,1.9261353015899656,-9.373299598693848,-1.0594342947006226
1672,172200.0,1.9261353015899656,-9.373299598693848,-1.0594342947006226
1673,172300.0,1.7860745191574097,-9.43494987487793,-0.9259575009346008
1674,172400.0,1.7860745191574097,-9.43494987487793,-0.9259575009346008
1675,172500.0,2.042253971099853,-9.37629222869873,-1.0408791303634644
1676,172600.0,1.7405846118927002,-9.486425399780273,-1.0977414846420288
1677,172700.0,1.7405846118927002,-9.486425399780273,-1.0977414846420288
1678,172800.0,1.8848352432250977,-9.409811019897461,-0.8194155097007751
1679,172900.0,1.8848352432250977,-9.409811019897461,-0.8194155097007751
1680,173000.0,1.9405004978179927,-9.355941772460938,-1.3742717504501345
1681,173100.0,1.9405004978179927,-9.355941772460938,-1.3742717504501345
1682,173200.0,1.8441338539123533,-9.428964614868164,-1.049857497215271
1683,173300.0,1.8441338539123533,-9.428964614868164,-1.049857497215271
1684,173400.0,1.9458874464035036,-9.378686904907227,-1.1354501247406006
1685,173500.0,1.8154034614562988,-9.411606788635254,-1.0241197347640991
1686,173600.0,1.8154034614562988,-9.411606788635254,-1.0241197347640991
1687,173700.0,1.833359956741333,-9.4636812210083,-0.9522937536239624
1688,173800.0,1.833359956741333,-9.4636812210083,-0.9522937536239624
1689,173900.0,1.8315643072128296,-9.405621528625488,-1.0821791887283323
1690,174000.0,1.8315643072128296,-9.405621528625488,-1.0821791887283323
1691,174100.0,1.9231425523757932,-9.423578262329102,-1.0833762884140017
1692,174200.0,1.9231425523757932,-9.423578262329102,-1.0833762884140017
1693,174300.0,1.852513551712036,-9.41519832611084,-1.108515381813049
1694,174400.0,1.7776948213577268,-9.451709747314453,-1.0971429347991943
1695,174500.0,1.7776948213577268,-9.451709747314453,-1.0971429347991943
1696,174600.0,1.9596540927886963,-9.442731857299805,-0.884058952331543
1697,174700.0,1.9596540927886963,-9.442731857299805,-0.884058952331543
1698,174800.0,1.8866308927536009,-9.38167953491211,-1.0450690984725952
