,timestamp,ax,ay,az
0,7000.0,-0.15442600846290588,-9.743204116821287,-0.2567781209945679
1,7100.0,-0.15442600846290588,-9.743204116821287,-0.2567781209945679
2,7200.0,-0.15442600846290588,-9.743204116821287,-0.2567781209945679
3,7300.0,-0.11192893236875534,-9.676764488220217,-0.35733461380004883
4,7400.0,-0.1149216815829277,-9.722254753112793,-0.25737667083740234
5,7500.0,-0.1149216815829277,-9.722254753112793,-0.25737667083740234
6,7600.0,-0.19452889263629916,-9.682151794433594,-0.15322890877723694
7,7700.0,-0.19452889263629916,-9.682151794433594,-0.15322890877723694
8,7800.0,-0.13946224749088287,-9.66299819946289,-0.10115502029657364
9,7900.0,-0.13946224749088287,-9.66299819946289,-0.10115502029657364
10,8000.0,-0.2358288615942001,-9.720458984375,-0.08619125932455063
11,8100.0,-0.2358288615942001,-9.720458984375,-0.08619125932455063
12,8200.0,-0.21188685297966006,-9.692327499389648,-0.076015904545784
13,8300.0,-0.27054479718208313,-9.73661994934082,-0.09636662155389786
14,8400.0,-0.27054479718208313,-9.73661994934082,-0.09636662155389786
15,8500.0,-0.3124433159828186,-9.63187313079834,-0.05925649031996728
16,8600.0,-0.3124433159828186,-9.63187313079834,-0.05925649031996728
17,8700.0,-0.32441434264183044,-9.686341285705566,-0.05027823522686958
18,8800.0,-0.32441434264183044,-9.686341285705566,-0.05027823522686958
19,8900.0,-0.15143325924873352,-9.586981773376463,-0.14065934717655182
20,9000.0,-0.15143325924873352,-9.586981773376463,-0.14065934717655182
21,9100.0,-0.25977087020874023,-9.672574996948242,-0.0293289702385664
22,9200.0,-0.2274491637945175,-9.64803409576416,-0.05147533491253853
23,9300.0,-0.2274491637945175,-9.64803409576416,-0.05147533491253853
24,9400.0,-0.3800795078277588,-9.666589736938477,-0.015562310814857485
25,9500.0,-0.3800795078277588,-9.666589736938477,-0.015562310814857485
26,9600.0,-0.3621230125427246,-9.710283279418944,0.01975216343998909
27,9700.0,-0.3621230125427246,-9.710283279418944,0.01975216343998909
28,9800.0,-0.243011474609375,-9.679159164428713,-0.041299980133771896
29,9900.0,-0.243011474609375,-9.679159164428713,-0.041299980133771896
30,10000.0,-0.3082534670829773,-9.71267795562744,-0.09935937076807022
31,10100.0,-0.2274491637945175,-9.707889556884766,-0.07481880486011505
32,10200.0,-0.2274491637945175,-9.707889556884766,-0.07481880486011505
33,10300.0,-0.21009120345115664,-9.694122314453123,-0.11552023142576218
34,10400.0,-0.21009120345115664,-9.694122314453123,-0.11552023142576218
35,10500.0,-0.20051439106464386,-9.66539192199707,-0.06883329898118973
36,10600.0,-0.20051439106464386,-9.66539192199707,-0.06883329898118973
37,10700.0,-0.20530278980731964,-9.64923095703125,-0.15442600846290588
38,10800.0,-0.20530278980731964,-9.64923095703125,-0.15442600846290588
39,10900.0,-0.20530278980731964,-9.674370765686037,-0.14185644686222074
40,11000.0,-0.22445641458034515,-9.724648475646973,-0.0694318488240242
41,11100.0,-0.22445641458034515,-9.724648475646973,-0.0694318488240242
42,11200.0,-0.2124854028224945,-9.710882186889648,-0.09876082092523576
43,11300.0,-0.2124854028224945,-9.710882186889648,-0.09876082092523576
44,11400.0,-0.1909375786781311,-9.688735961914064,-0.13706804811954498
45,11500.0,-0.1909375786781311,-9.688735961914064,-0.13706804811954498
46,11600.0,-0.2286462634801865,-9.688735961914064,-0.11192893236875534
47,11700.0,-0.2286462634801865,-9.688735961914064,-0.11192893236875534
48,11800.0,-0.06763619929552077,-9.727641105651855,-0.1346738487482071
49,11900.0,-0.17417816817760468,-9.691129684448242,-0.10534487664699554
50,12000.0,-0.17417816817760468,-9.691129684448242,-0.10534487664699554
51,12100.0,-0.18315643072128296,-9.683947563171387,-0.07721300423145294
52,12200.0,-0.18315643072128296,-9.683947563171387,-0.07721300423145294
53,12300.0,-0.1735796183347702,-9.72824001312256,-0.07781155407428741
54,12400.0,-0.1735796183347702,-9.72824001312256,-0.07781155407428741
55,12500.0,-0.1412578970193863,-9.68274974822998,-0.1256955862045288
56,12600.0,-0.1412578970193863,-9.68274974822998,-0.1256955862045288
57,12700.0,-0.13826514780521393,-9.668983459472656,-0.1215057373046875
58,12800.0,-0.13946224749088287,-9.690531730651855,-0.11851298063993455
59,12900.0,-0.13946224749088287,-9.690531730651855,-0.11851298063993455
60,13000.0,-0.1927332431077957,-9.703699111938477,-0.08738835901021957
61,13100.0,-0.1927332431077957,-9.703699111938477,-0.08738835901021957
62,13200.0,-0.18614917993545527,-9.691129684448242,-0.0628477931022644
63,13300.0,-0.18614917993545527,-9.691129684448242,-0.0628477931022644
64,13400.0,-0.20949265360832212,-9.68574333190918,-0.12030863761901855
65,13500.0,-0.20949265360832212,-9.68574333190918,-0.12030863761901855
66,13600.0,-0.1759738177061081,-9.6618013381958,-0.07661445438861847
67,13700.0,-0.14604631066322327,-9.66539192199707,-0.08319851011037828
68,13800.0,-0.14604631066322327,-9.66539192199707,-0.08319851011037828
69,13900.0,-0.2214636504650116,-9.671976089477539,-0.1107318252325058
70,14000.0,-0.2214636504650116,-9.671976089477539,-0.1107318252325058
71,14100.0,-0.16160862147808075,-9.632472038269043,-0.16639702022075653
72,14200.0,-0.16160862147808075,-9.632472038269043,-0.16639702022075653
73,14300.0,-0.23762452602386475,-9.668983459472656,-0.12509703636169436
74,14400.0,-0.23762452602386475,-9.668983459472656,-0.12509703636169436
75,14500.0,-0.19692309200763705,-9.665990829467773,-0.16639702022075653
76,14600.0,-0.19632454216480252,-9.703699111938477,-0.12988543510437012
77,14700.0,-0.19632454216480252,-9.703699111938477,-0.12988543510437012
78,14800.0,-0.17178396880626678,-9.695320129394533,-0.13527239859104154
79,14900.0,-0.17178396880626678,-9.695320129394533,-0.13527239859104154
80,15000.0,-0.17836803197860718,-9.673771858215332,-0.14844051003456116
81,15100.0,-0.17836803197860718,-9.673771858215332,-0.14844051003456116
82,15200.0,-0.22086510062217712,-9.644442558288574,-0.1322796493768692
83,15300.0,-0.22086510062217712,-9.644442558288574,-0.1322796493768692
84,15400.0,-0.26336219906806946,-9.706692695617676,-0.13587094843387604
85,15500.0,-0.2340332120656967,-9.677961349487305,-0.17537526786327362
86,15600.0,-0.2340332120656967,-9.677961349487305,-0.17537526786327362
87,15700.0,-0.3555389642715454,-9.66299819946289,-0.12928688526153564
88,15800.0,-0.3555389642715454,-9.66299819946289,-0.12928688526153564
89,15900.0,-0.2789244949817657,-9.68274974822998,-0.07781155407428741
90,16000.0,-0.2789244949817657,-9.68274974822998,-0.07781155407428741
91,16100.0,-0.3531447649002075,-9.693524360656738,-0.08798690885305405
92,16200.0,-0.3531447649002075,-9.693524360656738,-0.08798690885305405
93,16300.0,-0.3944447338581085,-9.67077922821045,0.04967968538403511
94,16400.0,-0.3944447338581085,-9.67077922821045,0.04967968538403511
95,16500.0,-0.3776853084564209,-9.692925453186037,0.033518824726343155
96,16600.0,-0.3549404144287109,-9.665990829467773,-0.030526071786880493
97,16700.0,-0.3549404144287109,-9.665990829467773,-0.030526071786880493
98,16800.0,-0.4399345517158508,-9.702502250671387,-0.07182604819536209
99,16900.0,-0.4399345517158508,-9.702502250671387,-0.07182604819536209
100,17000.0,-0.3429693877696991,-9.643844604492188,-0.0694318488240242
101,17100.0,-0.3429693877696991,-9.643844604492188,-0.0694318488240242
102,17200.0,-0.3561375141143799,-9.695320129394533,-0.08140286058187485
103,17300.0,-0.3561375141143799,-9.695320129394533,-0.08140286058187485
104,17400.0,-0.33937808871269226,-9.660603523254396,-0.10474632680416107
105,17500.0,-0.3579331636428833,-9.65581512451172,-0.15741875767707825
106,17600.0,-0.3579331636428833,-9.65581512451172,-0.15741875767707825
107,17700.0,-0.3010708689689636,-9.68574333190918,-0.1538274586200714
108,17800.0,-0.3010708689689636,-9.68574333190918,-0.1538274586200714
109,17900.0,-0.3130418658256531,-9.676166534423828,-0.17956513166427612
110,18000.0,-0.3130418658256531,-9.676166534423828,-0.17956513166427612
111,18100.0,-0.272938996553421,-9.653421401977539,-0.16160862147808075
112,18200.0,-0.272938996553421,-9.653421401977539,-0.16160862147808075
113,18300.0,-0.2992752194404602,-9.693524360656738,-0.16639702022075653
114,18400.0,-0.3100491166114807,-9.664793968200684,-0.1430535465478897
115,18500.0,-0.3100491166114807,-9.664793968200684,-0.1430535465478897
116,18600.0,-0.2885012924671173,-9.651026725769043,-0.1993172913789749
117,18700.0,-0.2885012924671173,-9.651026725769043,-0.1993172913789749
118,18800.0,-0.3513490855693817,-9.667786598205566,-0.13347674906253815
119,18900.0,-0.3513490855693817,-9.667786598205566,-0.13347674906253815
120,19000.0,-0.28969839215278625,-9.676166534423828,-0.14604631066322327
121,19100.0,-0.3298012912273407,-9.679757118225098,-0.15562310814857486
122,19200.0,-0.3298012912273407,-9.679757118225098,-0.15562310814857486
123,19300.0,-0.3345896899700165,-9.6989107131958,-0.1215057373046875
124,19400.0,-0.3345896899700165,-9.6989107131958,-0.1215057373046875
125,19500.0,-0.2885012924671173,-9.663596153259276,-0.13407529890537262
126,19600.0,-0.2885012924671173,-9.663596153259276,-0.13407529890537262
127,19700.0,-0.3932476341724396,-9.694721221923828,-0.13587094843387604
128,19800.0,-0.3932476341724396,-9.694721221923828,-0.13587094843387604
129,19900.0,-0.26336219906806946,-9.70429801940918,-0.0999579206109047
130,20000.0,-0.26336219906806946,-9.70429801940918,-0.0999579206109047
131,20100.0,-0.2412158250808716,-9.710882186889648,-0.10714052617549896
132,20200.0,-0.2807201445102692,-9.68694019317627,-0.10833762586116792
133,20300.0,-0.2807201445102692,-9.68694019317627,-0.10833762586116792
134,20400.0,-0.2974795699119568,-9.648633003234863,-0.08200141042470932
135,20500.0,-0.2974795699119568,-9.648633003234863,-0.08200141042470932
136,20600.0,-0.29388827085494995,-9.671976089477539,-0.10055647045373917
137,20700.0,-0.29388827085494995,-9.671976089477539,-0.10055647045373917
138,20800.0,-0.30286651849746704,-9.668384552001953,-0.1125274822115898
139,20900.0,-0.30286651849746704,-9.668384552001953,-0.1125274822115898
140,21000.0,-0.2920926213264465,-9.673771858215332,-0.17238251864910126
141,21100.0,-0.3130418658256531,-9.664793968200684,-0.17657238245010376
142,21200.0,-0.3130418658256531,-9.664793968200684,-0.17657238245010376
143,21300.0,-0.25737667083740234,-9.712079048156738,-0.1993172913789749
144,21400.0,-0.25737667083740234,-9.712079048156738,-0.1993172913789749
145,21500.0,-0.2687491476535797,-9.68933391571045,-0.17417816817760468
146,21600.0,-0.2687491476535797,-9.68933391571045,-0.17417816817760468
147,21700.0,-0.18734627962112427,-9.695918083190918,-0.228047713637352
148,21800.0,-0.18734627962112427,-9.695918083190918,-0.228047713637352
149,21900.0,-0.25737667083740234,-9.677961349487305,-0.2256535142660141
150,22000.0,-0.24181437492370605,-9.692925453186037,-0.20949265360832212
151,22100.0,-0.24181437492370605,-9.692925453186037,-0.20949265360832212
152,22200.0,-0.2190694510936737,-9.69651699066162,-0.2274491637945175
153,22300.0,-0.2190694510936737,-9.69651699066162,-0.2274491637945175
154,22400.0,-0.19572599232196808,-9.691129684448242,-0.18614917993545527
155,22500.0,-0.19572599232196808,-9.691129684448242,-0.18614917993545527
156,22600.0,-0.2112883031368256,-9.676764488220217,-0.1777694821357727
157,22700.0,-0.2112883031368256,-9.676764488220217,-0.1777694821357727
158,22800.0,-0.2477998733520508,-9.674370765686037,-0.1975216418504715
159,22900.0,-0.25258827209472656,-9.645041465759276,-0.14245499670505524
160,23000.0,-0.25258827209472656,-9.645041465759276,-0.14245499670505524
161,23100.0,-0.2041056901216507,-9.651625633239746,-0.23163901269435885
162,23200.0,-0.2041056901216507,-9.651625633239746,-0.23163901269435885
163,23300.0,-0.262763649225235,-9.631275177001953,-0.1975216418504715
164,23400.0,-0.262763649225235,-9.631275177001953,-0.1975216418504715
165,23500.0,-0.26156654953956604,-9.70310115814209,-0.18555063009262085
166,23600.0,-0.26156654953956604,-9.70310115814209,-0.18555063009262085
167,23700.0,-0.2675520479679108,-9.68933391571045,-0.1628057211637497
168,23800.0,-0.26156654953956604,-9.700108528137207,-0.15801730751991272
169,23900.0,-0.26156654953956604,-9.700108528137207,-0.15801730751991272
170,24000.0,-0.3124433159828186,-9.673771858215332,-0.1777694821357727
171,24100.0,-0.3124433159828186,-9.673771858215332,-0.1777694821357727
172,24200.0,-0.27413609623909,-9.6989107131958,-0.17417816817760468
173,24300.0,-0.27413609623909,-9.6989107131958,-0.17417816817760468
174,24400.0,-0.323815792798996,-9.677363395690918,-0.12629413604736328
175,24500.0,-0.323815792798996,-9.677363395690918,-0.12629413604736328
176,24600.0,-0.37888240814208973,-9.71926212310791,-0.1191115379333496
177,24700.0,-0.3519476354122162,-9.679159164428713,-0.1149216815829277
178,24800.0,-0.3519476354122162,-9.679159164428713,-0.1149216815829277
179,24900.0,-0.3190273642539978,-9.694122314453123,-0.10654197633266448
180,25000.0,-0.3190273642539978,-9.694122314453123,-0.10654197633266448
181,25100.0,-0.4219780564308167,-9.6989107131958,-0.0802057534456253
182,25200.0,-0.4219780564308167,-9.6989107131958,-0.0802057534456253
183,25300.0,-0.4351461529731751,-9.679159164428713,-0.05686229094862937
184,25400.0,-0.4351461529731751,-9.679159164428713,-0.05686229094862937
185,25500.0,-0.4465186297893524,-9.694122314453123,-0.03172317147254944
186,25600.0,-0.3298012912273407,-9.634267807006836,-0.08978256583213806
187,25700.0,-0.3298012912273407,-9.634267807006836,-0.08978256583213806
188,25800.0,-0.3734954595565796,-9.657012939453123,-0.061650693416595466
189,25900.0,-0.3734954595565796,-9.657012939453123,-0.061650693416595466
190,26000.0,-0.36391866207122797,-9.66299819946289,-0.04189852997660637
191,26100.0,-0.36391866207122797,-9.66299819946289,-0.04189852997660637
192,26200.0,-0.37229835987091053,-9.68933391571045,0.029927521944046017
193,26300.0,-0.37229835987091053,-9.68933391571045,0.029927521944046017
194,26400.0,-0.395043283700943,-9.685144424438477,-0.004788403399288654
195,26500.0,-0.4028244316577912,-9.694721221923828,0.005386953707784414
196,26600.0,-0.4028244316577912,-9.694721221923828,0.005386953707784414
197,26700.0,-0.39803603291511536,-9.693524360656738,-0.04908113554120064
198,26800.0,-0.39803603291511536,-9.693524360656738,-0.04908113554120064
199,26900.0,-0.3872621357440949,-9.691129684448242,-0.0520738884806633
200,27000.0,-0.3872621357440949,-9.691129684448242,-0.0520738884806633
201,27100.0,-0.3854664862155914,-9.685144424438477,-0.05267243832349777
202,27200.0,-0.3854664862155914,-9.685144424438477,-0.05267243832349777
203,27300.0,-0.3872621357440949,-9.677961349487305,-0.028730420395731926
204,27400.0,-0.37529110908508295,-9.688735961914064,-0.009576806798577309
205,27500.0,-0.37529110908508295,-9.688735961914064,-0.009576806798577309
206,27600.0,-0.4040215313434601,-9.69651699066162,0.012569558806717396
207,27700.0,-0.4040215313434601,-9.69651699066162,0.012569558806717396
208,27800.0,-0.3824737071990967,-9.652822494506836,-0.0867898091673851
209,27900.0,-0.3824737071990967,-9.652822494506836,-0.0867898091673851
210,28000.0,-0.34416648745536804,-9.697713851928713,-0.05147533491253853
211,28100.0,-0.34416648745536804,-9.697713851928713,-0.05147533491253853
212,28200.0,-0.3178302645683289,-9.68694019317627,-0.05925649031996728
213,28300.0,-0.3046621680259705,-9.657012939453123,-0.044292733073234565
214,28400.0,-0.3046621680259705,-9.657012939453123,-0.044292733073234565
215,28500.0,-0.33339259028434753,-9.695918083190918,-0.002992752008140087
216,28600.0,-0.33339259028434753,-9.695918083190918,-0.002992752008140087
217,28700.0,-0.3411737382411957,-9.672574996948242,-0.06763619929552077
218,28800.0,-0.3411737382411957,-9.672574996948242,-0.06763619929552077
219,28900.0,-0.3208230137825012,-9.68155288696289,-0.09457096457481384
220,29000.0,-0.3208230137825012,-9.68155288696289,-0.09457096457481384
221,29100.0,-0.30945056676864624,-9.674370765686037,-0.06584054976701736
222,29200.0,-0.34656068682670593,-9.671378135681152,-0.1041477769613266
223,29300.0,-0.34656068682670593,-9.671378135681152,-0.1041477769613266
224,29400.0,-0.3675099611282349,-9.674370765686037,-0.09816227108240128
225,29500.0,-0.3675099611282349,-9.674370765686037,-0.09816227108240128
226,29600.0,-0.3417722880840301,-9.660005569458008,-0.12868833541870114
227,29700.0,-0.3417722880840301,-9.660005569458008,-0.12868833541870114
228,29800.0,-0.345363587141037,-9.657012939453123,-0.1107318252325058
229,29900.0,-0.345363587141037,-9.657012939453123,-0.1107318252325058
230,30000.0,-0.3896563351154328,-9.68813705444336,-0.09277531504631042
231,30100.0,-0.30885201692581177,-9.68274974822998,-0.10534487664699554
232,30200.0,-0.30885201692581177,-9.68274974822998,-0.10534487664699554
233,30300.0,-0.3363853394985199,-9.694721221923828,-0.09397241473197936
234,30400.0,-0.3363853394985199,-9.694721221923828,-0.09397241473197936
235,30500.0,-0.3447650372982025,-9.674968719482422,-0.12449848651885985
236,30600.0,-0.3447650372982025,-9.674968719482422,-0.12449848651885985
237,30700.0,-0.33279404044151306,-9.694122314453123,-0.10354922711849213
238,30800.0,-0.33279404044151306,-9.694122314453123,-0.10354922711849213
239,30900.0,-0.2944868206977844,-9.689932823181152,-0.09696517139673233
240,31000.0,-0.2489969730377197,-9.66299819946289,-0.10235211998224257
241,31100.0,-0.2489969730377197,-9.66299819946289,-0.10235211998224257
242,31200.0,-0.2735375463962555,-9.675567626953123,-0.0999579206109047
243,31300.0,-0.2735375463962555,-9.675567626953123,-0.0999579206109047
244,31400.0,-0.1849520802497864,-9.679757118225098,-0.09696517139673233
245,31500.0,-0.1849520802497864,-9.679757118225098,-0.09696517139673233
246,31600.0,-0.2489969730377197,-9.683348655700684,-0.0933738648891449
247,31700.0,-0.2489969730377197,-9.683348655700684,-0.0933738648891449
248,31800.0,-0.2436100244522095,-9.660603523254396,0.0011971008498221636
249,31900.0,-0.26815059781074524,-9.663596153259276,-0.04728548228740692
250,32000.0,-0.26815059781074524,-9.663596153259276,-0.04728548228740692
251,32100.0,-0.27712884545326233,-9.68933391571045,-0.03292027488350868
252,32200.0,-0.27712884545326233,-9.68933391571045,-0.03292027488350868
253,32300.0,-0.28371289372444153,-9.685144424438477,-0.09038111567497252
254,32400.0,-0.28371289372444153,-9.685144424438477,-0.09038111567497252
255,32500.0,-0.2753331959247589,-9.675567626953123,-0.03950432687997818
256,32600.0,-0.2753331959247589,-9.675567626953123,-0.03950432687997818
257,32700.0,-0.2585737705230713,-9.683947563171387,-0.06464344263076782
258,32800.0,-0.2555810213088989,-9.656414031982422,-0.09696517139673233
259,32900.0,-0.2555810213088989,-9.656414031982422,-0.09696517139673233
260,33000.0,-0.31543606519699097,-9.700108528137207,-0.09696517139673233
261,33100.0,-0.31543606519699097,-9.700108528137207,-0.09696517139673233
262,33200.0,-0.3196259140968323,-9.695918083190918,-0.07960720360279082
263,33300.0,-0.3196259140968323,-9.695918083190918,-0.07960720360279082
264,33400.0,-0.2819172441959381,-9.691129684448242,-0.07062894850969315
265,33500.0,-0.2819172441959381,-9.691129684448242,-0.07062894850969315
266,33600.0,-0.30885201692581177,-9.686341285705566,-0.04908113554120064
267,33700.0,-0.2693476974964142,-9.699509620666504,-0.03770867735147476
268,33800.0,-0.2693476974964142,-9.699509620666504,-0.03770867735147476
269,33900.0,-0.3513490855693817,-9.697713851928713,-0.03172317147254944
270,34000.0,-0.3513490855693817,-9.697713851928713,-0.03172317147254944
271,34100.0,-0.3315969407558441,-9.690531730651855,-0.0520738884806633
272,34200.0,-0.3315969407558441,-9.690531730651855,-0.0520738884806633
273,34300.0,-0.3423708379268646,-9.68155288696289,-0.09038111567497252
274,34400.0,-0.3423708379268646,-9.68155288696289,-0.09038111567497252
275,34500.0,-0.2944868206977844,-9.69651699066162,-0.1280897855758667
276,34600.0,-0.2735375463962555,-9.653421401977539,-0.13168109953403473
277,34700.0,-0.2735375463962555,-9.653421401977539,-0.13168109953403473
278,34800.0,-0.2849099934101105,-9.692327499389648,-0.14006079733371735
279,34900.0,-0.2849099934101105,-9.692327499389648,-0.14006079733371735
280,35000.0,-0.22685061395168304,-9.662399291992188,-0.2274491637945175
281,35100.0,-0.22685061395168304,-9.662399291992188,-0.2274491637945175
282,35200.0,-0.33997663855552673,-9.68813705444336,-0.1472434103488922
283,35300.0,-0.33997663855552673,-9.68813705444336,-0.1472434103488922
284,35400.0,-0.31364041566848755,-9.763554573059082,-0.09935937076807022
285,35500.0,-0.33937808871269226,-9.680954933166504,-0.11013327538967133
286,35600.0,-0.33937808871269226,-9.680954933166504,-0.11013327538967133
287,35700.0,-0.33758243918418884,-9.667187690734863,-0.08439560979604721
288,35800.0,-0.33758243918418884,-9.667187690734863,-0.08439560979604721
289,35900.0,-0.33937808871269226,-9.682151794433594,-0.07242459803819656
290,36000.0,-0.33937808871269226,-9.682151794433594,-0.07242459803819656
291,36100.0,-0.3896563351154328,-9.689932823181152,-0.013168109580874443
292,36200.0,-0.3896563351154328,-9.689932823181152,-0.013168109580874443
293,36300.0,-0.3603273630142212,-9.652822494506836,0.018555063754320145
294,36400.0,-0.3920505344867706,-9.689932823181152,0.061052143573760986
295,36500.0,-0.3920505344867706,-9.689932823181152,0.061052143573760986
296,36600.0,-0.4040215313434601,-9.680954933166504,0.041299980133771896
297,36700.0,-0.4040215313434601,-9.680954933166504,0.041299980133771896
298,36800.0,-0.37169981002807617,-9.66539192199707,-0.04189852997660637
299,36900.0,-0.37169981002807617,-9.66539192199707,-0.04189852997660637
300,37000.0,-0.3992331326007843,-9.663596153259276,-0.07122749835252762
301,37100.0,-0.3992331326007843,-9.663596153259276,-0.07122749835252762
302,37200.0,-0.35733461380004883,-9.686341285705566,-0.1125274822115898
303,37300.0,-0.3675099611282349,-9.700108528137207,-0.08738835901021957
304,37400.0,-0.3675099611282349,-9.700108528137207,-0.08738835901021957
305,37500.0,-0.3579331636428833,-9.689932823181152,-0.11611878126859665
306,37600.0,-0.3579331636428833,-9.689932823181152,-0.11611878126859665
307,37700.0,-0.38367083668708796,-9.6803560256958,-0.08559270948171616
308,37800.0,-0.38367083668708796,-9.6803560256958,-0.08559270948171616
309,37900.0,-0.3998316824436188,-9.673771858215332,-0.08379705995321274
310,38000.0,-0.3998316824436188,-9.673771858215332,-0.08379705995321274
311,38100.0,-0.3555389642715454,-9.677961349487305,-0.08140286058187485
312,38200.0,-0.3555389642715454,-9.677961349487305,-0.08140286058187485
313,38300.0,-0.3232172429561615,-9.697713851928713,-0.07661445438861847
314,38400.0,-0.3770867586135864,-9.689932823181152,-0.07781155407428741
315,38500.0,-0.3770867586135864,-9.689932823181152,-0.07781155407428741
316,38600.0,-0.33099839091300964,-9.658807754516602,-0.06883329898118973
317,38700.0,-0.33099839091300964,-9.658807754516602,-0.06883329898118973
318,38800.0,-0.3776853084564209,-9.70310115814209,-0.023942016065120697
319,38900.0,-0.3776853084564209,-9.70310115814209,-0.023942016065120697
320,39000.0,-0.3429693877696991,-9.689932823181152,-0.02274491637945175
321,39100.0,-0.3429693877696991,-9.689932823181152,-0.02274491637945175
322,39200.0,-0.33758243918418884,-9.645041465759276,-0.0005985504249110818
323,39300.0,-0.3842693865299225,-9.659406661987305,0.03172317147254944
324,39400.0,-0.3842693865299225,-9.659406661987305,0.03172317147254944
325,39500.0,-0.3447650372982025,-9.68933391571045,0.011971008032560349
326,39600.0,-0.3447650372982025,-9.68933391571045,0.011971008032560349
327,39700.0,-0.4357447028160095,-9.707889556884766,0.038905777037143714
328,39800.0,-0.4357447028160095,-9.707889556884766,0.038905777037143714
329,39900.0,-0.4315548539161682,-9.70310115814209,0.04848258569836617
330,40000.0,-0.4596867263317108,-9.69651699066162,0.01975216343998909
331,40100.0,-0.4596867263317108,-9.69651699066162,0.01975216343998909
332,40200.0,-0.3740940093994141,-9.68155288696289,0.023343466222286224
333,40300.0,-0.3740940093994141,-9.68155288696289,0.023343466222286224
334,40400.0,-0.465073674917221,-9.684545516967773,0.010773907415568829
335,40500.0,-0.465073674917221,-9.684545516967773,0.010773907415568829
336,40600.0,-0.46627077460289,-9.637859344482422,0.09217676520347597
337,40700.0,-0.46627077460289,-9.637859344482422,0.09217676520347597
338,40800.0,-0.5039794445037842,-9.670180320739746,0.0867898091673851
339,40900.0,-0.5039794445037842,-9.670180320739746,0.0867898091673851
340,41000.0,-0.454898327589035,-9.697115898132324,0.060453593730926514
341,41100.0,-0.4315548539161682,-9.688735961914064,0.05746084079146385
342,41200.0,-0.4315548539161682,-9.688735961914064,0.05746084079146385
343,41300.0,-0.4644751250743866,-9.672574996948242,0.08918401598930359
344,41400.0,-0.4644751250743866,-9.672574996948242,0.08918401598930359
345,41500.0,-0.4752490520477295,-9.697713851928713,0.09397241473197936
346,41600.0,-0.4752490520477295,-9.697713851928713,0.09397241473197936
347,41700.0,-0.4213795065879822,-9.657610893249512,0.08140286058187485
348,41800.0,-0.41120412945747375,-9.69651699066162,0.050876785069704056
349,41900.0,-0.41120412945747375,-9.69651699066162,0.050876785069704056
350,42000.0,-0.37888240814208973,-9.690531730651855,0.04369417950510979
351,42100.0,-0.37888240814208973,-9.690531730651855,0.04369417950510979
352,42200.0,-0.38367083668708796,-9.684545516967773,0.06763619929552077
353,42300.0,-0.38367083668708796,-9.684545516967773,0.06763619929552077
354,42400.0,-0.4040215313434601,-9.67077922821045,0.0293289702385664
355,42500.0,-0.4040215313434601,-9.67077922821045,0.0293289702385664
356,42600.0,-0.4327519536018372,-9.655217170715332,0.07661445438861847
357,42700.0,-0.4327519536018372,-9.655217170715332,0.07661445438861847
358,42800.0,-0.4010287821292877,-9.726444244384766,0.1191115379333496
359,42900.0,-0.4291606545448303,-9.68155288696289,0.10474632680416107
360,43000.0,-0.4291606545448303,-9.68155288696289,0.10474632680416107
361,43100.0,-0.4201824069023132,-9.668983459472656,0.0957680642604828
362,43200.0,-0.4201824069023132,-9.668983459472656,0.0957680642604828
363,43300.0,-0.43754035234451294,-9.664793968200684,0.028730420395731926
364,43400.0,-0.43754035234451294,-9.664793968200684,0.028730420395731926
365,43500.0,-0.3794809579849243,-9.709086418151855,0.041299980133771896
366,43600.0,-0.3794809579849243,-9.709086418151855,0.041299980133771896
367,43700.0,-0.424970805644989,-9.700706481933594,0.03770867735147476
368,43800.0,-0.38367083668708796,-9.680954933166504,-0.013168109580874443
369,43900.0,-0.38367083668708796,-9.680954933166504,-0.013168109580874443
370,44000.0,-0.4022258818149567,-9.672574996948242,0.017956512048840526
371,44100.0,-0.4022258818149567,-9.672574996948242,0.017956512048840526
372,44200.0,-0.3986345827579498,-9.768941879272461,0.055665191262960434
373,44300.0,-0.3986345827579498,-9.768941879272461,0.055665191262960434
374,44400.0,-0.2603694200515747,-9.72285270690918,-0.04668693244457245
375,44500.0,-0.2603694200515747,-9.72285270690918,-0.04668693244457245
376,44600.0,-0.4788403511047363,-9.651026725769043,0.06464344263076782
377,44700.0,-0.3315969407558441,-9.65222454071045,-0.08319851011037828
378,44800.0,-0.3315969407558441,-9.65222454071045,-0.08319851011037828
379,44900.0,-0.3615244626998901,-9.68274974822998,-0.0736217051744461
380,45000.0,-0.3615244626998901,-9.68274974822998,-0.0736217051744461
381,45100.0,-0.3746925592422485,-9.683947563171387,-0.014365210197865963
382,45200.0,-0.3746925592422485,-9.683947563171387,-0.014365210197865963
383,45300.0,-0.34596213698387146,-9.691728591918944,0.050876785069704056
384,45400.0,-0.34596213698387146,-9.691728591918944,0.050876785069704056
385,45500.0,-0.3711012601852417,-9.693524360656738,0.042497079819440835
386,45600.0,-0.28790274262428284,-9.632472038269043,-0.015562310814857485
387,45700.0,-0.28790274262428284,-9.632472038269043,-0.015562310814857485
388,45800.0,-0.3579331636428833,-9.685144424438477,-0.034117374569177635
389,45900.0,-0.3579331636428833,-9.685144424438477,-0.034117374569177635
390,46000.0,-0.3381809890270233,-9.671378135681152,-0.04668693244457245
391,46100.0,-0.3381809890270233,-9.671378135681152,-0.04668693244457245
392,46200.0,-0.21607670187950132,-9.672574996948242,-0.03950432687997818
393,46300.0,-0.21607670187950132,-9.672574996948242,-0.03950432687997818
394,46400.0,-0.4040215313434601,-9.694122314453123,0.08499415963888167
395,46500.0,-0.436343252658844,-9.650428771972656,0.04967968538403511
396,46600.0,-0.436343252658844,-9.650428771972656,0.04967968538403511
397,46700.0,-0.2537853717803955,-9.561842918395996,0.1191115379333496
398,46800.0,-0.2537853717803955,-9.561842918395996,0.1191115379333496
399,46900.0,-0.3896563351154328,-9.837775230407717,-0.2082955539226532
400,47000.0,-0.3896563351154328,-9.837775230407717,-0.2082955539226532
401,47100.0,-0.3585317134857178,-9.672574996948242,0.06524199992418289
402,47200.0,-0.3585317134857178,-9.672574996948242,0.06524199992418289
403,47300.0,-0.2382230758666992,-9.63187313079834,-0.15741875767707825
404,47400.0,-0.27653029561042786,-9.68155288696289,-0.15801730751991272
405,47500.0,-0.27653029561042786,-9.68155288696289,-0.15801730751991272
406,47600.0,-0.14664486050605774,-9.725247383117676,-0.13826514780521393
407,47700.0,-0.14664486050605774,-9.725247383117676,-0.13826514780521393
408,47800.0,-0.1711854189634323,-9.690531730651855,-0.08080431073904037
409,47900.0,-0.1711854189634323,-9.690531730651855,-0.08080431073904037
410,48000.0,-0.1867477297782898,-9.662399291992188,-0.06344634294509888
411,48100.0,-0.1867477297782898,-9.662399291992188,-0.06344634294509888
412,48200.0,-0.2232593148946762,-9.663596153259276,-0.07062894850969315
413,48300.0,-0.21547815203666687,-9.686341285705566,-0.12509703636169436
414,48400.0,-0.21547815203666687,-9.686341285705566,-0.12509703636169436
415,48500.0,-0.1975216418504715,-9.685144424438477,-0.12030863761901855
416,48600.0,-0.1975216418504715,-9.685144424438477,-0.12030863761901855
417,48700.0,-0.1646013706922531,-9.695320129394533,-0.1322796493768692
418,48800.0,-0.1646013706922531,-9.695320129394533,-0.1322796493768692
419,48900.0,-0.2064998894929886,-9.70549488067627,-0.11133038252592088
420,49000.0,-0.2064998894929886,-9.70549488067627,-0.11133038252592088
421,49100.0,-0.1843535304069519,-9.680954933166504,-0.1125274822115898
422,49200.0,-0.21009120345115664,-9.649829864501953,-0.09516951441764833
423,49300.0,-0.21009120345115664,-9.649829864501953,-0.09516951441764833
424,49400.0,-0.2274491637945175,-9.676764488220217,-0.08499415963888167
425,49500.0,-0.2274491637945175,-9.676764488220217,-0.08499415963888167
426,49600.0,-0.27054479718208313,-9.661202430725098,-0.08200141042470932
427,49700.0,-0.27054479718208313,-9.661202430725098,-0.08200141042470932
428,49800.0,-0.2944868206977844,-9.702502250671387,-0.10714052617549896
429,49900.0,-0.2944868206977844,-9.702502250671387,-0.10714052617549896
430,50000.0,-0.2579752206802368,-9.68574333190918,-0.0520738884806633
431,50100.0,-0.272938996553421,-9.667786598205566,-0.03232172131538391
432,50200.0,-0.272938996553421,-9.667786598205566,-0.03232172131538391
433,50300.0,-0.32022446393966675,-9.660603523254396,-0.03232172131538391
434,50400.0,-0.32022446393966675,-9.660603523254396,-0.03232172131538391
435,50500.0,-0.3196259140968323,-9.686341285705566,-0.041299980133771896
436,50600.0,-0.3196259140968323,-9.686341285705566,-0.041299980133771896
437,50700.0,-0.3082534670829773,-9.68933391571045,-0.07960720360279082
438,50800.0,-0.3082534670829773,-9.68933391571045,-0.07960720360279082
439,50900.0,-0.2819172441959381,-9.668384552001953,-0.04967968538403511
440,51000.0,-0.29628247022628784,-9.683947563171387,-0.0694318488240242
441,51100.0,-0.29628247022628784,-9.683947563171387,-0.0694318488240242
442,51200.0,-0.2873041927814484,-9.698312759399414,-0.05506663769483566
443,51300.0,-0.2873041927814484,-9.698312759399414,-0.05506663769483566
444,51400.0,-0.3381809890270233,-9.66539192199707,-0.050876785069704056
445,51500.0,-0.3381809890270233,-9.66539192199707,-0.050876785069704056
446,51600.0,-0.2711433470249176,-9.685144424438477,-0.04369417950510979
447,51700.0,-0.2711433470249176,-9.685144424438477,-0.04369417950510979
448,51800.0,-0.2789244949817657,-9.689932823181152,-0.020949264988303185
449,51900.0,-0.2992752194404602,-9.689932823181152,-0.03770867735147476
450,52000.0,-0.2992752194404602,-9.689932823181152,-0.03770867735147476
451,52100.0,-0.2825157940387726,-9.68933391571045,-0.03232172131538391
452,52200.0,-0.2825157940387726,-9.68933391571045,-0.03232172131538391
453,52300.0,-0.25917232036590576,-9.683348655700684,-0.02454056777060032
454,52400.0,-0.25917232036590576,-9.683348655700684,-0.02454056777060032
455,52500.0,-0.3172317147254944,-9.691129684448242,-0.028730420395731926
456,52600.0,-0.3172317147254944,-9.691129684448242,-0.028730420395731926
457,52700.0,-0.3052607178688049,-9.68574333190918,-0.028131870552897453
458,52800.0,-0.2867056429386139,-9.693524360656738,-0.05386953800916672
459,52900.0,-0.2867056429386139,-9.693524360656738,-0.05386953800916672
460,53000.0,-0.3064578175544739,-9.693524360656738,-0.04967968538403511
461,53100.0,-0.3064578175544739,-9.693524360656738,-0.04967968538403511
462,53200.0,-0.3298012912273407,-9.66958236694336,-0.06584054976701736
463,53300.0,-0.3298012912273407,-9.66958236694336,-0.06584054976701736
464,53400.0,-0.3166331648826599,-9.658807754516602,-0.06823474913835527
465,53500.0,-0.3166331648826599,-9.658807754516602,-0.06823474913835527
466,53600.0,-0.2807201445102692,-9.668983459472656,-0.07122749835252762
467,53700.0,-0.30226796865463257,-9.719860076904297,-0.12090718746185306
468,53800.0,-0.30226796865463257,-9.719860076904297,-0.12090718746185306
469,53900.0,-0.3130418658256531,-9.671378135681152,-0.09217676520347597
470,54000.0,-0.3130418658256531,-9.671378135681152,-0.09217676520347597
471,54100.0,-0.2819172441959381,-9.691129684448242,-0.09935937076807022
472,54200.0,-0.2819172441959381,-9.691129684448242,-0.09935937076807022
473,54300.0,-0.2855085432529449,-9.690531730651855,-0.10773907601833344
474,54400.0,-0.2855085432529449,-9.690531730651855,-0.10773907601833344
475,54500.0,-0.2932897210121155,-9.671378135681152,-0.10594342648983003
476,54600.0,-0.2513911724090576,-9.685144424438477,-0.030526071786880493
477,54700.0,-0.2513911724090576,-9.685144424438477,-0.030526071786880493
478,54800.0,-0.2950853705406189,-9.666589736938477,-0.08200141042470932
479,54900.0,-0.2950853705406189,-9.666589736938477,-0.08200141042470932
480,55000.0,-0.4411316514015198,-9.697115898132324,-0.07841010391712189
481,55100.0,-0.4411316514015198,-9.697115898132324,-0.07841010391712189
482,55200.0,0.043095629662275314,-9.774927139282227,-0.1149216815829277
483,55300.0,0.043095629662275314,-9.774927139282227,-0.1149216815829277
484,55400.0,-0.27653029561042786,-9.68574333190918,-0.020350715145468712
485,55500.0,-0.18614917993545527,-9.725247383117676,-0.08619125932455063
486,55600.0,-0.18614917993545527,-9.725247383117676,-0.08619125932455063
487,55700.0,-0.2849099934101105,-9.700108528137207,-0.07242459803819656
488,55800.0,-0.2849099934101105,-9.700108528137207,-0.07242459803819656
489,55900.0,-0.26156654953956604,-9.679757118225098,-0.09038111567497252
490,56000.0,-0.26156654953956604,-9.679757118225098,-0.09038111567497252
491,56100.0,-0.18974047899246216,-9.707889556884766,-0.018555063754320145
492,56200.0,-0.18974047899246216,-9.707889556884766,-0.018555063754320145
493,56300.0,-0.3256114423274994,-9.692925453186037,-0.13946224749088287
494,56400.0,-0.2513911724090576,-9.661202430725098,-0.016759412363171574
495,56500.0,-0.2513911724090576,-9.661202430725098,-0.016759412363171574
496,56600.0,-0.2501940727233887,-9.64923095703125,-0.07481880486011505
497,56700.0,-0.2501940727233887,-9.64923095703125,-0.07481880486011505
498,56800.0,-0.2759317457675934,-9.701904296875,-0.03950432687997818
499,56900.0,-0.2759317457675934,-9.701904296875,-0.03950432687997818
500,57000.0,-0.2663549482822418,-9.689932823181152,-0.016160860657691956
501,57100.0,-0.2663549482822418,-9.689932823181152,-0.016160860657691956
502,57200.0,-0.2651578485965729,-9.676764488220217,-0.05506663769483566
503,57300.0,-0.22206220030784607,-9.659406661987305,-0.056263741105794914
504,57400.0,-0.22206220030784607,-9.659406661987305,-0.056263741105794914
505,57500.0,-0.32680854201316833,-9.666589736938477,-0.034117374569177635
506,57600.0,-0.32680854201316833,-9.666589736938477,-0.034117374569177635
507,57700.0,-0.25318682193756104,-9.68574333190918,-0.059855043888092034
508,57800.0,-0.25318682193756104,-9.68574333190918,-0.059855043888092034
509,57900.0,-0.2867056429386139,-9.751583099365234,-0.3740940093994141
510,58000.0,-0.2867056429386139,-9.751583099365234,-0.3740940093994141
511,58100.0,-0.034117374569177635,-9.82999324798584,0.12030863761901855
512,58200.0,-0.2214636504650116,-9.767744064331056,-0.06524199992418289
513,58300.0,-0.2214636504650116,-9.767744064331056,-0.06524199992418289
514,58400.0,-0.2292448133230209,-9.703699111938477,0.07122749835252762
515,58500.0,-0.2292448133230209,-9.703699111938477,0.07122749835252762
516,58600.0,-0.19572599232196808,-9.626486778259276,-0.22086510062217712
517,58700.0,-0.19572599232196808,-9.626486778259276,-0.22086510062217712
518,58800.0,-0.22445641458034515,-9.72584629058838,-0.13946224749088287
519,58900.0,-0.22445641458034515,-9.72584629058838,-0.13946224749088287
520,59000.0,-0.19871874153614044,-9.698312759399414,-0.034117374569177635
521,59100.0,-0.07721300423145294,-9.684545516967773,-0.1430535465478897
522,59200.0,-0.07721300423145294,-9.684545516967773,-0.1430535465478897
523,59300.0,-0.1867477297782898,-9.651026725769043,-0.11791443079710008
524,59400.0,-0.1867477297782898,-9.651026725769043,-0.11791443079710008
525,59500.0,-0.2346317619085312,-9.671378135681152,-0.14006079733371735
526,59600.0,-0.2346317619085312,-9.671378135681152,-0.14006079733371735
527,59700.0,-0.2047042399644852,-9.680954933166504,-0.16819266974925995
528,59800.0,-0.2047042399644852,-9.680954933166504,-0.16819266974925995
529,59900.0,-0.12090718746185306,-9.674370765686037,-0.17717093229293826
530,60000.0,-0.14604631066322327,-9.698312759399414,-0.1256955862045288
531,60100.0,-0.14604631066322327,-9.698312759399414,-0.1256955862045288
532,60200.0,-0.12030863761901855,-9.657610893249512,-0.15322890877723694
533,60300.0,-0.12030863761901855,-9.657610893249512,-0.15322890877723694
534,60400.0,-0.16759411990642548,-9.6618013381958,-0.0975637212395668
535,60500.0,-0.16759411990642548,-9.6618013381958,-0.0975637212395668
536,60600.0,-0.10833762586116792,-9.691129684448242,-0.10055647045373917
537,60700.0,-0.10833762586116792,-9.691129684448242,-0.10055647045373917
538,60800.0,-0.23343466222286224,-9.687539100646973,-0.10055647045373917
539,60900.0,-0.12270283699035645,-9.727043151855467,-0.13347674906253815
540,61000.0,-0.12270283699035645,-9.727043151855467,-0.13347674906253815
541,61100.0,-0.28790274262428284,-9.671976089477539,-0.10534487664699554
542,61200.0,-0.28790274262428284,-9.671976089477539,-0.10534487664699554
543,61300.0,-0.2980781197547913,-9.673172950744627,-0.04728548228740692
544,61400.0,-0.2980781197547913,-9.673172950744627,-0.04728548228740692
545,61500.0,-0.30286651849746704,-9.672574996948242,-0.09217676520347597
546,61600.0,-0.30286651849746704,-9.672574996948242,-0.09217676520347597
547,61700.0,-0.2759317457675934,-9.71267795562744,-0.0975637212395668
548,61800.0,-0.2759317457675934,-9.71267795562744,-0.0975637212395668
549,61900.0,-0.25977087020874023,-9.700706481933594,-0.04908113554120064
550,62000.0,-0.2717418968677521,-9.667786598205566,-0.09516951441764833
551,62100.0,-0.2717418968677521,-9.667786598205566,-0.09516951441764833
552,62200.0,-0.292691171169281,-9.698312759399414,-0.07541735470294952
553,62300.0,-0.292691171169281,-9.698312759399414,-0.07541735470294952
554,62400.0,-0.26396074891090393,-9.674370765686037,-0.08200141042470932
555,62500.0,-0.26396074891090393,-9.674370765686037,-0.08200141042470932
556,62600.0,-0.27653029561042786,-9.68274974822998,-0.13287819921970367
557,62700.0,-0.27653029561042786,-9.68274974822998,-0.13287819921970367
558,62800.0,-0.2807201445102692,-9.68933391571045,-0.10474632680416107
559,62900.0,-0.32620999217033386,-9.684545516967773,-0.10893617570400238
560,63000.0,-0.32620999217033386,-9.684545516967773,-0.10893617570400238
561,63100.0,-0.27473464608192444,-9.701904296875,-0.08499415963888167
562,63200.0,-0.27473464608192444,-9.701904296875,-0.08499415963888167
563,63300.0,-0.2992752194404602,-9.691728591918944,-0.09097966551780699
564,63400.0,-0.2992752194404602,-9.691728591918944,-0.09097966551780699
565,63500.0,-0.2920926213264465,-9.667187690734863,-0.08738835901021957
566,63600.0,-0.2920926213264465,-9.667187690734863,-0.08738835901021957
567,63700.0,-0.243011474609375,-9.689932823181152,-0.07900865375995636
568,63800.0,-0.29628247022628784,-9.686341285705566,-0.09696517139673233
569,63900.0,-0.29628247022628784,-9.686341285705566,-0.09696517139673233
570,64000.0,-0.292691171169281,-9.706093788146973,-0.05147533491253853
571,64100.0,-0.292691171169281,-9.706093788146973,-0.05147533491253853
572,64200.0,-0.32680854201316833,-9.685144424438477,-0.0694318488240242
573,64300.0,-0.32680854201316833,-9.685144424438477,-0.0694318488240242
574,64400.0,-0.2986766695976257,-9.694122314453123,-0.04369417950510979
575,64500.0,-0.3256114423274994,-9.668384552001953,-0.05746084079146385
576,64600.0,-0.3256114423274994,-9.668384552001953,-0.05746084079146385
577,64700.0,-0.33099839091300964,-9.666589736938477,-0.07242459803819656
578,64800.0,-0.33099839091300964,-9.666589736938477,-0.07242459803819656
579,64900.0,-0.3220201432704925,-9.656414031982422,-0.04369417950510979
580,65000.0,-0.3220201432704925,-9.656414031982422,-0.04369417950510979
581,65100.0,-0.304063618183136,-9.668983459472656,-0.09457096457481384
582,65200.0,-0.304063618183136,-9.668983459472656,-0.09457096457481384
583,65300.0,-0.3405751883983612,-9.6803560256958,-0.0933738648891449
584,65400.0,-0.3405751883983612,-9.6803560256958,-0.0933738648891449
585,65500.0,-0.3178302645683289,-9.665990829467773,-0.09935937076807022
586,65600.0,-0.2968810200691223,-9.675567626953123,-0.12689268589019775
587,65700.0,-0.2968810200691223,-9.675567626953123,-0.12689268589019775
588,65800.0,-0.33339259028434753,-9.690531730651855,-0.07900865375995636
589,65900.0,-0.33339259028434753,-9.690531730651855,-0.07900865375995636
590,66000.0,-0.31543606519699097,-9.670180320739746,-0.0933738648891449
591,66100.0,-0.31543606519699097,-9.670180320739746,-0.0933738648891449
592,66200.0,-0.31603461503982544,-9.685144424438477,-0.11791443079710008
593,66300.0,-0.31603461503982544,-9.685144424438477,-0.11791443079710008
594,66400.0,-0.32441434264183044,-9.679757118225098,-0.09696517139673233
595,66500.0,-0.37529110908508295,-9.668983459472656,-0.1191115379333496
596,66600.0,-0.37529110908508295,-9.668983459472656,-0.1191115379333496
597,66700.0,-0.33937808871269226,-9.686341285705566,-0.13347674906253815
598,66800.0,-0.33937808871269226,-9.686341285705566,-0.13347674906253815
599,66900.0,-0.3920505344867706,-9.619902610778807,-0.07182604819536209
600,67000.0,-0.3920505344867706,-9.619902610778807,-0.07182604819536209
601,67100.0,-0.2890998423099518,-9.673771858215332,-0.1322796493768692
602,67200.0,-0.2890998423099518,-9.673771858215332,-0.1322796493768692
603,67300.0,-0.4165911078453064,-9.708487510681152,-0.10175357013940813
604,67400.0,-0.23283611238002774,-9.672574996948242,-0.10833762586116792
605,67500.0,-0.23283611238002774,-9.672574996948242,-0.10833762586116792
606,67600.0,-0.3292027413845062,-9.709086418151855,-0.09457096457481384
607,67700.0,-0.3292027413845062,-9.709086418151855,-0.09457096457481384
608,67800.0,-0.262763649225235,-9.68933391571045,-0.12090718746185306
609,67900.0,-0.262763649225235,-9.68933391571045,-0.12090718746185306
610,68000.0,-0.2454056739807129,-9.685144424438477,-0.1173158809542656
611,68100.0,-0.2454056739807129,-9.685144424438477,-0.1173158809542656
612,68200.0,-0.2495955228805542,-9.68813705444336,-0.0957680642604828
613,68300.0,-0.3435679376125336,-9.717466354370117,-0.12689268589019775
614,68400.0,-0.3435679376125336,-9.717466354370117,-0.12689268589019775
615,68500.0,-0.2274491637945175,-9.676764488220217,-0.12090718746185306
616,68600.0,-0.2274491637945175,-9.676764488220217,-0.12090718746185306
617,68700.0,-0.20949265360832212,-9.676764488220217,-0.050876785069704056
618,68800.0,-0.20949265360832212,-9.676764488220217,-0.050876785069704056
619,68900.0,-0.3321954905986786,-9.70968532562256,-0.0520738884806633
620,69000.0,-0.3321954905986786,-9.70968532562256,-0.0520738884806633
621,69100.0,-0.30705636739730835,-9.695320129394533,-0.07422025501728058
622,69200.0,-0.3477577865123749,-9.684545516967773,-0.05386953800916672
623,69300.0,-0.3477577865123749,-9.684545516967773,-0.05386953800916672
624,69400.0,-0.3567360639572144,-9.66958236694336,-0.0586579404771328
625,69500.0,-0.3567360639572144,-9.66958236694336,-0.0586579404771328
626,69600.0,-0.3561375141143799,-9.673771858215332,-0.062249243259429925
627,69700.0,-0.3561375141143799,-9.673771858215332,-0.062249243259429925
628,69800.0,-0.3250128924846649,-9.695918083190918,0.014365210197865963
629,69900.0,-0.3250128924846649,-9.695918083190918,0.014365210197865963
630,70000.0,-0.4698620736598969,-9.686341285705566,-0.041299980133771896
631,70100.0,-0.01735796220600605,-9.721057891845703,-0.08798690885305405
632,70200.0,-0.01735796220600605,-9.721057891845703,-0.08798690885305405
633,70300.0,-0.4070142805576325,-9.695320129394533,-0.011372458189725876
634,70400.0,-0.4070142805576325,-9.695320129394533,-0.011372458189725876
635,70500.0,-0.3082534670829773,-9.616311073303224,-0.1256955862045288
636,70600.0,-0.3082534670829773,-9.616311073303224,-0.1256955862045288
637,70700.0,-0.4908113479614258,-9.572616577148438,-0.06344634294509888
638,70800.0,-0.4908113479614258,-9.572616577148438,-0.06344634294509888
639,70900.0,-0.32261869311332697,-9.75278091430664,0.13766659796237946
640,71000.0,-0.24001872539520264,-9.656414031982422,0.010175357572734356
641,71100.0,-0.24001872539520264,-9.656414031982422,0.010175357572734356
642,71200.0,-0.16220717132091522,-9.64564037322998,0.028131870552897453
643,71300.0,-0.16220717132091522,-9.64564037322998,0.028131870552897453
644,71400.0,-0.22206220030784607,-9.706093788146973,0.04908113554120064
645,71500.0,-0.22206220030784607,-9.706093788146973,0.04908113554120064
646,71600.0,-0.3561375141143799,-9.496601104736328,-0.2322375625371933
647,71700.0,-0.3561375141143799,-9.496601104736328,-0.2322375625371933
648,71800.0,-0.16639702022075653,-9.761758804321287,-0.021547814831137657
649,71900.0,-0.2537853717803955,-9.725247383117676,-0.09277531504631042
650,72000.0,-0.2537853717803955,-9.725247383117676,-0.09277531504631042
651,72100.0,-0.1651999205350876,-9.749189376831056,0.009576806798577309
652,72200.0,-0.1651999205350876,-9.749189376831056,0.009576806798577309
653,72300.0,-0.272938996553421,-9.740211486816406,0.10534487664699554
654,72400.0,-0.272938996553421,-9.740211486816406,0.10534487664699554
655,72500.0,-0.058059390634298325,-9.710283279418944,-0.03950432687997818
656,72600.0,-0.058059390634298325,-9.710283279418944,-0.03950432687997818
657,72700.0,-0.3106476664543152,-9.695320129394533,-0.061052143573760986
658,72800.0,-0.2777273952960968,-9.719860076904297,-0.07960720360279082
659,72900.0,-0.2777273952960968,-9.719860076904297,-0.07960720360279082
660,73000.0,-0.21667525172233584,-9.716269493103027,-0.055665191262960434
661,73100.0,-0.21667525172233584,-9.716269493103027,-0.055665191262960434
662,73200.0,-0.20231004059314728,-9.714473724365234,-0.04489128291606903
663,73300.0,-0.20231004059314728,-9.714473724365234,-0.04489128291606903
664,73400.0,-0.3477577865123749,-9.686341285705566,-0.0454898327589035
665,73500.0,-0.3477577865123749,-9.686341285705566,-0.0454898327589035
666,73600.0,-0.2968810200691223,-9.647436141967773,0.016160860657691956
667,73700.0,-0.4106055796146393,-9.655217170715332,0.019153613597154617
668,73800.0,-0.4106055796146393,-9.655217170715332,0.019153613597154617
669,73900.0,-0.3758896589279175,-9.693524360656738,-0.03711012750864029
670,74000.0,-0.3758896589279175,-9.693524360656738,-0.03711012750864029
671,74100.0,-0.3519476354122162,-9.684545516967773,0.029927521944046017
672,74200.0,-0.3519476354122162,-9.684545516967773,0.029927521944046017
673,74300.0,-0.3633201122283936,-9.657012939453123,0.0454898327589035
674,74400.0,-0.3633201122283936,-9.657012939453123,0.0454898327589035
675,74500.0,-0.3884592354297638,-9.662399291992188,0.06524199992418289
676,74600.0,-0.4357447028160095,-9.661202430725098,0.028131870552897453
677,74700.0,-0.4357447028160095,-9.661202430725098,0.028131870552897453
678,74800.0,-0.426167905330658,-9.682151794433594,0.0065840547904372215
679,74900.0,-0.426167905330658,-9.682151794433594,0.0065840547904372215
680,75000.0,-0.4339490532875061,-9.687539100646973,-0.03770867735147476
681,75100.0,-0.4339490532875061,-9.687539100646973,-0.03770867735147476
682,75200.0,-0.4273650050163269,-9.699509620666504,-0.044292733073234565
683,75300.0,-0.4273650050163269,-9.699509620666504,-0.044292733073234565
684,75400.0,-0.4279635548591614,-9.663596153259276,-0.061052143573760986
685,75500.0,-0.36391866207122797,-9.661202430725098,-0.041299980133771896
686,75600.0,-0.36391866207122797,-9.661202430725098,-0.041299980133771896
687,75700.0,-0.35913026332855225,-9.691728591918944,0.03292027488350868
688,75800.0,-0.35913026332855225,-9.691728591918944,0.03292027488350868
689,75900.0,-0.35075053572654724,-9.67077922821045,-0.04010287672281265
690,76000.0,-0.35075053572654724,-9.67077922821045,-0.04010287672281265
691,76100.0,-0.3286041915416717,-9.673771858215332,-0.038307227194309235
692,76200.0,-0.3286041915416717,-9.673771858215332,-0.038307227194309235
693,76300.0,-0.36391866207122797,-9.67077922821045,-0.013766659423708916
694,76400.0,-0.3423708379268646,-9.679757118225098,0.013766659423708916
695,76500.0,-0.3423708379268646,-9.679757118225098,0.013766659423708916
696,76600.0,-0.4225766062736511,-9.697115898132324,0.023343466222286224
697,76700.0,-0.4225766062736511,-9.697115898132324,0.023343466222286224
698,76800.0,-0.37529110908508295,-9.674968719482422,0.026336219161748886
699,76900.0,-0.37529110908508295,-9.674968719482422,0.026336219161748886
700,77000.0,-0.33997663855552673,-9.65222454071045,0.05386953800916672
701,77100.0,-0.33997663855552673,-9.65222454071045,0.05386953800916672
702,77200.0,-0.4165911078453064,-9.687539100646973,0.10534487664699554
703,77300.0,-0.33099839091300964,-9.578003883361816,0.008978256024420261
704,77400.0,-0.33099839091300964,-9.578003883361816,0.008978256024420261
705,77500.0,-0.465073674917221,-9.715670585632324,0.12868833541870114
706,77600.0,-0.465073674917221,-9.715670585632324,0.12868833541870114
707,77700.0,-0.3315969407558441,-9.672574996948242,0.03651157766580582
708,77800.0,-0.3315969407558441,-9.672574996948242,0.03651157766580582
709,77900.0,-0.3812766075134277,-9.68574333190918,0.038307227194309235
710,78000.0,-0.3812766075134277,-9.68574333190918,0.038307227194309235
711,78100.0,-0.3878606855869293,-9.62828254699707,0.0065840547904372215
712,78200.0,-0.3513490855693817,-9.716269493103027,-0.002394201699644327
713,78300.0,-0.3513490855693817,-9.716269493103027,-0.002394201699644327
714,78400.0,-0.314238965511322,-9.694122314453123,-0.0586579404771328
715,78500.0,-0.314238965511322,-9.694122314453123,-0.0586579404771328
716,78600.0,-0.4369418025016785,-9.674370765686037,0.09097966551780699
717,78700.0,-0.4369418025016785,-9.674370765686037,0.09097966551780699
718,78800.0,-0.3818751573562622,-9.676764488220217,0.11133038252592088
719,78900.0,-0.3818751573562622,-9.676764488220217,0.11133038252592088
720,79000.0,-0.44532153010368347,-9.698312759399414,0.13946224749088287
721,79100.0,-0.4746504724025726,-9.639654159545898,0.08140286058187485
722,79200.0,-0.4746504724025726,-9.639654159545898,0.08140286058187485
723,79300.0,-0.4746504724025726,-9.639654159545898,0.08140286058187485
724,79400.0,-0.5380968451499939,-9.819219589233398,-0.028730420395731926
725,79500.0,-0.5410895943641663,-9.74679470062256,0.02513911761343479
726,79600.0,-0.5410895943641663,-9.74679470062256,0.02513911761343479
727,79700.0,-0.5291185975074768,-9.71926212310791,0.07122749835252762
728,79800.0,-0.5291185975074768,-9.71926212310791,0.07122749835252762
729,79900.0,-0.14844051003456116,-9.657012939453123,-0.03292027488350868
730,80000.0,-0.4626794755458832,-9.691728591918944,-0.042497079819440835
731,80100.0,-0.4626794755458832,-9.691728591918944,-0.042497079819440835
732,80200.0,-0.3890577852725983,-9.733627319335938,0.034117374569177635
733,80300.0,-0.3890577852725983,-9.733627319335938,0.034117374569177635
734,80400.0,-0.3681085109710693,-9.674370765686037,0.0065840547904372215
735,80500.0,-0.3681085109710693,-9.674370765686037,0.0065840547904372215
736,80600.0,-0.4159925580024719,-9.652822494506836,0.04369417950510979
737,80700.0,-0.4159925580024719,-9.652822494506836,0.04369417950510979
738,80800.0,-0.3082534670829773,-9.668983459472656,0.047884032130241394
739,80900.0,-0.3274070918560028,-9.677961349487305,0.026336219161748886
740,81000.0,-0.3274070918560028,-9.677961349487305,0.026336219161748886
741,81100.0,-0.4381389021873474,-9.709086418151855,0.02274491637945175
742,81200.0,-0.4381389021873474,-9.709086418151855,0.02274491637945175
743,81300.0,-0.3770867586135864,-9.691129684448242,0.02454056777060032
744,81400.0,-0.3770867586135864,-9.691129684448242,0.02454056777060032
745,81500.0,-0.345363587141037,-9.662399291992188,-0.010175357572734356
746,81600.0,-0.345363587141037,-9.662399291992188,-0.010175357572734356
747,81700.0,-0.3866635859012604,-9.68813705444336,0.04489128291606903
748,81800.0,-0.3866635859012604,-9.68813705444336,0.04489128291606903
749,81900.0,-0.40462008118629456,-9.657012939453123,0.0071826050989329815
750,82000.0,-0.37169981002807617,-9.673172950744627,-0.014365210197865963
751,82100.0,-0.37169981002807617,-9.673172950744627,-0.014365210197865963
752,82200.0,-0.4339490532875061,-9.672574996948242,0.014963760972023009
753,82300.0,-0.4339490532875061,-9.672574996948242,0.014963760972023009
754,82400.0,-0.4315548539161682,-9.672574996948242,0.034117374569177635
755,82500.0,-0.4315548539161682,-9.672574996948242,0.034117374569177635
756,82600.0,-0.3740940093994141,-9.664793968200684,-0.03172317147254944
757,82700.0,-0.3740940093994141,-9.664793968200684,-0.03172317147254944
758,82800.0,-0.3824737071990967,-9.679757118225098,0.020350715145468712
759,82900.0,-0.3633201122283936,-9.677363395690918,0.07062894850969315
760,83000.0,-0.3633201122283936,-9.677363395690918,0.07062894850969315
761,83100.0,-0.3543418645858765,-9.699509620666504,0.08559270948171616
762,83200.0,-0.3543418645858765,-9.699509620666504,0.08559270948171616
763,83300.0,-0.3597288131713867,-9.674370765686037,0.09157821536064148
764,83400.0,-0.3597288131713867,-9.674370765686037,0.09157821536064148
765,83500.0,-0.3932476341724396,-9.663596153259276,0.03950432687997818
766,83600.0,-0.3872621357440949,-9.683947563171387,0.05506663769483566
767,83700.0,-0.3872621357440949,-9.683947563171387,0.05506663769483566
768,83800.0,-0.2980781197547913,-9.718064308166504,0.008978256024420261
769,83900.0,-0.2980781197547913,-9.718064308166504,0.008978256024420261
770,84000.0,-0.2669534981250763,-9.675567626953123,0.0586579404771328
771,84100.0,-0.2669534981250763,-9.675567626953123,0.0586579404771328
772,84200.0,-0.39145198464393616,-9.686341285705566,0.05925649031996728
773,84300.0,-0.39145198464393616,-9.686341285705566,0.05925649031996728
774,84400.0,-0.3669114112854004,-9.683348655700684,0.046088382601737976
775,84500.0,-0.3669114112854004,-9.683348655700684,0.046088382601737976
776,84600.0,-0.3693056106567383,-9.676166534423828,0.013168109580874443
777,84700.0,-0.3106476664543152,-9.701904296875,0.017956512048840526
778,84800.0,-0.3106476664543152,-9.701904296875,0.017956512048840526
779,84900.0,-0.4213795065879822,-9.668983459472656,0.009576806798577309
780,85000.0,-0.4213795065879822,-9.668983459472656,0.009576806798577309
781,85100.0,-0.17417816817760468,-9.734225273132324,-0.04189852997660637
782,85200.0,-0.17417816817760468,-9.734225273132324,-0.04189852997660637
783,85300.0,-0.35075053572654724,-9.649829864501953,0.012569558806717396
784,85400.0,-0.35075053572654724,-9.649829864501953,0.012569558806717396
785,85500.0,-0.3250128924846649,-9.70968532562256,-0.005985504016280174
786,85600.0,-0.3250128924846649,-9.717466354370117,0.016160860657691956
787,85700.0,-0.3250128924846649,-9.717466354370117,0.016160860657691956
788,85800.0,-0.2986766695976257,-9.665990829467773,-0.050876785069704056
789,85900.0,-0.2986766695976257,-9.665990829467773,-0.050876785069704056
790,86000.0,-0.3627215623855591,-9.675567626953123,0.06404489278793335
791,86100.0,-0.3627215623855591,-9.675567626953123,0.06404489278793335
792,86200.0,-0.26994624733924866,-9.651625633239746,-0.005386953707784414
793,86300.0,-0.26994624733924866,-9.651625633239746,-0.005386953707784414
794,86400.0,-0.3250128924846649,-9.673771858215332,0.040701430290937424
795,86500.0,-0.3693056106567383,-9.678560256958008,0.056263741105794914
796,86600.0,-0.3693056106567383,-9.678560256958008,0.056263741105794914
797,86700.0,-0.3016694188117981,-9.697713851928713,0.040701430290937424
798,86800.0,-0.3016694188117981,-9.697713851928713,0.040701430290937424
799,86900.0,-0.15023615956306458,-9.707290649414064,-0.07003039866685867
800,87000.0,-0.15023615956306458,-9.707290649414064,-0.07003039866685867
801,87100.0,-0.3256114423274994,-9.752182006835938,-0.02513911761343479
802,87200.0,-0.3256114423274994,-9.752182006835938,-0.02513911761343479
803,87300.0,-0.19033902883529666,-9.694721221923828,-0.08439560979604721
804,87400.0,-0.4782418012619018,-9.682151794433594,0.03112462162971497
805,87500.0,-0.4782418012619018,-9.682151794433594,0.03112462162971497
806,87600.0,-0.2190694510936737,-9.640851974487305,-0.028131870552897453
807,87700.0,-0.2190694510936737,-9.640851974487305,-0.028131870552897453
808,87800.0,-0.22505496442317965,-9.691728591918944,-0.016759412363171574
809,87900.0,-0.22505496442317965,-9.691728591918944,-0.016759412363171574
810,88000.0,-0.3579331636428833,-9.64923095703125,-0.16998831927776334
811,88100.0,-0.3579331636428833,-9.64923095703125,-0.16998831927776334
812,88200.0,-0.18974047899246216,-9.71926212310791,-0.038307227194309235
813,88300.0,-0.4321534037590027,-9.661202430725098,-0.10235211998224257
814,88400.0,-0.4321534037590027,-9.661202430725098,-0.10235211998224257
815,88500.0,-0.4734533727169037,-9.630077362060547,-0.1651999205350876
816,88600.0,-0.4734533727169037,-9.630077362060547,-0.1651999205350876
817,88700.0,-0.16879121959209442,-9.597756385803224,-0.0628477931022644
818,88800.0,-0.16879121959209442,-9.597756385803224,-0.0628477931022644
819,88900.0,-0.4435258507728577,-9.68933391571045,-0.1412578970193863
820,89000.0,-0.4435258507728577,-9.68933391571045,-0.1412578970193863
821,89100.0,-0.2017114907503128,-9.730634689331056,-0.12629413604736328
822,89200.0,-0.2352303117513657,-9.71926212310791,-0.1496376097202301
823,89300.0,-0.2352303117513657,-9.71926212310791,-0.1496376097202301
824,89400.0,-0.6685808300971985,-9.717466354370117,0.16998831927776334
825,89500.0,-0.6685808300971985,-9.717466354370117,0.16998831927776334
826,89600.0,-0.30047231912612915,-9.653421401977539,0.2406172752380371
827,89700.0,-0.30047231912612915,-9.653421401977539,0.2406172752380371
828,89800.0,-0.5285200476646423,-9.700108528137207,0.15562310814857486
829,89900.0,-0.5285200476646423,-9.700108528137207,0.15562310814857486
830,90000.0,-0.3878606855869293,-9.690531730651855,0.09217676520347597
831,90100.0,-0.3681085109710693,-9.682151794433594,0.04967968538403511
832,90200.0,-0.3681085109710693,-9.682151794433594,0.04967968538403511
833,90300.0,-0.3603273630142212,-9.59835433959961,-0.1107318252325058
834,90400.0,-0.3603273630142212,-9.59835433959961,-0.1107318252325058
835,90500.0,-0.16579847037792206,-9.625887870788574,-0.08858546614646913
836,90600.0,-0.16579847037792206,-9.625887870788574,-0.08858546614646913
837,90700.0,-0.14664486050605774,-9.729436874389648,-0.07422025501728058
838,90800.0,-0.14664486050605774,-9.729436874389648,-0.07422025501728058
839,90900.0,-0.15801730751991272,-9.719860076904297,-0.15981295704841614
840,91000.0,-0.2448071241378784,-9.67077922821045,-0.21966800093650815
841,91100.0,-0.2448071241378784,-9.67077922821045,-0.21966800093650815
842,91200.0,-0.3423708379268646,-9.707290649414064,-0.27653029561042786
843,91300.0,-0.3423708379268646,-9.707290649414064,-0.27653029561042786
844,91400.0,-0.2370259612798691,-9.70549488067627,-0.2047042399644852
845,91500.0,-0.2370259612798691,-9.70549488067627,-0.2047042399644852
846,91600.0,-0.5201402902603149,-9.582792282104492,-0.02513911761343479
847,91700.0,-0.5201402902603149,-9.582792282104492,-0.02513911761343479
848,91800.0,-0.2148796021938324,-9.657012939453123,-0.17717093229293826
849,91900.0,-0.16759411990642548,-9.716867446899414,-0.08080431073904037
850,92000.0,-0.16759411990642548,-9.716867446899414,-0.08080431073904037
851,92100.0,-0.4327519536018372,-9.726444244384766,-0.046088382601737976
852,92200.0,-0.4327519536018372,-9.726444244384766,-0.046088382601737976
853,92300.0,-0.27712884545326233,-9.604340553283693,-0.09935937076807022
854,92400.0,-0.27712884545326233,-9.604340553283693,-0.09935937076807022
855,92500.0,-0.3884592354297638,-9.642647743225098,-0.08978256583213806
856,92600.0,-0.3884592354297638,-9.642647743225098,-0.08978256583213806
857,92700.0,-0.4507084786891937,-9.736021041870117,-0.14006079733371735
858,92800.0,-0.3896563351154328,-9.724050521850586,-0.14365209639072418
859,92900.0,-0.3896563351154328,-9.724050521850586,-0.14365209639072418
860,93000.0,-0.3405751883983612,-9.65581512451172,-0.1256955862045288
861,93100.0,-0.3405751883983612,-9.65581512451172,-0.1256955862045288
862,93200.0,-0.3800795078277588,-9.667786598205566,-0.19632454216480252
863,93300.0,-0.3800795078277588,-9.667786598205566,-0.19632454216480252
864,93400.0,-0.3944447338581085,-9.672574996948242,-0.1849520802497864
865,93500.0,-0.3944447338581085,-9.672574996948242,-0.1849520802497864
866,93600.0,-0.3776853084564209,-9.688735961914064,-0.24600422382354736
867,93700.0,-0.3878606855869293,-9.707290649414064,-0.23104046285152435
868,93800.0,-0.3878606855869293,-9.707290649414064,-0.23104046285152435
869,93900.0,-0.25737667083740234,-9.665990829467773,-0.2304419130086899
870,94000.0,-0.25737667083740234,-9.665990829467773,-0.2304419130086899
871,94100.0,-0.43095630407333374,-9.674968719482422,-0.1041477769613266
872,94200.0,-0.43095630407333374,-9.674968719482422,-0.1041477769613266
873,94300.0,-0.4058171808719635,-9.692925453186037,-0.0867898091673851
874,94400.0,-0.4058171808719635,-9.692925453186037,-0.0867898091673851
875,94500.0,-0.3663128614425659,-9.680954933166504,-0.12270283699035645
876,94600.0,-0.3411737382411957,-9.659406661987305,-0.17956513166427612
877,94700.0,-0.3411737382411957,-9.659406661987305,-0.17956513166427612
878,94800.0,-0.37229835987091053,-9.654618263244627,-0.13946224749088287
879,94900.0,-0.37229835987091053,-9.654618263244627,-0.13946224749088287
880,95000.0,-0.3896563351154328,-9.683348655700684,-0.14844051003456116
881,95100.0,-0.3896563351154328,-9.683348655700684,-0.14844051003456116
882,95200.0,-0.3178302645683289,-9.660603523254396,-0.14844051003456116
883,95300.0,-0.3178302645683289,-9.660603523254396,-0.14844051003456116
884,95400.0,-0.3489548861980438,-9.694122314453123,-0.18315643072128296
885,95500.0,-0.2932897210121155,-9.683947563171387,-0.2358288615942001
886,95600.0,-0.2932897210121155,-9.683947563171387,-0.2358288615942001
887,95700.0,-0.3812766075134277,-9.613917350769043,-0.2489969730377197
888,95800.0,-0.3812766075134277,-9.613917350769043,-0.2489969730377197
889,95900.0,-0.2148796021938324,-9.665990829467773,-0.21607670187950132
890,96000.0,-0.2148796021938324,-9.665990829467773,-0.21607670187950132
891,96100.0,-0.3357867896556854,-9.688735961914064,-0.21667525172233584
892,96200.0,-0.3357867896556854,-9.688735961914064,-0.21667525172233584
893,96300.0,-0.284311443567276,-9.706093788146973,-0.12749123573303225
894,96400.0,-0.3016694188117981,-9.70968532562256,-0.11133038252592088
895,96500.0,-0.3016694188117981,-9.70968532562256,-0.11133038252592088
896,96600.0,-0.29568392038345337,-9.68574333190918,-0.16220717132091522
897,96700.0,-0.29568392038345337,-9.68574333190918,-0.16220717132091522
898,96800.0,-0.36511576175689703,-9.674370765686037,-0.11611878126859665
899,96900.0,-0.36511576175689703,-9.674370765686037,-0.11611878126859665
900,97000.0,-0.3118447661399841,-9.680954933166504,-0.1454477459192276
901,97100.0,-0.3118447661399841,-9.680954933166504,-0.1454477459192276
902,97200.0,-0.3627215623855591,-9.74679470062256,-0.12868833541870114
903,97300.0,-0.4255693554878235,-9.697115898132324,-0.12509703636169436
904,97400.0,-0.4255693554878235,-9.697115898132324,-0.12509703636169436
905,97500.0,-0.4255693554878235,-9.697115898132324,-0.12509703636169436
906,97600.0,-0.3351882398128509,-9.657012939453123,-0.1538274586200714
907,97700.0,-0.2968810200691223,-9.691129684448242,-0.14185644686222074
908,97800.0,-0.2968810200691223,-9.691129684448242,-0.14185644686222074
909,97900.0,-0.34416648745536804,-9.733627319335938,-0.11432313174009325
910,98000.0,-0.34416648745536804,-9.733627319335938,-0.11432313174009325
911,98100.0,-0.2675520479679108,-9.673771858215332,-0.1735796183347702
912,98200.0,-0.25258827209472656,-9.715670585632324,-0.12509703636169436
913,98300.0,-0.25258827209472656,-9.715670585632324,-0.12509703636169436
914,98400.0,-0.2950853705406189,-9.715670585632324,-0.15981295704841614
915,98500.0,-0.2950853705406189,-9.715670585632324,-0.15981295704841614
916,98600.0,-0.2561795711517334,-9.711481094360352,-0.08080431073904037
917,98700.0,-0.2561795711517334,-9.711481094360352,-0.08080431073904037
918,98800.0,-0.32620999217033386,-9.68813705444336,-0.028131870552897453
919,98900.0,-0.32620999217033386,-9.68813705444336,-0.028131870552897453
920,99000.0,-0.3357867896556854,-9.685144424438477,-0.10175357013940813
921,99100.0,-0.3645172119140625,-9.707889556884766,-0.040701430290937424
922,99200.0,-0.3645172119140625,-9.707889556884766,-0.040701430290937424
923,99300.0,-0.32022446393966675,-9.648633003234863,-0.09097966551780699
924,99400.0,-0.32022446393966675,-9.648633003234863,-0.09097966551780699
925,99500.0,-0.3423708379268646,-9.663596153259276,-0.06404489278793335
926,99600.0,-0.3423708379268646,-9.663596153259276,-0.06404489278793335
927,99700.0,-0.26815059781074524,-9.66299819946289,-0.16998831927776334
928,99800.0,-0.26815059781074524,-9.66299819946289,-0.16998831927776334
929,99900.0,-0.3100491166114807,-9.730634689331056,-0.07721300423145294
930,100000.0,-0.3549404144287109,-9.765350341796877,-0.11851298063993455
931,100100.0,-0.3549404144287109,-9.765350341796877,-0.11851298063993455
932,100200.0,-0.12629413604736328,-9.677363395690918,-0.055665191262960434
933,100300.0,-0.12629413604736328,-9.677363395690918,-0.055665191262960434
934,100400.0,-0.3956418335437775,-9.859322547912598,-0.29568392038345337
935,100500.0,-0.3956418335437775,-9.859322547912598,-0.29568392038345337
936,100600.0,-0.1951274424791336,-9.808445930480957,-0.2436100244522095
937,100700.0,-0.1951274424791336,-9.808445930480957,-0.2436100244522095
938,100800.0,-0.009576806798577309,-9.806650161743164,-0.3250128924846649
939,100900.0,-0.20231004059314728,-9.782708168029783,-0.2382230758666992
940,101000.0,-0.20231004059314728,-9.782708168029783,-0.2382230758666992
941,101100.0,-0.16879121959209442,-9.622296333312988,-0.1843535304069519
942,101200.0,-0.16879121959209442,-9.622296333312988,-0.1843535304069519
943,101300.0,-0.020949264988303185,-9.745597839355467,-0.11372458189725874
944,101400.0,-0.020949264988303185,-9.745597839355467,-0.11372458189725874
945,101500.0,-0.2059013396501541,-9.824007987976074,-0.1191115379333496
946,101600.0,-0.2059013396501541,-9.824007987976074,-0.1191115379333496
947,101700.0,-0.05267243832349777,-9.646238327026367,-0.15442600846290588
948,101800.0,-0.18974047899246216,-9.855731010437012,-0.2232593148946762
949,101900.0,-0.18974047899246216,-9.855731010437012,-0.2232593148946762
950,102000.0,-0.008379706181585789,-9.869498252868652,-0.5051765441894531
951,102100.0,-0.008379706181585789,-9.869498252868652,-0.5051765441894531
952,102200.0,0.041299980133771896,-9.693524360656738,-0.3746925592422485
953,102300.0,0.041299980133771896,-9.693524360656738,-0.3746925592422485
954,102400.0,-0.04010287672281265,-9.57321548461914,-0.27054479718208313
955,102500.0,-0.04010287672281265,-9.57321548461914,-0.27054479718208313
956,102600.0,0.07661445438861847,-9.647436141967773,-0.2693476974964142
957,102700.0,0.008978256024420261,-9.68574333190918,-0.323815792798996
958,102800.0,0.008978256024420261,-9.68574333190918,-0.323815792798996
959,102900.0,-0.056263741105794914,-9.773131370544434,-0.3477577865123749
960,103000.0,-0.056263741105794914,-9.773131370544434,-0.3477577865123749
961,103100.0,0.040701430290937424,-9.668983459472656,-0.44532153010368347
962,103200.0,0.040701430290937424,-9.668983459472656,-0.44532153010368347
963,103300.0,0.2561795711517334,-9.679757118225098,-0.2322375625371933
964,103400.0,0.2561795711517334,-9.679757118225098,-0.2322375625371933
965,103500.0,-0.07661445438861847,-9.659406661987305,-0.3878606855869293
966,103600.0,-0.07661445438861847,-9.659406661987305,-0.3878606855869293
967,103700.0,-0.10773907601833344,-9.70429801940918,-0.4399345517158508
968,103800.0,-0.3447650372982025,-9.700706481933594,-0.4620809257030487
969,103900.0,-0.3447650372982025,-9.700706481933594,-0.4620809257030487
970,104000.0,-0.19213469326496124,-9.87608242034912,-0.5728127360343933
971,104100.0,-0.19213469326496124,-9.87608242034912,-0.5728127360343933
972,104200.0,0.05746084079146385,-9.780313491821287,-1.1462240219116209
973,104300.0,0.05746084079146385,-9.780313491821287,-1.1462240219116209
974,104400.0,0.07541735470294952,-9.654019355773926,-0.9702502489089966
975,104500.0,0.07541735470294952,-9.654019355773926,-0.9702502489089966
976,104600.0,-0.062249243259429925,-9.641449928283693,-0.8816647529602051
977,104700.0,-0.13108254969120026,-9.598953247070312,-0.5195417404174805
978,104800.0,-0.13108254969120026,-9.598953247070312,-0.5195417404174805
979,104900.0,-0.4010287821292877,-9.651625633239746,-0.3519476354122162
980,105000.0,-0.4010287821292877,-9.651625633239746,-0.3519476354122162
981,105100.0,-0.15801730751991272,-9.68574333190918,-0.3064578175544739
982,105200.0,-0.15801730751991272,-9.68574333190918,-0.3064578175544739
983,105300.0,-0.015562310814857485,-9.619902610778807,-0.2759317457675934
984,105400.0,-0.015562310814857485,-9.619902610778807,-0.2759317457675934
985,105500.0,-0.17657238245010376,-9.723451614379883,-0.09516951441764833
986,105600.0,-0.2124854028224945,-9.639654159545898,0.047884032130241394
987,105700.0,-0.2124854028224945,-9.639654159545898,0.047884032130241394
988,105800.0,-0.16998831927776334,-9.62409210205078,0.028730420395731926
989,105900.0,-0.16998831927776334,-9.62409210205078,0.028730420395731926
990,106000.0,-0.2501940727233887,-9.67077922821045,0.12270283699035645
991,106100.0,-0.2501940727233887,-9.67077922821045,0.12270283699035645
992,106200.0,-0.2340332120656967,-9.689932823181152,0.08200141042470932
993,106300.0,-0.10654197633266448,-9.701305389404297,0.06883329898118973
994,106400.0,-0.10654197633266448,-9.701305389404297,0.06883329898118973
995,106500.0,-0.23762452602386475,-9.643844604492188,0.15921440720558167
996,106600.0,-0.23762452602386475,-9.643844604492188,0.15921440720558167
997,106700.0,-0.2735375463962555,-9.655217170715332,0.1107318252325058
998,106800.0,-0.2735375463962555,-9.655217170715332,0.1107318252325058
999,106900.0,-0.20709845423698425,-9.666589736938477,0.15442600846290588
1000,107000.0,-0.20709845423698425,-9.666589736938477,0.15442600846290588
1001,107100.0,-0.284311443567276,-9.734824180603027,0.05925649031996728
1002,107200.0,-0.284311443567276,-9.734824180603027,0.05925649031996728
1003,107300.0,-0.07302315533161162,-9.718663215637207,0.18195933103561399
1004,107400.0,-0.30047231912612915,-9.644442558288574,0.12689268589019775
1005,107500.0,-0.30047231912612915,-9.644442558288574,0.12689268589019775
1006,107600.0,-0.2017114907503128,-9.634267807006836,0.11671733111143112
1007,107700.0,-0.2017114907503128,-9.634267807006836,0.11671733111143112
1008,107800.0,-0.3621230125427246,-9.674968719482422,0.1562216579914093
1009,107900.0,-0.3621230125427246,-9.674968719482422,0.1562216579914093
1010,108000.0,-0.2849099934101105,-9.68274974822998,0.10833762586116792
1011,108100.0,-0.2849099934101105,-9.68274974822998,0.10833762586116792
1012,108200.0,-0.3345896899700165,-9.702502250671387,0.15442600846290588
1013,108300.0,-0.2675520479679108,-9.685144424438477,0.16101007163524628
1014,108400.0,-0.2675520479679108,-9.685144424438477,0.16101007163524628
1015,108500.0,-0.3579331636428833,-9.673771858215332,0.1346738487482071
1016,108600.0,-0.3579331636428833,-9.673771858215332,0.1346738487482071
1017,108700.0,-0.3435679376125336,-9.701904296875,0.1651999205350876
1018,108800.0,-0.3435679376125336,-9.701904296875,0.1651999205350876
1019,108900.0,-0.3531447649002075,-9.668384552001953,0.11851298063993455
1020,109000.0,-0.3531447649002075,-9.668384552001953,0.11851298063993455
1021,109100.0,-0.3878606855869293,-9.682151794433594,0.14903905987739566
1022,109200.0,-0.3321954905986786,-9.671976089477539,0.08978256583213806
1023,109300.0,-0.3321954905986786,-9.671976089477539,0.08978256583213806
1024,109400.0,-0.4273650050163269,-9.6803560256958,0.0957680642604828
1025,109500.0,-0.4273650050163269,-9.6803560256958,0.0957680642604828
1026,109600.0,-0.4088099300861359,-9.651625633239746,0.0293289702385664
1027,109700.0,-0.4088099300861359,-9.651625633239746,0.0293289702385664
1028,109800.0,-0.2968810200691223,-9.641449928283693,0.0454898327589035
1029,109900.0,-0.2968810200691223,-9.641449928283693,0.0454898327589035
1030,110000.0,-0.2920926213264465,-9.668384552001953,0.06643909960985184
1031,110100.0,-0.2519897222518921,-9.713874816894533,-0.05506663769483566
1032,110200.0,-0.2519897222518921,-9.713874816894533,-0.05506663769483566
1033,110300.0,-0.15801730751991272,-9.664793968200684,-0.050876785069704056
1034,110400.0,-0.15801730751991272,-9.664793968200684,-0.050876785069704056
1035,110500.0,-0.40462008118629456,-9.658807754516602,-0.05686229094862937
1036,110600.0,-0.40462008118629456,-9.658807754516602,-0.05686229094862937
1037,110700.0,-0.31543606519699097,-9.710882186889648,-0.040701430290937424
1038,110800.0,-0.31543606519699097,-9.710882186889648,-0.040701430290937424
1039,110900.0,-0.15981295704841614,-9.671976089477539,-0.3705027103424072
1040,111000.0,0.08798690885305405,-9.711481094360352,-0.033518824726343155
1041,111100.0,0.08798690885305405,-9.711481094360352,-0.033518824726343155
1042,111200.0,-0.3447650372982025,-9.723451614379883,-0.13108254969120026
1043,111300.0,-0.3447650372982025,-9.723451614379883,-0.13108254969120026
1044,111400.0,-0.35254621505737305,-9.697713851928713,-0.038307227194309235
1045,111500.0,-0.35254621505737305,-9.697713851928713,-0.038307227194309235
1046,111600.0,-0.3705027103424072,-9.723451614379883,-0.0628477931022644
1047,111700.0,-0.3705027103424072,-9.723451614379883,-0.0628477931022644
1048,111800.0,-0.35075053572654724,-9.64923095703125,-0.04369417950510979
1049,111900.0,-0.4519055783748626,-9.616311073303224,0.050876785069704056
1050,112000.0,-0.4519055783748626,-9.616311073303224,0.050876785069704056
1051,112100.0,-0.24600422382354736,-9.651625633239746,0.0011971008498221636
1052,112200.0,-0.24600422382354736,-9.651625633239746,0.0011971008498221636
1053,112300.0,-0.2693476974964142,-9.600749015808104,-0.06464344263076782
1054,112400.0,-0.2693476974964142,-9.600749015808104,-0.06464344263076782
1055,112500.0,-0.3806780576705933,-9.642647743225098,-0.0347159244120121
1056,112600.0,-0.3806780576705933,-9.642647743225098,-0.0347159244120121
1057,112700.0,-0.2998737692832947,-9.694721221923828,-0.0035913025494664907
1058,112800.0,-0.3064578175544739,-9.701305389404297,-0.09696517139673233
1059,112900.0,-0.3064578175544739,-9.701305389404297,-0.09696517139673233
1060,113000.0,-0.2759317457675934,-9.718663215637207,-0.04848258569836617
1061,113100.0,-0.2759317457675934,-9.718663215637207,-0.04848258569836617
1062,113200.0,-0.30286651849746704,-9.68274974822998,-0.06464344263076782
1063,113300.0,-0.30286651849746704,-9.68274974822998,-0.06464344263076782
1064,113400.0,-0.21607670187950132,-9.718064308166504,-0.07721300423145294
1065,113500.0,-0.21607670187950132,-9.718064308166504,-0.07721300423145294
1066,113600.0,-0.2537853717803955,-9.731831550598145,-0.08319851011037828
1067,113700.0,-0.20889410376548767,-9.6803560256958,-0.12330138683319093
1068,113800.0,-0.20889410376548767,-9.6803560256958,-0.12330138683319093
1069,113900.0,-0.2124854028224945,-9.687539100646973,-0.14365209639072418
1070,114000.0,-0.2124854028224945,-9.687539100646973,-0.14365209639072418
1071,114100.0,-0.2585737705230713,-9.722254753112793,-0.07003039866685867
1072,114200.0,-0.2585737705230713,-9.722254753112793,-0.07003039866685867
1073,114300.0,-0.2112883031368256,-9.700706481933594,-0.040701430290937424
1074,114400.0,-0.2112883031368256,-9.700706481933594,-0.040701430290937424
1075,114500.0,-0.2561795711517334,-9.679159164428713,-0.038307227194309235
1076,114600.0,-0.22385786473751068,-9.646238327026367,-0.03651157766580582
1077,114700.0,-0.22385786473751068,-9.646238327026367,-0.03651157766580582
1078,114800.0,-0.2849099934101105,-9.653421401977539,-0.020350715145468712
1079,114900.0,-0.2849099934101105,-9.653421401977539,-0.020350715145468712
1080,115000.0,-0.28311434388160706,-9.671976089477539,-0.009576806798577309
1081,115100.0,-0.28311434388160706,-9.671976089477539,-0.009576806798577309
1082,115200.0,-0.243011474609375,-9.657610893249512,0.016160860657691956
1083,115300.0,-0.243011474609375,-9.657610893249512,0.016160860657691956
1084,115400.0,-0.17238251864910126,-9.643844604492188,-0.04668693244457245
1085,115500.0,-0.3381809890270233,-9.646238327026367,-0.04668693244457245
1086,115600.0,-0.3381809890270233,-9.646238327026367,-0.04668693244457245
1087,115700.0,-0.20051439106464386,-9.660603523254396,-0.050876785069704056
1088,115800.0,-0.20051439106464386,-9.660603523254396,-0.050876785069704056
1089,115900.0,-0.2789244949817657,-9.663596153259276,0.012569558806717396
1090,116000.0,-0.2789244949817657,-9.663596153259276,0.012569558806717396
1091,116100.0,-0.22625206410884854,-9.701305389404297,0.07841010391712189
1092,116200.0,-0.22625206410884854,-9.701305389404297,0.07841010391712189
1093,116300.0,-0.2555810213088989,-9.627683639526367,0.13527239859104154
1094,116400.0,-0.25438392162323004,-9.66958236694336,0.14784196019172668
1095,116500.0,-0.25438392162323004,-9.66958236694336,0.14784196019172668
1096,116600.0,-0.2513911724090576,-9.685144424438477,0.15442600846290588
1097,116700.0,-0.2513911724090576,-9.685144424438477,0.15442600846290588
1098,116800.0,-0.3166331648826599,-9.702502250671387,0.16340427100658414
1099,116900.0,-0.3166331648826599,-9.702502250671387,0.16340427100658414
1100,117000.0,-0.14844051003456116,-9.675567626953123,0.10833762586116792
1101,117100.0,-0.14844051003456116,-9.675567626953123,0.10833762586116792
1102,117200.0,-0.20709845423698425,-9.698312759399414,0.1825578808784485
1103,117300.0,-0.2885012924671173,-9.66539192199707,0.13826514780521393
1104,117400.0,-0.2885012924671173,-9.66539192199707,0.13826514780521393
1105,117500.0,-0.25438392162323004,-9.68933391571045,0.07900865375995636
1106,117600.0,-0.25438392162323004,-9.68933391571045,0.07900865375995636
1107,117700.0,-0.15682020783424375,-9.6803560256958,0.08798690885305405
1108,117800.0,-0.15682020783424375,-9.6803560256958,0.08798690885305405
1109,117900.0,-0.3351882398128509,-9.673771858215332,0.15442600846290588
1110,118000.0,-0.3351882398128509,-9.673771858215332,0.15442600846290588
1111,118100.0,-0.20769700407981875,-9.651026725769043,0.14784196019172668
1112,118200.0,-0.3010708689689636,-9.702502250671387,0.10893617570400238
1113,118300.0,-0.3010708689689636,-9.702502250671387,0.10893617570400238
1114,118400.0,-0.2495955228805542,-9.65222454071045,0.07122749835252762
1115,118500.0,-0.2495955228805542,-9.65222454071045,0.07122749835252762
1116,118600.0,-0.30286651849746704,-9.698312759399414,0.11971008777618407
1117,118700.0,-0.30286651849746704,-9.698312759399414,0.11971008777618407
1118,118800.0,-0.2304419130086899,-9.688735961914064,0.09097966551780699
1119,118900.0,-0.2304419130086899,-9.688735961914064,0.09097966551780699
1120,119000.0,-0.22266076505184174,-9.728838920593262,0.0628477931022644
1121,119100.0,-0.17238251864910126,-9.679757118225098,0.0035913025494664907
1122,119200.0,-0.17238251864910126,-9.679757118225098,0.0035913025494664907
1123,119300.0,-0.26156654953956604,-9.685144424438477,0.10175357013940813
1124,119400.0,-0.26156654953956604,-9.685144424438477,0.10175357013940813
1125,119500.0,-0.3052607178688049,-9.678560256958008,0.1454477459192276
1126,119600.0,-0.3052607178688049,-9.678560256958008,0.1454477459192276
1127,119700.0,-0.333991140127182,-9.674370765686037,0.12868833541870114
1128,119800.0,-0.333991140127182,-9.674370765686037,0.12868833541870114
1129,119900.0,-0.24600422382354736,-9.658807754516602,0.1173158809542656
1130,120000.0,-0.2902969419956207,-9.643844604492188,0.12928688526153564
1131,120100.0,-0.2902969419956207,-9.643844604492188,0.12928688526153564
1132,120200.0,-0.2723404467105865,-9.668983459472656,0.07781155407428741
1133,120300.0,-0.2723404467105865,-9.668983459472656,0.07781155407428741
1134,120400.0,-0.3058592677116394,-9.668384552001953,0.08918401598930359
1135,120500.0,-0.3058592677116394,-9.668384552001953,0.08918401598930359
1136,120600.0,-0.3303998410701752,-9.707889556884766,0.09516951441764833
1137,120700.0,-0.3303998410701752,-9.707889556884766,0.09516951441764833
1138,120800.0,-0.3286041915416717,-9.654019355773926,0.020949264988303185
1139,120900.0,-0.27413609623909,-9.656414031982422,0.050876785069704056
1140,121000.0,-0.27413609623909,-9.656414031982422,0.050876785069704056
1141,121100.0,-0.2298433631658554,-9.691129684448242,0.09516951441764833
1142,121200.0,-0.2298433631658554,-9.691129684448242,0.09516951441764833
1143,121300.0,-0.1909375786781311,-9.668983459472656,-0.0041898530907928935
1144,121400.0,-0.1909375786781311,-9.668983459472656,-0.0041898530907928935
1145,121500.0,-0.2717418968677521,-9.692925453186037,0.14784196019172668
1146,121600.0,-0.2717418968677521,-9.692925453186037,0.14784196019172668
1147,121700.0,-0.5452794432640076,-9.570222854614258,-0.08140286058187485
1148,121800.0,-0.10474632680416107,-9.648633003234863,-0.0005985504249110818
1149,121900.0,-0.10474632680416107,-9.648633003234863,-0.0005985504249110818
1150,122000.0,-0.3501519858837128,-9.737217903137207,-0.043095629662275314
1151,122100.0,-0.3501519858837128,-9.737217903137207,-0.043095629662275314
1152,122200.0,-0.12629413604736328,-9.72165584564209,-0.0802057534456253
1153,122300.0,-0.12629413604736328,-9.72165584564209,-0.0802057534456253
1154,122400.0,-0.1867477297782898,-9.73661994934082,-0.14245499670505524
1155,122500.0,-0.1867477297782898,-9.73661994934082,-0.14245499670505524
1156,122600.0,-0.3734954595565796,-9.68813705444336,-0.09038111567497252
1157,122700.0,-0.37888240814208973,-9.598953247070312,-0.3190273642539978
1158,122800.0,-0.37888240814208973,-9.598953247070312,-0.3190273642539978
1159,122900.0,-0.16879121959209442,-9.85393524169922,-0.011971008032560349
1160,123000.0,-0.16879121959209442,-9.85393524169922,-0.011971008032560349
1161,123100.0,-0.2352303117513657,-9.682151794433594,0.04189852997660637
1162,123200.0,-0.2352303117513657,-9.682151794433594,0.04189852997660637
1163,123300.0,-0.13527239859104154,-9.674370765686037,-0.06703764945268631
1164,123400.0,-0.13527239859104154,-9.674370765686037,-0.06703764945268631
1165,123500.0,-0.12749123573303225,-9.673172950744627,-0.04908113554120064
1166,123600.0,-0.09816227108240128,-9.64923095703125,-0.04967968538403511
1167,123700.0,-0.09816227108240128,-9.64923095703125,-0.04967968538403511
1168,123800.0,-0.08080431073904037,-9.707290649414064,0.028730420395731926
1169,123900.0,-0.08080431073904037,-9.707290649414064,0.028730420395731926
1170,124000.0,-0.12928688526153564,-9.68813705444336,0.015562310814857485
1171,124100.0,-0.12928688526153564,-9.68813705444336,0.015562310814857485
1172,124200.0,-0.08379705995321274,-9.691728591918944,-0.033518824726343155
1173,124300.0,-0.08379705995321274,-9.691728591918944,-0.033518824726343155
1174,124400.0,-0.1562216579914093,-9.676764488220217,-0.04728548228740692
1175,124500.0,-0.1849520802497864,-9.665990829467773,-0.03950432687997818
1176,124600.0,-0.1849520802497864,-9.665990829467773,-0.03950432687997818
1177,124700.0,-0.1843535304069519,-9.642048835754396,0.0005985504249110818
1178,124800.0,-0.1843535304069519,-9.642048835754396,0.0005985504249110818
1179,124900.0,-0.17537526786327362,-9.675567626953123,-0.04908113554120064
1180,125000.0,-0.17537526786327362,-9.675567626953123,-0.04908113554120064
1181,125100.0,-0.13048399984836578,-9.668384552001953,-0.07182604819536209
1182,125200.0,-0.13048399984836578,-9.668384552001953,-0.07182604819536209
1183,125300.0,-0.14484919607639313,-9.68574333190918,-0.055665191262960434
1184,125400.0,-0.17178396880626678,-9.695320129394533,-0.0347159244120121
1185,125500.0,-0.17178396880626678,-9.695320129394533,-0.0347159244120121
1186,125600.0,-0.1759738177061081,-9.64683723449707,-0.0520738884806633
1187,125700.0,-0.1759738177061081,-9.64683723449707,-0.0520738884806633
1188,125800.0,-0.14365209639072418,-9.666589736938477,-0.05027823522686958
1189,125900.0,-0.14365209639072418,-9.666589736938477,-0.05027823522686958
1190,126000.0,-0.17238251864910126,-9.676166534423828,-0.058059390634298325
1191,126100.0,-0.17238251864910126,-9.676166534423828,-0.058059390634298325
1192,126200.0,-0.17657238245010376,-9.710283279418944,-0.010175357572734356
1193,126300.0,-0.17657238245010376,-9.710283279418944,-0.010175357572734356
1194,126400.0,-0.1604115068912506,-9.660603523254396,-0.05027823522686958
1195,126500.0,-0.13527239859104154,-9.6618013381958,-0.023942016065120697
1196,126600.0,-0.13527239859104154,-9.6618013381958,-0.023942016065120697
1197,126700.0,-0.16579847037792206,-9.677363395690918,-0.076015904545784
1198,126800.0,-0.16579847037792206,-9.677363395690918,-0.076015904545784
1199,126900.0,-0.15322890877723694,-9.693524360656738,-0.055665191262960434
1200,127000.0,-0.15322890877723694,-9.693524360656738,-0.055665191262960434
1201,127100.0,-0.15801730751991272,-9.69651699066162,-0.02753331884741783
1202,127200.0,-0.15801730751991272,-9.69651699066162,-0.02753331884741783
1203,127300.0,-0.16579847037792206,-9.65222454071045,-0.05027823522686958
1204,127400.0,-0.12270283699035645,-9.656414031982422,-0.062249243259429925
1205,127500.0,-0.12270283699035645,-9.656414031982422,-0.062249243259429925
1206,127600.0,-0.12090718746185306,-9.700706481933594,-0.043095629662275314
1207,127700.0,-0.12090718746185306,-9.700706481933594,-0.043095629662275314
1208,127800.0,-0.15023615956306458,-9.682151794433594,-0.04489128291606903
1209,127900.0,-0.15023615956306458,-9.682151794433594,-0.04489128291606903
1210,128000.0,-0.15502455830574036,-9.673172950744627,-0.0628477931022644
1211,128100.0,-0.15502455830574036,-9.673172950744627,-0.0628477931022644
1212,128200.0,-0.10354922711849213,-9.658209800720217,-0.0694318488240242
1213,128300.0,-0.12988543510437012,-9.674370765686037,-0.08319851011037828
1214,128400.0,-0.12988543510437012,-9.674370765686037,-0.08319851011037828
1215,128500.0,-0.11611878126859665,-9.68933391571045,-0.06643909960985184
1216,128600.0,-0.11611878126859665,-9.68933391571045,-0.06643909960985184
1217,128700.0,-0.12509703636169436,-9.673172950744627,-0.07062894850969315
1218,128800.0,-0.12509703636169436,-9.673172950744627,-0.07062894850969315
1219,128900.0,-0.14425064623355865,-9.679757118225098,-0.061052143573760986
1220,129000.0,-0.14425064623355865,-9.679757118225098,-0.061052143573760986
1221,129100.0,-0.12449848651885985,-9.658209800720217,-0.08499415963888167
1222,129200.0,-0.12749123573303225,-9.657610893249512,-0.07422025501728058
1223,129300.0,-0.12749123573303225,-9.657610893249512,-0.07422025501728058
1224,129400.0,-0.19632454216480252,-9.64803409576416,-0.040701430290937424
1225,129500.0,-0.19632454216480252,-9.64803409576416,-0.040701430290937424
1226,129600.0,-0.13287819921970367,-9.73123264312744,-0.1041477769613266
1227,129700.0,-0.13287819921970367,-9.73123264312744,-0.1041477769613266
1228,129800.0,-0.1646013706922531,-9.691129684448242,-0.10055647045373917
1229,129900.0,-0.1646013706922531,-9.691129684448242,-0.10055647045373917
1230,130000.0,-0.20530278980731964,-9.679757118225098,-0.07062894850969315
1231,130100.0,-0.1628057211637497,-9.660603523254396,-0.046088382601737976
1232,130200.0,-0.1628057211637497,-9.660603523254396,-0.046088382601737976
1233,130300.0,-0.15682020783424375,-9.675567626953123,-0.07122749835252762
1234,130400.0,-0.15682020783424375,-9.675567626953123,-0.07122749835252762
1235,130500.0,-0.16340427100658414,-9.660005569458008,-0.0520738884806633
1236,130600.0,-0.16340427100658414,-9.660005569458008,-0.0520738884806633
1237,130700.0,-0.24839842319488525,-9.657012939453123,-0.0011971008498221636
1238,130800.0,-0.24839842319488525,-9.657012939453123,-0.0011971008498221636
1239,130900.0,-0.2059013396501541,-9.686341285705566,-0.002992752008140087
1240,131000.0,-0.1538274586200714,-9.689932823181152,-0.06404489278793335
1241,131100.0,-0.1538274586200714,-9.689932823181152,-0.06404489278793335
1242,131200.0,-0.10833762586116792,-9.671378135681152,-0.14006079733371735
1243,131300.0,-0.10833762586116792,-9.671378135681152,-0.14006079733371735
1244,131400.0,0.016759412363171574,-9.642048835754396,-0.22685061395168304
1245,131500.0,0.016759412363171574,-9.642048835754396,-0.22685061395168304
1246,131600.0,0.08200141042470932,-9.70549488067627,-0.2382230758666992
1247,131700.0,0.08200141042470932,-9.70549488067627,-0.2382230758666992
1248,131800.0,0.16400282084941864,-9.694122314453123,-0.24420857429504395
1249,131900.0,0.08080431073904037,-9.715670585632324,-0.2537853717803955
1250,132000.0,0.08080431073904037,-9.715670585632324,-0.2537853717803955
1251,132100.0,0.029927521944046017,-9.688735961914064,-0.22026655077934265
1252,132200.0,0.029927521944046017,-9.688735961914064,-0.22026655077934265
1253,132300.0,-0.01735796220600605,-9.660603523254396,-0.27054479718208313
1254,132400.0,-0.01735796220600605,-9.660603523254396,-0.27054479718208313
1255,132500.0,-0.0454898327589035,-9.688735961914064,-0.2256535142660141
1256,132600.0,-0.0454898327589035,-9.688735961914064,-0.2256535142660141
1257,132700.0,-0.0586579404771328,-9.710283279418944,-0.20769700407981875
1258,132800.0,0.022146366536617283,-9.694122314453123,-0.21368250250816345
1259,132900.0,0.022146366536617283,-9.694122314453123,-0.21368250250816345
1260,133000.0,0.022146366536617283,-9.673172950744627,-0.17238251864910126
1261,133100.0,0.022146366536617283,-9.673172950744627,-0.17238251864910126
1262,133200.0,0.038307227194309235,-9.697713851928713,-0.18315643072128296
1263,133300.0,0.038307227194309235,-9.697713851928713,-0.18315643072128296
1264,133400.0,-0.012569558806717396,-9.6618013381958,-0.15083470940589905
1265,133500.0,-0.012569558806717396,-9.6618013381958,-0.15083470940589905
1266,133600.0,0.014963760972023009,-9.664793968200684,-0.21607670187950132
1267,133700.0,0.076015904545784,-9.666589736938477,-0.2148796021938324
1268,133800.0,0.076015904545784,-9.666589736938477,-0.2148796021938324
1269,133900.0,0.040701430290937424,-9.722254753112793,-0.2489969730377197
1270,134000.0,0.040701430290937424,-9.722254753112793,-0.2489969730377197
1271,134100.0,0.06584054976701736,-9.701305389404297,-0.262763649225235
1272,134200.0,0.06584054976701736,-9.701305389404297,-0.262763649225235
1273,134300.0,0.04848258569836617,-9.71267795562744,-0.2364274114370346
1274,134400.0,0.04848258569836617,-9.71267795562744,-0.2364274114370346
1275,134500.0,0.14365209639072418,-9.72824001312256,-0.3232172429561615
1276,134600.0,0.16819266974925995,-9.716867446899414,-0.3429693877696991
1277,134700.0,0.16819266974925995,-9.716867446899414,-0.3429693877696991
1278,134800.0,0.10295066982507706,-9.670180320739746,-0.15801730751991272
1279,134900.0,0.10295066982507706,-9.670180320739746,-0.15801730751991272
1280,135000.0,-0.0035913025494664907,-9.724050521850586,-0.18974047899246216
1281,135100.0,-0.0035913025494664907,-9.724050521850586,-0.18974047899246216
1282,135200.0,0.0005985504249110818,-9.660005569458008,-0.25318682193756104
1283,135300.0,0.0005985504249110818,-9.660005569458008,-0.25318682193756104
1284,135400.0,0.013168109580874443,-9.690531730651855,-0.3286041915416717
1285,135500.0,-0.005985504016280174,-9.747393608093262,-0.2501940727233887
1286,135600.0,-0.005985504016280174,-9.747393608093262,-0.2501940727233887
1287,135700.0,0.008379706181585789,-9.68274974822998,-0.13048399984836578
1288,135800.0,0.008379706181585789,-9.68274974822998,-0.13048399984836578
1289,135900.0,-0.06643909960985184,-9.636063575744627,-0.15801730751991272
1290,136000.0,-0.06643909960985184,-9.636063575744627,-0.15801730751991272
1291,136100.0,-0.13168109953403473,-9.674370765686037,-0.17477671802043915
1292,136200.0,-0.13168109953403473,-9.674370765686037,-0.17477671802043915
1293,136300.0,-0.09397241473197936,-9.693524360656738,-0.12629413604736328
1294,136400.0,-0.09457096457481384,-9.652822494506836,-0.07481880486011505
1295,136500.0,-0.09457096457481384,-9.652822494506836,-0.07481880486011505
1296,136600.0,-0.13706804811954498,-9.688735961914064,-0.011971008032560349
1297,136700.0,-0.13706804811954498,-9.688735961914064,-0.011971008032560349
1298,136800.0,0.0628477931022644,-9.691129684448242,0.03232172131538391
1299,136900.0,0.0628477931022644,-9.691129684448242,0.03232172131538391
1300,137000.0,-0.2537853717803955,-9.676764488220217,-0.09935937076807022
1301,137100.0,-0.2537853717803955,-9.676764488220217,-0.09935937076807022
1302,137200.0,0.014963760972023009,-9.62409210205078,-0.06883329898118973
1303,137300.0,-0.28311434388160706,-9.706692695617676,0.038905777037143714
1304,137400.0,-0.28311434388160706,-9.706692695617676,0.038905777037143714
1305,137500.0,-0.038307227194309235,-9.695320129394533,-0.12629413604736328
1306,137600.0,-0.038307227194309235,-9.695320129394533,-0.12629413604736328
1307,137700.0,-0.19632454216480252,-9.661202430725098,-0.08200141042470932
1308,137800.0,-0.19632454216480252,-9.661202430725098,-0.08200141042470932
1309,137900.0,-0.060453593730926514,-9.683348655700684,-0.07960720360279082
1310,138000.0,-0.060453593730926514,-9.683348655700684,-0.07960720360279082
1311,138100.0,-0.08439560979604721,-9.683947563171387,-0.07661445438861847
1312,138200.0,-0.09097966551780699,-9.694721221923828,-0.1041477769613266
1313,138300.0,-0.09097966551780699,-9.694721221923828,-0.1041477769613266
1314,138400.0,-0.05925649031996728,-9.698312759399414,-0.06524199992418289
1315,138500.0,-0.05925649031996728,-9.698312759399414,-0.06524199992418289
1316,138600.0,-0.0694318488240242,-9.679757118225098,-0.12330138683319093
1317,138700.0,-0.0694318488240242,-9.679757118225098,-0.12330138683319093
1318,138800.0,-0.10474632680416107,-9.683947563171387,-0.13347674906253815
1319,138900.0,-0.10474632680416107,-9.683947563171387,-0.13347674906253815
1320,139000.0,-0.0957680642604828,-9.676764488220217,-0.10654197633266448
1321,139100.0,-0.12270283699035645,-9.661202430725098,-0.08200141042470932
1322,139200.0,-0.12270283699035645,-9.661202430725098,-0.08200141042470932
1323,139300.0,-0.09816227108240128,-9.682151794433594,-0.08559270948171616
1324,139400.0,-0.09816227108240128,-9.682151794433594,-0.08559270948171616
1325,139500.0,-0.19692309200763705,-9.668384552001953,-0.0999579206109047
1326,139600.0,-0.19692309200763705,-9.668384552001953,-0.0999579206109047
1327,139700.0,-0.1173158809542656,-9.690531730651855,-0.08559270948171616
1328,139800.0,-0.1173158809542656,-9.690531730651855,-0.08559270948171616
1329,139900.0,-0.21607670187950132,-9.694122314453123,-0.09516951441764833
1330,140000.0,-0.1651999205350876,-9.653421401977539,-0.11372458189725874
1331,140100.0,-0.1651999205350876,-9.653421401977539,-0.11372458189725874
1332,140200.0,-0.1993172913789749,-9.677363395690918,-0.08619125932455063
1333,140300.0,-0.1993172913789749,-9.677363395690918,-0.08619125932455063
1334,140400.0,-0.1843535304069519,-9.678560256958008,-0.05147533491253853
1335,140500.0,-0.1843535304069519,-9.678560256958008,-0.05147533491253853
1336,140600.0,-0.20769700407981875,-9.676764488220217,-0.03591302409768105
1337,140700.0,-0.20769700407981875,-9.676764488220217,-0.03591302409768105
1338,140800.0,-0.17178396880626678,-9.679757118225098,-0.016160860657691956
1339,140900.0,-0.198120191693306,-9.668384552001953,-0.023942016065120697
1340,141000.0,-0.198120191693306,-9.668384552001953,-0.023942016065120697
1341,141100.0,-0.1999158412218094,-9.66419506072998,-0.019153613597154617
1342,141200.0,-0.1999158412218094,-9.66419506072998,-0.019153613597154617
1343,141300.0,-0.17956513166427612,-9.654618263244627,-0.05267243832349777
1344,141400.0,-0.17956513166427612,-9.654618263244627,-0.05267243832349777
1345,141500.0,-0.2082955539226532,-9.65581512451172,-0.02753331884741783
1346,141600.0,-0.2082955539226532,-9.65581512451172,-0.02753331884741783
1347,141700.0,-0.22445641458034515,-9.6989107131958,-0.059855043888092034
1348,141800.0,-0.1885433793067932,-9.677961349487305,-0.04967968538403511
1349,141900.0,-0.1885433793067932,-9.677961349487305,-0.04967968538403511
1350,142000.0,-0.18914192914962769,-9.660005569458008,-0.016759412363171574
1351,142100.0,-0.18914192914962769,-9.660005569458008,-0.016759412363171574
1352,142200.0,-0.21966800093650815,-9.658807754516602,-0.03950432687997818
1353,142300.0,-0.21966800093650815,-9.658807754516602,-0.03950432687997818
1354,142400.0,-0.2286462634801865,-9.66299819946289,-0.033518824726343155
1355,142500.0,-0.2286462634801865,-9.66299819946289,-0.033518824726343155
1356,142600.0,-0.2214636504650116,-9.67077922821045,-0.005985504016280174
1357,142700.0,-0.23343466222286224,-9.676764488220217,0.004788403399288654
1358,142800.0,-0.23343466222286224,-9.676764488220217,0.004788403399288654
1359,142900.0,-0.2370259612798691,-9.691129684448242,-0.012569558806717396
1360,143000.0,-0.2370259612798691,-9.691129684448242,-0.012569558806717396
1361,143100.0,-0.15801730751991272,-9.68274974822998,-0.0071826050989329815
1362,143200.0,-0.15801730751991272,-9.68274974822998,-0.0071826050989329815
1363,143300.0,-0.19393034279346466,-9.675567626953123,-0.014963760972023009
1364,143400.0,-0.19393034279346466,-9.675567626953123,-0.014963760972023009
1365,143500.0,-0.20290859043598172,-9.673771858215332,-0.05327098816633225
1366,143600.0,-0.15083470940589905,-9.66299819946289,-0.07182604819536209
1367,143700.0,-0.15083470940589905,-9.66299819946289,-0.07182604819536209
1368,143800.0,-0.15502455830574036,-9.676764488220217,-0.07781155407428741
1369,143900.0,-0.15502455830574036,-9.676764488220217,-0.07781155407428741
1370,144000.0,-0.18794482946395874,-9.66419506072998,-0.03711012750864029
1371,144100.0,-0.18794482946395874,-9.66419506072998,-0.03711012750864029
1372,144200.0,-0.1759738177061081,-9.662399291992188,-0.08738835901021957
1373,144300.0,-0.1759738177061081,-9.662399291992188,-0.08738835901021957
1374,144400.0,-0.2047042399644852,-9.6618013381958,-0.04668693244457245
1375,144500.0,-0.2112883031368256,-9.684545516967773,-0.06524199992418289
1376,144600.0,-0.2112883031368256,-9.684545516967773,-0.06524199992418289
1377,144700.0,-0.23283611238002774,-9.691129684448242,-0.043095629662275314
1378,144800.0,-0.23283611238002774,-9.691129684448242,-0.043095629662275314
1379,144900.0,-0.1885433793067932,-9.632472038269043,-0.1149216815829277
1380,145000.0,-0.1885433793067932,-9.632472038269043,-0.1149216815829277
1381,145100.0,-0.29388827085494995,-9.694721221923828,0.08619125932455063
1382,145200.0,-0.29388827085494995,-9.694721221923828,0.08619125932455063
1383,145300.0,-0.2352303117513657,-9.6989107131958,-0.062249243259429925
1384,145400.0,-0.2723404467105865,-9.66958236694336,-0.02454056777060032
1385,145500.0,-0.2723404467105865,-9.66958236694336,-0.02454056777060032
1386,145600.0,-0.2382230758666992,-9.700108528137207,-0.060453593730926514
1387,145700.0,-0.2382230758666992,-9.700108528137207,-0.060453593730926514
1388,145800.0,-0.18076223134994507,-9.664793968200684,-0.10055647045373917
1389,145900.0,-0.18076223134994507,-9.664793968200684,-0.10055647045373917
1390,146000.0,-0.2047042399644852,-9.687539100646973,-0.08319851011037828
1391,146100.0,-0.2047042399644852,-9.687539100646973,-0.08319851011037828
1392,146200.0,-0.1951274424791336,-9.683348655700684,-0.050876785069704056
1393,146300.0,-0.1604115068912506,-9.688735961914064,-0.0957680642604828
1394,146400.0,-0.1604115068912506,-9.688735961914064,-0.0957680642604828
1395,146500.0,-0.16101007163524628,-9.679159164428713,-0.09038111567497252
1396,146600.0,-0.16101007163524628,-9.679159164428713,-0.09038111567497252
1397,146700.0,-0.15263035893440247,-9.66539192199707,-0.0736217051744461
1398,146800.0,-0.15263035893440247,-9.66539192199707,-0.0736217051744461
1399,146900.0,-0.11611878126859665,-9.667187690734863,-0.1238999366760254
1400,147000.0,-0.11611878126859665,-9.667187690734863,-0.1238999366760254
1401,147100.0,-0.2059013396501541,-9.699509620666504,-0.016759412363171574
1402,147200.0,-0.12509703636169436,-9.701305389404297,-0.1191115379333496
1403,147300.0,-0.12509703636169436,-9.701305389404297,-0.1191115379333496
1404,147400.0,-0.1651999205350876,-9.701305389404297,-0.14245499670505524
1405,147500.0,-0.1651999205350876,-9.701305389404297,-0.14245499670505524
1406,147600.0,-0.20111294090747836,-9.665990829467773,-0.03770867735147476
1407,147700.0,-0.20111294090747836,-9.665990829467773,-0.03770867735147476
1408,147800.0,-0.14604631066322327,-9.68155288696289,-0.050876785069704056
1409,147900.0,-0.14604631066322327,-9.68155288696289,-0.050876785069704056
1410,148000.0,-0.2585737705230713,-9.651026725769043,-0.06524199992418289
1411,148100.0,-0.20889410376548767,-9.66299819946289,-0.0736217051744461
1412,148200.0,-0.20889410376548767,-9.66299819946289,-0.0736217051744461
1413,148300.0,-0.24181437492370605,-9.690531730651855,-0.0454898327589035
1414,148400.0,-0.24181437492370605,-9.690531730651855,-0.0454898327589035
1415,148500.0,-0.2603694200515747,-9.695320129394533,-0.05327098816633225
1416,148600.0,-0.2603694200515747,-9.695320129394533,-0.05327098816633225
1417,148700.0,-0.2424129247665405,-9.667786598205566,-0.011372458189725876
1418,148800.0,-0.2424129247665405,-9.667786598205566,-0.011372458189725876
1419,148900.0,-0.25318682193756104,-9.743802070617676,-0.042497079819440835
1420,149000.0,-0.25318682193756104,-9.743802070617676,-0.042497079819440835
1421,149100.0,-0.19572599232196808,-9.652822494506836,-0.011971008032560349
1422,149200.0,-0.15741875767707825,-9.665990829467773,-0.04967968538403511
1423,149300.0,-0.15741875767707825,-9.665990829467773,-0.04967968538403511
1424,149400.0,-0.16101007163524628,-9.711481094360352,-0.08200141042470932
1425,149500.0,-0.16101007163524628,-9.711481094360352,-0.08200141042470932
1426,149600.0,-0.2256535142660141,-9.676166534423828,0.011971008032560349
1427,149700.0,-0.2256535142660141,-9.676166534423828,0.011971008032560349
1428,149800.0,-0.15741875767707825,-9.667187690734863,-0.03232172131538391
1429,149900.0,-0.15741875767707825,-9.667187690734863,-0.03232172131538391
1430,150000.0,-0.1777694821357727,-9.6989107131958,-0.0017956512747332454
1431,150100.0,-0.1777694821357727,-9.67077922821045,-0.013168109580874443
1432,150200.0,-0.1777694821357727,-9.67077922821045,-0.013168109580874443
1433,150300.0,-0.19692309200763705,-9.679757118225098,-0.02513911761343479
1434,150400.0,-0.19692309200763705,-9.679757118225098,-0.02513911761343479
1435,150500.0,-0.21607670187950132,-9.6803560256958,0.011971008032560349
1436,150600.0,-0.21607670187950132,-9.6803560256958,0.011971008032560349
1437,150700.0,-0.2861070930957794,-9.68274974822998,0.02274491637945175
1438,150800.0,-0.2861070930957794,-9.68274974822998,0.02274491637945175
1439,150900.0,-0.2657563984394073,-9.6618013381958,0.03651157766580582
1440,151000.0,-0.19393034279346466,-9.657610893249512,-0.038905777037143714
1441,151100.0,-0.19393034279346466,-9.657610893249512,-0.038905777037143714
1442,151200.0,-0.21188685297966006,-9.668384552001953,-0.002992752008140087
1443,151300.0,-0.21188685297966006,-9.668384552001953,-0.002992752008140087
1444,151400.0,-0.1711854189634323,-9.670180320739746,-0.02753331884741783
1445,151500.0,-0.1711854189634323,-9.670180320739746,-0.02753331884741783
1446,151600.0,-0.23283611238002774,-9.674370765686037,0.016759412363171574
1447,151700.0,-0.23283611238002774,-9.674370765686037,0.016759412363171574
1448,151800.0,-0.2172738015651703,-9.691728591918944,-0.041299980133771896
1449,151900.0,-0.1759738177061081,-9.683947563171387,-0.0041898530907928935
1450,152000.0,-0.1759738177061081,-9.683947563171387,-0.0041898530907928935
1451,152100.0,-0.14784196019172668,-9.678560256958008,-0.02513911761343479
1452,152200.0,-0.14784196019172668,-9.678560256958008,-0.02513911761343479
1453,152300.0,-0.16998831927776334,-9.661202430725098,-0.06883329898118973
1454,152400.0,-0.16998831927776334,-9.661202430725098,-0.06883329898118973
1455,152500.0,-0.20231004059314728,-9.707290649414064,-0.07302315533161162
1456,152600.0,-0.20231004059314728,-9.707290649414064,-0.07302315533161162
1457,152700.0,-0.18794482946395874,-9.697115898132324,-0.06883329898118973
1458,152800.0,-0.08200141042470932,-9.667187690734863,-0.05506663769483566
1459,152900.0,-0.08200141042470932,-9.667187690734863,-0.05506663769483566
1460,153000.0,-0.17537526786327362,-9.673172950744627,-0.020350715145468712
1461,153100.0,-0.17537526786327362,-9.673172950744627,-0.020350715145468712
1462,153200.0,-0.20350714027881625,-9.685144424438477,-0.04489128291606903
1463,153300.0,-0.20350714027881625,-9.685144424438477,-0.04489128291606903
1464,153400.0,-0.198120191693306,-9.68813705444336,-0.0347159244120121
1465,153500.0,-0.198120191693306,-9.68813705444336,-0.0347159244120121
1466,153600.0,-0.1909375786781311,-9.69651699066162,-0.044292733073234565
1467,153700.0,-0.1364694982767105,-9.658807754516602,-0.08259996026754379
1468,153800.0,-0.1364694982767105,-9.658807754516602,-0.08259996026754379
1469,153900.0,-0.19871874153614044,-9.653421401977539,-0.06643909960985184
1470,154000.0,-0.19871874153614044,-9.653421401977539,-0.06643909960985184
1471,154100.0,-0.1651999205350876,-9.679757118225098,-0.05147533491253853
1472,154200.0,-0.1651999205350876,-9.679757118225098,-0.05147533491253853
1473,154300.0,-0.1909375786781311,-9.65222454071045,-0.030526071786880493
1474,154400.0,-0.1909375786781311,-9.65222454071045,-0.030526071786880493
1475,154500.0,-0.22086510062217712,-9.66299819946289,-0.06883329898118973
1476,154600.0,-0.2112883031368256,-9.694122314453123,-0.0293289702385664
1477,154700.0,-0.2112883031368256,-9.694122314453123,-0.0293289702385664
1478,154800.0,-0.19213469326496124,-9.674370765686037,-0.03232172131538391
1479,154900.0,-0.19213469326496124,-9.674370765686037,-0.03232172131538391
1480,155000.0,-0.18974047899246216,-9.701305389404297,0.018555063754320145
1481,155100.0,-0.18974047899246216,-9.701305389404297,0.018555063754320145
1482,155200.0,-0.22625206410884854,-9.68694019317627,-0.026336219161748886
1483,155300.0,-0.22625206410884854,-9.68694019317627,-0.026336219161748886
1484,155400.0,-0.21966800093650815,-9.676764488220217,-0.0065840547904372215
1485,155500.0,-0.18195933103561399,-9.647436141967773,-0.02274491637945175
1486,155600.0,-0.18195933103561399,-9.647436141967773,-0.02274491637945175
1487,155700.0,-0.2064998894929886,-9.672574996948242,-0.04728548228740692
1488,155800.0,-0.2064998894929886,-9.672574996948242,-0.04728548228740692
1489,155900.0,-0.19871874153614044,-9.698312759399414,-0.004788403399288654
1490,156000.0,-0.19871874153614044,-9.698312759399414,-0.004788403399288654
1491,156100.0,-0.20949265360832212,-9.686341285705566,-0.03591302409768105
1492,156200.0,-0.20949265360832212,-9.686341285705566,-0.03591302409768105
1493,156300.0,-0.1933317929506302,-9.693524360656738,-0.038307227194309235
1494,156400.0,-0.20290859043598172,-9.648633003234863,-0.013766659423708916
1495,156500.0,-0.20290859043598172,-9.648633003234863,-0.013766659423708916
1496,156600.0,-0.18375498056411746,-9.652822494506836,0.0017956512747332454
1497,156700.0,-0.18375498056411746,-9.652822494506836,0.0017956512747332454
1498,156800.0,-0.166995570063591,-9.682151794433594,-0.042497079819440835
1499,156900.0,-0.166995570063591,-9.682151794433594,-0.042497079819440835
1500,157000.0,-0.15801730751991272,-9.6618013381958,-0.0933738648891449
1501,157100.0,-0.15801730751991272,-9.6618013381958,-0.0933738648891449
1502,157200.0,-0.1843535304069519,-9.679159164428713,-0.061650693416595466
1503,157300.0,-0.20769700407981875,-9.68274974822998,-0.061650693416595466
1504,157400.0,-0.20769700407981875,-9.68274974822998,-0.061650693416595466
1505,157500.0,-0.20051439106464386,-9.691728591918944,-0.05686229094862937
1506,157600.0,-0.20051439106464386,-9.691728591918944,-0.05686229094862937
1507,157700.0,-0.13108254969120026,-9.651625633239746,-0.1041477769613266
1508,157800.0,-0.13108254969120026,-9.651625633239746,-0.1041477769613266
1509,157900.0,-0.22505496442317965,-9.653421401977539,-0.061650693416595466
1510,158000.0,-0.22505496442317965,-9.653421401977539,-0.061650693416595466
1511,158100.0,-0.22026655077934265,-9.667786598205566,-0.08080431073904037
1512,158200.0,-0.19692309200763705,-9.686341285705566,-0.03172317147254944
1513,158300.0,-0.19692309200763705,-9.686341285705566,-0.03172317147254944
1514,158400.0,-0.13706804811954498,-9.691129684448242,-0.07541735470294952
1515,158500.0,-0.13706804811954498,-9.691129684448242,-0.07541735470294952
1516,158600.0,-0.1777694821357727,-9.673771858215332,-0.0736217051744461
1517,158700.0,-0.1777694821357727,-9.673771858215332,-0.0736217051744461
1518,158800.0,-0.2567781209945679,-9.674370765686037,-0.05506663769483566
1519,158900.0,-0.2567781209945679,-9.674370765686037,-0.05506663769483566
1520,159000.0,-0.2256535142660141,-9.644442558288574,-0.020949264988303185
1521,159100.0,-0.17298106849193573,-9.678560256958008,-0.028131870552897453
1522,159200.0,-0.17298106849193573,-9.678560256958008,-0.028131870552897453
1523,159300.0,-0.1885433793067932,-9.685144424438477,-0.02753331884741783
1524,159400.0,-0.1885433793067932,-9.685144424438477,-0.02753331884741783
1525,159500.0,-0.22625206410884854,-9.667187690734863,-0.018555063754320145
1526,159600.0,-0.22625206410884854,-9.667187690734863,-0.018555063754320145
1527,159700.0,-0.1927332431077957,-9.683947563171387,0.010175357572734356
1528,159800.0,-0.1927332431077957,-9.683947563171387,0.010175357572734356
1529,159900.0,-0.1825578808784485,-9.665990829467773,-0.013168109580874443
1530,160000.0,-0.1586158573627472,-9.677363395690918,-0.026336219161748886
1531,160100.0,-0.1586158573627472,-9.677363395690918,-0.026336219161748886
1532,160200.0,-0.17836803197860718,-9.679757118225098,0.043095629662275314
1533,160300.0,-0.17836803197860718,-9.679757118225098,0.043095629662275314
1534,160400.0,-0.15442600846290588,-9.68574333190918,0.028730420395731926
1535,160500.0,-0.15442600846290588,-9.68574333190918,0.028730420395731926
1536,160600.0,-0.1777694821357727,-9.671976089477539,0.038307227194309235
1537,160700.0,-0.1777694821357727,-9.671976089477539,0.038307227194309235
1538,160800.0,-0.198120191693306,-9.710882186889648,0.0736217051744461
1539,160900.0,-0.15263035893440247,-9.6989107131958,0.04848258569836617
1540,161000.0,-0.15263035893440247,-9.6989107131958,0.04848258569836617
1541,161100.0,-0.17417816817760468,-9.674968719482422,0.043095629662275314
1542,161200.0,-0.17417816817760468,-9.674968719482422,0.043095629662275314
1543,161300.0,-0.14784196019172668,-9.676166534423828,0.061650693416595466
1544,161400.0,-0.14784196019172668,-9.676166534423828,0.061650693416595466
1545,161500.0,-0.1951274424791336,-9.672574996948242,0.05746084079146385
1546,161600.0,-0.1951274424791336,-9.672574996948242,0.05746084079146385
1547,161700.0,-0.2675520479679108,-9.683348655700684,0.07062894850969315
1548,161800.0,-0.228047713637352,-9.734225273132324,0.10235211998224257
1549,161900.0,-0.228047713637352,-9.734225273132324,0.10235211998224257
1550,162000.0,-0.2346317619085312,-9.65222454071045,0.076015904545784
1551,162100.0,-0.2346317619085312,-9.65222454071045,0.076015904545784
1552,162200.0,-0.3058592677116394,-9.657610893249512,0.20231004059314728
1553,162300.0,-0.3058592677116394,-9.657610893249512,0.20231004059314728
1554,162400.0,-0.2537853717803955,-9.67077922821045,0.09935937076807022
1555,162500.0,-0.2537853717803955,-9.67077922821045,0.09935937076807022
1556,162600.0,-0.2657563984394073,-9.692925453186037,0.1191115379333496
1557,162700.0,-0.2861070930957794,-9.65222454071045,0.13527239859104154
1558,162800.0,-0.2861070930957794,-9.65222454071045,0.13527239859104154
1559,162900.0,-0.33339259028434753,-9.6803560256958,0.1454477459192276
1560,163000.0,-0.33339259028434753,-9.6803560256958,0.1454477459192276
1561,163100.0,-0.3034650683403015,-9.66539192199707,0.1843535304069519
1562,163200.0,-0.3034650683403015,-9.66539192199707,0.1843535304069519
1563,163300.0,-0.2885012924671173,-9.66299819946289,0.1999158412218094
1564,163400.0,-0.2885012924671173,-9.66299819946289,0.1999158412218094
1565,163500.0,-0.28790274262428284,-9.673771858215332,0.18195933103561399
1566,163600.0,-0.32261869311332697,-9.622296333312988,0.1693897694349289
1567,163700.0,-0.32261869311332697,-9.622296333312988,0.1693897694349289
1568,163800.0,-0.2855085432529449,-9.692925453186037,0.17896658182144165
1569,163900.0,-0.2855085432529449,-9.692925453186037,0.17896658182144165
1570,164000.0,-0.32620999217033386,-9.694721221923828,0.1825578808784485
1571,164100.0,-0.32620999217033386,-9.694721221923828,0.1825578808784485
1572,164200.0,-0.3549404144287109,-9.701305389404297,0.11133038252592088
1573,164300.0,-0.3549404144287109,-9.701305389404297,0.11133038252592088
1574,164400.0,-0.3878606855869293,-9.676764488220217,0.1867477297782898
1575,164500.0,-0.30226796865463257,-9.6803560256958,0.198120191693306
1576,164600.0,-0.30226796865463257,-9.6803560256958,0.198120191693306
1577,164700.0,-0.3178302645683289,-9.687539100646973,0.16639702022075653
1578,164800.0,-0.3178302645683289,-9.687539100646973,0.16639702022075653
1579,164900.0,-0.2232593148946762,-9.694122314453123,0.11133038252592088
1580,165000.0,-0.2232593148946762,-9.694122314453123,0.11133038252592088
1581,165100.0,-0.22026655077934265,-9.676764488220217,0.0454898327589035
1582,165200.0,-0.22026655077934265,-9.676764488220217,0.0454898327589035
1583,165300.0,-0.15023615956306458,-9.650428771972656,-0.0293289702385664
1584,165400.0,-0.16101007163524628,-9.678560256958008,-0.0065840547904372215
1585,165500.0,-0.16101007163524628,-9.678560256958008,-0.0065840547904372215
1586,165600.0,-0.0975637212395668,-9.694122314453123,-0.07721300423145294
1587,165700.0,-0.0975637212395668,-9.694122314453123,-0.07721300423145294
1588,165800.0,-0.10594342648983003,-9.670180320739746,-0.013168109580874443
1589,165900.0,-0.10594342648983003,-9.670180320739746,-0.013168109580874443
1590,166000.0,-0.1191115379333496,-9.697115898132324,-0.042497079819440835
1591,166100.0,-0.1191115379333496,-9.697115898132324,-0.042497079819440835
1592,166200.0,-0.1562216579914093,-9.671976089477539,-0.011372458189725876
1593,166300.0,-0.13587094843387604,-9.657012939453123,-0.03651157766580582
1594,166400.0,-0.13587094843387604,-9.657012939453123,-0.03651157766580582
1595,166500.0,-0.08140286058187485,-9.635464668273926,-0.09876082092523576
1596,166600.0,-0.08140286058187485,-9.635464668273926,-0.09876082092523576
1597,166700.0,-0.09457096457481384,-9.654618263244627,-0.1759738177061081
1598,166800.0,-0.09457096457481384,-9.654618263244627,-0.1759738177061081
1599,166900.0,-0.15263035893440247,-9.703699111938477,-0.08738835901021957
1600,167000.0,-0.15263035893440247,-9.703699111938477,-0.08738835901021957
1601,167100.0,-0.2148796021938324,-9.67077922821045,-0.06703764945268631
1602,167200.0,-0.13527239859104154,-9.672574996948242,-0.10354922711849213
1603,167300.0,-0.13527239859104154,-9.672574996948242,-0.10354922711849213
1604,167400.0,-0.2861070930957794,-9.70310115814209,-0.07900865375995636
1605,167500.0,-0.2861070930957794,-9.70310115814209,-0.07900865375995636
1606,167600.0,-0.2777273952960968,-9.706093788146973,-0.04489128291606903
1607,167700.0,-0.2777273952960968,-9.706093788146973,-0.04489128291606903
1608,167800.0,-0.13048399984836578,-9.68694019317627,0.05027823522686958
1609,167900.0,-0.13048399984836578,-9.68694019317627,0.05027823522686958
1610,168000.0,-0.2819172441959381,-9.636661529541016,0.01735796220600605
1611,168100.0,-0.1975216418504715,-9.692327499389648,0.026336219161748886
1612,168200.0,-0.1975216418504715,-9.692327499389648,0.026336219161748886
1613,168300.0,-0.16400282084941864,-9.70549488067627,0.047884032130241394
1614,168400.0,-0.16400282084941864,-9.70549488067627,0.047884032130241394
1615,168500.0,-0.166995570063591,-9.672574996948242,0.05925649031996728
1616,168600.0,-0.166995570063591,-9.672574996948242,0.05925649031996728
1617,168700.0,-0.13168109953403473,-9.661202430725098,0.013766659423708916
1618,168800.0,-0.13168109953403473,-9.661202430725098,0.013766659423708916
1619,168900.0,-0.1238999366760254,-9.663596153259276,0.021547814831137657
1620,169000.0,-0.1238999366760254,-9.663596153259276,0.021547814831137657
1621,169100.0,-0.2190694510936737,-9.687539100646973,-0.014365210197865963
1622,169200.0,-0.1693897694349289,-9.687539100646973,-0.011372458189725876
1623,169300.0,-0.1693897694349289,-9.687539100646973,-0.011372458189725876
1624,169400.0,-0.08559270948171616,-9.687539100646973,-0.034117374569177635
1625,169500.0,-0.08559270948171616,-9.687539100646973,-0.034117374569177635
1626,169600.0,-0.12749123573303225,-9.688735961914064,0.014963760972023009
1627,169700.0,-0.12749123573303225,-9.688735961914064,0.014963760972023009
1628,169800.0,-0.17956513166427612,-9.627084732055664,-0.017956512048840526
1629,169900.0,-0.1628057211637497,-9.654019355773926,-0.011971008032560349
1630,170000.0,-0.1628057211637497,-9.654019355773926,-0.011971008032560349
1631,170100.0,-0.21607670187950132,-9.690531730651855,0.020949264988303185
1632,170200.0,-0.21607670187950132,-9.690531730651855,0.020949264988303185
1633,170300.0,-0.23163901269435885,-9.689932823181152,0.03172317147254944
1634,170400.0,-0.23163901269435885,-9.689932823181152,0.03172317147254944
1635,170500.0,-0.2406172752380371,-9.683348655700684,0.02753331884741783
1636,170600.0,-0.2406172752380371,-9.683348655700684,0.02753331884741783
1637,170700.0,-0.2124854028224945,-9.668384552001953,0.06823474913835527
1638,170800.0,-0.24660277366638186,-9.665990829467773,0.06823474913835527
1639,170900.0,-0.24660277366638186,-9.665990829467773,0.06823474913835527
1640,171000.0,-0.23762452602386475,-9.64923095703125,0.07900865375995636
1641,171100.0,-0.23762452602386475,-9.64923095703125,0.07900865375995636
1642,171200.0,-0.1430535465478897,-9.690531730651855,0.12629413604736328
1643,171300.0,-0.1430535465478897,-9.690531730651855,0.12629413604736328
1644,171400.0,-0.2112883031368256,-9.716867446899414,0.10235211998224257
1645,171500.0,-0.2112883031368256,-9.716867446899414,0.10235211998224257
1646,171600.0,-0.1801636815071106,-9.674370765686037,0.09157821536064148
1647,171700.0,-0.1801636815071106,-9.674370765686037,0.09157821536064148
1648,171800.0,-0.2495955228805542,-9.6618013381958,0.10953472554683684
1649,171900.0,-0.2537853717803955,-9.689932823181152,0.0867898091673851
