,timestamp,ax,ay,az
0,7000.0,-0.5793967843055725,-9.673172950744627,-0.1646013706922531
1,7100.0,-0.5793967843055725,-9.673172950744627,-0.1646013706922531
2,7200.0,-0.5793967843055725,-9.673172950744627,-0.1646013706922531
3,7300.0,-0.05327098816633225,-9.598953247070312,0.013168109580874443
4,7400.0,-0.33758243918418884,-9.708487510681152,0.2148796021938324
5,7500.0,-0.33758243918418884,-9.708487510681152,0.2148796021938324
6,7600.0,-0.3034650683403015,-9.654618263244627,0.10654197633266448
7,7700.0,-0.3034650683403015,-9.654618263244627,0.10654197633266448
8,7800.0,-0.35374331474304205,-9.653421401977539,0.12270283699035645
9,7900.0,-0.35374331474304205,-9.653421401977539,0.12270283699035645
10,8000.0,-0.456095427274704,-9.658209800720217,0.11791443079710008
11,8100.0,-0.456095427274704,-9.658209800720217,0.11791443079710008
12,8200.0,-0.3220201432704925,-9.673771858215332,0.13826514780521393
13,8300.0,-0.3866635859012604,-9.64683723449707,0.058059390634298325
14,8400.0,-0.3866635859012604,-9.64683723449707,0.058059390634298325
15,8500.0,-0.22685061395168304,-9.694122314453123,0.0975637212395668
16,8600.0,-0.22685061395168304,-9.694122314453123,0.0975637212395668
17,8700.0,-0.3956418335437775,-9.689932823181152,0.08918401598930359
18,8800.0,-0.3956418335437775,-9.689932823181152,0.08918401598930359
19,8900.0,-0.27653029561042786,-9.63067626953125,-0.002992752008140087
20,9000.0,-0.27653029561042786,-9.63067626953125,-0.002992752008140087
21,9100.0,-0.3495534360408783,-9.711481094360352,0.09397241473197936
22,9200.0,-0.3872621357440949,-9.59596061706543,0.04908113554120064
23,9300.0,-0.3872621357440949,-9.59596061706543,0.04908113554120064
24,9400.0,-0.30705636739730835,-9.640851974487305,0.09397241473197936
25,9500.0,-0.30705636739730835,-9.640851974487305,0.09397241473197936
26,9600.0,-0.3298012912273407,-9.621099472045898,0.03711012750864029
27,9700.0,-0.3298012912273407,-9.621099472045898,0.03711012750864029
28,9800.0,-0.38486793637275696,-9.651625633239746,0.020350715145468712
29,9900.0,-0.38486793637275696,-9.651625633239746,0.020350715145468712
30,10000.0,-0.3046621680259705,-9.666589736938477,-0.015562310814857485
31,10100.0,-0.3058592677116394,-9.686341285705566,0.005386953707784414
32,10200.0,-0.3058592677116394,-9.686341285705566,0.005386953707784414
33,10300.0,-0.27712884545326233,-9.697713851928713,-0.0041898530907928935
34,10400.0,-0.27712884545326233,-9.697713851928713,-0.0041898530907928935
35,10500.0,-0.2855085432529449,-9.671378135681152,-0.012569558806717396
36,10600.0,-0.2855085432529449,-9.671378135681152,-0.012569558806717396
37,10700.0,-0.2585737705230713,-9.651026725769043,-0.009576806798577309
38,10800.0,-0.2585737705230713,-9.651026725769043,-0.009576806798577309
39,10900.0,-0.2322375625371933,-9.703699111938477,-0.046088382601737976
40,11000.0,-0.24420857429504395,-9.677363395690918,-0.046088382601737976
41,11100.0,-0.24420857429504395,-9.677363395690918,-0.046088382601737976
42,11200.0,-0.20530278980731964,-9.679159164428713,-0.046088382601737976
43,11300.0,-0.20530278980731964,-9.679159164428713,-0.046088382601737976
44,11400.0,-0.198120191693306,-9.665990829467773,-0.06823474913835527
45,11500.0,-0.198120191693306,-9.665990829467773,-0.06823474913835527
46,11600.0,-0.14784196019172668,-9.71926212310791,-0.07900865375995636
47,11700.0,-0.14784196019172668,-9.71926212310791,-0.07900865375995636
48,11800.0,-0.1735796183347702,-9.670180320739746,-0.10893617570400238
49,11900.0,-0.15502455830574036,-9.639056205749512,-0.12928688526153564
50,12000.0,-0.15502455830574036,-9.639056205749512,-0.12928688526153564
51,12100.0,-0.292691171169281,-9.658209800720217,-0.08080431073904037
52,12200.0,-0.292691171169281,-9.658209800720217,-0.08080431073904037
53,12300.0,-0.3214215636253357,-9.667187690734863,-0.044292733073234565
54,12400.0,-0.3214215636253357,-9.667187690734863,-0.044292733073234565
55,12500.0,-0.28131869435310364,-9.673172950744627,-0.014365210197865963
56,12600.0,-0.28131869435310364,-9.673172950744627,-0.014365210197865963
57,12700.0,-0.2112883031368256,-9.706093788146973,-0.03172317147254944
58,12800.0,-0.2603694200515747,-9.64923095703125,-0.05386953800916672
59,12900.0,-0.2603694200515747,-9.64923095703125,-0.05386953800916672
60,13000.0,-0.3076549172401428,-9.640253067016602,-0.03770867735147476
61,13100.0,-0.3076549172401428,-9.640253067016602,-0.03770867735147476
62,13200.0,-0.2795230448246002,-9.683947563171387,-0.018555063754320145
63,13300.0,-0.2795230448246002,-9.683947563171387,-0.018555063754320145
64,13400.0,-0.2986766695976257,-9.653421401977539,0.017956512048840526
65,13500.0,-0.2986766695976257,-9.653421401977539,0.017956512048840526
66,13600.0,-0.3172317147254944,-9.637859344482422,-0.019153613597154617
67,13700.0,-0.2537853717803955,-9.627683639526367,-0.061052143573760986
68,13800.0,-0.2537853717803955,-9.627683639526367,-0.061052143573760986
69,13900.0,-0.24660277366638186,-9.699509620666504,-0.0065840547904372215
70,14000.0,-0.24660277366638186,-9.699509620666504,-0.0065840547904372215
71,14100.0,-0.3944447338581085,-9.674370765686037,0.014365210197865963
72,14200.0,-0.3944447338581085,-9.674370765686037,0.014365210197865963
73,14300.0,-0.24600422382354736,-9.62828254699707,-0.06344634294509888
74,14400.0,-0.24600422382354736,-9.62828254699707,-0.06344634294509888
75,14500.0,-0.2501940727233887,-9.641449928283693,-0.08259996026754379
76,14600.0,-0.3675099611282349,-9.670180320739746,0.11133038252592088
77,14700.0,-0.3675099611282349,-9.670180320739746,0.11133038252592088
78,14800.0,-0.3411737382411957,-9.64683723449707,-0.06584054976701736
79,14900.0,-0.3411737382411957,-9.64683723449707,-0.06584054976701736
80,15000.0,-0.3274070918560028,-9.570222854614258,-0.10354922711849213
81,15100.0,-0.3274070918560028,-9.570222854614258,-0.10354922711849213
82,15200.0,-0.06703764945268631,-9.704896926879883,0.015562310814857485
83,15300.0,-0.06703764945268631,-9.704896926879883,0.015562310814857485
84,15400.0,-0.2920926213264465,-9.742006301879883,-0.1346738487482071
85,15500.0,-0.1915361285209656,-9.640851974487305,-0.12030863761901855
86,15600.0,-0.1915361285209656,-9.640851974487305,-0.12030863761901855
87,15700.0,-0.24660277366638186,-9.639056205749512,-0.07661445438861847
88,15800.0,-0.24660277366638186,-9.639056205749512,-0.07661445438861847
89,15900.0,0.058059390634298325,-9.69651699066162,-0.14365209639072418
90,16000.0,0.058059390634298325,-9.69651699066162,-0.14365209639072418
91,16100.0,-0.3561375141143799,-9.684545516967773,0.0065840547904372215
92,16200.0,-0.3561375141143799,-9.684545516967773,0.0065840547904372215
93,16300.0,-0.17178396880626678,-9.667786598205566,-0.0628477931022644
94,16400.0,-0.22206220030784607,-9.670180320739746,-0.04848258569836617
95,16500.0,-0.22206220030784607,-9.670180320739746,-0.04848258569836617
96,16600.0,-0.2759317457675934,-9.634865760803224,-0.013168109580874443
97,16700.0,-0.2759317457675934,-9.634865760803224,-0.013168109580874443
98,16800.0,-0.3411737382411957,-9.64564037322998,0.017956512048840526
99,16900.0,-0.3411737382411957,-9.64564037322998,0.017956512048840526
100,17000.0,-0.33758243918418884,-9.66299819946289,0.06763619929552077
101,17100.0,-0.33758243918418884,-9.66299819946289,0.06763619929552077
102,17200.0,-0.27054479718208313,-9.634267807006836,0.08499415963888167
103,17300.0,-0.27054479718208313,-9.634267807006836,0.08499415963888167
104,17400.0,-0.32680854201316833,-9.647436141967773,0.07541735470294952
105,17500.0,-0.3381809890270233,-9.675567626953123,0.05925649031996728
106,17600.0,-0.3381809890270233,-9.675567626953123,0.05925649031996728
107,17700.0,-0.3633201122283936,-9.65581512451172,0.06404489278793335
108,17800.0,-0.3633201122283936,-9.65581512451172,0.06404489278793335
109,17900.0,-0.41778820753097534,-9.670180320739746,0.05386953800916672
110,18000.0,-0.41778820753097534,-9.670180320739746,0.05386953800916672
111,18100.0,-0.3118447661399841,-9.690531730651855,0.02693476900458336
112,18200.0,-0.3118447661399841,-9.690531730651855,0.02693476900458336
113,18300.0,-0.3280056416988373,-9.618106842041016,0.03112462162971497
114,18400.0,-0.32022446393966675,-9.677363395690918,0.14185644686222074
115,18500.0,-0.32022446393966675,-9.677363395690918,0.14185644686222074
116,18600.0,-0.465073674917221,-9.641449928283693,0.09217676520347597
117,18700.0,-0.465073674917221,-9.641449928283693,0.09217676520347597
118,18800.0,-0.36511576175689703,-9.63187313079834,0.059855043888092034
119,18900.0,-0.36511576175689703,-9.63187313079834,0.059855043888092034
120,19000.0,-0.33997663855552673,-9.671378135681152,0.047884032130241394
121,19100.0,-0.33997663855552673,-9.671378135681152,0.047884032130241394
122,19200.0,-0.3166331648826599,-9.645041465759276,0.010773907415568829
123,19300.0,-0.33279404044151306,-9.654618263244627,0.0957680642604828
124,19400.0,-0.33279404044151306,-9.654618263244627,0.0957680642604828
125,19500.0,-0.3675099611282349,-9.677363395690918,0.0999579206109047
126,19600.0,-0.3675099611282349,-9.677363395690918,0.0999579206109047
127,19700.0,-0.3286041915416717,-9.657012939453123,0.02513911761343479
128,19800.0,-0.3286041915416717,-9.657012939453123,0.02513911761343479
129,19900.0,-0.3166331648826599,-9.683947563171387,0.09157821536064148
130,20000.0,-0.3166331648826599,-9.683947563171387,0.09157821536064148
131,20100.0,-0.34656068682670593,-9.63187313079834,0.07422025501728058
132,20200.0,-0.3196259140968323,-9.712079048156738,0.038905777037143714
133,20300.0,-0.3196259140968323,-9.712079048156738,0.038905777037143714
134,20400.0,-0.3429693877696991,-9.642647743225098,0.026336219161748886
135,20500.0,-0.3429693877696991,-9.642647743225098,0.026336219161748886
136,20600.0,-0.3405751883983612,-9.673172950744627,0.03172317147254944
137,20700.0,-0.3405751883983612,-9.673172950744627,0.03172317147254944
138,20800.0,-0.2873041927814484,-9.710283279418944,-0.014963760972023009
139,20900.0,-0.2920926213264465,-9.700706481933594,-0.016160860657691956
140,21000.0,-0.2920926213264465,-9.700706481933594,-0.016160860657691956
141,21100.0,-0.23343466222286224,-9.68274974822998,-0.0071826050989329815
142,21200.0,-0.23343466222286224,-9.68274974822998,-0.0071826050989329815
143,21300.0,-0.2717418968677521,-9.642048835754396,-0.011372458189725876
144,21400.0,-0.2717418968677521,-9.642048835754396,-0.011372458189725876
145,21500.0,-0.2992752194404602,-9.6618013381958,0.020350715145468712
146,21600.0,-0.2992752194404602,-9.6618013381958,0.020350715145468712
147,21700.0,-0.3052607178688049,-9.650428771972656,0.07900865375995636
148,21800.0,-0.3052607178688049,-9.650428771972656,0.07900865375995636
149,21900.0,-0.262763649225235,-9.671378135681152,0.04369417950510979
150,22000.0,-0.2424129247665405,-9.654618263244627,0.013168109580874443
151,22100.0,-0.2424129247665405,-9.654618263244627,0.013168109580874443
152,22200.0,-0.23163901269435885,-9.658807754516602,0.059855043888092034
153,22300.0,-0.23163901269435885,-9.658807754516602,0.059855043888092034
154,22400.0,-0.21966800093650815,-9.668384552001953,0.0293289702385664
155,22500.0,-0.21966800093650815,-9.668384552001953,0.0293289702385664
156,22600.0,-0.32261869311332697,-9.682151794433594,0.07960720360279082
157,22700.0,-0.32261869311332697,-9.682151794433594,0.07960720360279082
158,22800.0,-0.3190273642539978,-9.657610893249512,0.06643909960985184
159,22900.0,-0.20290859043598172,-9.63187313079834,-0.08080431073904037
160,23000.0,-0.20290859043598172,-9.63187313079834,-0.08080431073904037
161,23100.0,-0.09217676520347597,-9.68155288696289,-0.2998737692832947
162,23200.0,-0.09217676520347597,-9.68155288696289,-0.2998737692832947
163,23300.0,-0.1322796493768692,-9.707889556884766,-0.2651578485965729
164,23400.0,-0.1322796493768692,-9.707889556884766,-0.2651578485965729
165,23500.0,-0.08738835901021957,-9.668983459472656,-0.15442600846290588
166,23600.0,-0.08738835901021957,-9.668983459472656,-0.15442600846290588
167,23700.0,-0.2472013235092163,-9.639056205749512,-0.11013327538967133
168,23800.0,-0.2106897532939911,-9.62828254699707,-0.0999579206109047
169,23900.0,-0.2106897532939911,-9.62828254699707,-0.0999579206109047
170,24000.0,-0.2274491637945175,-9.664793968200684,-0.0694318488240242
171,24100.0,-0.2274491637945175,-9.664793968200684,-0.0694318488240242
172,24200.0,-0.16998831927776334,-9.636661529541016,-0.03591302409768105
173,24300.0,-0.16998831927776334,-9.636661529541016,-0.03591302409768105
174,24400.0,-0.19213469326496124,-9.666589736938477,-0.028131870552897453
175,24500.0,-0.19213469326496124,-9.666589736938477,-0.028131870552897453
176,24600.0,-0.21368250250816345,-9.654019355773926,-0.13527239859104154
177,24700.0,-0.20111294090747836,-9.660005569458008,-0.14065934717655182
178,24800.0,-0.20111294090747836,-9.660005569458008,-0.14065934717655182
179,24900.0,-0.2124854028224945,-9.654019355773926,-0.1238999366760254
180,25000.0,-0.2124854028224945,-9.654019355773926,-0.1238999366760254
181,25100.0,-0.24181437492370605,-9.631275177001953,-0.07062894850969315
182,25200.0,-0.24181437492370605,-9.631275177001953,-0.07062894850969315
183,25300.0,-0.21308395266532895,-9.643245697021484,-0.13527239859104154
184,25400.0,-0.21308395266532895,-9.643245697021484,-0.13527239859104154
185,25500.0,-0.2501940727233887,-9.666589736938477,-0.05267243832349777
186,25600.0,-0.3178302645683289,-9.61212158203125,-0.08439560979604721
187,25700.0,-0.3178302645683289,-9.61212158203125,-0.08439560979604721
188,25800.0,-0.29388827085494995,-9.64683723449707,-0.0065840547904372215
189,25900.0,-0.29388827085494995,-9.64683723449707,-0.0065840547904372215
190,26000.0,-0.3280056416988373,-9.665990829467773,-0.04189852997660637
191,26100.0,-0.3280056416988373,-9.665990829467773,-0.04189852997660637
192,26200.0,-0.2855085432529449,-9.619902610778807,0.04728548228740692
193,26300.0,-0.2855085432529449,-9.619902610778807,0.04728548228740692
194,26400.0,-0.3830722570419312,-9.68274974822998,0.02513911761343479
195,26500.0,-0.34596213698387146,-9.63726043701172,0.023942016065120697
196,26600.0,-0.34596213698387146,-9.63726043701172,0.023942016065120697
197,26700.0,-0.3447650372982025,-9.647436141967773,-0.029927521944046017
198,26800.0,-0.3447650372982025,-9.647436141967773,-0.029927521944046017
199,26900.0,-0.42437225580215454,-9.63726043701172,0.04010287672281265
200,27000.0,-0.42437225580215454,-9.63726043701172,0.04010287672281265
201,27100.0,-0.3675099611282349,-9.671976089477539,0.04369417950510979
202,27200.0,-0.3675099611282349,-9.671976089477539,0.04369417950510979
203,27300.0,-0.4620809257030487,-9.71267795562744,0.011971008032560349
204,27400.0,-0.4896142482757568,-9.543288230895996,0.1215057373046875
205,27500.0,-0.4896142482757568,-9.543288230895996,0.1215057373046875
206,27600.0,0.021547814831137657,-9.922170639038086,-0.05327098816633225
207,27700.0,0.021547814831137657,-9.922170639038086,-0.05327098816633225
208,27800.0,-0.5722141861915588,-9.707290649414064,0.07122749835252762
209,27900.0,-0.5722141861915588,-9.707290649414064,0.07122749835252762
210,28000.0,-0.2064998894929886,-9.6618013381958,-0.026336219161748886
211,28100.0,-0.2064998894929886,-9.6618013381958,-0.026336219161748886
212,28200.0,-0.6649895310401917,-9.667786598205566,0.08798690885305405
213,28300.0,-0.19393034279346466,-9.631275177001953,-0.11971008777618407
214,28400.0,-0.19393034279346466,-9.631275177001953,-0.11971008777618407
215,28500.0,-0.4207809567451477,-9.668384552001953,-0.062249243259429925
216,28600.0,-0.4207809567451477,-9.668384552001953,-0.062249243259429925
217,28700.0,-0.3597288131713867,-9.654618263244627,-0.05267243832349777
218,28800.0,-0.3597288131713867,-9.654618263244627,-0.05267243832349777
219,28900.0,-0.2190694510936737,-9.710882186889648,-0.04189852997660637
220,29000.0,-0.2190694510936737,-9.710882186889648,-0.04189852997660637
221,29100.0,-0.3728969097137451,-9.72824001312256,-0.0065840547904372215
222,29200.0,-0.3321954905986786,-9.633668899536133,-0.03232172131538391
223,29300.0,-0.3321954905986786,-9.633668899536133,-0.03232172131538391
224,29400.0,-0.2472013235092163,-9.65581512451172,0.025737667456269264
225,29500.0,-0.2472013235092163,-9.65581512451172,0.025737667456269264
226,29600.0,-0.37229835987091053,-9.672574996948242,0.04668693244457245
227,29700.0,-0.37229835987091053,-9.672574996948242,0.04668693244457245
228,29800.0,-0.2657563984394073,-9.677363395690918,-0.10354922711849213
229,29900.0,-0.2657563984394073,-9.677363395690918,-0.10354922711849213
230,30000.0,-0.3280056416988373,-9.52473258972168,-0.09097966551780699
231,30100.0,-0.3621230125427246,-9.706692695617676,0.04189852997660637
232,30200.0,-0.3621230125427246,-9.706692695617676,0.04189852997660637
233,30300.0,-0.2298433631658554,-9.663596153259276,-0.08978256583213806
234,30400.0,-0.2298433631658554,-9.663596153259276,-0.08978256583213806
235,30500.0,-0.426167905330658,-9.713275909423828,-0.05446808785200119
236,30600.0,-0.426167905330658,-9.713275909423828,-0.05446808785200119
237,30700.0,-0.2364274114370346,-9.582792282104492,-0.04010287672281265
238,30800.0,-0.2364274114370346,-9.582792282104492,-0.04010287672281265
239,30900.0,-0.3166331648826599,-9.617507934570312,-0.076015904545784
240,31000.0,-0.396240383386612,-9.660005569458008,-0.10235211998224257
241,31100.0,-0.396240383386612,-9.660005569458008,-0.10235211998224257
242,31200.0,-0.2382230758666992,-9.693524360656738,-0.11312603205442427
243,31300.0,-0.2382230758666992,-9.693524360656738,-0.11312603205442427
244,31400.0,-0.28371289372444153,-9.695918083190918,-0.11432313174009325
245,31500.0,-0.28371289372444153,-9.695918083190918,-0.11432313174009325
246,31600.0,-0.3100491166114807,-9.75637149810791,-0.05147533491253853
247,31700.0,-0.3100491166114807,-9.75637149810791,-0.05147533491253853
248,31800.0,-0.38367083668708796,-9.747393608093262,-0.013168109580874443
249,31900.0,-0.2495955228805542,-9.636063575744627,-0.06763619929552077
250,32000.0,-0.2495955228805542,-9.636063575744627,-0.06763619929552077
251,32100.0,-0.3890577852725983,-9.706692695617676,0.02513911761343479
252,32200.0,-0.3890577852725983,-9.706692695617676,0.02513911761343479
253,32300.0,-0.3944447338581085,-9.656414031982422,-0.002394201699644327
254,32400.0,-0.3944447338581085,-9.656414031982422,-0.002394201699644327
255,32500.0,-0.4531026780605316,-9.657012939453123,0.010175357572734356
256,32600.0,-0.4531026780605316,-9.657012939453123,0.010175357572734356
257,32700.0,-0.2992752194404602,-9.700108528137207,0.0011971008498221636
258,32800.0,-0.3357867896556854,-9.657610893249512,-0.0005985504249110818
259,32900.0,-0.3357867896556854,-9.657610893249512,-0.0005985504249110818
260,33000.0,-0.4016273319721222,-9.679159164428713,-0.04010287672281265
261,33100.0,-0.4016273319721222,-9.679159164428713,-0.04010287672281265
262,33200.0,-0.4028244316577912,-9.70429801940918,-0.10354922711849213
263,33300.0,-0.4028244316577912,-9.70429801940918,-0.10354922711849213
264,33400.0,-0.43095630407333374,-9.679159164428713,-0.12210428714752194
265,33500.0,-0.43095630407333374,-9.679159164428713,-0.12210428714752194
266,33600.0,-0.33339259028434753,-9.671976089477539,-0.13946224749088287
267,33700.0,-0.3579331636428833,-9.663596153259276,-0.15502455830574036
268,33800.0,-0.3579331636428833,-9.663596153259276,-0.15502455830574036
269,33900.0,-0.465073674917221,-9.66419506072998,-0.17896658182144165
270,34000.0,-0.465073674917221,-9.66419506072998,-0.17896658182144165
271,34100.0,-0.3543418645858765,-9.66539192199707,-0.1346738487482071
272,34200.0,-0.3543418645858765,-9.66539192199707,-0.1346738487482071
273,34300.0,-0.4698620736598969,-9.677961349487305,-0.1538274586200714
274,34400.0,-0.4698620736598969,-9.677961349487305,-0.1538274586200714
275,34500.0,-0.3938461840152741,-9.65222454071045,-0.16879121959209442
276,34600.0,-0.4932055473327637,-9.79288387298584,-0.2382230758666992
277,34700.0,-0.4932055473327637,-9.79288387298584,-0.2382230758666992
278,34800.0,-0.3824737071990967,-9.6618013381958,-0.1933317929506302
279,34900.0,-0.3824737071990967,-9.6618013381958,-0.1933317929506302
280,35000.0,-0.4938040971755981,-9.689932823181152,-0.16160862147808075
281,35100.0,-0.4938040971755981,-9.689932823181152,-0.16160862147808075
282,35200.0,-0.5105634927749634,-9.6989107131958,-0.12210428714752194
283,35300.0,-0.5105634927749634,-9.6989107131958,-0.12210428714752194
284,35400.0,-0.4459200799465179,-9.644442558288574,-0.004788403399288654
285,35500.0,-0.6177040338516235,-9.643245697021484,-0.1215057373046875
286,35600.0,-0.6177040338516235,-9.643245697021484,-0.1215057373046875
287,35700.0,-0.4070142805576325,-9.62409210205078,-0.02753331884741783
288,35800.0,-0.4070142805576325,-9.62409210205078,-0.02753331884741783
289,35900.0,-0.4824316501617432,-9.726444244384766,0.11851298063993455
290,36000.0,-0.4824316501617432,-9.726444244384766,0.11851298063993455
291,36100.0,-0.579995334148407,-9.649829864501953,0.08499415963888167
292,36200.0,-0.579995334148407,-9.649829864501953,0.08499415963888167
293,36300.0,-0.5273229479789734,-9.692925453186037,0.13706804811954498
294,36400.0,-0.5614402890205383,-9.606734275817873,0.06763619929552077
295,36500.0,-0.5614402890205383,-9.606734275817873,0.06763619929552077
296,36600.0,-0.5003881454467773,-9.654618263244627,0.04967968538403511
297,36700.0,-0.5003881454467773,-9.654618263244627,0.04967968538403511
298,36800.0,-0.5009866952896118,-9.596558570861816,0.044292733073234565
299,36900.0,-0.5009866952896118,-9.596558570861816,0.044292733073234565
300,37000.0,-0.4638765752315521,-9.57979965209961,0.061650693416595466
301,37100.0,-0.4638765752315521,-9.57979965209961,0.061650693416595466
302,37200.0,-0.4357447028160095,-9.718064308166504,-0.13048399984836578
303,37300.0,-0.4357447028160095,-9.718064308166504,-0.13048399984836578
304,37400.0,-0.5045779943466187,-9.70549488067627,-0.009576806798577309
305,37500.0,-0.4602852761745453,-9.682151794433594,0.04728548228740692
306,37600.0,-0.4602852761745453,-9.682151794433594,0.04728548228740692
307,37700.0,-0.4489128291606903,-9.68274974822998,0.18734627962112427
308,37800.0,-0.4489128291606903,-9.68274974822998,0.18734627962112427
309,37900.0,-0.6685808300971985,-9.656414031982422,0.18315643072128296
310,38000.0,-0.6685808300971985,-9.656414031982422,0.18315643072128296
311,38100.0,-0.4345476031303406,-9.660603523254396,0.13287819921970367
312,38200.0,-0.4345476031303406,-9.660603523254396,0.13287819921970367
313,38300.0,-0.535702645778656,-9.558850288391113,0.14185644686222074
314,38400.0,-0.4806360006332398,-9.612719535827637,0.10773907601833344
315,38500.0,-0.4806360006332398,-9.612719535827637,0.10773907601833344
316,38600.0,-0.5835866928100586,-9.550470352172852,0.10654197633266448
317,38700.0,-0.5835866928100586,-9.550470352172852,0.10654197633266448
318,38800.0,-0.518943190574646,-9.667786598205566,0.1041477769613266
319,38900.0,-0.518943190574646,-9.667786598205566,0.1041477769613266
320,39000.0,-0.4866214990615845,-9.66539192199707,-0.005386953707784414
321,39100.0,-0.4866214990615845,-9.66539192199707,-0.005386953707784414
322,39200.0,-0.5165489912033081,-9.691728591918944,-0.09457096457481384
323,39300.0,-0.4357447028160095,-9.563039779663086,-0.013168109580874443
324,39400.0,-0.4357447028160095,-9.563039779663086,-0.013168109580874443
325,39500.0,-0.4788403511047363,-9.671976089477539,0.014365210197865963
326,39600.0,-0.4788403511047363,-9.671976089477539,0.014365210197865963
327,39700.0,-0.5081692934036255,-9.64564037322998,-0.1562216579914093
328,39800.0,-0.5081692934036255,-9.64564037322998,-0.1562216579914093
329,39900.0,-0.36391866207122797,-9.648633003234863,-0.15562310814857486
330,40000.0,-0.39803603291511536,-9.685144424438477,-0.1215057373046875
331,40100.0,-0.39803603291511536,-9.685144424438477,-0.1215057373046875
332,40200.0,-0.32441434264183044,-9.631275177001953,-0.31543606519699097
333,40300.0,-0.32441434264183044,-9.631275177001953,-0.31543606519699097
334,40400.0,-0.5321113467216492,-9.633668899536133,-0.15502455830574036
335,40500.0,-0.5321113467216492,-9.633668899536133,-0.15502455830574036
336,40600.0,-0.3944447338581085,-9.728838920593262,-0.17178396880626678
337,40700.0,-0.3944447338581085,-9.728838920593262,-0.17178396880626678
338,40800.0,-0.414795458316803,-9.603142738342283,-0.15322890877723694
339,40900.0,-0.414795458316803,-9.603142738342283,-0.15322890877723694
340,41000.0,-0.586579442024231,-9.6618013381958,-0.14604631066322327
341,41100.0,-0.6189011335372925,-9.654019355773926,-0.038905777037143714
342,41200.0,-0.6189011335372925,-9.654019355773926,-0.038905777037143714
343,41300.0,-0.6847416758537292,-9.66958236694336,-0.08200141042470932
344,41400.0,-0.6847416758537292,-9.66958236694336,-0.08200141042470932
345,41500.0,-0.6386532783508301,-9.683348655700684,-0.013766659423708916
346,41600.0,-0.6386532783508301,-9.683348655700684,-0.013766659423708916
347,41700.0,-0.7128735780715942,-9.637859344482422,0.04489128291606903
348,41800.0,-0.7128735780715942,-9.637859344482422,0.04489128291606903
349,41900.0,-0.800261914730072,-9.620500564575195,-0.07302315533161162
350,42000.0,-0.5117605924606323,-9.650428771972656,0.08559270948171616
351,42100.0,-0.5117605924606323,-9.650428771972656,0.08559270948171616
352,42200.0,-0.6189011335372925,-9.740211486816406,0.013766659423708916
353,42300.0,-0.6189011335372925,-9.740211486816406,0.013766659423708916
354,42400.0,-0.5195417404174805,-9.671378135681152,0.11133038252592088
355,42500.0,-0.5195417404174805,-9.671378135681152,0.11133038252592088
356,42600.0,-0.6715735793113708,-9.683947563171387,-0.05686229094862937
357,42700.0,-0.6715735793113708,-9.683947563171387,-0.05686229094862937
358,42800.0,-0.6602011322975159,-9.600749015808104,-0.02513911761343479
359,42900.0,-0.4698620736598969,-9.70968532562256,-0.10235211998224257
360,43000.0,-0.4698620736598969,-9.70968532562256,-0.10235211998224257
361,43100.0,-0.6147112846374512,-9.651026725769043,-0.0802057534456253
362,43200.0,-0.6147112846374512,-9.651026725769043,-0.0802057534456253
363,43300.0,-0.6619967818260193,-9.719860076904297,-0.06344634294509888
364,43400.0,-0.6619967818260193,-9.719860076904297,-0.06344634294509888
365,43500.0,-0.5153518915176392,-9.643844604492188,-0.05746084079146385
366,43600.0,-0.5153518915176392,-9.643844604492188,-0.05746084079146385
367,43700.0,-0.7368155717849731,-9.658209800720217,-0.17058686912059784
368,43800.0,-0.6105214357376099,-9.602544784545898,-0.047884032130241394
369,43900.0,-0.6105214357376099,-9.602544784545898,-0.047884032130241394
370,44000.0,-0.7122750282287598,-9.630077362060547,-0.11312603205442427
371,44100.0,-0.7122750282287598,-9.630077362060547,-0.11312603205442427
372,44200.0,-0.6590040326118469,-9.707889556884766,-0.060453593730926514
373,44300.0,-0.6590040326118469,-9.707889556884766,-0.060453593730926514
374,44400.0,-0.706289529800415,-9.619303703308104,0.01735796220600605
375,44500.0,-0.706289529800415,-9.619303703308104,0.01735796220600605
376,44600.0,-0.6955155730247498,-9.652822494506836,-0.09397241473197936
377,44700.0,-0.6218938827514648,-9.63187313079834,0.06823474913835527
378,44800.0,-0.6218938827514648,-9.63187313079834,0.06823474913835527
379,44900.0,-0.8206126093864441,-9.692925453186037,0.09217676520347597
380,45000.0,-0.8206126093864441,-9.692925453186037,0.09217676520347597
381,45100.0,-0.5979518890380859,-9.734824180603027,0.1867477297782898
382,45200.0,-0.5979518890380859,-9.734824180603027,0.1867477297782898
383,45300.0,-0.6931213736534119,-9.660603523254396,0.2124854028224945
384,45400.0,-0.6931213736534119,-9.660603523254396,0.2124854028224945
385,45500.0,-0.6937199234962463,-9.59835433959961,0.12629413604736328
386,45600.0,-0.7775170207023621,-9.634267807006836,0.1215057373046875
387,45700.0,-0.7775170207023621,-9.634267807006836,0.1215057373046875
388,45800.0,-0.6883329749107361,-9.639654159545898,0.1388636976480484
389,45900.0,-0.6883329749107361,-9.639654159545898,0.1388636976480484
390,46000.0,-0.6224924325942993,-9.66299819946289,0.13048399984836578
391,46100.0,-0.6224924325942993,-9.66299819946289,0.13048399984836578
392,46200.0,-0.6602011322975159,-9.622296333312988,0.11192893236875534
393,46300.0,-0.6602011322975159,-9.622296333312988,0.11192893236875534
394,46400.0,-0.6518214344978333,-9.670180320739746,0.08439560979604721
395,46500.0,-0.6063315868377686,-9.650428771972656,0.08918401598930359
396,46600.0,-0.6063315868377686,-9.650428771972656,0.08918401598930359
397,46700.0,-0.6386532783508301,-9.65581512451172,0.12449848651885985
398,46800.0,-0.6386532783508301,-9.65581512451172,0.12449848651885985
399,46900.0,-0.6619967818260193,-9.667786598205566,0.07721300423145294
400,47000.0,-0.6619967818260193,-9.667786598205566,0.07721300423145294
401,47100.0,-0.618302583694458,-9.668983459472656,0.07242459803819656
402,47200.0,-0.618302583694458,-9.668983459472656,0.07242459803819656
403,47300.0,-0.6745663285255432,-9.645041465759276,0.05027823522686958
404,47400.0,-0.7110779285430908,-9.61870574951172,0.043095629662275314
405,47500.0,-0.7110779285430908,-9.61870574951172,0.043095629662275314
406,47600.0,-0.679354727268219,-9.651026725769043,0.047884032130241394
407,47700.0,-0.679354727268219,-9.651026725769043,0.047884032130241394
408,47800.0,-0.7134721279144287,-9.673771858215332,0.03112462162971497
409,47900.0,-0.7134721279144287,-9.673771858215332,0.03112462162971497
410,48000.0,-0.7362170219421387,-9.642647743225098,0.042497079819440835
411,48100.0,-0.7362170219421387,-9.642647743225098,0.042497079819440835
412,48200.0,-0.7152677774429321,-9.68274974822998,0.05327098816633225
413,48300.0,-0.7338228225708008,-9.654618263244627,0.009576806798577309
414,48400.0,-0.7338228225708008,-9.654618263244627,0.009576806798577309
415,48500.0,-0.7122750282287598,-9.64923095703125,0.0293289702385664
416,48600.0,-0.7122750282287598,-9.64923095703125,0.0293289702385664
417,48700.0,-0.7380126714706421,-9.619303703308104,0.013168109580874443
418,48800.0,-0.7380126714706421,-9.619303703308104,0.013168109580874443
419,48900.0,-0.7032967209815979,-9.625288963317873,0.028131870552897453
420,49000.0,-0.7032967209815979,-9.625288963317873,0.028131870552897453
421,49100.0,-0.7559691667556763,-9.62947940826416,0.04728548228740692
422,49200.0,-0.7122750282287598,-9.656414031982422,0.028730420395731926
423,49300.0,-0.7122750282287598,-9.656414031982422,0.028730420395731926
424,49400.0,-0.7242460250854492,-9.645041465759276,0.025737667456269264
425,49500.0,-0.7242460250854492,-9.645041465759276,0.025737667456269264
426,49600.0,-0.7092822790145874,-9.667786598205566,0.07481880486011505
427,49700.0,-0.7092822790145874,-9.667786598205566,0.07481880486011505
428,49800.0,-0.6871358752250671,-9.63067626953125,0.07003039866685867
429,49900.0,-0.6871358752250671,-9.63067626953125,0.07003039866685867
430,50000.0,-0.6811503767967224,-9.661202430725098,0.07003039866685867
431,50100.0,-0.6811503767967224,-9.661202430725098,0.07003039866685867
432,50200.0,-0.6883329749107361,-9.64683723449707,0.0520738884806633
433,50300.0,-0.7272387742996216,-9.636661529541016,0.1173158809542656
434,50400.0,-0.7272387742996216,-9.636661529541016,0.1173158809542656
435,50500.0,-0.6625953316688538,-9.655217170715332,0.0454898327589035
436,50600.0,-0.6625953316688538,-9.655217170715332,0.0454898327589035
437,50700.0,-0.6859387755393982,-9.62947940826416,0.03950432687997818
438,50800.0,-0.6859387755393982,-9.62947940826416,0.03950432687997818
439,50900.0,-0.7356184720993042,-9.640253067016602,0.07302315533161162
440,51000.0,-0.7715315222740173,-9.62828254699707,0.10953472554683684
441,51100.0,-0.7715315222740173,-9.62828254699707,0.10953472554683684
442,51200.0,-0.7613561153411865,-9.651026725769043,0.09277531504631042
443,51300.0,-0.7613561153411865,-9.651026725769043,0.09277531504631042
444,51400.0,-0.8236053586006165,-9.644442558288574,0.11611878126859665
445,51500.0,-0.8236053586006165,-9.644442558288574,0.11611878126859665
446,51600.0,-0.7876923680305481,-9.644442558288574,0.10833762586116792
447,51700.0,-0.7876923680305481,-9.644442558288574,0.10833762586116792
448,51800.0,-0.7637503147125244,-9.654019355773926,0.16819266974925995
449,51900.0,-0.751779317855835,-9.615114212036133,0.13766659796237946
450,52000.0,-0.751779317855835,-9.615114212036133,0.13766659796237946
451,52100.0,-0.8008604645729065,-9.639056205749512,0.15562310814857486
452,52200.0,-0.8008604645729065,-9.639056205749512,0.15562310814857486
453,52300.0,-0.7709329724311829,-9.636661529541016,0.10534487664699554
454,52400.0,-0.7709329724311829,-9.636661529541016,0.10534487664699554
455,52500.0,-0.7410054206848145,-9.677961349487305,0.061650693416595466
456,52600.0,-0.7410054206848145,-9.677961349487305,0.061650693416595466
457,52700.0,-0.6344634294509888,-9.640253067016602,-0.03770867735147476
458,52800.0,-0.6194996833801271,-9.642048835754396,-0.014963760972023009
459,52900.0,-0.6194996833801271,-9.642048835754396,-0.014963760972023009
460,53000.0,-0.7266402244567871,-9.647436141967773,0.03591302409768105
461,53100.0,-0.7266402244567871,-9.647436141967773,0.03591302409768105
462,53200.0,-0.7098808288574219,-9.658807754516602,-0.0005985504249110818
463,53300.0,-0.7098808288574219,-9.658807754516602,-0.0005985504249110818
464,53400.0,-0.5093663930892944,-9.667786598205566,-0.01735796220600605
465,53500.0,-0.5093663930892944,-9.667786598205566,-0.01735796220600605
466,53600.0,-0.6254851818084717,-9.652822494506836,-0.16579847037792206
467,53700.0,-0.4231751561164856,-9.654618263244627,-0.056263741105794914
468,53800.0,-0.4231751561164856,-9.654618263244627,-0.056263741105794914
469,53900.0,-0.5554547905921936,-9.64803409576416,-0.13287819921970367
470,54000.0,-0.5554547905921936,-9.64803409576416,-0.13287819921970367
471,54100.0,-0.4800374507904053,-9.739013671875,-0.16579847037792206
472,54200.0,-0.4800374507904053,-9.739013671875,-0.16579847037792206
473,54300.0,-0.6733692288398743,-9.64564037322998,-0.04369417950510979
474,54400.0,-0.6733692288398743,-9.64564037322998,-0.04369417950510979
475,54500.0,-0.4890156984329224,-9.67077922821045,-0.06823474913835527
476,54600.0,-0.4890156984329224,-9.676166534423828,-0.03112462162971497
477,54700.0,-0.4890156984329224,-9.676166534423828,-0.03112462162971497
478,54800.0,-0.3896563351154328,-9.662399291992188,-0.1843535304069519
479,54900.0,-0.3896563351154328,-9.662399291992188,-0.1843535304069519
480,55000.0,-0.3609259128570557,-9.59835433959961,-0.02693476900458336
481,55100.0,-0.3609259128570557,-9.59835433959961,-0.02693476900458336
482,55200.0,-0.6530185341835022,-9.701904296875,-0.13048399984836578
483,55300.0,-0.6530185341835022,-9.701904296875,-0.13048399984836578
484,55400.0,-0.5949591398239136,-9.6989107131958,-0.06823474913835527
485,55500.0,-0.5333084464073181,-9.654019355773926,-0.03770867735147476
486,55600.0,-0.5333084464073181,-9.654019355773926,-0.03770867735147476
487,55700.0,-0.6667851805686951,-9.66539192199707,-0.17717093229293826
488,55800.0,-0.6667851805686951,-9.66539192199707,-0.17717093229293826
489,55900.0,-0.4932055473327637,-9.653421401977539,-0.026336219161748886
490,56000.0,-0.4932055473327637,-9.653421401977539,-0.026336219161748886
491,56100.0,-0.4513070285320282,-9.690531730651855,0.09457096457481384
492,56200.0,-0.4513070285320282,-9.690531730651855,0.09457096457481384
493,56300.0,-0.48602294921875,-9.586383819580078,-0.07841010391712189
494,56400.0,-0.6751648783683777,-9.600749015808104,-0.13946224749088287
495,56500.0,-0.6751648783683777,-9.600749015808104,-0.13946224749088287
496,56600.0,-0.579995334148407,-9.61870574951172,-0.06584054976701736
497,56700.0,-0.579995334148407,-9.61870574951172,-0.06584054976701736
498,56800.0,-0.4752490520477295,-9.680954933166504,-0.0520738884806633
499,56900.0,-0.4752490520477295,-9.680954933166504,-0.0520738884806633
500,57000.0,-0.9277531504631042,-9.57979965209961,0.04908113554120064
501,57100.0,-0.9277531504631042,-9.57979965209961,0.04908113554120064
502,57200.0,-0.5183446407318115,-9.64683723449707,-0.13347674906253815
503,57300.0,-0.6290764808654785,-9.632472038269043,-0.15682020783424375
504,57400.0,-0.6290764808654785,-9.632472038269043,-0.15682020783424375
505,57500.0,-0.7080851793289185,-9.683348655700684,0.1238999366760254
506,57600.0,-0.7080851793289185,-9.683348655700684,0.1238999366760254
507,57700.0,-0.6194996833801271,-9.617507934570312,0.013766659423708916
508,57800.0,-0.6194996833801271,-9.617507934570312,0.013766659423708916
509,57900.0,-0.8242039084434509,-9.64923095703125,0.17717093229293826
510,58000.0,-0.8242039084434509,-9.64923095703125,0.17717093229293826
511,58100.0,-0.6177040338516235,-9.642647743225098,0.13706804811954498
512,58200.0,-0.5931634902954102,-9.609128952026367,0.06404489278793335
513,58300.0,-0.5931634902954102,-9.609128952026367,0.06404489278793335
514,58400.0,-0.606930136680603,-9.64803409576416,0.04908113554120064
515,58500.0,-0.606930136680603,-9.64803409576416,0.04908113554120064
516,58600.0,-0.4153940081596375,-9.685144424438477,0.044292733073234565
517,58700.0,-0.4153940081596375,-9.685144424438477,0.044292733073234565
518,58800.0,-0.8924387097358704,-9.617507934570312,-0.026336219161748886
519,58900.0,-0.8924387097358704,-9.617507934570312,-0.026336219161748886
520,59000.0,-0.4800374507904053,-9.660005569458008,-0.08978256583213806
521,59100.0,-0.7775170207023621,-9.72584629058838,-0.17896658182144165
522,59200.0,-0.7775170207023621,-9.72584629058838,-0.17896658182144165
523,59300.0,-0.4806360006332398,-9.61212158203125,0.056263741105794914
524,59400.0,-0.4806360006332398,-9.61212158203125,0.056263741105794914
525,59500.0,-0.3166331648826599,-9.661202430725098,-0.10714052617549896
526,59600.0,-0.3166331648826599,-9.661202430725098,-0.10714052617549896
527,59700.0,-0.8810662031173706,-9.718663215637207,-0.09876082092523576
528,59800.0,-0.8810662031173706,-9.718663215637207,-0.09876082092523576
529,59900.0,-0.558447539806366,-9.586383819580078,0.10953472554683684
530,60000.0,-0.558447539806366,-9.586383819580078,0.10953472554683684
531,60100.0,-0.7068880796432495,-9.619303703308104,0.07721300423145294
532,60200.0,-0.7613561153411865,-9.636661529541016,-0.005985504016280174
533,60300.0,-0.7613561153411865,-9.636661529541016,-0.005985504016280174
534,60400.0,-0.3800795078277588,-9.580398559570312,0.37888240814208973
535,60500.0,-0.3800795078277588,-9.580398559570312,0.37888240814208973
536,60600.0,-0.5991489887237549,-10.08198356628418,-0.05446808785200119
537,60700.0,-0.5991489887237549,-10.08198356628418,-0.05446808785200119
538,60800.0,-0.5973533391952515,-9.922170639038086,-0.10115502029657364
539,60900.0,-0.5973533391952515,-9.922170639038086,-0.10115502029657364
540,61000.0,-0.8020575642585754,-9.677961349487305,0.20290859043598172
541,61100.0,-0.884058952331543,-9.633668899536133,0.013766659423708916
542,61200.0,-0.884058952331543,-9.633668899536133,0.013766659423708916
543,61300.0,-0.9618705511093141,-9.646238327026367,0.16400282084941864
544,61400.0,-0.9618705511093141,-9.646238327026367,0.16400282084941864
545,61500.0,-0.8254010081291199,-9.649829864501953,0.22206220030784607
546,61600.0,-0.8254010081291199,-9.649829864501953,0.22206220030784607
547,61700.0,-0.8248024582862854,-9.621698379516602,0.1975216418504715
548,61800.0,-0.8684966564178467,-9.63187313079834,0.2178723514080048
549,61900.0,-0.8684966564178467,-9.63187313079834,0.2178723514080048
550,62000.0,-0.8804676532745361,-9.64803409576416,0.2675520479679108
551,62100.0,-0.8804676532745361,-9.64803409576416,0.2675520479679108
552,62200.0,-0.9624691009521484,-9.606135368347168,0.19692309200763705
553,62300.0,-0.9624691009521484,-9.606135368347168,0.19692309200763705
554,62400.0,-0.646434485912323,-9.703699111938477,0.19692309200763705
555,62500.0,-0.646434485912323,-9.703699111938477,0.19692309200763705
556,62600.0,-1.071405291557312,-9.636661529541016,0.3435679376125336
557,62700.0,-1.071405291557312,-9.636661529541016,0.3435679376125336
558,62800.0,-0.16400282084941864,-9.871891975402832,-0.28969839215278625
559,62900.0,-0.15981295704841614,-9.480440139770508,-0.08140286058187485
560,63000.0,-0.15981295704841614,-9.480440139770508,-0.08140286058187485
561,63100.0,0.07541735470294952,-9.667786598205566,-0.12210428714752194
562,63200.0,0.07541735470294952,-9.667786598205566,-0.12210428714752194
563,63300.0,0.16879121959209442,-9.751583099365234,-0.4004302322864533
564,63400.0,0.16879121959209442,-9.751583099365234,-0.4004302322864533
565,63500.0,0.3519476354122162,-9.588777542114258,-0.6482301354408264
566,63600.0,0.30286651849746704,-9.6803560256958,-0.6003460884094238
567,63700.0,0.30286651849746704,-9.6803560256958,-0.6003460884094238
568,63800.0,0.2477998733520508,-9.503185272216797,-0.6200982332229614
569,63900.0,0.2477998733520508,-9.503185272216797,-0.6200982332229614
570,64000.0,0.8122329115867615,-9.983820915222168,-0.5482721924781799
571,64100.0,0.8122329115867615,-9.983820915222168,-0.5482721924781799
572,64200.0,0.4153940081596375,-9.632472038269043,-0.2908954918384552
573,64300.0,0.4153940081596375,-9.632472038269043,-0.2908954918384552
574,64400.0,0.7110779285430908,-9.362525939941406,-0.5303156971931458
575,64500.0,0.7110779285430908,-9.362525939941406,-0.5303156971931458
576,64600.0,0.3381809890270233,-9.678560256958008,-0.4399345517158508
577,64700.0,-0.05386953800916672,-9.615114212036133,-0.5626373887062073
578,64800.0,-0.05386953800916672,-9.615114212036133,-0.5626373887062073
579,64900.0,0.4782418012619018,-9.901819229125977,0.4501099288463593
580,65000.0,0.4782418012619018,-9.901819229125977,0.4501099288463593
581,65100.0,0.3387795388698578,-9.589376449584961,-0.4908113479614258
582,65200.0,0.3387795388698578,-9.589376449584961,-0.4908113479614258
583,65300.0,-0.3214215636253357,-9.776124000549316,-0.6153098344802856
584,65400.0,-0.3214215636253357,-9.776124000549316,-0.6153098344802856
585,65500.0,0.9702502489089966,-9.515155792236328,-0.17238251864910126
586,65600.0,0.20111294090747836,-9.95748519897461,-0.7386112213134766
587,65700.0,0.20111294090747836,-9.95748519897461,-0.7386112213134766
588,65800.0,-0.05147533491253853,-9.691728591918944,-0.7380126714706421
589,65900.0,-0.05147533491253853,-9.691728591918944,-0.7380126714706421
590,66000.0,0.8170213103294373,-9.428964614868164,-0.019153613597154617
591,66100.0,0.8170213103294373,-9.428964614868164,-0.019153613597154617
592,66200.0,-0.5805938839912415,-9.458892822265623,-0.32022446393966675
593,66300.0,-0.5805938839912415,-9.458892822265623,-0.32022446393966675
594,66400.0,0.5303156971931458,-9.736021041870117,-0.27413609623909
595,66500.0,-0.005386953707784414,-9.485228538513184,-0.0071826050989329815
596,66600.0,-0.005386953707784414,-9.485228538513184,-0.0071826050989329815
597,66700.0,0.12509703636169436,-9.637859344482422,0.14006079733371735
598,66800.0,0.12509703636169436,-9.637859344482422,0.14006079733371735
599,66900.0,-0.7026981711387634,-9.608530044555664,-0.047884032130241394
600,67000.0,-0.7026981711387634,-9.608530044555664,-0.047884032130241394
601,67100.0,-0.07661445438861847,-9.708487510681152,-0.19213469326496124
602,67200.0,-0.07661445438861847,-9.708487510681152,-0.19213469326496124
603,67300.0,0.12030863761901855,-9.615114212036133,0.26396074891090393
604,67400.0,-0.16879121959209442,-9.723451614379883,-0.3926490843296051
605,67500.0,-0.16879121959209442,-9.723451614379883,-0.3926490843296051
606,67600.0,-0.05506663769483566,-9.641449928283693,-0.24660277366638186
607,67700.0,-0.05506663769483566,-9.641449928283693,-0.24660277366638186
608,67800.0,-0.2274491637945175,-9.749189376831056,0.011372458189725876
609,67900.0,-0.2274491637945175,-9.749189376831056,0.011372458189725876
610,68000.0,-0.13946224749088287,-9.667187690734863,-0.14006079733371735
611,68100.0,-0.13946224749088287,-9.667187690734863,-0.14006079733371735
612,68200.0,-0.13946224749088287,-9.662399291992188,-0.005985504016280174
613,68300.0,-0.1999158412218094,-9.704896926879883,-0.24420857429504395
614,68400.0,-0.1999158412218094,-9.704896926879883,-0.24420857429504395
615,68500.0,-0.2609679996967316,-9.666589736938477,-0.04967968538403511
616,68600.0,-0.2609679996967316,-9.666589736938477,-0.04967968538403511
617,68700.0,-0.1388636976480484,-9.66958236694336,-0.1562216579914093
618,68800.0,-0.1388636976480484,-9.66958236694336,-0.1562216579914093
619,68900.0,-0.25258827209472656,-9.68694019317627,-0.1909375786781311
620,69000.0,-0.25258827209472656,-9.68694019317627,-0.1909375786781311
621,69100.0,-0.17657238245010376,-9.739013671875,-0.14365209639072418
622,69200.0,-0.1993172913789749,-9.633668899536133,-0.08559270948171616
623,69300.0,-0.1993172913789749,-9.633668899536133,-0.08559270948171616
624,69400.0,0.08499415963888167,-9.653421401977539,-0.2214636504650116
625,69500.0,0.08499415963888167,-9.653421401977539,-0.2214636504650116
626,69600.0,-0.2537853717803955,-9.804255485534668,-0.2298433631658554
627,69700.0,-0.2537853717803955,-9.804255485534668,-0.2298433631658554
628,69800.0,-0.2406172752380371,-9.685144424438477,-0.1430535465478897
629,69900.0,-0.2406172752380371,-9.685144424438477,-0.1430535465478897
630,70000.0,0.2059013396501541,-9.604340553283693,-0.16400282084941864
631,70100.0,-0.028730420395731926,-9.682151794433594,-0.15682020783424375
632,70200.0,-0.028730420395731926,-9.682151794433594,-0.15682020783424375
633,70300.0,-0.10654197633266448,-9.666589736938477,-0.09277531504631042
634,70400.0,-0.10654197633266448,-9.666589736938477,-0.09277531504631042
635,70500.0,-0.03232172131538391,-9.639654159545898,-0.08140286058187485
636,70600.0,-0.03232172131538391,-9.639654159545898,-0.08140286058187485
637,70700.0,-0.07182604819536209,-9.674968719482422,-0.062249243259429925
638,70800.0,-0.07182604819536209,-9.674968719482422,-0.062249243259429925
639,70900.0,-0.10295066982507706,-9.658209800720217,-0.061650693416595466
640,71000.0,-0.08858546614646913,-9.679757118225098,-0.09157821536064148
641,71100.0,-0.08858546614646913,-9.679757118225098,-0.09157821536064148
642,71200.0,-0.11013327538967133,-9.702502250671387,-0.06464344263076782
643,71300.0,-0.11013327538967133,-9.702502250671387,-0.06464344263076782
644,71400.0,-0.09516951441764833,-9.652822494506836,-0.0999579206109047
645,71500.0,-0.09516951441764833,-9.652822494506836,-0.0999579206109047
646,71600.0,-0.15682020783424375,-9.687539100646973,-0.11851298063993455
647,71700.0,-0.15682020783424375,-9.687539100646973,-0.11851298063993455
648,71800.0,-0.11851298063993455,-9.655217170715332,-0.12749123573303225
649,71900.0,-0.1454477459192276,-9.682151794433594,-0.11791443079710008
650,72000.0,-0.1454477459192276,-9.682151794433594,-0.11791443079710008
651,72100.0,-0.1107318252325058,-9.667786598205566,-0.07841010391712189
652,72200.0,-0.1107318252325058,-9.667786598205566,-0.07841010391712189
653,72300.0,-0.1646013706922531,-9.693524360656738,-0.06643909960985184
654,72400.0,-0.1646013706922531,-9.693524360656738,-0.06643909960985184
655,72500.0,-0.18076223134994507,-9.658807754516602,-0.0520738884806633
656,72600.0,-0.18076223134994507,-9.658807754516602,-0.0520738884806633
657,72700.0,-0.1801636815071106,-9.653421401977539,-0.07122749835252762
658,72800.0,-0.10295066982507706,-9.662399291992188,-0.05386953800916672
659,72900.0,-0.10295066982507706,-9.662399291992188,-0.05386953800916672
660,73000.0,-0.2388216257095337,-9.586383819580078,-0.07242459803819656
661,73100.0,-0.2388216257095337,-9.586383819580078,-0.07242459803819656
662,73200.0,-0.20889410376548767,-9.653421401977539,0.014963760972023009
663,73300.0,-0.20889410376548767,-9.653421401977539,0.014963760972023009
664,73400.0,-0.30885201692581177,-9.658209800720217,-0.15801730751991272
665,73500.0,-0.30885201692581177,-9.658209800720217,-0.15801730751991272
666,73600.0,0.166995570063591,-9.633070945739746,-0.1586158573627472
667,73700.0,-0.2388216257095337,-9.63067626953125,-0.16220717132091522
668,73800.0,-0.2388216257095337,-9.63067626953125,-0.16220717132091522
669,73900.0,-0.13168109953403473,-9.739612579345703,-0.13407529890537262
670,74000.0,-0.13168109953403473,-9.739612579345703,-0.13407529890537262
671,74100.0,-0.2017114907503128,-9.636063575744627,-0.18974047899246216
672,74200.0,-0.2017114907503128,-9.636063575744627,-0.18974047899246216
673,74300.0,-0.15981295704841614,-9.65222454071045,-0.058059390634298325
674,74400.0,-0.15981295704841614,-9.65222454071045,-0.058059390634298325
675,74500.0,-0.166995570063591,-9.68155288696289,-0.08978256583213806
676,74600.0,-0.17298106849193573,-9.670180320739746,-0.026336219161748886
677,74700.0,-0.17298106849193573,-9.670180320739746,-0.026336219161748886
678,74800.0,-0.13168109953403473,-9.657012939453123,-0.10773907601833344
679,74900.0,-0.13168109953403473,-9.657012939453123,-0.10773907601833344
680,75000.0,-0.1322796493768692,-9.651625633239746,-0.07841010391712189
681,75100.0,-0.1322796493768692,-9.651625633239746,-0.07841010391712189
682,75200.0,-0.08918401598930359,-9.642647743225098,-0.03292027488350868
683,75300.0,-0.08918401598930359,-9.642647743225098,-0.03292027488350868
684,75400.0,-0.11372458189725874,-9.64803409576416,-0.011971008032560349
685,75500.0,-0.17058686912059784,-9.634865760803224,-0.044292733073234565
686,75600.0,-0.17058686912059784,-9.634865760803224,-0.044292733073234565
687,75700.0,-0.2819172441959381,-9.71507167816162,0.061650693416595466
688,75800.0,-0.2819172441959381,-9.71507167816162,0.061650693416595466
689,75900.0,0.2286462634801865,-9.843161582946776,0.09397241473197936
690,76000.0,0.2286462634801865,-9.843161582946776,0.09397241473197936
691,76100.0,0.01975216343998909,-9.5408935546875,-0.03232172131538391
692,76200.0,0.01975216343998909,-9.5408935546875,-0.03232172131538391
693,76300.0,-0.3435679376125336,-9.625288963317873,-0.020949264988303185
694,76400.0,-0.05925649031996728,-9.654019355773926,-0.08918401598930359
695,76500.0,-0.05925649031996728,-9.654019355773926,-0.08918401598930359
696,76600.0,-0.2867056429386139,-9.66419506072998,0.062249243259429925
697,76700.0,-0.2867056429386139,-9.66419506072998,0.062249243259429925
698,76800.0,-0.3477577865123749,-9.59476375579834,-0.012569558806717396
699,76900.0,-0.3477577865123749,-9.59476375579834,-0.012569558806717396
700,77000.0,-0.21847090125083926,-9.660603523254396,-0.05147533491253853
701,77100.0,-0.21847090125083926,-9.660603523254396,-0.05147533491253853
702,77200.0,-0.17836803197860718,-9.655217170715332,-0.11971008777618407
703,77300.0,-0.5009866952896118,-9.643245697021484,-0.02753331884741783
704,77400.0,-0.5009866952896118,-9.643245697021484,-0.02753331884741783
705,77500.0,-0.2789244949817657,-9.765948295593262,0.07302315533161162
706,77600.0,-0.2789244949817657,-9.765948295593262,0.07302315533161162
707,77700.0,-0.4183867573738098,-9.604938507080078,0.21308395266532895
708,77800.0,-0.4183867573738098,-9.604938507080078,0.21308395266532895
709,77900.0,-0.3489548861980438,-9.64923095703125,0.41120412945747375
710,78000.0,-0.3489548861980438,-9.64923095703125,0.41120412945747375
711,78100.0,-0.6003460884094238,-9.586981773376463,0.16579847037792206
712,78200.0,-0.5716156363487244,-9.665990829467773,0.07960720360279082
713,78300.0,-0.5716156363487244,-9.665990829467773,0.07960720360279082
714,78400.0,-0.48602294921875,-9.683947563171387,-0.21667525172233584
715,78500.0,-0.48602294921875,-9.683947563171387,-0.21667525172233584
716,78600.0,-0.4938040971755981,-9.730634689331056,-0.10953472554683684
717,78700.0,-0.4938040971755981,-9.730634689331056,-0.10953472554683684
718,78800.0,-0.436343252658844,-9.692925453186037,-0.15143325924873352
719,78900.0,-0.436343252658844,-9.692925453186037,-0.15143325924873352
720,79000.0,-0.4824316501617432,-9.659406661987305,-0.2609679996967316
721,79100.0,-0.4800374507904053,-9.68155288696289,-0.2495955228805542
722,79200.0,-0.4800374507904053,-9.68155288696289,-0.2495955228805542
723,79300.0,-0.4638765752315521,-9.6618013381958,-0.2723404467105865
724,79400.0,-0.4638765752315521,-9.6618013381958,-0.2723404467105865
725,79500.0,-0.4632780253887177,-9.658807754516602,-0.2124854028224945
726,79600.0,-0.4632780253887177,-9.658807754516602,-0.2124854028224945
727,79700.0,-0.5027823448181152,-9.63067626953125,-0.2489969730377197
728,79800.0,-0.5027823448181152,-9.63067626953125,-0.2489969730377197
729,79900.0,-0.5201402902603149,-9.666589736938477,-0.23343466222286224
730,80000.0,-0.5560533404350281,-9.668983459472656,-0.4285621047019959
731,80100.0,-0.5560533404350281,-9.668983459472656,-0.4285621047019959
732,80200.0,-0.8271966576576233,-9.622895240783693,-0.03651157766580582
733,80300.0,-0.8271966576576233,-9.622895240783693,-0.03651157766580582
734,80400.0,-0.7326257228851318,-9.645041465759276,-0.3232172429561615
735,80500.0,-0.7326257228851318,-9.645041465759276,-0.3232172429561615
736,80600.0,-0.8918401598930359,-9.581595420837402,-0.7188590764999391
737,80700.0,-0.8918401598930359,-9.581595420837402,-0.7188590764999391
738,80800.0,-0.3812766075134277,-9.561842918395996,-0.5009866952896118
739,80900.0,-0.2340332120656967,-9.701904296875,-0.11013327538967133
740,81000.0,-0.2340332120656967,-9.701904296875,-0.11013327538967133
741,81100.0,0.041299980133771896,-9.707290649414064,-0.19452889263629916
742,81200.0,0.041299980133771896,-9.707290649414064,-0.19452889263629916
743,81300.0,-0.1238999366760254,-9.649829864501953,-0.3058592677116394
744,81400.0,-0.1238999366760254,-9.649829864501953,-0.3058592677116394
745,81500.0,-0.043095629662275314,-9.67077922821045,-0.3866635859012604
746,81600.0,-0.043095629662275314,-9.67077922821045,-0.3866635859012604
747,81700.0,-0.18375498056411746,-9.64564037322998,-0.2908954918384552
748,81800.0,-0.15442600846290588,-9.670180320739746,-0.2663549482822418
749,81900.0,-0.15442600846290588,-9.670180320739746,-0.2663549482822418
750,82000.0,-0.16639702022075653,-9.647436141967773,-0.2819172441959381
751,82100.0,-0.16639702022075653,-9.647436141967773,-0.2819172441959381
752,82200.0,-0.2352303117513657,-9.664793968200684,-0.2472013235092163
753,82300.0,-0.2352303117513657,-9.664793968200684,-0.2472013235092163
754,82400.0,-0.14903905987739566,-9.658807754516602,-0.22086510062217712
755,82500.0,-0.14903905987739566,-9.658807754516602,-0.22086510062217712
756,82600.0,-0.15023615956306458,-9.633070945739746,-0.2477998733520508
757,82700.0,-0.2047042399644852,-9.653421401977539,-0.2106897532939911
758,82800.0,-0.2047042399644852,-9.653421401977539,-0.2106897532939911
759,82900.0,-0.20889410376548767,-9.657012939453123,-0.2819172441959381
760,83000.0,-0.20889410376548767,-9.657012939453123,-0.2819172441959381
761,83100.0,-0.18076223134994507,-9.649829864501953,-0.2537853717803955
762,83200.0,-0.18076223134994507,-9.649829864501953,-0.2537853717803955
763,83300.0,-0.1909375786781311,-9.666589736938477,-0.20709845423698425
764,83400.0,-0.1909375786781311,-9.666589736938477,-0.20709845423698425
765,83500.0,-0.2477998733520508,-9.691728591918944,-0.11971008777618407
766,83600.0,-0.2477998733520508,-9.691728591918944,-0.11971008777618407
767,83700.0,-0.21667525172233584,-9.668384552001953,-0.0999579206109047
768,83800.0,-0.1993172913789749,-9.658209800720217,-0.07661445438861847
769,83900.0,-0.1993172913789749,-9.658209800720217,-0.07661445438861847
770,84000.0,-0.23942017555236814,-9.619902610778807,-0.04010287672281265
771,84100.0,-0.23942017555236814,-9.619902610778807,-0.04010287672281265
772,84200.0,-0.22086510062217712,-9.664793968200684,-0.04908113554120064
773,84300.0,-0.22086510062217712,-9.664793968200684,-0.04908113554120064
774,84400.0,-0.22685061395168304,-9.653421401977539,-0.05267243832349777
775,84500.0,-0.22685061395168304,-9.653421401977539,-0.05267243832349777
776,84600.0,-0.17058686912059784,-9.674968719482422,-0.1125274822115898
777,84700.0,-0.21966800093650815,-9.673771858215332,-0.13108254969120026
778,84800.0,-0.21966800093650815,-9.673771858215332,-0.13108254969120026
779,84900.0,-0.2513911724090576,-9.671378135681152,-0.0628477931022644
780,85000.0,-0.2513911724090576,-9.671378135681152,-0.0628477931022644
781,85100.0,-0.2412158250808716,-9.6618013381958,-0.0071826050989329815
782,85200.0,-0.2412158250808716,-9.6618013381958,-0.0071826050989329815
783,85300.0,-0.2112883031368256,-9.64923095703125,-0.02274491637945175
784,85400.0,-0.2489969730377197,-9.637859344482422,-0.02274491637945175
785,85500.0,-0.2489969730377197,-9.637859344482422,-0.02274491637945175
786,85600.0,-0.3058592677116394,-9.654618263244627,0.020949264988303185
787,85700.0,-0.3058592677116394,-9.654618263244627,0.020949264988303185
788,85800.0,-0.2914940714836121,-9.654618263244627,0.07960720360279082
789,85900.0,-0.2914940714836121,-9.654618263244627,0.07960720360279082
790,86000.0,-0.32441434264183044,-9.653421401977539,0.05506663769483566
791,86100.0,-0.32441434264183044,-9.653421401977539,0.05506663769483566
792,86200.0,-0.20530278980731964,-9.676764488220217,-0.025737667456269264
793,86300.0,-0.20530278980731964,-9.676764488220217,-0.025737667456269264
794,86400.0,-0.22026655077934265,-9.686341285705566,-0.009576806798577309
795,86500.0,-0.2687491476535797,-9.663596153259276,0.06464344263076782
796,86600.0,-0.2687491476535797,-9.663596153259276,0.06464344263076782
797,86700.0,-0.24181437492370605,-9.676764488220217,-0.03172317147254944
798,86800.0,-0.24181437492370605,-9.676764488220217,-0.03172317147254944
799,86900.0,-0.228047713637352,-9.64683723449707,-0.013766659423708916
800,87000.0,-0.228047713637352,-9.64683723449707,-0.013766659423708916
801,87100.0,-0.2735375463962555,-9.666589736938477,0.11671733111143112
802,87200.0,-0.2735375463962555,-9.666589736938477,0.11671733111143112
803,87300.0,-0.25318682193756104,-9.662399291992188,0.11432313174009325
804,87400.0,-0.24600422382354736,-9.68813705444336,0.1993172913789749
805,87500.0,-0.24600422382354736,-9.68813705444336,0.1993172913789749
806,87600.0,-0.2286462634801865,-9.642647743225098,-0.03172317147254944
807,87700.0,-0.2286462634801865,-9.642647743225098,-0.03172317147254944
808,87800.0,-0.2041056901216507,-9.653421401977539,-0.019153613597154617
809,87900.0,-0.2041056901216507,-9.653421401977539,-0.019153613597154617
810,88000.0,-0.19213469326496124,-9.64923095703125,-0.05147533491253853
811,88100.0,-0.19213469326496124,-9.64923095703125,-0.05147533491253853
812,88200.0,-0.25079262256622314,-9.640253067016602,-0.06524199992418289
813,88300.0,-0.2448071241378784,-9.66958236694336,-0.062249243259429925
814,88400.0,-0.2448071241378784,-9.66958236694336,-0.062249243259429925
815,88500.0,-0.1759738177061081,-9.641449928283693,-0.0975637212395668
816,88600.0,-0.1759738177061081,-9.641449928283693,-0.0975637212395668
817,88700.0,-0.262763649225235,-9.66299819946289,-0.10175357013940813
818,88800.0,-0.262763649225235,-9.66299819946289,-0.10175357013940813
819,88900.0,-0.23942017555236814,-9.666589736938477,-0.12030863761901855
820,89000.0,-0.23942017555236814,-9.666589736938477,-0.12030863761901855
821,89100.0,-0.2495955228805542,-9.673771858215332,-0.12270283699035645
822,89200.0,-0.2513911724090576,-9.675567626953123,-0.13168109953403473
823,89300.0,-0.2513911724090576,-9.675567626953123,-0.13168109953403473
824,89400.0,-0.13347674906253815,-9.695918083190918,-0.18614917993545527
825,89500.0,-0.13347674906253815,-9.695918083190918,-0.18614917993545527
826,89600.0,-0.22206220030784607,-9.660005569458008,-0.16101007163524628
827,89700.0,-0.22206220030784607,-9.660005569458008,-0.16101007163524628
828,89800.0,-0.16639702022075653,-9.663596153259276,-0.18914192914962769
829,89900.0,-0.16639702022075653,-9.663596153259276,-0.18914192914962769
830,90000.0,-0.12090718746185306,-9.662399291992188,-0.2322375625371933
831,90100.0,-0.21009120345115664,-9.68274974822998,-0.2693476974964142
832,90200.0,-0.21009120345115664,-9.68274974822998,-0.2693476974964142
833,90300.0,-0.22445641458034515,-9.643245697021484,-0.32680854201316833
834,90400.0,-0.22445641458034515,-9.643245697021484,-0.32680854201316833
835,90500.0,-0.1909375786781311,-9.673771858215332,-0.3363853394985199
836,90600.0,-0.1909375786781311,-9.673771858215332,-0.3363853394985199
837,90700.0,-0.1843535304069519,-9.67077922821045,-0.2944868206977844
838,90800.0,-0.1843535304069519,-9.67077922821045,-0.2944868206977844
839,90900.0,-0.17537526786327362,-9.64803409576416,-0.24181437492370605
840,91000.0,-0.11013327538967133,-9.616311073303224,-0.3274070918560028
841,91100.0,-0.11013327538967133,-9.616311073303224,-0.3274070918560028
842,91200.0,-0.2256535142660141,-9.631275177001953,-0.23104046285152435
843,91300.0,-0.2256535142660141,-9.631275177001953,-0.23104046285152435
844,91400.0,-0.2513911724090576,-9.651026725769043,-0.14425064623355865
845,91500.0,-0.2513911724090576,-9.651026725769043,-0.14425064623355865
846,91600.0,-0.16579847037792206,-9.676764488220217,-0.18195933103561399
847,91700.0,-0.16579847037792206,-9.676764488220217,-0.18195933103561399
848,91800.0,-0.2890998423099518,-9.66539192199707,-0.20051439106464386
849,91900.0,-0.10474632680416107,-9.689932823181152,-0.2687491476535797
850,92000.0,-0.10474632680416107,-9.689932823181152,-0.2687491476535797
851,92100.0,-0.11671733111143112,-9.663596153259276,-0.2064998894929886
852,92200.0,-0.11671733111143112,-9.663596153259276,-0.2064998894929886
853,92300.0,-0.1885433793067932,-9.653421401977539,-0.2585737705230713
854,92400.0,-0.1885433793067932,-9.653421401977539,-0.2585737705230713
855,92500.0,-0.29568392038345337,-9.671378135681152,-0.22505496442317965
856,92600.0,-0.29568392038345337,-9.671378135681152,-0.22505496442317965
857,92700.0,-0.1711854189634323,-9.636063575744627,-0.04369417950510979
858,92800.0,-0.2513911724090576,-9.62947940826416,0.033518824726343155
859,92900.0,-0.2513911724090576,-9.62947940826416,0.033518824726343155
860,93000.0,-0.3435679376125336,-9.656414031982422,-0.12988543510437012
861,93100.0,-0.3435679376125336,-9.656414031982422,-0.12988543510437012
862,93200.0,-0.13946224749088287,-9.697713851928713,-0.1364694982767105
863,93300.0,-0.13946224749088287,-9.697713851928713,-0.1364694982767105
864,93400.0,-0.21308395266532895,-9.70549488067627,-0.2124854028224945
865,93500.0,-0.21308395266532895,-9.70549488067627,-0.2124854028224945
866,93600.0,-0.2657563984394073,-9.680954933166504,-0.1238999366760254
867,93700.0,-0.2124854028224945,-9.646238327026367,-0.07302315533161162
868,93800.0,-0.2124854028224945,-9.646238327026367,-0.07302315533161162
869,93900.0,-0.17836803197860718,-9.668384552001953,-0.11133038252592088
870,94000.0,-0.17836803197860718,-9.668384552001953,-0.11133038252592088
871,94100.0,-0.2178723514080048,-9.672574996948242,-0.09038111567497252
872,94200.0,-0.2178723514080048,-9.672574996948242,-0.09038111567497252
873,94300.0,-0.13766659796237946,-9.68813705444336,-0.18195933103561399
874,94400.0,-0.13766659796237946,-9.68813705444336,-0.18195933103561399
875,94500.0,-0.13347674906253815,-9.656414031982422,-0.2106897532939911
876,94600.0,-0.19033902883529666,-9.676166534423828,-0.16160862147808075
877,94700.0,-0.19033902883529666,-9.676166534423828,-0.16160862147808075
878,94800.0,-0.16639702022075653,-9.660603523254396,-0.1586158573627472
879,94900.0,-0.16639702022075653,-9.660603523254396,-0.1586158573627472
880,95000.0,-0.11192893236875534,-9.65222454071045,-0.19033902883529666
881,95100.0,-0.11192893236875534,-9.65222454071045,-0.19033902883529666
882,95200.0,-0.16579847037792206,-9.678560256958008,-0.1885433793067932
883,95300.0,-0.16579847037792206,-9.678560256958008,-0.1885433793067932
884,95400.0,-0.18136078119277954,-9.607333183288574,-0.14185644686222074
885,95500.0,-0.2059013396501541,-9.685144424438477,-0.19572599232196808
886,95600.0,-0.2059013396501541,-9.685144424438477,-0.19572599232196808
887,95700.0,-0.1909375786781311,-9.66419506072998,-0.1562216579914093
888,95800.0,-0.1909375786781311,-9.66419506072998,-0.1562216579914093
889,95900.0,-0.12509703636169436,-9.66419506072998,-0.2214636504650116
890,96000.0,-0.12509703636169436,-9.66419506072998,-0.2214636504650116
891,96100.0,-0.1430535465478897,-9.662399291992188,-0.1759738177061081
892,96200.0,-0.1430535465478897,-9.662399291992188,-0.1759738177061081
893,96300.0,-0.13287819921970367,-9.701904296875,-0.15801730751991272
894,96400.0,-0.1388636976480484,-9.688735961914064,-0.14365209639072418
895,96500.0,-0.1388636976480484,-9.688735961914064,-0.14365209639072418
896,96600.0,-0.15263035893440247,-9.665990829467773,-0.18794482946395874
897,96700.0,-0.15263035893440247,-9.665990829467773,-0.18794482946395874
898,96800.0,-0.07122749835252762,-9.6618013381958,-0.20111294090747836
899,96900.0,-0.07122749835252762,-9.6618013381958,-0.20111294090747836
900,97000.0,-0.32441434264183044,-9.767744064331056,-0.10115502029657364
901,97100.0,-0.32441434264183044,-9.767744064331056,-0.10115502029657364
902,97200.0,-0.16639702022075653,-9.713275909423828,-0.12928688526153564
903,97300.0,-0.07003039866685867,-9.645041465759276,-0.16220717132091522
904,97400.0,-0.07003039866685867,-9.645041465759276,-0.16220717132091522
905,97500.0,-0.20290859043598172,-9.684545516967773,-0.1759738177061081
906,97600.0,-0.20290859043598172,-9.684545516967773,-0.1759738177061081
907,97700.0,-0.10235211998224257,-9.653421401977539,-0.16998831927776334
908,97800.0,-0.10235211998224257,-9.653421401977539,-0.16998831927776334
909,97900.0,-0.1651999205350876,-9.660603523254396,-0.20231004059314728
910,98000.0,-0.1651999205350876,-9.660603523254396,-0.20231004059314728
911,98100.0,-0.12449848651885985,-9.68813705444336,-0.22445641458034515
912,98200.0,-0.17058686912059784,-9.668384552001953,-0.17477671802043915
913,98300.0,-0.17058686912059784,-9.668384552001953,-0.17477671802043915
914,98400.0,-0.1280897855758667,-9.66958236694336,-0.15682020783424375
915,98500.0,-0.1280897855758667,-9.66958236694336,-0.15682020783424375
916,98600.0,-0.20769700407981875,-9.655217170715332,-0.10055647045373917
917,98700.0,-0.20769700407981875,-9.655217170715332,-0.10055647045373917
918,98800.0,-0.14604631066322327,-9.634267807006836,-0.1364694982767105
919,98900.0,-0.14604631066322327,-9.634267807006836,-0.1364694982767105
920,99000.0,-0.1693897694349289,-9.658209800720217,-0.1107318252325058
921,99100.0,-0.08559270948171616,-9.63187313079834,-0.1256955862045288
922,99200.0,-0.08559270948171616,-9.63187313079834,-0.1256955862045288
923,99300.0,-0.14844051003456116,-9.677363395690918,-0.15921440720558167
924,99400.0,-0.14844051003456116,-9.677363395690918,-0.15921440720558167
925,99500.0,-0.17956513166427612,-9.646238327026367,-0.1885433793067932
926,99600.0,-0.17956513166427612,-9.646238327026367,-0.1885433793067932
927,99700.0,-0.17657238245010376,-9.672574996948242,-0.15741875767707825
928,99800.0,-0.17657238245010376,-9.672574996948242,-0.15741875767707825
929,99900.0,-0.1628057211637497,-9.64923095703125,-0.13826514780521393
930,100000.0,-0.21368250250816345,-9.628880500793457,-0.05925649031996728
931,100100.0,-0.21368250250816345,-9.628880500793457,-0.05925649031996728
932,100200.0,-0.1496376097202301,-9.651026725769043,-0.11432313174009325
933,100300.0,-0.1496376097202301,-9.651026725769043,-0.11432313174009325
934,100400.0,-0.16579847037792206,-9.671976089477539,-0.09696517139673233
935,100500.0,-0.16579847037792206,-9.671976089477539,-0.09696517139673233
936,100600.0,-0.1604115068912506,-9.660005569458008,-0.10055647045373917
937,100700.0,-0.1604115068912506,-9.660005569458008,-0.10055647045373917
938,100800.0,-0.22385786473751068,-9.680954933166504,-0.12210428714752194
939,100900.0,-0.22625206410884854,-9.657012939453123,-0.08200141042470932
940,101000.0,-0.22625206410884854,-9.657012939453123,-0.08200141042470932
941,101100.0,-0.19213469326496124,-9.694122314453123,-0.05925649031996728
942,101200.0,-0.19213469326496124,-9.694122314453123,-0.05925649031996728
943,101300.0,-0.2106897532939911,-9.68694019317627,-0.0867898091673851
944,101400.0,-0.2106897532939911,-9.68694019317627,-0.0867898091673851
945,101500.0,-0.2256535142660141,-9.640253067016602,0.0293289702385664
946,101600.0,-0.2256535142660141,-9.640253067016602,0.0293289702385664
947,101700.0,-0.27473464608192444,-9.654618263244627,-0.0586579404771328
948,101800.0,-0.17178396880626678,-9.654618263244627,-0.05386953800916672
949,101900.0,-0.17178396880626678,-9.654618263244627,-0.05386953800916672
950,102000.0,-0.20350714027881625,-9.64923095703125,0.025737667456269264
951,102100.0,-0.20350714027881625,-9.64923095703125,0.025737667456269264
952,102200.0,-0.2382230758666992,-9.656414031982422,-0.010773907415568829
953,102300.0,-0.2382230758666992,-9.656414031982422,-0.010773907415568829
954,102400.0,-0.22026655077934265,-9.679757118225098,-0.03112462162971497
955,102500.0,-0.22026655077934265,-9.679757118225098,-0.03112462162971497
956,102600.0,-0.19871874153614044,-9.645041465759276,-0.07541735470294952
957,102700.0,-0.15741875767707825,-9.674968719482422,-0.076015904545784
958,102800.0,-0.15741875767707825,-9.674968719482422,-0.076015904545784
959,102900.0,-0.19572599232196808,-9.676166534423828,-0.10055647045373917
960,103000.0,-0.19572599232196808,-9.676166534423828,-0.10055647045373917
961,103100.0,-0.2017114907503128,-9.66419506072998,-0.0957680642604828
962,103200.0,-0.2017114907503128,-9.66419506072998,-0.0957680642604828
963,103300.0,-0.2017114907503128,-9.673771858215332,-0.04668693244457245
964,103400.0,-0.2017114907503128,-9.673771858215332,-0.04668693244457245
965,103500.0,-0.15023615956306458,-9.6618013381958,-0.09816227108240128
966,103600.0,-0.15023615956306458,-9.6618013381958,-0.09816227108240128
967,103700.0,-0.15801730751991272,-9.642048835754396,-0.09935937076807022
968,103800.0,-0.2148796021938324,-9.645041465759276,-0.0975637212395668
969,103900.0,-0.2148796021938324,-9.645041465759276,-0.0975637212395668
970,104000.0,-0.1825578808784485,-9.667187690734863,-0.0867898091673851
971,104100.0,-0.1825578808784485,-9.667187690734863,-0.0867898091673851
972,104200.0,-0.1909375786781311,-9.6618013381958,-0.10295066982507706
973,104300.0,-0.1909375786781311,-9.6618013381958,-0.10295066982507706
974,104400.0,-0.19033902883529666,-9.674370765686037,-0.11133038252592088
975,104500.0,-0.1951274424791336,-9.660603523254396,-0.08738835901021957
976,104600.0,-0.1951274424791336,-9.660603523254396,-0.08738835901021957
977,104700.0,-0.16639702022075653,-9.670180320739746,-0.09696517139673233
978,104800.0,-0.16639702022075653,-9.670180320739746,-0.09696517139673233
979,104900.0,-0.16639702022075653,-9.655217170715332,-0.14245499670505524
980,105000.0,-0.16639702022075653,-9.655217170715332,-0.14245499670505524
981,105100.0,-0.09516951441764833,-9.693524360656738,-0.16340427100658414
982,105200.0,-0.09516951441764833,-9.693524360656738,-0.16340427100658414
983,105300.0,-0.16579847037792206,-9.654618263244627,-0.15023615956306458
984,105400.0,-0.16579847037792206,-9.654618263244627,-0.15023615956306458
985,105500.0,-0.1885433793067932,-9.659406661987305,-0.1430535465478897
986,105600.0,-0.10534487664699554,-9.646238327026367,-0.14844051003456116
987,105700.0,-0.10534487664699554,-9.646238327026367,-0.14844051003456116
988,105800.0,-0.12090718746185306,-9.675567626953123,-0.15322890877723694
989,105900.0,-0.12090718746185306,-9.675567626953123,-0.15322890877723694
990,106000.0,-0.1256955862045288,-9.655217170715332,-0.16101007163524628
991,106100.0,-0.1256955862045288,-9.655217170715332,-0.16101007163524628
992,106200.0,-0.13287819921970367,-9.667786598205566,-0.15143325924873352
993,106300.0,-0.13287819921970367,-9.667786598205566,-0.15143325924873352
994,106400.0,-0.11791443079710008,-9.62828254699707,-0.18734627962112427
995,106500.0,-0.1388636976480484,-9.68813705444336,-0.1999158412218094
996,106600.0,-0.1388636976480484,-9.68813705444336,-0.1999158412218094
997,106700.0,-0.1430535465478897,-9.656414031982422,-0.17657238245010376
998,106800.0,-0.1430535465478897,-9.656414031982422,-0.17657238245010376
999,106900.0,-0.17896658182144165,-9.660603523254396,-0.1364694982767105
1000,107000.0,-0.17896658182144165,-9.660603523254396,-0.1364694982767105
1001,107100.0,-0.18315643072128296,-9.622895240783693,-0.0957680642604828
1002,107200.0,-0.18315643072128296,-9.622895240783693,-0.0957680642604828
1003,107300.0,-0.1388636976480484,-9.667786598205566,-0.1173158809542656
1004,107400.0,-0.1364694982767105,-9.656414031982422,-0.12629413604736328
1005,107500.0,-0.1364694982767105,-9.656414031982422,-0.12629413604736328
1006,107600.0,-0.14604631066322327,-9.650428771972656,-0.17417816817760468
1007,107700.0,-0.14604631066322327,-9.650428771972656,-0.17417816817760468
1008,107800.0,-0.2082955539226532,-9.65222454071045,-0.14604631066322327
1009,107900.0,-0.2082955539226532,-9.65222454071045,-0.14604631066322327
1010,108000.0,-0.1280897855758667,-9.671976089477539,-0.1346738487482071
1011,108100.0,-0.1280897855758667,-9.671976089477539,-0.1346738487482071
1012,108200.0,-0.1454477459192276,-9.644442558288574,-0.16340427100658414
1013,108300.0,-0.18914192914962769,-9.657012939453123,-0.16340427100658414
1014,108400.0,-0.18914192914962769,-9.657012939453123,-0.16340427100658414
1015,108500.0,-0.17298106849193573,-9.657610893249512,-0.13706804811954498
1016,108600.0,-0.17298106849193573,-9.657610893249512,-0.13706804811954498
1017,108700.0,-0.14425064623355865,-9.66958236694336,-0.1280897855758667
1018,108800.0,-0.14425064623355865,-9.66958236694336,-0.1280897855758667
1019,108900.0,-0.17657238245010376,-9.685144424438477,-0.1125274822115898
1020,109000.0,-0.17657238245010376,-9.685144424438477,-0.1125274822115898
1021,109100.0,-0.1825578808784485,-9.656414031982422,-0.09157821536064148
1022,109200.0,-0.17537526786327362,-9.651026725769043,-0.0694318488240242
1023,109300.0,-0.17537526786327362,-9.651026725769043,-0.0694318488240242
1024,109400.0,-0.18555063009262085,-9.666589736938477,-0.0999579206109047
1025,109500.0,-0.18555063009262085,-9.666589736938477,-0.0999579206109047
1026,109600.0,-0.2148796021938324,-9.665990829467773,-0.060453593730926514
1027,109700.0,-0.2148796021938324,-9.665990829467773,-0.060453593730926514
1028,109800.0,-0.1909375786781311,-9.655217170715332,-0.07302315533161162
1029,109900.0,-0.1909375786781311,-9.655217170715332,-0.07302315533161162
1030,110000.0,-0.1867477297782898,-9.663596153259276,-0.07661445438861847
1031,110100.0,-0.21009120345115664,-9.673172950744627,-0.043095629662275314
1032,110200.0,-0.21009120345115664,-9.673172950744627,-0.043095629662275314
1033,110300.0,-0.2609679996967316,-9.64923095703125,0.03292027488350868
1034,110400.0,-0.2609679996967316,-9.64923095703125,0.03292027488350868
1035,110500.0,-0.22026655077934265,-9.66299819946289,0.07541735470294952
1036,110600.0,-0.22026655077934265,-9.66299819946289,0.07541735470294952
1037,110700.0,-0.21428105235099792,-9.654019355773926,0.038905777037143714
1038,110800.0,-0.21428105235099792,-9.654019355773926,0.038905777037143714
1039,110900.0,-0.24001872539520264,-9.647436141967773,0.12689268589019775
1040,111000.0,-0.1759738177061081,-9.64923095703125,0.08798690885305405
1041,111100.0,-0.1759738177061081,-9.64923095703125,0.08798690885305405
1042,111200.0,-0.1586158573627472,-9.685144424438477,0.06703764945268631
1043,111300.0,-0.1586158573627472,-9.685144424438477,0.06703764945268631
1044,111400.0,-0.1346738487482071,-9.671976089477539,-0.05446808785200119
1045,111500.0,-0.1346738487482071,-9.671976089477539,-0.05446808785200119
1046,111600.0,-0.16340427100658414,-9.716269493103027,-0.08858546614646913
1047,111700.0,-0.16340427100658414,-9.716269493103027,-0.08858546614646913
1048,111800.0,-0.18614917993545527,-9.67077922821045,-0.08499415963888167
1049,111900.0,-0.17717093229293826,-9.656414031982422,-0.11013327538967133
1050,112000.0,-0.17717093229293826,-9.656414031982422,-0.11013327538967133
1051,112100.0,-0.15322890877723694,-9.656414031982422,-0.13587094843387604
1052,112200.0,-0.15322890877723694,-9.656414031982422,-0.13587094843387604
1053,112300.0,-0.18315643072128296,-9.639654159545898,-0.11552023142576218
1054,112400.0,-0.18315643072128296,-9.639654159545898,-0.11552023142576218
1055,112500.0,-0.17717093229293826,-9.676764488220217,-0.152031809091568
1056,112600.0,-0.17717093229293826,-9.676764488220217,-0.152031809091568
1057,112700.0,-0.1280897855758667,-9.697115898132324,-0.17717093229293826
1058,112800.0,-0.16639702022075653,-9.656414031982422,-0.16639702022075653
1059,112900.0,-0.16639702022075653,-9.656414031982422,-0.16639702022075653
1060,113000.0,-0.13706804811954498,-9.632472038269043,-0.1604115068912506
1061,113100.0,-0.13706804811954498,-9.632472038269043,-0.1604115068912506
1062,113200.0,-0.14604631066322327,-9.672574996948242,-0.16340427100658414
1063,113300.0,-0.14604631066322327,-9.672574996948242,-0.16340427100658414
1064,113400.0,-0.15741875767707825,-9.66419506072998,-0.11611878126859665
1065,113500.0,-0.15741875767707825,-9.66419506072998,-0.11611878126859665
1066,113600.0,-0.11851298063993455,-9.66539192199707,-0.14784196019172668
1067,113700.0,-0.12988543510437012,-9.653421401977539,-0.1412578970193863
1068,113800.0,-0.12988543510437012,-9.653421401977539,-0.1412578970193863
1069,113900.0,-0.15023615956306458,-9.658209800720217,-0.1777694821357727
1070,114000.0,-0.15023615956306458,-9.658209800720217,-0.1777694821357727
1071,114100.0,-0.1322796493768692,-9.682151794433594,-0.17657238245010376
1072,114200.0,-0.1322796493768692,-9.682151794433594,-0.17657238245010376
1073,114300.0,-0.12629413604736328,-9.671378135681152,-0.1777694821357727
1074,114400.0,-0.12629413604736328,-9.671378135681152,-0.1777694821357727
1075,114500.0,-0.15263035893440247,-9.667187690734863,-0.15442600846290588
1076,114600.0,-0.12629413604736328,-9.659406661987305,-0.12749123573303225
1077,114700.0,-0.12629413604736328,-9.659406661987305,-0.12749123573303225
1078,114800.0,-0.17058686912059784,-9.642647743225098,-0.11312603205442427
1079,114900.0,-0.17058686912059784,-9.642647743225098,-0.11312603205442427
1080,115000.0,-0.14185644686222074,-9.677363395690918,-0.14065934717655182
1081,115100.0,-0.14185644686222074,-9.677363395690918,-0.14065934717655182
1082,115200.0,-0.09217676520347597,-9.639654159545898,-0.13287819921970367
1083,115300.0,-0.09217676520347597,-9.639654159545898,-0.13287819921970367
1084,115400.0,-0.19692309200763705,-9.665990829467773,-0.11432313174009325
1085,115500.0,-0.11552023142576218,-9.661202430725098,-0.1885433793067932
1086,115600.0,-0.11552023142576218,-9.661202430725098,-0.1885433793067932
1087,115700.0,-0.14425064623355865,-9.643844604492188,-0.17058686912059784
1088,115800.0,-0.14425064623355865,-9.643844604492188,-0.17058686912059784
1089,115900.0,-0.1933317929506302,-9.68274974822998,-0.12270283699035645
1090,116000.0,-0.1933317929506302,-9.68274974822998,-0.12270283699035645
1091,116100.0,-0.20530278980731964,-9.676166534423828,-0.06703764945268631
1092,116200.0,-0.20530278980731964,-9.676166534423828,-0.06703764945268631
1093,116300.0,-0.14664486050605774,-9.649829864501953,-0.1125274822115898
1094,116400.0,-0.17537526786327362,-9.66299819946289,-0.1041477769613266
1095,116500.0,-0.17537526786327362,-9.66299819946289,-0.1041477769613266
1096,116600.0,-0.1843535304069519,-9.654019355773926,-0.08439560979604721
1097,116700.0,-0.1843535304069519,-9.654019355773926,-0.08439560979604721
1098,116800.0,-0.19692309200763705,-9.652822494506836,-0.0999579206109047
1099,116900.0,-0.19692309200763705,-9.652822494506836,-0.0999579206109047
1100,117000.0,-0.16579847037792206,-9.679757118225098,-0.10953472554683684
1101,117100.0,-0.16579847037792206,-9.679757118225098,-0.10953472554683684
1102,117200.0,-0.13706804811954498,-9.653421401977539,-0.11312603205442427
1103,117300.0,-0.1927332431077957,-9.641449928283693,-0.12090718746185306
1104,117400.0,-0.1927332431077957,-9.641449928283693,-0.12090718746185306
1105,117500.0,-0.12928688526153564,-9.64923095703125,-0.15083470940589905
1106,117600.0,-0.12928688526153564,-9.64923095703125,-0.15083470940589905
1107,117700.0,-0.1472434103488922,-9.676764488220217,-0.11432313174009325
1108,117800.0,-0.1472434103488922,-9.676764488220217,-0.11432313174009325
1109,117900.0,-0.15801730751991272,-9.651026725769043,-0.11791443079710008
1110,118000.0,-0.15801730751991272,-9.651026725769043,-0.11791443079710008
1111,118100.0,-0.20350714027881625,-9.662399291992188,-0.15083470940589905
1112,118200.0,-0.029927521944046017,-9.613917350769043,-0.1993172913789749
1113,118300.0,-0.029927521944046017,-9.613917350769043,-0.1993172913789749
1114,118400.0,-0.2346317619085312,-9.630077362060547,-0.18195933103561399
1115,118500.0,-0.2346317619085312,-9.630077362060547,-0.18195933103561399
1116,118600.0,-0.13706804811954498,-9.645041465759276,-0.2041056901216507
1117,118700.0,-0.13706804811954498,-9.645041465759276,-0.2041056901216507
1118,118800.0,-0.22206220030784607,-9.72584629058838,-0.12090718746185306
1119,118900.0,-0.22206220030784607,-9.72584629058838,-0.12090718746185306
1120,119000.0,-0.18974047899246216,-9.64564037322998,-0.11013327538967133
1121,119100.0,-0.1191115379333496,-9.668983459472656,-0.11192893236875534
1122,119200.0,-0.1191115379333496,-9.668983459472656,-0.11192893236875534
1123,119300.0,-0.11133038252592088,-9.677363395690918,-0.12509703636169436
1124,119400.0,-0.11133038252592088,-9.677363395690918,-0.12509703636169436
1125,119500.0,-0.1759738177061081,-9.644442558288574,-0.13168109953403473
1126,119600.0,-0.1759738177061081,-9.644442558288574,-0.13168109953403473
1127,119700.0,-0.18136078119277954,-9.679757118225098,-0.13706804811954498
1128,119800.0,-0.18136078119277954,-9.679757118225098,-0.13706804811954498
1129,119900.0,-0.15741875767707825,-9.661202430725098,-0.14664486050605774
1130,120000.0,-0.15801730751991272,-9.674968719482422,-0.1173158809542656
1131,120100.0,-0.15801730751991272,-9.674968719482422,-0.1173158809542656
1132,120200.0,-0.1472434103488922,-9.651026725769043,-0.15322890877723694
1133,120300.0,-0.1472434103488922,-9.651026725769043,-0.15322890877723694
1134,120400.0,-0.15322890877723694,-9.65222454071045,-0.16160862147808075
1135,120500.0,-0.15322890877723694,-9.65222454071045,-0.16160862147808075
1136,120600.0,-0.12868833541870114,-9.663596153259276,-0.1711854189634323
1137,120700.0,-0.12868833541870114,-9.663596153259276,-0.1711854189634323
1138,120800.0,-0.16998831927776334,-9.663596153259276,-0.1867477297782898
1139,120900.0,-0.1364694982767105,-9.6618013381958,-0.17836803197860718
1140,121000.0,-0.1364694982767105,-9.6618013381958,-0.17836803197860718
1141,121100.0,-0.1909375786781311,-9.66419506072998,-0.1849520802497864
1142,121200.0,-0.1909375786781311,-9.66419506072998,-0.1849520802497864
1143,121300.0,-0.15562310814857486,-9.664793968200684,-0.13347674906253815
1144,121400.0,-0.15562310814857486,-9.664793968200684,-0.13347674906253815
1145,121500.0,-0.17477671802043915,-9.683348655700684,-0.11192893236875534
1146,121600.0,-0.17477671802043915,-9.683348655700684,-0.11192893236875534
1147,121700.0,-0.1604115068912506,-9.643245697021484,-0.10295066982507706
1148,121800.0,-0.17477671802043915,-9.642048835754396,-0.08080431073904037
1149,121900.0,-0.17477671802043915,-9.642048835754396,-0.08080431073904037
1150,122000.0,-0.19393034279346466,-9.665990829467773,-0.10474632680416107
1151,122100.0,-0.19393034279346466,-9.665990829467773,-0.10474632680416107
1152,122200.0,-0.16639702022075653,-9.660005569458008,-0.09397241473197936
1153,122300.0,-0.16639702022075653,-9.660005569458008,-0.09397241473197936
1154,122400.0,-0.2064998894929886,-9.68933391571045,-0.03950432687997818
1155,122500.0,-0.2064998894929886,-9.68933391571045,-0.03950432687997818
1156,122600.0,-0.08559270948171616,-9.592369079589844,-0.061052143573760986
1157,122700.0,-0.21847090125083926,-9.652822494506836,-0.056263741105794914
1158,122800.0,-0.21847090125083926,-9.652822494506836,-0.056263741105794914
1159,122900.0,-0.20290859043598172,-9.68274974822998,-0.04967968538403511
1160,123000.0,-0.20290859043598172,-9.68274974822998,-0.04967968538403511
1161,123100.0,-0.16340427100658414,-9.670180320739746,-0.07481880486011505
1162,123200.0,-0.16340427100658414,-9.670180320739746,-0.07481880486011505
1163,123300.0,-0.1604115068912506,-9.665990829467773,-0.11611878126859665
1164,123400.0,-0.1604115068912506,-9.665990829467773,-0.11611878126859665
1165,123500.0,-0.2106897532939911,-9.662399291992188,-0.08259996026754379
1166,123600.0,-0.17477671802043915,-9.657610893249512,-0.05446808785200119
1167,123700.0,-0.17477671802043915,-9.657610893249512,-0.05446808785200119
1168,123800.0,-0.20290859043598172,-9.63726043701172,-0.07781155407428741
1169,123900.0,-0.20290859043598172,-9.63726043701172,-0.07781155407428741
1170,124000.0,-0.20949265360832212,-9.657012939453123,-0.0520738884806633
1171,124100.0,-0.20949265360832212,-9.657012939453123,-0.0520738884806633
1172,124200.0,-0.15442600846290588,-9.64803409576416,-0.07182604819536209
1173,124300.0,-0.15442600846290588,-9.64803409576416,-0.07182604819536209
1174,124400.0,-0.1777694821357727,-9.651625633239746,-0.07541735470294952
1175,124500.0,-0.1933317929506302,-9.677961349487305,-0.10773907601833344
1176,124600.0,-0.1933317929506302,-9.677961349487305,-0.10773907601833344
1177,124700.0,-0.1825578808784485,-9.646238327026367,-0.0802057534456253
1178,124800.0,-0.1825578808784485,-9.646238327026367,-0.0802057534456253
1179,124900.0,-0.1651999205350876,-9.673172950744627,-0.09636662155389786
1180,125000.0,-0.1651999205350876,-9.673172950744627,-0.09636662155389786
1181,125100.0,-0.1562216579914093,-9.670180320739746,-0.12689268589019775
1182,125200.0,-0.1562216579914093,-9.670180320739746,-0.12689268589019775
1183,125300.0,-0.15502455830574036,-9.671976089477539,-0.11372458189725874
1184,125400.0,-0.15502455830574036,-9.671976089477539,-0.11372458189725874
1185,125500.0,-0.1909375786781311,-9.671976089477539,-0.10953472554683684
1186,125600.0,-0.1735796183347702,-9.691129684448242,-0.13587094843387604
1187,125700.0,-0.1735796183347702,-9.691129684448242,-0.13587094843387604
1188,125800.0,-0.1843535304069519,-9.68155288696289,-0.10594342648983003
1189,125900.0,-0.1843535304069519,-9.68155288696289,-0.10594342648983003
1190,126000.0,-0.1364694982767105,-9.673771858215332,-0.15023615956306458
1191,126100.0,-0.1364694982767105,-9.673771858215332,-0.15023615956306458
1192,126200.0,-0.16579847037792206,-9.676764488220217,-0.13946224749088287
1193,126300.0,-0.16579847037792206,-9.676764488220217,-0.13946224749088287
1194,126400.0,-0.1322796493768692,-9.678560256958008,-0.13766659796237946
1195,126500.0,-0.15143325924873352,-9.70310115814209,-0.10474632680416107
1196,126600.0,-0.15143325924873352,-9.70310115814209,-0.10474632680416107
1197,126700.0,-0.1628057211637497,-9.659406661987305,-0.11192893236875534
1198,126800.0,-0.1628057211637497,-9.659406661987305,-0.11192893236875534
1199,126900.0,-0.1909375786781311,-9.664793968200684,-0.06524199992418289
1200,127000.0,-0.1909375786781311,-9.664793968200684,-0.06524199992418289
1201,127100.0,-0.15263035893440247,-9.68155288696289,-0.03232172131538391
1202,127200.0,-0.20111294090747836,-9.663596153259276,-0.026336219161748886
1203,127300.0,-0.20111294090747836,-9.663596153259276,-0.026336219161748886
1204,127400.0,-0.17657238245010376,-9.641449928283693,-0.059855043888092034
1205,127500.0,-0.17657238245010376,-9.641449928283693,-0.059855043888092034
1206,127600.0,-0.1173158809542656,-9.68274974822998,-0.11671733111143112
1207,127700.0,-0.1173158809542656,-9.68274974822998,-0.11671733111143112
1208,127800.0,-0.18734627962112427,-9.659406661987305,-0.07541735470294952
1209,127900.0,-0.18734627962112427,-9.659406661987305,-0.07541735470294952
1210,128000.0,-0.17058686912059784,-9.649829864501953,-0.0867898091673851
1211,128100.0,-0.17058686912059784,-9.649829864501953,-0.0867898091673851
1212,128200.0,-0.12629413604736328,-9.646238327026367,-0.035314474254846566
1213,128300.0,-0.15442600846290588,-9.639654159545898,-0.0957680642604828
1214,128400.0,-0.15442600846290588,-9.639654159545898,-0.0957680642604828
1215,128500.0,-0.22445641458034515,-9.653421401977539,-0.06883329898118973
1216,128600.0,-0.22445641458034515,-9.653421401977539,-0.06883329898118973
1217,128700.0,-0.1885433793067932,-9.68933391571045,-0.0802057534456253
1218,128800.0,-0.1885433793067932,-9.68933391571045,-0.0802057534456253
1219,128900.0,-0.23163901269435885,-9.651026725769043,-0.042497079819440835
1220,129000.0,-0.23163901269435885,-9.651026725769043,-0.042497079819440835
1221,129100.0,-0.18315643072128296,-9.639056205749512,-0.0011971008498221636
1222,129200.0,-0.15741875767707825,-9.679757118225098,-0.0867898091673851
1223,129300.0,-0.15741875767707825,-9.679757118225098,-0.0867898091673851
1224,129400.0,-0.1927332431077957,-9.673172950744627,-0.08319851011037828
1225,129500.0,-0.1927332431077957,-9.673172950744627,-0.08319851011037828
1226,129600.0,-0.17717093229293826,-9.6618013381958,-0.10175357013940813
1227,129700.0,-0.17717093229293826,-9.6618013381958,-0.10175357013940813
1228,129800.0,-0.1909375786781311,-9.667786598205566,-0.11971008777618407
1229,129900.0,-0.1909375786781311,-9.667786598205566,-0.11971008777618407
1230,130000.0,-0.15562310814857486,-9.682151794433594,-0.15143325924873352
1231,130100.0,-0.14365209639072418,-9.675567626953123,-0.16400282084941864
1232,130200.0,-0.14365209639072418,-9.675567626953123,-0.16400282084941864
1233,130300.0,-0.14425064623355865,-9.667786598205566,-0.2477998733520508
1234,130400.0,-0.14425064623355865,-9.667786598205566,-0.2477998733520508
1235,130500.0,-0.16879121959209442,-9.674370765686037,-0.22625206410884854
1236,130600.0,-0.16879121959209442,-9.674370765686037,-0.22625206410884854
1237,130700.0,-0.1867477297782898,-9.676166534423828,-0.19452889263629916
1238,130800.0,-0.1867477297782898,-9.676166534423828,-0.19452889263629916
1239,130900.0,-0.12270283699035645,-9.66299819946289,-0.152031809091568
1240,131000.0,-0.11312603205442427,-9.68274974822998,-0.15023615956306458
1241,131100.0,-0.11312603205442427,-9.68274974822998,-0.15023615956306458
1242,131200.0,-0.08559270948171616,-9.666589736938477,-0.1628057211637497
1243,131300.0,-0.08559270948171616,-9.666589736938477,-0.1628057211637497
1244,131400.0,-0.1430535465478897,-9.648633003234863,-0.14006079733371735
1245,131500.0,-0.1430535465478897,-9.648633003234863,-0.14006079733371735
1246,131600.0,-0.152031809091568,-9.659406661987305,-0.14844051003456116
1247,131700.0,-0.152031809091568,-9.659406661987305,-0.14844051003456116
1248,131800.0,-0.14425064623355865,-9.68813705444336,-0.1651999205350876
1249,131900.0,-0.1472434103488922,-9.67077922821045,-0.18914192914962769
1250,132000.0,-0.1472434103488922,-9.67077922821045,-0.18914192914962769
1251,132100.0,-0.1430535465478897,-9.674370765686037,-0.17657238245010376
1252,132200.0,-0.1430535465478897,-9.674370765686037,-0.17657238245010376
1253,132300.0,-0.15921440720558167,-9.689932823181152,-0.16101007163524628
1254,132400.0,-0.15921440720558167,-9.689932823181152,-0.16101007163524628
1255,132500.0,-0.11671733111143112,-9.674370765686037,-0.1735796183347702
1256,132600.0,-0.11671733111143112,-9.674370765686037,-0.1735796183347702
1257,132700.0,-0.14006079733371735,-9.64683723449707,-0.14245499670505524
1258,132800.0,-0.15502455830574036,-9.679757118225098,-0.18136078119277954
1259,132900.0,-0.15502455830574036,-9.679757118225098,-0.18136078119277954
1260,133000.0,-0.09277531504631042,-9.656414031982422,-0.1927332431077957
1261,133100.0,-0.09277531504631042,-9.656414031982422,-0.1927332431077957
1262,133200.0,-0.15801730751991272,-9.655217170715332,-0.17896658182144165
1263,133300.0,-0.15801730751991272,-9.655217170715332,-0.17896658182144165
1264,133400.0,-0.09457096457481384,-9.64803409576416,-0.17058686912059784
1265,133500.0,-0.09457096457481384,-9.64803409576416,-0.17058686912059784
1266,133600.0,-0.13048399984836578,-9.68694019317627,-0.13766659796237946
1267,133700.0,-0.15083470940589905,-9.659406661987305,-0.13287819921970367
1268,133800.0,-0.15083470940589905,-9.659406661987305,-0.13287819921970367
1269,133900.0,-0.14065934717655182,-9.657012939453123,-0.16400282084941864
1270,134000.0,-0.14065934717655182,-9.657012939453123,-0.16400282084941864
1271,134100.0,-0.10833762586116792,-9.659406661987305,-0.16101007163524628
1272,134200.0,-0.10833762586116792,-9.659406661987305,-0.16101007163524628
1273,134300.0,-0.09636662155389786,-9.64683723449707,-0.19033902883529666
1274,134400.0,-0.09636662155389786,-9.64683723449707,-0.19033902883529666
1275,134500.0,-0.08439560979604721,-9.659406661987305,-0.16400282084941864
1276,134600.0,-0.13168109953403473,-9.671976089477539,-0.15981295704841614
1277,134700.0,-0.13168109953403473,-9.671976089477539,-0.15981295704841614
1278,134800.0,-0.14425064623355865,-9.657610893249512,-0.14245499670505524
1279,134900.0,-0.14425064623355865,-9.657610893249512,-0.14245499670505524
1280,135000.0,-0.15083470940589905,-9.665990829467773,-0.13766659796237946
1281,135100.0,-0.15083470940589905,-9.665990829467773,-0.13766659796237946
1282,135200.0,-0.152031809091568,-9.653421401977539,-0.09696517139673233
1283,135300.0,-0.152031809091568,-9.653421401977539,-0.09696517139673233
1284,135400.0,-0.12629413604736328,-9.634865760803224,-0.12928688526153564
1285,135500.0,-0.13108254969120026,-9.66299819946289,-0.12449848651885985
1286,135600.0,-0.13108254969120026,-9.66299819946289,-0.12449848651885985
1287,135700.0,-0.166995570063591,-9.660603523254396,-0.1125274822115898
1288,135800.0,-0.166995570063591,-9.660603523254396,-0.1125274822115898
1289,135900.0,-0.15682020783424375,-9.677961349487305,-0.13108254969120026
1290,136000.0,-0.15682020783424375,-9.677961349487305,-0.13108254969120026
1291,136100.0,-0.13766659796237946,-9.657610893249512,-0.13946224749088287
1292,136200.0,-0.13766659796237946,-9.657610893249512,-0.13946224749088287
1293,136300.0,-0.12270283699035645,-9.653421401977539,-0.13706804811954498
1294,136400.0,-0.11791443079710008,-9.66299819946289,-0.1496376097202301
1295,136500.0,-0.11791443079710008,-9.66299819946289,-0.1496376097202301
1296,136600.0,-0.1256955862045288,-9.673172950744627,-0.1472434103488922
1297,136700.0,-0.1256955862045288,-9.673172950744627,-0.1472434103488922
1298,136800.0,-0.13108254969120026,-9.687539100646973,-0.14006079733371735
1299,136900.0,-0.13108254969120026,-9.687539100646973,-0.14006079733371735
1300,137000.0,-0.13347674906253815,-9.649829864501953,-0.0957680642604828
1301,137100.0,-0.13347674906253815,-9.649829864501953,-0.0957680642604828
1302,137200.0,-0.12928688526153564,-9.628880500793457,-0.1215057373046875
1303,137300.0,-0.10893617570400238,-9.64683723449707,-0.10295066982507706
1304,137400.0,-0.10893617570400238,-9.64683723449707,-0.10295066982507706
1305,137500.0,-0.1496376097202301,-9.671378135681152,-0.16220717132091522
1306,137600.0,-0.1496376097202301,-9.671378135681152,-0.16220717132091522
1307,137700.0,-0.13287819921970367,-9.64564037322998,-0.17058686912059784
1308,137800.0,-0.13287819921970367,-9.64564037322998,-0.17058686912059784
1309,137900.0,-0.1885433793067932,-9.66419506072998,-0.17717093229293826
1310,138000.0,-0.1885433793067932,-9.66419506072998,-0.17717093229293826
1311,138100.0,-0.1472434103488922,-9.654019355773926,-0.19871874153614044
1312,138200.0,-0.12090718746185306,-9.648633003234863,-0.1843535304069519
1313,138300.0,-0.12090718746185306,-9.648633003234863,-0.1843535304069519
1314,138400.0,-0.12988543510437012,-9.678560256958008,-0.2172738015651703
1315,138500.0,-0.12988543510437012,-9.678560256958008,-0.2172738015651703
1316,138600.0,-0.14365209639072418,-9.664793968200684,-0.22086510062217712
1317,138700.0,-0.14365209639072418,-9.664793968200684,-0.22086510062217712
1318,138800.0,-0.1454477459192276,-9.657012939453123,-0.1951274424791336
1319,138900.0,-0.1454477459192276,-9.657012939453123,-0.1951274424791336
1320,139000.0,-0.166995570063591,-9.65581512451172,-0.17477671802043915
1321,139100.0,-0.13048399984836578,-9.636661529541016,-0.14844051003456116
1322,139200.0,-0.13048399984836578,-9.636661529541016,-0.14844051003456116
1323,139300.0,-0.1238999366760254,-9.67077922821045,-0.14425064623355865
1324,139400.0,-0.1238999366760254,-9.67077922821045,-0.14425064623355865
1325,139500.0,-0.10534487664699554,-9.658807754516602,-0.1628057211637497
1326,139600.0,-0.10534487664699554,-9.658807754516602,-0.1628057211637497
1327,139700.0,-0.12988543510437012,-9.679159164428713,-0.1777694821357727
1328,139800.0,-0.12988543510437012,-9.679159164428713,-0.1777694821357727
1329,139900.0,-0.13527239859104154,-9.651625633239746,-0.16400282084941864
1330,140000.0,-0.1256955862045288,-9.66299819946289,-0.1777694821357727
1331,140100.0,-0.1256955862045288,-9.66299819946289,-0.1777694821357727
1332,140200.0,-0.13587094843387604,-9.673172950744627,-0.1604115068912506
1333,140300.0,-0.13587094843387604,-9.673172950744627,-0.1604115068912506
1334,140400.0,-0.10953472554683684,-9.68574333190918,-0.16819266974925995
1335,140500.0,-0.10953472554683684,-9.68574333190918,-0.16819266974925995
1336,140600.0,-0.15023615956306458,-9.657012939453123,-0.1388636976480484
1337,140700.0,-0.15023615956306458,-9.657012939453123,-0.1388636976480484
1338,140800.0,-0.13407529890537262,-9.63187313079834,-0.1628057211637497
1339,140900.0,-0.08200141042470932,-9.627683639526367,-0.1975216418504715
1340,141000.0,-0.08200141042470932,-9.627683639526367,-0.1975216418504715
1341,141100.0,-0.17298106849193573,-9.677363395690918,-0.15801730751991272
1342,141200.0,-0.17298106849193573,-9.677363395690918,-0.15801730751991272
1343,141300.0,-0.20290859043598172,-9.63187313079834,-0.17537526786327362
1344,141400.0,-0.20290859043598172,-9.63187313079834,-0.17537526786327362
1345,141500.0,-0.1280897855758667,-9.64803409576416,-0.16879121959209442
1346,141600.0,-0.1280897855758667,-9.64803409576416,-0.16879121959209442
1347,141700.0,-0.09217676520347597,-9.659406661987305,-0.17178396880626678
1348,141800.0,-0.2890998423099518,-10.055048942565918,-0.487220048904419
1349,141900.0,-0.2890998423099518,-10.055048942565918,-0.487220048904419
1350,142000.0,-0.15502455830574036,-9.68155288696289,-0.21547815203666687
1351,142100.0,-0.15502455830574036,-9.68155288696289,-0.21547815203666687
1352,142200.0,-0.14185644686222074,-9.674968719482422,-0.1711854189634323
1353,142300.0,-0.14185644686222074,-9.674968719482422,-0.1711854189634323
1354,142400.0,-0.18136078119277954,-9.662399291992188,-0.18375498056411746
1355,142500.0,-0.18136078119277954,-9.662399291992188,-0.18375498056411746
1356,142600.0,-0.1885433793067932,-9.674968719482422,-0.0802057534456253
1357,142700.0,-0.07302315533161162,-9.64564037322998,-0.10654197633266448
1358,142800.0,-0.07302315533161162,-9.64564037322998,-0.10654197633266448
1359,142900.0,-0.2148796021938324,-9.659406661987305,-0.0694318488240242
1360,143000.0,-0.2148796021938324,-9.659406661987305,-0.0694318488240242
1361,143100.0,-0.1191115379333496,-9.64803409576416,-0.07721300423145294
1362,143200.0,-0.1191115379333496,-9.64803409576416,-0.07721300423145294
1363,143300.0,-0.17238251864910126,-9.660005569458008,-0.11432313174009325
1364,143400.0,-0.17238251864910126,-9.660005569458008,-0.11432313174009325
1365,143500.0,-0.1412578970193863,-9.690531730651855,-0.10175357013940813
1366,143600.0,-0.2214636504650116,-9.679159164428713,-0.15981295704841614
1367,143700.0,-0.2214636504650116,-9.679159164428713,-0.15981295704841614
1368,143800.0,-0.18794482946395874,-9.671976089477539,-0.15981295704841614
1369,143900.0,-0.18794482946395874,-9.671976089477539,-0.15981295704841614
1370,144000.0,-0.1735796183347702,-9.66419506072998,-0.11791443079710008
1371,144100.0,-0.1735796183347702,-9.66419506072998,-0.11791443079710008
1372,144200.0,-0.1711854189634323,-9.654019355773926,-0.11312603205442427
1373,144300.0,-0.1711854189634323,-9.654019355773926,-0.11312603205442427
1374,144400.0,-0.13347674906253815,-9.63726043701172,-0.14185644686222074
1375,144500.0,-0.10654197633266448,-9.670180320739746,-0.19632454216480252
1376,144600.0,-0.10654197633266448,-9.670180320739746,-0.19632454216480252
1377,144700.0,-0.26396074891090393,-9.657610893249512,-0.09038111567497252
1378,144800.0,-0.26396074891090393,-9.657610893249512,-0.09038111567497252
1379,144900.0,-0.15263035893440247,-9.727043151855467,-0.12210428714752194
1380,145000.0,-0.15263035893440247,-9.727043151855467,-0.12210428714752194
1381,145100.0,-0.13527239859104154,-9.567230224609377,-0.07960720360279082
1382,145200.0,-0.13527239859104154,-9.567230224609377,-0.07960720360279082
1383,145300.0,-0.09696517139673233,-9.640253067016602,-0.05327098816633225
1384,145400.0,-0.13706804811954498,-9.656414031982422,-0.05686229094862937
1385,145500.0,-0.13706804811954498,-9.656414031982422,-0.05686229094862937
1386,145600.0,-0.1364694982767105,-9.66539192199707,-0.05506663769483566
1387,145700.0,-0.1364694982767105,-9.66539192199707,-0.05506663769483566
1388,145800.0,-0.08798690885305405,-9.610923767089844,-0.12330138683319093
1389,145900.0,-0.08798690885305405,-9.610923767089844,-0.12330138683319093
1390,146000.0,-0.16998831927776334,-9.691129684448242,-0.1604115068912506
1391,146100.0,-0.16998831927776334,-9.691129684448242,-0.1604115068912506
1392,146200.0,-0.14425064623355865,-9.594164848327637,-0.1215057373046875
1393,146300.0,-0.09397241473197936,-9.701305389404297,-0.17657238245010376
1394,146400.0,-0.09397241473197936,-9.701305389404297,-0.17657238245010376
1395,146500.0,-0.10714052617549896,-9.678560256958008,-0.16998831927776334
1396,146600.0,-0.10714052617549896,-9.678560256958008,-0.16998831927776334
1397,146700.0,-0.1280897855758667,-9.659406661987305,-0.2322375625371933
1398,146800.0,-0.1280897855758667,-9.659406661987305,-0.2322375625371933
1399,146900.0,-0.17058686912059784,-9.678560256958008,-0.20530278980731964
1400,147000.0,-0.17058686912059784,-9.678560256958008,-0.20530278980731964
1401,147100.0,-0.06883329898118973,-9.65581512451172,-0.20051439106464386
1402,147200.0,-0.06883329898118973,-9.65581512451172,-0.20051439106464386
1403,147300.0,-0.1107318252325058,-9.659406661987305,-0.1999158412218094
1404,147400.0,-0.08978256583213806,-9.674370765686037,-0.19213469326496124
1405,147500.0,-0.08978256583213806,-9.674370765686037,-0.19213469326496124
1406,147600.0,-0.08319851011037828,-9.646238327026367,-0.16579847037792206
1407,147700.0,-0.08319851011037828,-9.646238327026367,-0.16579847037792206
1408,147800.0,-0.2663549482822418,-9.701904296875,-0.15682020783424375
1409,147900.0,-0.2663549482822418,-9.701904296875,-0.15682020783424375
1410,148000.0,-0.09097966551780699,-9.640851974487305,-0.17417816817760468
1411,148100.0,-0.09097966551780699,-9.640851974487305,-0.17417816817760468
1412,148200.0,-0.18974047899246216,-9.62947940826416,-0.13048399984836578
1413,148300.0,-0.12509703636169436,-9.671976089477539,-0.1849520802497864
1414,148400.0,-0.12509703636169436,-9.671976089477539,-0.1849520802497864
1415,148500.0,-0.16759411990642548,-9.662399291992188,-0.1364694982767105
1416,148600.0,-0.16759411990642548,-9.662399291992188,-0.1364694982767105
1417,148700.0,-0.1843535304069519,-9.691728591918944,-0.13048399984836578
1418,148800.0,-0.1843535304069519,-9.691728591918944,-0.13048399984836578
1419,148900.0,-0.2041056901216507,-9.658807754516602,-0.18375498056411746
1420,149000.0,-0.2041056901216507,-9.658807754516602,-0.18375498056411746
1421,149100.0,-0.08140286058187485,-9.55705451965332,0.03770867735147476
1422,149200.0,-0.04848258569836617,-9.71926212310791,-0.1604115068912506
1423,149300.0,-0.04848258569836617,-9.71926212310791,-0.1604115068912506
1424,149400.0,-0.07900865375995636,-9.660603523254396,-0.22685061395168304
1425,149500.0,-0.07900865375995636,-9.660603523254396,-0.22685061395168304
1426,149600.0,0.1843535304069519,-9.641449928283693,-0.2944868206977844
1427,149700.0,0.1843535304069519,-9.641449928283693,-0.2944868206977844
1428,149800.0,0.1107318252325058,-9.68574333190918,-0.2890998423099518
1429,149900.0,0.1107318252325058,-9.68574333190918,-0.2890998423099518
1430,150000.0,0.06404489278793335,-9.677961349487305,-0.2495955228805542
1431,150100.0,-0.0628477931022644,-9.64803409576416,-0.2489969730377197
1432,150200.0,-0.0628477931022644,-9.64803409576416,-0.2489969730377197
1433,150300.0,-0.10714052617549896,-9.66539192199707,-0.10714052617549896
1434,150400.0,-0.10714052617549896,-9.66539192199707,-0.10714052617549896
1435,150500.0,-0.09397241473197936,-9.656414031982422,-0.061052143573760986
1436,150600.0,-0.09397241473197936,-9.656414031982422,-0.061052143573760986
1437,150700.0,-0.15442600846290588,-9.692925453186037,0.025737667456269264
1438,150800.0,-0.15442600846290588,-9.692925453186037,0.025737667456269264
1439,150900.0,-0.05506663769483566,-9.633668899536133,-0.14185644686222074
1440,151000.0,-0.10235211998224257,-9.648633003234863,-0.1867477297782898
1441,151100.0,-0.10235211998224257,-9.648633003234863,-0.1867477297782898
1442,151200.0,-0.17298106849193573,-9.659406661987305,-0.2298433631658554
1443,151300.0,-0.17298106849193573,-9.659406661987305,-0.2298433631658554
1444,151400.0,-0.1651999205350876,-9.662399291992188,-0.1975216418504715
1445,151500.0,-0.1651999205350876,-9.662399291992188,-0.1975216418504715
1446,151600.0,-0.16579847037792206,-9.658807754516602,-0.2064998894929886
1447,151700.0,-0.16579847037792206,-9.658807754516602,-0.2064998894929886
1448,151800.0,-0.1430535465478897,-9.777320861816406,-0.11851298063993455
1449,151900.0,-0.1562216579914093,-9.694721221923828,-0.15263035893440247
1450,152000.0,-0.1562216579914093,-9.694721221923828,-0.15263035893440247
1451,152100.0,-0.11851298063993455,-9.624691009521484,-0.10953472554683684
1452,152200.0,-0.11851298063993455,-9.624691009521484,-0.10953472554683684
1453,152300.0,-0.2914940714836121,-9.664793968200684,0.019153613597154617
1454,152400.0,-0.2914940714836121,-9.664793968200684,0.019153613597154617
1455,152500.0,-0.10833762586116792,-9.641449928283693,-0.0694318488240242
1456,152600.0,-0.16160862147808075,-9.6989107131958,-0.14784196019172668
1457,152700.0,-0.16160862147808075,-9.6989107131958,-0.14784196019172668
1458,152800.0,-0.1801636815071106,-9.63067626953125,-0.09097966551780699
1459,152900.0,-0.1801636815071106,-9.63067626953125,-0.09097966551780699
1460,153000.0,-0.21847090125083926,-9.685144424438477,-0.15322890877723694
1461,153100.0,-0.21847090125083926,-9.685144424438477,-0.15322890877723694
1462,153200.0,-0.14903905987739566,-9.692925453186037,-0.14425064623355865
1463,153300.0,-0.14903905987739566,-9.692925453186037,-0.14425064623355865
1464,153400.0,-0.2801215946674347,-9.634865760803224,-0.10534487664699554
1465,153500.0,-0.2801215946674347,-9.634865760803224,-0.10534487664699554
1466,153600.0,-0.15921440720558167,-9.658807754516602,-0.07481880486011505
1467,153700.0,-0.1041477769613266,-9.673172950744627,-0.10594342648983003
1468,153800.0,-0.1041477769613266,-9.673172950744627,-0.10594342648983003
1469,153900.0,-0.10055647045373917,-9.658209800720217,-0.15801730751991272
1470,154000.0,-0.10055647045373917,-9.658209800720217,-0.15801730751991272
1471,154100.0,-0.25977087020874023,-9.683348655700684,-0.059855043888092034
1472,154200.0,-0.25977087020874023,-9.683348655700684,-0.059855043888092034
1473,154300.0,-0.4914098978042602,-9.679159164428713,-0.3351882398128509
1474,154400.0,-0.4914098978042602,-9.679159164428713,-0.3351882398128509
1475,154500.0,0.2795230448246002,-9.701305389404297,-0.1909375786781311
1476,154600.0,0.2795230448246002,-9.701305389404297,-0.1909375786781311
1477,154700.0,-0.4219780564308167,-9.657610893249512,0.1496376097202301
1478,154800.0,-0.14425064623355865,-9.622296333312988,-0.12330138683319093
1479,154900.0,-0.14425064623355865,-9.622296333312988,-0.12330138683319093
1480,155000.0,-0.16639702022075653,-9.578003883361816,-0.03112462162971497
1481,155100.0,-0.16639702022075653,-9.578003883361816,-0.03112462162971497
1482,155200.0,-0.1628057211637497,-9.70429801940918,-0.12928688526153564
1483,155300.0,-0.1628057211637497,-9.70429801940918,-0.12928688526153564
1484,155400.0,-0.0586579404771328,-9.656414031982422,-0.1825578808784485
1485,155500.0,-0.18136078119277954,-9.679757118225098,-0.12449848651885985
1486,155600.0,-0.18136078119277954,-9.679757118225098,-0.12449848651885985
1487,155700.0,-0.2807201445102692,-9.609128952026367,-0.034117374569177635
1488,155800.0,-0.2807201445102692,-9.609128952026367,-0.034117374569177635
1489,155900.0,-0.3669114112854004,-9.643844604492188,0.013766659423708916
1490,156000.0,-0.3669114112854004,-9.643844604492188,0.013766659423708916
1491,156100.0,0.12270283699035645,-9.674968719482422,-0.07182604819536209
1492,156200.0,0.12270283699035645,-9.674968719482422,-0.07182604819536209
1493,156300.0,-0.198120191693306,-9.604340553283693,-0.050876785069704056
1494,156400.0,-0.4297592043876648,-9.588179588317873,-0.047884032130241394
1495,156500.0,-0.4297592043876648,-9.588179588317873,-0.047884032130241394
1496,156600.0,-0.1825578808784485,-9.70968532562256,-0.1191115379333496
1497,156700.0,-0.1825578808784485,-9.70968532562256,-0.1191115379333496
1498,156800.0,0.016160860657691956,-9.459490776062012,-0.5428852438926697
1499,156900.0,0.016160860657691956,-9.459490776062012,-0.5428852438926697
1500,157000.0,-0.13168109953403473,-9.707889556884766,-0.4094084799289704
1501,157100.0,-0.13168109953403473,-9.707889556884766,-0.4094084799289704
1502,157200.0,-0.1646013706922531,-9.668983459472656,-0.12210428714752194
1503,157300.0,-0.12509703636169436,-9.668384552001953,-0.2609679996967316
1504,157400.0,-0.12509703636169436,-9.668384552001953,-0.2609679996967316
1505,157500.0,0.02753331884741783,-9.692925453186037,-0.2663549482822418
1506,157600.0,0.02753331884741783,-9.692925453186037,-0.2663549482822418
1507,157700.0,-0.0694318488240242,-9.692925453186037,-0.2567781209945679
1508,157800.0,-0.0694318488240242,-9.692925453186037,-0.2567781209945679
1509,157900.0,0.016759412363171574,-9.668983459472656,-0.3351882398128509
1510,158000.0,0.016759412363171574,-9.668983459472656,-0.3351882398128509
1511,158100.0,-0.09696517139673233,-9.639654159545898,-0.2472013235092163
1512,158200.0,-0.09935937076807022,-9.659406661987305,-0.23283611238002774
1513,158300.0,-0.09935937076807022,-9.659406661987305,-0.23283611238002774
1514,158400.0,-0.035314474254846566,-9.598953247070312,-0.2489969730377197
1515,158500.0,-0.035314474254846566,-9.598953247070312,-0.2489969730377197
1516,158600.0,0.19632454216480252,-9.656414031982422,-0.3357867896556854
1517,158700.0,0.19632454216480252,-9.656414031982422,-0.3357867896556854
1518,158800.0,-0.21308395266532895,-9.625887870788574,-0.25438392162323004
1519,158900.0,-0.21308395266532895,-9.625887870788574,-0.25438392162323004
1520,159000.0,-0.09157821536064148,-9.68694019317627,-0.1843535304069519
1521,159100.0,-0.1777694821357727,-9.729436874389648,-0.23762452602386475
1522,159200.0,-0.1777694821357727,-9.729436874389648,-0.23762452602386475
1523,159300.0,-0.08259996026754379,-9.668983459472656,-0.2944868206977844
1524,159400.0,-0.08259996026754379,-9.668983459472656,-0.2944868206977844
1525,159500.0,-0.19393034279346466,-9.68933391571045,-0.2519897222518921
1526,159600.0,-0.19393034279346466,-9.68933391571045,-0.2519897222518921
1527,159700.0,-0.14903905987739566,-9.659406661987305,-0.2663549482822418
1528,159800.0,-0.14903905987739566,-9.659406661987305,-0.2663549482822418
1529,159900.0,-0.1849520802497864,-9.611522674560547,-0.3495534360408783
1530,160000.0,-0.12030863761901855,-9.674968719482422,-0.21847090125083926
1531,160100.0,-0.12030863761901855,-9.674968719482422,-0.21847090125083926
1532,160200.0,-0.20889410376548767,-9.647436141967773,-0.2274491637945175
1533,160300.0,-0.20889410376548767,-9.647436141967773,-0.2274491637945175
1534,160400.0,-0.1454477459192276,-9.660603523254396,-0.17178396880626678
1535,160500.0,-0.1454477459192276,-9.660603523254396,-0.17178396880626678
1536,160600.0,-0.1915361285209656,-9.68813705444336,-0.05327098816633225
1537,160700.0,-0.1915361285209656,-9.68813705444336,-0.05327098816633225
1538,160800.0,-0.23762452602386475,-9.649829864501953,-0.15981295704841614
1539,160900.0,-0.13407529890537262,-9.64564037322998,-0.18195933103561399
1540,161000.0,-0.13407529890537262,-9.64564037322998,-0.18195933103561399
1541,161100.0,-0.20111294090747836,-9.644442558288574,-0.19452889263629916
1542,161200.0,-0.20111294090747836,-9.644442558288574,-0.19452889263629916
1543,161300.0,-0.08619125932455063,-9.66419506072998,-0.24001872539520264
1544,161400.0,-0.08619125932455063,-9.66419506072998,-0.24001872539520264
1545,161500.0,-0.1801636815071106,-9.665990829467773,-0.20111294090747836
1546,161600.0,-0.1801636815071106,-9.665990829467773,-0.20111294090747836
1547,161700.0,-0.1322796493768692,-9.65222454071045,-0.17178396880626678
1548,161800.0,-0.08080431073904037,-9.663596153259276,-0.18794482946395874
1549,161900.0,-0.08080431073904037,-9.663596153259276,-0.18794482946395874
1550,162000.0,-0.1322796493768692,-9.664793968200684,-0.1849520802497864
1551,162100.0,-0.1322796493768692,-9.664793968200684,-0.1849520802497864
1552,162200.0,-0.1604115068912506,-9.662399291992188,-0.16340427100658414
1553,162300.0,-0.1604115068912506,-9.662399291992188,-0.16340427100658414
1554,162400.0,-0.13527239859104154,-9.66299819946289,-0.17657238245010376
1555,162500.0,-0.13527239859104154,-9.66299819946289,-0.17657238245010376
1556,162600.0,-0.19871874153614044,-9.687539100646973,-0.17298106849193573
1557,162700.0,-0.14365209639072418,-9.666589736938477,-0.2124854028224945
1558,162800.0,-0.14365209639072418,-9.666589736938477,-0.2124854028224945
1559,162900.0,-0.15682020783424375,-9.66419506072998,-0.1759738177061081
1560,163000.0,-0.15682020783424375,-9.66419506072998,-0.1759738177061081
1561,163100.0,-0.1538274586200714,-9.671378135681152,-0.16879121959209442
1562,163200.0,-0.1538274586200714,-9.671378135681152,-0.16879121959209442
1563,163300.0,-0.1454477459192276,-9.673172950744627,-0.22086510062217712
1564,163400.0,-0.1454477459192276,-9.673172950744627,-0.22086510062217712
1565,163500.0,-0.15682020783424375,-9.670180320739746,-0.18914192914962769
1566,163600.0,-0.11791443079710008,-9.67077922821045,-0.16160862147808075
1567,163700.0,-0.11791443079710008,-9.67077922821045,-0.16160862147808075
1568,163800.0,-0.13587094843387604,-9.671378135681152,-0.2017114907503128
1569,163900.0,-0.13587094843387604,-9.671378135681152,-0.2017114907503128
1570,164000.0,-0.16759411990642548,-9.664793968200684,-0.18315643072128296
1571,164100.0,-0.16759411990642548,-9.664793968200684,-0.18315643072128296
1572,164200.0,-0.15502455830574036,-9.67077922821045,-0.1777694821357727
1573,164300.0,-0.15502455830574036,-9.67077922821045,-0.1777694821357727
1574,164400.0,-0.13048399984836578,-9.658209800720217,-0.20769700407981875
1575,164500.0,-0.18734627962112427,-9.70968532562256,-0.17417816817760468
1576,164600.0,-0.18734627962112427,-9.70968532562256,-0.17417816817760468
1577,164700.0,-0.13347674906253815,-9.68694019317627,-0.14604631066322327
1578,164800.0,-0.13347674906253815,-9.68694019317627,-0.14604631066322327
1579,164900.0,-0.12689268589019775,-9.651026725769043,-0.1604115068912506
1580,165000.0,-0.12689268589019775,-9.651026725769043,-0.1604115068912506
1581,165100.0,-0.1711854189634323,-9.672574996948242,-0.14185644686222074
1582,165200.0,-0.1711854189634323,-9.672574996948242,-0.14185644686222074
1583,165300.0,-0.21368250250816345,-9.639654159545898,-0.07721300423145294
1584,165400.0,-0.21368250250816345,-9.639654159545898,-0.07721300423145294
1585,165500.0,-0.1604115068912506,-9.683947563171387,-0.07661445438861847
1586,165600.0,-0.0736217051744461,-9.645041465759276,-0.1388636976480484
1587,165700.0,-0.0736217051744461,-9.645041465759276,-0.1388636976480484
1588,165800.0,-0.2292448133230209,-9.618106842041016,-0.1454477459192276
1589,165900.0,-0.2292448133230209,-9.618106842041016,-0.1454477459192276
1590,166000.0,-0.1867477297782898,-9.639056205749512,-0.1735796183347702
1591,166100.0,-0.1867477297782898,-9.639056205749512,-0.1735796183347702
1592,166200.0,-0.1388636976480484,-9.691728591918944,-0.15442600846290588
1593,166300.0,-0.1628057211637497,-9.650428771972656,-0.1933317929506302
1594,166400.0,-0.1628057211637497,-9.650428771972656,-0.1933317929506302
1595,166500.0,-0.14484919607639313,-9.674370765686037,-0.2106897532939911
1596,166600.0,-0.14484919607639313,-9.674370765686037,-0.2106897532939911
1597,166700.0,-0.1951274424791336,-9.679757118225098,-0.19393034279346466
1598,166800.0,-0.1951274424791336,-9.679757118225098,-0.19393034279346466
1599,166900.0,-0.1646013706922531,-9.660603523254396,-0.17178396880626678
1600,167000.0,-0.1646013706922531,-9.660603523254396,-0.17178396880626678
1601,167100.0,-0.2340332120656967,-9.676764488220217,-0.14784196019172668
1602,167200.0,-0.1885433793067932,-9.670180320739746,-0.14365209639072418
1603,167300.0,-0.1885433793067932,-9.670180320739746,-0.14365209639072418
1604,167400.0,-0.18914192914962769,-9.650428771972656,-0.10654197633266448
1605,167500.0,-0.18914192914962769,-9.650428771972656,-0.10654197633266448
1606,167600.0,-0.22206220030784607,-9.655217170715332,-0.09696517139673233
1607,167700.0,-0.22206220030784607,-9.655217170715332,-0.09696517139673233
1608,167800.0,-0.1280897855758667,-9.677363395690918,-0.061052143573760986
1609,167900.0,-0.1280897855758667,-9.677363395690918,-0.061052143573760986
1610,168000.0,-0.19393034279346466,-9.686341285705566,-0.050876785069704056
1611,168100.0,-0.14604631066322327,-9.663596153259276,-0.13287819921970367
1612,168200.0,-0.14604631066322327,-9.663596153259276,-0.13287819921970367
1613,168300.0,-0.15263035893440247,-9.679757118225098,-0.16220717132091522
1614,168400.0,-0.15263035893440247,-9.679757118225098,-0.16220717132091522
1615,168500.0,-0.16101007163524628,-9.635464668273926,-0.15562310814857486
1616,168600.0,-0.16101007163524628,-9.635464668273926,-0.15562310814857486
1617,168700.0,-0.1759738177061081,-9.657012939453123,-0.16639702022075653
1618,168800.0,-0.1759738177061081,-9.657012939453123,-0.16639702022075653
1619,168900.0,-0.17896658182144165,-9.69651699066162,-0.1777694821357727
1620,169000.0,-0.16101007163524628,-9.657012939453123,-0.12928688526153564
1621,169100.0,-0.16101007163524628,-9.657012939453123,-0.12928688526153564
1622,169200.0,-0.09038111567497252,-9.654019355773926,-0.166995570063591
1623,169300.0,-0.09038111567497252,-9.654019355773926,-0.166995570063591
1624,169400.0,-0.10295066982507706,-9.623494148254396,-0.20949265360832212
1625,169500.0,-0.10295066982507706,-9.623494148254396,-0.20949265360832212
1626,169600.0,-0.09696517139673233,-9.627683639526367,-0.17477671802043915
1627,169700.0,-0.09696517139673233,-9.627683639526367,-0.17477671802043915
1628,169800.0,-0.11552023142576218,-9.707290649414064,-0.01975216343998909
1629,169900.0,-0.11552023142576218,-9.707290649414064,-0.01975216343998909
1630,170000.0,-0.1173158809542656,-9.677961349487305,-0.22266076505184174
1631,170100.0,-0.2059013396501541,-9.786897659301758,-0.2232593148946762
1632,170200.0,-0.2059013396501541,-9.786897659301758,-0.2232593148946762
1633,170300.0,-0.03232172131538391,-9.63187313079834,-0.20051439106464386
1634,170400.0,-0.03232172131538391,-9.63187313079834,-0.20051439106464386
1635,170500.0,-0.0933738648891449,-9.631275177001953,-0.15801730751991272
1636,170600.0,-0.0933738648891449,-9.631275177001953,-0.15801730751991272
1637,170700.0,-0.07062894850969315,-9.740809440612793,-0.1454477459192276
1638,170800.0,-0.07062894850969315,-9.740809440612793,-0.1454477459192276
1639,170900.0,-0.12330138683319093,-9.677363395690918,-0.10354922711849213
1640,171000.0,-0.12090718746185306,-9.616909980773926,-0.07062894850969315
1641,171100.0,-0.12090718746185306,-9.616909980773926,-0.07062894850969315
1642,171200.0,-0.1801636815071106,-9.6803560256958,-0.15143325924873352
1643,171300.0,-0.1801636815071106,-9.6803560256958,-0.15143325924873352
1644,171400.0,-0.14185644686222074,-9.631275177001953,-0.0520738884806633
1645,171500.0,-0.14185644686222074,-9.631275177001953,-0.0520738884806633
1646,171600.0,-0.2059013396501541,-9.642048835754396,-0.10654197633266448
1647,171700.0,-0.2059013396501541,-9.642048835754396,-0.10654197633266448
1648,171800.0,-0.22385786473751068,-9.761159896850586,-0.1346738487482071
1649,171900.0,-0.06883329898118973,-9.663596153259276,-0.08858546614646913
1650,172000.0,-0.06883329898118973,-9.663596153259276,-0.08858546614646913
1651,172100.0,-0.26336219906806946,-9.684545516967773,-0.1191115379333496
