,timestamp,ax,ay,az
0,7000.0,2.586336374282837,-9.157222747802734,-1.5346833467483518
1,7100.0,2.586336374282837,-9.157222747802734,-1.5346833467483518
2,7200.0,2.4468741416931152,-9.279327392578123,-1.2880805730819702
3,7300.0,2.4468741416931152,-9.279327392578123,-1.2880805730819702
4,7400.0,2.5330653190612797,-9.233837127685547,-1.3946224451065063
5,7500.0,2.5330653190612797,-9.233837127685547,-1.3946224451065063
6,7600.0,2.495356798171997,-9.231443405151367,-1.422754406929016
7,7700.0,2.495356798171997,-9.231443405151367,-1.422754406929016
8,7800.0,2.434903144836426,-9.251194953918457,-1.4036006927490234
9,7900.0,2.434903144836426,-9.251194953918457,-1.4036006927490234
10,8000.0,2.5007436275482178,-9.222464561462402,-1.4862006902694702
11,8100.0,2.4468741416931152,-9.248202323913574,-1.4113819599151611
12,8200.0,2.4468741416931152,-9.248202323913574,-1.4113819599151611
13,8300.0,2.469619035720825,-9.24640655517578,-1.3988122940063477
14,8400.0,2.469619035720825,-9.24640655517578,-1.3988122940063477
15,8500.0,2.550423383712769,-9.222464561462402,-1.4155718088150024
16,8600.0,2.550423383712769,-9.222464561462402,-1.4155718088150024
17,8700.0,2.544437885284424,-9.224859237670898,-1.4688427448272705
18,8800.0,2.544437885284424,-9.224859237670898,-1.4688427448272705
19,8900.0,2.543240785598755,-9.192537307739258,-1.394023895263672
20,9000.0,2.565387010574341,-9.197924613952637,-1.594538331031799
21,9100.0,2.565387010574341,-9.197924613952637,-1.594538331031799
22,9200.0,2.5073277950286865,-9.25299072265625,-1.4149732589721682
23,9300.0,2.5073277950286865,-9.25299072265625,-1.4149732589721682
24,9400.0,2.5252842903137207,-9.24102020263672,-1.4820108413696291
25,9500.0,2.5252842903137207,-9.24102020263672,-1.4820108413696291
26,9600.0,2.5228900909423833,-9.21588134765625,-1.4317326545715332
27,9700.0,2.5228900909423833,-9.21588134765625,-1.4317326545715332
28,9800.0,2.5300726890563965,-9.180566787719727,-1.4149732589721682
29,9900.0,2.5300726890563965,-9.180566787719727,-1.4149732589721682
30,10000.0,2.4809916019439697,-9.205106735229492,-1.4652514457702637
31,10100.0,2.539050817489624,-9.205705642700195,-1.511339783668518
32,10200.0,2.539050817489624,-9.205705642700195,-1.511339783668518
33,10300.0,2.5007436275482178,-9.209895133972168,-1.522712230682373
34,10400.0,2.5007436275482178,-9.209895133972168,-1.522712230682373
35,10500.0,2.5067291259765625,-9.24102020263672,-1.4371196031570437
36,10600.0,2.5067291259765625,-9.24102020263672,-1.4371196031570437
37,10700.0,2.5330653190612797,-9.223662376403807,-1.4347254037857056
38,10800.0,2.5330653190612797,-9.223662376403807,-1.4347254037857056
39,10900.0,2.5480291843414307,-9.201516151428224,-1.5041571855545044
40,11000.0,2.5264813899993896,-9.247604370117188,-1.3479355573654177
41,11100.0,2.5264813899993896,-9.247604370117188,-1.3479355573654177
42,11200.0,2.5109190940856934,-9.24940013885498,-1.334767460823059
43,11300.0,2.5109190940856934,-9.24940013885498,-1.334767460823059
44,11400.0,2.4612393379211426,-9.248801231384276,-1.446696400642395
45,11500.0,2.4612393379211426,-9.248801231384276,-1.446696400642395
46,11600.0,2.4396915435791016,-9.262567520141602,-1.3910311460494995
47,11700.0,2.4396915435791016,-9.262567520141602,-1.3910311460494995
48,11800.0,2.563591480255127,-9.211092948913574,-1.4646528959274292
49,11900.0,2.433706045150757,-9.270947456359863,-1.3096283674240112
50,12000.0,2.433706045150757,-9.270947456359863,-1.3096283674240112
51,12100.0,2.4612393379211426,-9.263765335083008,-1.370081901550293
52,12200.0,2.4612393379211426,-9.263765335083008,-1.370081901550293
53,12300.0,2.418742179870605,-9.25299072265625,-1.4646528959274292
54,12400.0,2.418742179870605,-9.25299072265625,-1.4646528959274292
55,12500.0,2.4343044757843018,-9.25059700012207,-1.3186066150665283
56,12600.0,2.4343044757843018,-9.25059700012207,-1.3186066150665283
57,12700.0,2.550423383712769,-9.208698272705078,-1.4401123523712158
58,12800.0,2.531269788742065,-9.220669746398926,-1.446696400642395
59,12900.0,2.531269788742065,-9.220669746398926,-1.446696400642395
60,13000.0,2.5049335956573486,-9.258378028869627,-1.3826514482498171
61,13100.0,2.5049335956573486,-9.258378028869627,-1.3826514482498171
62,13200.0,2.5109190940856934,-9.238625526428224,-1.450287699699402
63,13300.0,2.5109190940856934,-9.238625526428224,-1.450287699699402
64,13400.0,2.560598611831665,-9.203909873962402,-1.4359225034713743
65,13500.0,2.560598611831665,-9.203909873962402,-1.4359225034713743
66,13600.0,2.547430515289306,-9.224859237670898,-1.4850035905838013
67,13700.0,2.538452386856079,-9.238027572631836,-1.4784195423126218
68,13800.0,2.538452386856079,-9.238027572631836,-1.4784195423126218
69,13900.0,2.540846586227417,-9.193734169006348,-1.519719481468201
70,14000.0,2.540846586227417,-9.193734169006348,-1.519719481468201
71,14100.0,2.448669672012329,-9.223063468933104,-1.4652514457702637
72,14200.0,2.448669672012329,-9.223063468933104,-1.4652514457702637
73,14300.0,2.5055320262908936,-9.241618156433104,-1.3958195447921753
74,14400.0,2.5055320262908936,-9.241618156433104,-1.3958195447921753
75,14500.0,2.5330653190612797,-9.20211410522461,-1.5221136808395386
76,14600.0,2.516305923461914,-9.239823341369627,-1.3593080043792725
77,14700.0,2.516305923461914,-9.239823341369627,-1.3593080043792725
78,14800.0,2.5222914218902592,-9.214085578918457,-1.4167689085006714
79,14900.0,2.5222914218902592,-9.214085578918457,-1.4167689085006714
80,15000.0,2.4869771003723145,-9.261969566345217,-1.4706383943557741
81,15100.0,2.4869771003723145,-9.261969566345217,-1.4706383943557741
82,15200.0,2.3792378902435303,-9.255983352661133,-1.3593080043792725
83,15300.0,2.3792378902435303,-9.255983352661133,-1.3593080043792725
84,15400.0,2.42472767829895,-9.239224433898926,-1.4131776094436646
85,15500.0,2.4863784313201904,-9.23443603515625,-1.4700398445129397
86,15600.0,2.4863784313201904,-9.23443603515625,-1.4700398445129397
87,15700.0,2.5282769203186035,-9.221267700195312,-1.3449428081512451
88,15800.0,2.5282769203186035,-9.221267700195312,-1.3449428081512451
89,15900.0,2.4600422382354736,-9.25957489013672,-1.4101848602294922
90,16000.0,2.4600422382354736,-9.25957489013672,-1.4101848602294922
91,16100.0,2.476801633834839,-9.242815971374512,-1.4736311435699463
92,16200.0,2.476801633834839,-9.242815971374512,-1.4736311435699463
93,16300.0,2.5055320262908936,-9.223063468933104,-1.5574282407760618
94,16400.0,2.4462754726409908,-9.242815971374512,-1.4496891498565674
95,16500.0,2.4462754726409908,-9.242815971374512,-1.4496891498565674
96,16600.0,2.5109190940856934,-9.230246543884276,-1.5257049798965454
97,16700.0,2.5109190940856934,-9.230246543884276,-1.5257049798965454
98,16800.0,2.476801633834839,-9.233837127685547,-1.4646528959274292
99,16900.0,2.476801633834839,-9.233837127685547,-1.4646528959274292
100,17000.0,2.44747257232666,-9.244611740112305,-1.4574702978134155
101,17100.0,2.44747257232666,-9.244611740112305,-1.4574702978134155
102,17200.0,2.425326347351074,-9.258378028869627,-1.3239935636520386
103,17300.0,2.493561029434204,-9.23563289642334,-1.5376760959625244
104,17400.0,2.493561029434204,-9.23563289642334,-1.5376760959625244
105,17500.0,2.4355015754699707,-9.242815971374512,-1.4000093936920166
106,17600.0,2.4355015754699707,-9.242815971374512,-1.4000093936920166
107,17700.0,2.3313539028167725,-9.282320022583008,-1.3976151943206787
108,17800.0,2.3313539028167725,-9.282320022583008,-1.3976151943206787
109,17900.0,2.3942017555236816,-9.252392768859863,-1.4640543460845947
110,18000.0,2.3942017555236816,-9.252392768859863,-1.4640543460845947
111,18100.0,2.4378957748413086,-9.239823341369627,-1.459265947341919
112,18200.0,2.448669672012329,-9.247604370117188,-1.391629695892334
113,18300.0,2.448669672012329,-9.247604370117188,-1.391629695892334
114,18400.0,2.4205379486083984,-9.248801231384276,-1.3198037147521973
115,18500.0,2.4205379486083984,-9.248801231384276,-1.3198037147521973
116,18600.0,2.457648038864136,-9.229048728942873,-1.4957774877548218
117,18700.0,2.457648038864136,-9.229048728942873,-1.4957774877548218
118,18800.0,2.4438812732696533,-9.233837127685547,-1.3796586990356443
119,18900.0,2.4438812732696533,-9.233837127685547,-1.3796586990356443
120,19000.0,2.4636335372924805,-9.238027572631836,-1.3922282457351685
121,19100.0,2.485181331634521,-9.220669746398926,-1.4006079435348509
122,19200.0,2.485181331634521,-9.220669746398926,-1.4006079435348509
123,19300.0,2.352303266525269,-9.26915168762207,-1.416170358657837
124,19400.0,2.352303266525269,-9.26915168762207,-1.416170358657837
125,19500.0,2.477400302886963,-9.22785186767578,-1.4269442558288574
126,19600.0,2.477400302886963,-9.22785186767578,-1.4269442558288574
127,19700.0,2.457648038864136,-9.238027572631836,-1.4844050407409668
128,19800.0,2.457648038864136,-9.238027572631836,-1.4844050407409668
129,19900.0,2.497750997543335,-9.232640266418457,-1.4089876413345337
130,20000.0,2.492363929748535,-9.204508781433104,-1.416170358657837
131,20100.0,2.492363929748535,-9.204508781433104,-1.416170358657837
132,20200.0,2.457648038864136,-9.229647636413574,-1.5532383918762207
133,20300.0,2.457648038864136,-9.229647636413574,-1.5532383918762207
134,20400.0,2.519298791885376,-9.218873977661133,-1.3413515090942385
135,20500.0,2.519298791885376,-9.218873977661133,-1.3413515090942385
136,20600.0,2.50373649597168,-9.221267700195312,-1.4640543460845947
137,20700.0,2.50373649597168,-9.221267700195312,-1.4640543460845947
138,20800.0,2.4636335372924805,-9.239224433898926,-1.4269442558288574
139,20900.0,2.4396915435791016,-9.260771751403807,-1.3210008144378662
140,21000.0,2.4396915435791016,-9.260771751403807,-1.3210008144378662
141,21100.0,2.4678235054016118,-9.26675796508789,-1.4185645580291748
142,21200.0,2.4678235054016118,-9.26675796508789,-1.4185645580291748
143,21300.0,2.494159698486328,-9.21827507019043,-1.4538789987564087
144,21400.0,2.494159698486328,-9.21827507019043,-1.4538789987564087
145,21500.0,2.4468741416931152,-9.238625526428224,-1.4616601467132568
146,21600.0,2.4468741416931152,-9.238625526428224,-1.4616601467132568
147,21700.0,2.5294740200042725,-9.222464561462402,-1.4508862495422363
148,21800.0,2.5025393962860107,-9.242815971374512,-1.446696400642395
149,21900.0,2.5025393962860107,-9.242815971374512,-1.446696400642395
150,22000.0,2.493561029434204,-9.20929718017578,-1.41257905960083
151,22100.0,2.493561029434204,-9.20929718017578,-1.41257905960083
152,22200.0,2.5270798206329346,-9.222464561462402,-1.5807716846466064
153,22300.0,2.5270798206329346,-9.222464561462402,-1.5807716846466064
154,22400.0,2.4839842319488525,-9.249998092651367,-1.469441294670105
155,22500.0,2.4839842319488525,-9.249998092651367,-1.469441294670105
156,22600.0,2.5522189140319824,-9.222464561462402,-1.4113819599151611
157,22700.0,2.483385801315308,-9.261370658874512,-1.4107834100723269
158,22800.0,2.483385801315308,-9.261370658874512,-1.4107834100723269
159,22900.0,2.520495891571045,-9.199121475219727,-1.4742296934127808
160,23000.0,2.520495891571045,-9.199121475219727,-1.4742296934127808
161,23100.0,2.4432828426361084,-9.245209693908693,-1.3724761009216309
162,23200.0,2.4432828426361084,-9.245209693908693,-1.3724761009216309
163,23300.0,2.5306711196899414,-9.225458145141602,-1.4784195423126218
164,23400.0,2.5306711196899414,-9.225458145141602,-1.4784195423126218
165,23500.0,2.426523447036743,-9.227252960205078,-1.4053963422775269
166,23600.0,2.523488521575928,-9.223063468933104,-1.5394717454910278
167,23700.0,2.523488521575928,-9.223063468933104,-1.5394717454910278
168,23800.0,2.40736985206604,-9.242217063903807,-1.403002142906189
169,23900.0,2.40736985206604,-9.242217063903807,-1.403002142906189
170,24000.0,2.5528175830841064,-9.216479301452637,-1.4616601467132568
171,24100.0,2.5528175830841064,-9.216479301452637,-1.4616601467132568
172,24200.0,2.492363929748535,-9.23682975769043,-1.4622586965560913
173,24300.0,2.492363929748535,-9.23682975769043,-1.4622586965560913
174,24400.0,2.516305923461914,-9.226056098937988,-1.4688427448272705
175,24500.0,2.4660277366638184,-9.23443603515625,-1.4604630470275881
176,24600.0,2.4660277366638184,-9.23443603515625,-1.4604630470275881
177,24700.0,2.476801633834839,-9.223662376403807,-1.4047977924346924
178,24800.0,2.476801633834839,-9.223662376403807,-1.4047977924346924
179,24900.0,2.493561029434204,-9.241618156433104,-1.4730325937271118
180,25000.0,2.493561029434204,-9.241618156433104,-1.4730325937271118
181,25100.0,2.4606409072875977,-9.218873977661133,-1.5053542852401731
182,25200.0,2.4606409072875977,-9.218873977661133,-1.5053542852401731
183,25300.0,2.4905683994293213,-9.23323917388916,-1.4688427448272705
184,25400.0,2.551021814346313,-9.208698272705078,-1.4496891498565674
185,25500.0,2.551021814346313,-9.208698272705078,-1.4496891498565674
186,25600.0,2.4893712997436523,-9.214085578918457,-1.4395138025283811
187,25700.0,2.4893712997436523,-9.214085578918457,-1.4395138025283811
188,25800.0,2.5677812099456787,-9.165602684020996,-1.5011644363403318
189,25900.0,2.5677812099456787,-9.165602684020996,-1.5011644363403318
190,26000.0,2.4684219360351562,-9.245209693908693,-1.5406688451766968
191,26100.0,2.4684219360351562,-9.245209693908693,-1.5406688451766968
192,26200.0,2.5348610877990723,-9.203909873962402,-1.4814122915267944
193,26300.0,2.5109190940856934,-9.214683532714844,-1.4203602075576782
194,26400.0,2.5109190940856934,-9.214683532714844,-1.4203602075576782
195,26500.0,2.475006103515625,-9.242217063903807,-1.4443022012710571
196,26600.0,2.475006103515625,-9.242217063903807,-1.4443022012710571
197,26700.0,2.548627614974976,-9.201516151428224,-1.4688427448272705
198,26800.0,2.548627614974976,-9.201516151428224,-1.4688427448272705
199,26900.0,2.484582901000977,-9.226655006408693,-1.53707754611969
200,27000.0,2.484582901000977,-9.226655006408693,-1.53707754611969
201,27100.0,2.4887726306915283,-9.253589630126953,-1.404199242591858
202,27200.0,2.450465440750122,-9.221866607666016,-1.4083890914916992
203,27300.0,2.450465440750122,-9.221866607666016,-1.4083890914916992
204,27400.0,2.50373649597168,-9.232041358947754,-1.5017629861831665
205,27500.0,2.50373649597168,-9.232041358947754,-1.5017629861831665
206,27600.0,2.5043349266052246,-9.240421295166016,-1.3634978532791138
207,27700.0,2.5043349266052246,-9.240421295166016,-1.3634978532791138
208,27800.0,2.485181331634521,-9.214683532714844,-1.4484920501708984
209,27900.0,2.485181331634521,-9.214683532714844,-1.4484920501708984
210,28000.0,2.4438812732696533,-9.24102020263672,-1.4203602075576782
211,28100.0,2.4438812732696533,-9.24102020263672,-1.4203602075576782
212,28200.0,2.50373649597168,-9.21707820892334,-1.4604630470275881
213,28300.0,2.4863784313201904,-9.25179386138916,-1.4490906000137331
214,28400.0,2.4863784313201904,-9.25179386138916,-1.4490906000137331
215,28500.0,2.495356798171997,-9.239823341369627,-1.4269442558288574
216,28600.0,2.495356798171997,-9.239823341369627,-1.4269442558288574
217,28700.0,2.557007312774658,-9.239823341369627,-1.391629695892334
218,28800.0,2.557007312774658,-9.239823341369627,-1.391629695892334
219,28900.0,2.471414804458618,-9.255385398864746,-1.5083470344543457
220,29000.0,2.5576059818267822,-9.217676162719727,-1.4790180921554563
221,29100.0,2.5576059818267822,-9.217676162719727,-1.4790180921554563
222,29200.0,2.4618380069732666,-9.24102020263672,-1.394023895263672
223,29300.0,2.4618380069732666,-9.24102020263672,-1.394023895263672
224,29400.0,2.523488521575928,-9.24640655517578,-1.4646528959274292
225,29500.0,2.523488521575928,-9.24640655517578,-1.4646528959274292
226,29600.0,2.5348610877990723,-9.236231803894043,-1.4359225034713743
227,29700.0,2.5348610877990723,-9.236231803894043,-1.4359225034713743
228,29800.0,2.497750997543335,-9.245209693908693,-1.4425065517425537
229,29900.0,2.450465440750122,-9.245808601379396,-1.519719481468201
230,30000.0,2.450465440750122,-9.245808601379396,-1.519719481468201
231,30100.0,2.569576978683472,-9.208099365234377,-1.4736311435699463
232,30200.0,2.569576978683472,-9.208099365234377,-1.4736311435699463
233,30300.0,2.495356798171997,-9.282918930053713,-1.429338455200195
234,30400.0,2.495356798171997,-9.282918930053713,-1.429338455200195
235,30500.0,2.562992811203003,-9.189544677734377,-1.5376760959625244
236,30600.0,2.562992811203003,-9.189544677734377,-1.5376760959625244
237,30700.0,2.536656618118286,-9.230246543884276,-1.45806884765625
238,30800.0,2.5270798206329346,-9.198522567749023,-1.5101426839828491
239,30900.0,2.5270798206329346,-9.198522567749023,-1.5101426839828491
240,31000.0,2.485780000686645,-9.220669746398926,-1.525106430053711
241,31100.0,2.485780000686645,-9.220669746398926,-1.525106430053711
242,31200.0,2.547430515289306,-9.201516151428224,-1.5328876972198486
243,31300.0,2.547430515289306,-9.201516151428224,-1.5328876972198486
244,31400.0,2.448071241378784,-9.211690902709961,-1.4951789379119873
245,31500.0,2.448071241378784,-9.211690902709961,-1.4951789379119873
246,31600.0,2.455852508544922,-9.247005462646484,-1.5071499347686768
247,31700.0,2.455852508544922,-9.247005462646484,-1.5071499347686768
248,31800.0,2.5228900909423833,-9.211690902709961,-1.5041571855545044
249,31900.0,2.472611904144287,-9.229647636413574,-1.41257905960083
250,32000.0,2.472611904144287,-9.229647636413574,-1.41257905960083
251,32100.0,2.515707492828369,-9.19433307647705,-1.4754267930984497
252,32200.0,2.515707492828369,-9.19433307647705,-1.4754267930984497
253,32300.0,2.4145524501800537,-9.238625526428224,-1.371279001235962
254,32400.0,2.4145524501800537,-9.238625526428224,-1.371279001235962
255,32500.0,2.4456770420074463,-9.228450775146484,-1.4389152526855469
256,32600.0,2.4456770420074463,-9.228450775146484,-1.4389152526855469
257,32700.0,2.5025393962860107,-9.23443603515625,-1.5185223817825315
258,32800.0,2.4809916019439697,-9.223063468933104,-1.446696400642395
259,32900.0,2.4809916019439697,-9.223063468933104,-1.446696400642395
260,33000.0,2.450465440750122,-9.23323917388916,-1.4742296934127808
261,33100.0,2.450465440750122,-9.23323917388916,-1.4742296934127808
262,33200.0,2.5288755893707275,-9.231443405151367,-1.5873557329177856
263,33300.0,2.5288755893707275,-9.231443405151367,-1.5873557329177856
264,33400.0,2.516305923461914,-9.247005462646484,-1.422754406929016
265,33500.0,2.516305923461914,-9.247005462646484,-1.422754406929016
266,33600.0,2.497750997543335,-9.220669746398926,-1.4993687868118286
267,33700.0,2.428917646408081,-9.24102020263672,-1.368884801864624
268,33800.0,2.428917646408081,-9.24102020263672,-1.368884801864624
269,33900.0,2.386420488357544,-9.25299072265625,-1.4640543460845947
270,34000.0,2.386420488357544,-9.25299072265625,-1.4640543460845947
271,34100.0,2.4809916019439697,-9.24102020263672,-1.4550760984420776
272,34200.0,2.4809916019439697,-9.24102020263672,-1.4550760984420776
273,34300.0,2.523488521575928,-9.23563289642334,-1.4616601467132568
274,34400.0,2.523488521575928,-9.23563289642334,-1.4616601467132568
275,34500.0,2.4552538394927983,-9.222464561462402,-1.4317326545715332
276,34600.0,2.48757553100586,-9.224859237670898,-1.6035165786743164
277,34700.0,2.48757553100586,-9.224859237670898,-1.6035165786743164
278,34800.0,2.4355015754699707,-9.229048728942873,-1.4664485454559326
279,34900.0,2.4355015754699707,-9.229048728942873,-1.4664485454559326
280,35000.0,2.482787132263184,-9.239823341369627,-1.3706804513931274
281,35100.0,2.482787132263184,-9.239823341369627,-1.3706804513931274
282,35200.0,2.49834942817688,-9.212289810180664,-1.4718354940414429
283,35300.0,2.49834942817688,-9.212289810180664,-1.4718354940414429
284,35400.0,2.484582901000977,-9.245808601379396,-1.5328876972198486
285,35500.0,2.4881742000579834,-9.205705642700195,-1.41257905960083
286,35600.0,2.4881742000579834,-9.205705642700195,-1.41257905960083
287,35700.0,2.616862535476685,-9.115324020385742,-1.6579847335815432
288,35800.0,2.616862535476685,-9.115324020385742,-1.6579847335815432
289,35900.0,2.4887726306915283,-9.275735855102539,-1.361103653907776
290,36000.0,2.4887726306915283,-9.275735855102539,-1.361103653907776
291,36100.0,2.428917646408081,-9.258976936340332,-1.4263457059860232
292,36200.0,2.428917646408081,-9.258976936340332,-1.4263457059860232
293,36300.0,2.493561029434204,-9.227252960205078,-1.2946646213531494
294,36400.0,2.344521999359131,-9.30686092376709,-1.4550760984420776
295,36500.0,2.344521999359131,-9.30686092376709,-1.4550760984420776
296,36600.0,2.411559581756592,-9.212289810180664,-1.5867571830749512
297,36700.0,2.411559581756592,-9.212289810180664,-1.5867571830749512
298,36800.0,2.5330653190612797,-9.199121475219727,-1.4389152526855469
299,36900.0,2.5330653190612797,-9.199121475219727,-1.4389152526855469
300,37000.0,2.50373649597168,-9.17817211151123,-1.5346833467483518
301,37100.0,2.50373649597168,-9.17817211151123,-1.5346833467483518
302,37200.0,2.5306711196899414,-9.239224433898926,-1.599326729774475
303,37300.0,2.3116016387939453,-9.311649322509766,-1.3072341680526731
304,37400.0,2.3116016387939453,-9.311649322509766,-1.3072341680526731
305,37500.0,2.5294740200042725,-9.248202323913574,-1.260547161102295
306,37600.0,2.5294740200042725,-9.248202323913574,-1.260547161102295
307,37700.0,2.4145524501800537,-9.194931983947754,-1.498770236968994
308,37800.0,2.4145524501800537,-9.194931983947754,-1.498770236968994
309,37900.0,2.5073277950286865,-9.208698272705078,-1.314416766166687
310,38000.0,2.5073277950286865,-9.208698272705078,-1.314416766166687
311,38100.0,2.3127987384796143,-9.229647636413574,-1.5107412338256836
312,38200.0,2.492363929748535,-9.230844497680664,-1.5705963373184204
313,38300.0,2.492363929748535,-9.230844497680664,-1.5705963373184204
314,38400.0,2.498948097229004,-9.236231803894043,-1.4544775485992432
315,38500.0,2.498948097229004,-9.236231803894043,-1.4544775485992432
316,38600.0,2.627037763595581,-9.169792175292967,-1.5514427423477173
317,38700.0,2.627037763595581,-9.169792175292967,-1.5514427423477173
318,38800.0,2.5522189140319824,-9.210494041442873,-1.5029600858688354
319,38900.0,2.5522189140319824,-9.210494041442873,-1.5029600858688354
320,39000.0,2.581547975540161,-9.205705642700195,-1.555034041404724
321,39100.0,2.564788579940796,-9.205106735229492,-1.4077905416488647
322,39200.0,2.564788579940796,-9.205106735229492,-1.4077905416488647
323,39300.0,2.520495891571045,-9.228450775146484,-1.3341689109802246
324,39400.0,2.520495891571045,-9.228450775146484,-1.3341689109802246
325,39500.0,2.5665841102600098,-9.212289810180664,-1.465849995613098
326,39600.0,2.5665841102600098,-9.212289810180664,-1.465849995613098
327,39700.0,2.551620483398437,-9.214085578918457,-1.5155296325683594
328,39800.0,2.551620483398437,-9.214085578918457,-1.5155296325683594
329,39900.0,2.5282769203186035,-9.207501411437988,-1.50355863571167
330,40000.0,2.584540843963623,-9.181763648986816,-1.4939818382263184
331,40100.0,2.584540843963623,-9.181763648986816,-1.4939818382263184
332,40200.0,2.499546527862549,-9.235034942626953,-1.469441294670105
333,40300.0,2.499546527862549,-9.235034942626953,-1.469441294670105
334,40400.0,2.534262418746948,-9.229647636413574,-1.5047557353973389
335,40500.0,2.534262418746948,-9.229647636413574,-1.5047557353973389
336,40600.0,2.536656618118286,-9.233837127685547,-1.555034041404724
337,40700.0,2.536656618118286,-9.233837127685547,-1.555034041404724
338,40800.0,2.524087190628052,-9.205705642700195,-1.4754267930984497
339,40900.0,2.36188006401062,-9.24102020263672,-1.2994530200958252
340,41000.0,2.36188006401062,-9.24102020263672,-1.2994530200958252
341,41100.0,2.561795711517334,-9.206304550170898,-1.5280991792678833
342,41200.0,2.561795711517334,-9.206304550170898,-1.5280991792678833
343,41300.0,2.439092874526977,-9.227252960205078,-1.4981716871261597
344,41400.0,2.439092874526977,-9.227252960205078,-1.4981716871261597
345,41500.0,2.603694438934326,-8.978256225585938,-1.66696298122406
346,41600.0,2.603694438934326,-8.978256225585938,-1.66696298122406
347,41700.0,2.56000018119812,-9.054272651672363,-1.7782933712005615
348,41800.0,2.6892869472503658,-9.033921241760254,-1.4856021404266355
349,41900.0,2.6892869472503658,-9.033921241760254,-1.4856021404266355
350,42000.0,2.031480073928833,-9.405621528625488,-1.335964560508728
351,42100.0,2.031480073928833,-9.405621528625488,-1.335964560508728
352,42200.0,2.141014814376831,-9.558850288391113,-1.2653355598449707
353,42300.0,2.141014814376831,-9.558850288391113,-1.2653355598449707
354,42400.0,2.0039467811584477,-9.450512886047363,-1.0552444458007812
355,42500.0,2.0039467811584477,-9.450512886047363,-1.0552444458007812
356,42600.0,2.234388828277588,-9.39245319366455,-1.3150153160095217
357,42700.0,2.585737943649292,-9.142857551574707,-1.3670891523361206
358,42800.0,2.585737943649292,-9.142857551574707,-1.3670891523361206
359,42900.0,2.48757553100586,-9.345168113708496,-1.061229944229126
360,43000.0,2.48757553100586,-9.345168113708496,-1.061229944229126
361,43100.0,2.9604303836822514,-9.078812599182127,-2.011728048324585
362,43200.0,2.9604303836822514,-9.078812599182127,-2.011728048324585
363,43300.0,2.7078421115875244,-9.072827339172363,-1.8531121015548704
364,43400.0,2.7078421115875244,-9.072827339172363,-1.8531121015548704
365,43500.0,1.6549919843673706,-9.876680374145508,-0.9265560507774352
366,43600.0,2.9676129817962646,-8.972869873046875,-1.9123686552047732
367,43700.0,2.9676129817962646,-8.972869873046875,-1.9123686552047732
368,43800.0,2.3026235103607178,-9.229647636413574,-1.6166846752166748
369,43900.0,2.3026235103607178,-9.229647636413574,-1.6166846752166748
370,44000.0,2.495955228805542,-9.230844497680664,-1.5292962789535522
371,44100.0,2.495955228805542,-9.230844497680664,-1.5292962789535522
372,44200.0,2.5043349266052246,-9.177573204040527,-1.5275006294250488
373,44300.0,2.5043349266052246,-9.177573204040527,-1.5275006294250488
374,44400.0,2.373252391815185,-9.231443405151367,-1.5975310802459717
375,44500.0,2.4199392795562744,-9.21827507019043,-1.5071499347686768
376,44600.0,2.4199392795562744,-9.21827507019043,-1.5071499347686768
377,44700.0,2.299630641937256,-9.243413925170898,-1.5047557353973389
378,44800.0,2.299630641937256,-9.243413925170898,-1.5047557353973389
379,44900.0,2.481590032577514,-9.210494041442873,-1.5628151893615725
380,45000.0,2.481590032577514,-9.210494041442873,-1.5628151893615725
381,45100.0,2.569576978683472,-9.230844497680664,-1.502361536026001
382,45200.0,2.569576978683472,-9.230844497680664,-1.502361536026001
383,45300.0,2.3127987384796143,-9.182361602783203,-1.1917139291763306
384,45400.0,2.4594438076019287,-9.31643772125244,-1.5203180313110352
385,45500.0,2.4594438076019287,-9.31643772125244,-1.5203180313110352
386,45600.0,2.472013235092163,-9.264962196350098,-1.50355863571167
387,45700.0,2.472013235092163,-9.264962196350098,-1.50355863571167
388,45800.0,2.5288755893707275,-9.260771751403807,-1.5418659448623655
389,45900.0,2.5288755893707275,-9.260771751403807,-1.5418659448623655
390,46000.0,2.2691047191619877,-9.285911560058594,-1.3634978532791138
391,46100.0,2.2691047191619877,-9.285911560058594,-1.3634978532791138
392,46200.0,2.343923568725586,-9.224260330200195,-1.417367458343506
393,46300.0,2.4444799423217773,-9.229048728942873,-1.5394717454910278
394,46400.0,2.4444799423217773,-9.229048728942873,-1.5394717454910278
395,46500.0,2.496553897857666,-9.232640266418457,-1.5526398420333862
396,46600.0,2.496553897857666,-9.232640266418457,-1.5526398420333862
397,46700.0,2.472611904144287,-9.225458145141602,-1.5089455842971802
398,46800.0,2.472611904144287,-9.225458145141602,-1.5089455842971802
399,46900.0,2.419340848922729,-9.231443405151367,-1.5693992376327517
400,47000.0,2.419340848922729,-9.231443405151367,-1.5693992376327517
401,47100.0,2.557007312774658,-9.245808601379396,-1.5269020795822144
402,47200.0,2.416946649551392,-9.223662376403807,-1.52630352973938
403,47300.0,2.416946649551392,-9.223662376403807,-1.52630352973938
404,47400.0,2.385822057723999,-9.24940013885498,-1.5861586332321167
405,47500.0,2.385822057723999,-9.24940013885498,-1.5861586332321167
406,47600.0,2.416946649551392,-9.227252960205078,-1.5280991792678833
407,47700.0,2.416946649551392,-9.227252960205078,-1.5280991792678833
408,47800.0,2.3989901542663574,-9.240421295166016,-1.447893500328064
409,47900.0,2.3989901542663574,-9.240421295166016,-1.447893500328064
410,48000.0,2.4863784313201904,-9.242815971374512,-1.5095441341400146
411,48100.0,2.3720552921295166,-9.278130531311037,-1.4838064908981323
412,48200.0,2.3720552921295166,-9.278130531311037,-1.4838064908981323
413,48300.0,2.47560453414917,-9.204508781433104,-1.6124948263168335
414,48400.0,2.47560453414917,-9.204508781433104,-1.6124948263168335
415,48500.0,2.4133553504943848,-9.253589630126953,-1.4299370050430298
416,48600.0,2.4133553504943848,-9.253589630126953,-1.4299370050430298
417,48700.0,2.419340848922729,-9.238625526428224,-1.4706383943557741
418,48800.0,2.419340848922729,-9.238625526428224,-1.4706383943557741
419,48900.0,2.4438812732696533,-9.226655006408693,-1.5346833467483518
420,49000.0,2.4103624820709233,-9.245808601379396,-1.533486247062683
421,49100.0,2.4103624820709233,-9.245808601379396,-1.533486247062683
422,49200.0,2.3936030864715576,-9.242217063903807,-1.486799240112305
423,49300.0,2.3936030864715576,-9.242217063903807,-1.486799240112305
424,49400.0,2.4361002445220947,-9.21827507019043,-1.591545581817627
425,49500.0,2.4361002445220947,-9.21827507019043,-1.591545581817627
426,49600.0,2.4145524501800537,-9.236231803894043,-1.3982137441635132
427,49700.0,2.4145524501800537,-9.236231803894043,-1.3982137441635132
428,49800.0,2.477400302886963,-9.232041358947754,-1.5257049798965454
429,49900.0,2.409764051437378,-9.233837127685547,-1.432929754257202
430,50000.0,2.409764051437378,-9.233837127685547,-1.432929754257202
431,50100.0,2.4684219360351562,-9.224859237670898,-1.5885528326034546
432,50200.0,2.4684219360351562,-9.224859237670898,-1.5885528326034546
433,50300.0,2.428917646408081,-9.211092948913574,-1.4454993009567259
434,50400.0,2.428917646408081,-9.211092948913574,-1.4454993009567259
435,50500.0,2.449268341064453,-9.258976936340332,-1.5604209899902344
436,50600.0,2.449268341064453,-9.258976936340332,-1.5604209899902344
437,50700.0,2.437297344207764,-9.212289810180664,-1.577778935432434
438,50800.0,2.437297344207764,-9.212289810180664,-1.577778935432434
439,50900.0,2.4636335372924805,-9.235034942626953,-1.522712230682373
440,51000.0,2.439092874526977,-9.267355918884276,-1.4484920501708984
441,51100.0,2.439092874526977,-9.267355918884276,-1.4484920501708984
442,51200.0,2.3792378902435303,-9.23563289642334,-1.5933412313461304
443,51300.0,2.3792378902435303,-9.23563289642334,-1.5933412313461304
444,51400.0,2.235585927963257,-9.232041358947754,-1.5047557353973389
445,51500.0,2.235585927963257,-9.232041358947754,-1.5047557353973389
446,51600.0,2.2852654457092285,-9.261370658874512,-1.5460557937622068
447,51700.0,2.2852654457092285,-9.261370658874512,-1.5460557937622068
448,51800.0,2.3768436908721924,-9.229048728942873,-1.6364368200302124
449,51900.0,2.450465440750122,-9.211690902709961,-1.4437036514282229
450,52000.0,2.450465440750122,-9.211690902709961,-1.4437036514282229
451,52100.0,2.287061214447021,-9.2841157913208,-1.4233529567718506
452,52200.0,2.287061214447021,-9.2841157913208,-1.4233529567718506
453,52300.0,2.449268341064453,-9.21288776397705,-1.456871747970581
454,52400.0,2.449268341064453,-9.21288776397705,-1.456871747970581
455,52500.0,2.3271639347076416,-9.28531265258789,-1.5442601442337036
456,52600.0,2.366069793701172,-9.238625526428224,-1.5598224401474
457,52700.0,2.366069793701172,-9.238625526428224,-1.5598224401474
458,52800.0,2.3056161403656006,-9.273940086364746,-1.37906014919281
459,52900.0,2.3056161403656006,-9.273940086364746,-1.37906014919281
460,53000.0,2.4624364376068115,-9.232041358947754,-1.6160861253738403
461,53100.0,2.4624364376068115,-9.232041358947754,-1.6160861253738403
462,53200.0,2.3271639347076416,-9.275735855102539,-1.6250643730163574
463,53300.0,2.3271639347076416,-9.275735855102539,-1.6250643730163574
464,53400.0,2.434903144836426,-9.226655006408693,-1.4520833492279053
465,53500.0,2.4779987335205083,-9.20211410522461,-1.544858694076538
466,53600.0,2.4779987335205083,-9.20211410522461,-1.544858694076538
467,53700.0,2.4684219360351562,-9.196128845214844,-1.577778935432434
468,53800.0,2.4684219360351562,-9.196128845214844,-1.577778935432434
469,53900.0,2.3936030864715576,-9.20929718017578,-1.4101848602294922
470,54000.0,2.3936030864715576,-9.20929718017578,-1.4101848602294922
471,54100.0,2.4103624820709233,-9.228450775146484,-1.4454993009567259
472,54200.0,2.4103624820709233,-9.228450775146484,-1.4454993009567259
473,54300.0,2.450465440750122,-9.245209693908693,-1.5095441341400146
474,54400.0,2.450465440750122,-9.245209693908693,-1.5095441341400146
475,54500.0,2.4181437492370605,-9.23563289642334,-1.499967336654663
476,54600.0,2.409165382385254,-9.244012832641602,-1.5340847969055176
477,54700.0,2.409165382385254,-9.244012832641602,-1.5340847969055176
478,54800.0,2.3690626621246342,-9.247005462646484,-1.5245078802108765
479,54900.0,2.3690626621246342,-9.247005462646484,-1.5245078802108765
480,55000.0,2.4588451385498047,-9.231443405151367,-1.5191209316253662
481,55100.0,2.4588451385498047,-9.231443405151367,-1.5191209316253662
482,55200.0,2.4241292476654053,-9.245808601379396,-1.4957774877548218
483,55300.0,2.4241292476654053,-9.245808601379396,-1.4957774877548218
484,55400.0,2.3953988552093506,-9.261969566345217,-1.53169047832489
485,55500.0,2.478597402572632,-9.23443603515625,-1.5191209316253662
486,55600.0,2.478597402572632,-9.23443603515625,-1.5191209316253662
487,55700.0,2.43669867515564,-9.221267700195312,-1.5693992376327517
488,55800.0,2.43669867515564,-9.221267700195312,-1.5693992376327517
489,55900.0,2.473210334777832,-9.26915168762207,-1.4646528959274292
490,56000.0,2.473210334777832,-9.26915168762207,-1.4646528959274292
491,56100.0,2.4678235054016118,-9.244611740112305,-1.53169047832489
492,56200.0,2.4678235054016118,-9.244611740112305,-1.53169047832489
493,56300.0,2.320580005645752,-9.26915168762207,-1.3952209949493408
494,56400.0,2.318185806274414,-9.21707820892334,-1.568800687789917
495,56500.0,2.318185806274414,-9.21707820892334,-1.568800687789917
496,56600.0,2.5540146827697754,-9.20091724395752,-1.5077484846115112
497,56700.0,2.5540146827697754,-9.20091724395752,-1.5077484846115112
498,56800.0,2.485780000686645,-9.220070838928224,-1.427542805671692
499,56900.0,2.485780000686645,-9.220070838928224,-1.427542805671692
500,57000.0,2.355295896530152,-9.221267700195312,-1.5173252820968628
501,57100.0,2.355295896530152,-9.221267700195312,-1.5173252820968628
502,57200.0,2.4887726306915283,-9.205106735229492,-1.6531962156295776
503,57300.0,2.448669672012329,-9.206304550170898,-1.556231141090393
504,57400.0,2.448669672012329,-9.206304550170898,-1.556231141090393
505,57500.0,2.352901697158813,-9.263765335083008,-1.4053963422775269
506,57600.0,2.352901697158813,-9.263765335083008,-1.4053963422775269
507,57700.0,2.4630351066589355,-9.21947193145752,-1.556231141090393
508,57800.0,2.4630351066589355,-9.21947193145752,-1.556231141090393
509,57900.0,2.3265655040740967,-9.258976936340332,-1.4628572463989258
510,58000.0,2.3265655040740967,-9.258976936340332,-1.4628572463989258
511,58100.0,2.384026288986206,-9.272743225097656,-1.58795428276062
512,58200.0,2.4684219360351562,-9.242217063903807,-1.4443022012710571
513,58300.0,2.4684219360351562,-9.242217063903807,-1.4443022012710571
514,58400.0,2.4361002445220947,-9.232640266418457,-1.5682021379470823
515,58500.0,2.4361002445220947,-9.232640266418457,-1.5682021379470823
516,58600.0,2.386420488357544,-9.243413925170898,-1.4706383943557741
517,58700.0,2.386420488357544,-9.243413925170898,-1.4706383943557741
518,58800.0,2.4606409072875977,-9.253589630126953,-1.556231141090393
519,58900.0,2.4606409072875977,-9.253589630126953,-1.556231141090393
520,59000.0,2.3337481021881104,-9.279925346374512,-1.4688427448272705
521,59100.0,2.439092874526977,-9.243413925170898,-1.5885528326034546
522,59200.0,2.439092874526977,-9.243413925170898,-1.5885528326034546
523,59300.0,2.470816135406494,-9.22785186767578,-1.5269020795822144
524,59400.0,2.470816135406494,-9.22785186767578,-1.5269020795822144
525,59500.0,2.4779987335205083,-9.221267700195312,-1.5233107805252075
526,59600.0,2.4779987335205083,-9.221267700195312,-1.5233107805252075
527,59700.0,2.454655408859253,-9.236231803894043,-1.535880446434021
528,59800.0,2.454655408859253,-9.236231803894043,-1.535880446434021
529,59900.0,2.4175450801849365,-9.230246543884276,-1.566406488418579
530,60000.0,2.5258827209472656,-9.204508781433104,-1.6202759742736816
531,60100.0,2.5258827209472656,-9.204508781433104,-1.6202759742736816
532,60200.0,2.3690626621246342,-9.29189682006836,-1.5191209316253662
533,60300.0,2.3690626621246342,-9.29189682006836,-1.5191209316253662
534,60400.0,2.4666264057159424,-9.229048728942873,-1.4993687868118286
535,60500.0,2.4666264057159424,-9.229048728942873,-1.4993687868118286
536,60600.0,2.411559581756592,-9.232041358947754,-1.5526398420333862
537,60700.0,2.411559581756592,-9.232041358947754,-1.5526398420333862
538,60800.0,2.4013843536376958,-9.23563289642334,-1.5646108388900757
539,60900.0,2.4133553504943848,-9.264962196350098,-1.479616641998291
540,61000.0,2.4133553504943848,-9.264962196350098,-1.479616641998291
541,61100.0,2.4103624820709233,-9.242815971374512,-1.4760253429412842
542,61200.0,2.4103624820709233,-9.242815971374512,-1.4760253429412842
543,61300.0,2.3822307586669917,-9.238027572631836,-1.4927847385406494
544,61400.0,2.3822307586669917,-9.238027572631836,-1.4927847385406494
545,61500.0,2.4468741416931152,-9.21288776397705,-1.591545581817627
546,61600.0,2.4468741416931152,-9.21288776397705,-1.591545581817627
547,61700.0,2.4408886432647705,-9.25179386138916,-1.511339783668518
548,61800.0,2.4660277366638184,-9.210494041442873,-1.4257471561431885
549,61900.0,2.4660277366638184,-9.210494041442873,-1.4257471561431885
550,62000.0,2.4229321479797363,-9.229048728942873,-1.4748282432556152
551,62100.0,2.4229321479797363,-9.229048728942873,-1.4748282432556152
552,62200.0,2.4660277366638184,-9.251194953918457,-1.5490485429763794
553,62300.0,2.4660277366638184,-9.251194953918457,-1.5490485429763794
554,62400.0,2.457648038864136,-9.253589630126953,-1.5107412338256836
555,62500.0,2.457648038864136,-9.253589630126953,-1.5107412338256836
556,62600.0,2.416946649551392,-9.244611740112305,-1.4903905391693115
557,62700.0,2.365471363067627,-9.268553733825684,-1.4957774877548218
558,62800.0,2.365471363067627,-9.268553733825684,-1.4957774877548218
559,62900.0,2.457049608230591,-9.230246543884276,-1.558625340461731
560,63000.0,2.457049608230591,-9.230246543884276,-1.558625340461731
561,63100.0,2.5007436275482178,-9.24102020263672,-1.5610195398330688
562,63200.0,2.5007436275482178,-9.24102020263672,-1.5610195398330688
563,63300.0,2.4450783729553223,-9.2033109664917,-1.5364789962768557
564,63400.0,2.4450783729553223,-9.2033109664917,-1.5364789962768557
565,63500.0,2.407968282699585,-9.228450775146484,-1.4377181529998782
566,63600.0,2.36188006401062,-9.24940013885498,-1.5795745849609375
567,63700.0,2.36188006401062,-9.24940013885498,-1.5795745849609375
568,63800.0,2.470217704772949,-9.235034942626953,-1.5628151893615725
569,63900.0,2.470217704772949,-9.235034942626953,-1.5628151893615725
570,64000.0,2.452261209487915,-9.238027572631836,-1.5071499347686768
571,64100.0,2.452261209487915,-9.238027572631836,-1.5071499347686768
572,64200.0,2.4438812732696533,-9.198522567749023,-1.5885528326034546
573,64300.0,2.4438812732696533,-9.198522567749023,-1.5885528326034546
574,64400.0,2.3953988552093506,-9.262567520141602,-1.5245078802108765
575,64500.0,2.3983914852142334,-9.23682975769043,-1.5454572439193726
576,64600.0,2.3983914852142334,-9.23682975769043,-1.5454572439193726
577,64700.0,2.4863784313201904,-9.236231803894043,-1.5705963373184204
578,64800.0,2.4863784313201904,-9.236231803894043,-1.5705963373184204
579,64900.0,2.453458309173584,-9.222464561462402,-1.5508441925048828
580,65000.0,2.453458309173584,-9.222464561462402,-1.5508441925048828
581,65100.0,2.439092874526977,-9.23682975769043,-1.5298948287963867
582,65200.0,2.439092874526977,-9.23682975769043,-1.5298948287963867
583,65300.0,2.449268341064453,-9.223662376403807,-1.4879963397979736
584,65400.0,2.365471363067627,-9.242815971374512,-1.4425065517425537
585,65500.0,2.365471363067627,-9.242815971374512,-1.4425065517425537
586,65600.0,2.451063871383667,-9.213486671447754,-1.6430208683013916
587,65700.0,2.451063871383667,-9.213486671447754,-1.6430208683013916
588,65800.0,2.457049608230591,-9.222464561462402,-1.5592238903045654
589,65900.0,2.457049608230591,-9.222464561462402,-1.5592238903045654
590,66000.0,2.4648306369781494,-9.23323917388916,-1.4993687868118286
591,66100.0,2.4648306369781494,-9.23323917388916,-1.4993687868118286
592,66200.0,2.465429306030273,-9.21588134765625,-1.6843209266662598
593,66300.0,2.4223334789276123,-9.224260330200195,-1.4802151918411257
594,66400.0,2.4223334789276123,-9.224260330200195,-1.4802151918411257
595,66500.0,2.4223334789276123,-9.224260330200195,-1.4802151918411257
596,66600.0,2.428917646408081,-9.227252960205078,-1.631049871444702
597,66700.0,2.4648306369781494,-9.221267700195312,-1.6136919260025024
598,66800.0,2.4648306369781494,-9.221267700195312,-1.6136919260025024
599,66900.0,2.4612393379211426,-9.226655006408693,-1.498770236968994
600,67000.0,2.4612393379211426,-9.226655006408693,-1.498770236968994
601,67100.0,2.45824670791626,-9.232640266418457,-1.5029600858688354
602,67200.0,2.521692991256714,-9.185355186462402,-1.6406266689300537
603,67300.0,2.521692991256714,-9.185355186462402,-1.6406266689300537
604,67400.0,2.3989901542663574,-9.237428665161133,-1.492186188697815
605,67500.0,2.3989901542663574,-9.237428665161133,-1.492186188697815
606,67600.0,2.4175450801849365,-9.232640266418457,-1.6268600225448608
607,67700.0,2.4175450801849365,-9.232640266418457,-1.6268600225448608
608,67800.0,2.4396915435791016,-9.19972038269043,-1.594538331031799
609,67900.0,2.4396915435791016,-9.19972038269043,-1.594538331031799
610,68000.0,2.449866771697998,-9.214085578918457,-1.602918028831482
611,68100.0,2.5055320262908936,-9.206304550170898,-1.535880446434021
612,68200.0,2.5055320262908936,-9.206304550170898,-1.535880446434021
613,68300.0,2.419340848922729,-9.23682975769043,-1.549647092819214
614,68400.0,2.419340848922729,-9.23682975769043,-1.549647092819214
615,68500.0,2.4013843536376958,-9.23323917388916,-1.5328876972198486
616,68600.0,2.4013843536376958,-9.23323917388916,-1.5328876972198486
617,68700.0,2.421136379241944,-9.227252960205078,-1.4873977899551392
618,68800.0,2.421136379241944,-9.227252960205078,-1.4873977899551392
619,68900.0,2.380434989929199,-9.229647636413574,-1.5406688451766968
620,69000.0,2.485780000686645,-9.212289810180664,-1.6747441291809082
621,69100.0,2.485780000686645,-9.212289810180664,-1.6747441291809082
622,69200.0,2.501342296600342,-9.241618156433104,-1.5855600833892822
623,69300.0,2.501342296600342,-9.241618156433104,-1.5855600833892822
624,69400.0,2.470217704772949,-9.247604370117188,-1.468244194984436
625,69500.0,2.470217704772949,-9.247604370117188,-1.468244194984436
626,69600.0,2.3948001861572266,-9.20929718017578,-1.5783774852752686
627,69700.0,2.3948001861572266,-9.20929718017578,-1.5783774852752686
628,69800.0,2.364274263381958,-9.242217063903807,-1.5604209899902344
629,69900.0,2.343923568725586,-9.25059700012207,-1.5155296325683594
630,70000.0,2.343923568725586,-9.25059700012207,-1.5155296325683594
631,70100.0,2.40198278427124,-9.222464561462402,-1.6537947654724119
632,70200.0,2.40198278427124,-9.222464561462402,-1.6537947654724119
633,70300.0,2.383427858352661,-9.25059700012207,-1.5771803855895996
634,70400.0,2.383427858352661,-9.25059700012207,-1.5771803855895996
635,70500.0,2.4103624820709233,-9.211092948913574,-1.6065093278884888
636,70600.0,2.4103624820709233,-9.211092948913574,-1.6065093278884888
637,70700.0,2.3971943855285645,-9.228450775146484,-1.5029600858688354
638,70800.0,2.28406834602356,-9.27034854888916,-1.627458572387695
639,70900.0,2.28406834602356,-9.27034854888916,-1.627458572387695
640,71000.0,2.470816135406494,-9.218873977661133,-1.6017209291458132
641,71100.0,2.470816135406494,-9.218873977661133,-1.6017209291458132
642,71200.0,2.3995885848999023,-9.248801231384276,-1.4844050407409668
643,71300.0,2.3995885848999023,-9.248801231384276,-1.4844050407409668
644,71400.0,2.409764051437378,-9.221267700195312,-1.6316484212875366
645,71500.0,2.409764051437378,-9.221267700195312,-1.6316484212875366
646,71600.0,2.3768436908721924,-9.253589630126953,-1.5233107805252075
647,71700.0,2.3768436908721924,-9.253589630126953,-1.5233107805252075
648,71800.0,2.367865562438965,-9.262567520141602,-1.465849995613098
649,71900.0,2.358887195587158,-9.258976936340332,-1.4778209924697876
650,72000.0,2.358887195587158,-9.258976936340332,-1.4778209924697876
651,72100.0,2.4241292476654053,-9.229048728942873,-1.58256733417511
652,72200.0,2.4241292476654053,-9.229048728942873,-1.58256733417511
653,72300.0,2.3307554721832275,-9.252392768859863,-1.493383288383484
654,72400.0,2.3307554721832275,-9.252392768859863,-1.493383288383484
655,72500.0,2.3720552921295166,-9.239224433898926,-1.5795745849609375
656,72600.0,2.3720552921295166,-9.239224433898926,-1.5795745849609375
657,72700.0,2.1966800689697266,-9.327810287475586,-1.3772644996643066
658,72800.0,2.366668462753296,-9.245209693908693,-1.5622166395187378
659,72900.0,2.366668462753296,-9.245209693908693,-1.5622166395187378
660,73000.0,2.315791606903076,-9.247005462646484,-1.4951789379119873
661,73100.0,2.315791606903076,-9.247005462646484,-1.4951789379119873
662,73200.0,2.341529369354248,-9.251194953918457,-1.722628116607666
663,73300.0,2.341529369354248,-9.251194953918457,-1.722628116607666
664,73400.0,2.403179883956909,-9.223063468933104,-1.2910733222961426
665,73500.0,2.403179883956909,-9.223063468933104,-1.2910733222961426
666,73600.0,2.333149671554565,-9.23323917388916,-1.5424644947052002
667,73700.0,2.2876596450805664,-9.26795482635498,-1.627458572387695
668,73800.0,2.2876596450805664,-9.26795482635498,-1.627458572387695
669,73900.0,2.3959972858428955,-9.210494041442873,-1.6723499298095703
670,74000.0,2.3959972858428955,-9.210494041442873,-1.6723499298095703
671,74100.0,2.270900249481201,-9.31643772125244,-1.5071499347686768
672,74200.0,2.270900249481201,-9.31643772125244,-1.5071499347686768
673,74300.0,2.295440912246704,-9.27034854888916,-1.5693992376327517
674,74400.0,2.295440912246704,-9.27034854888916,-1.5693992376327517
675,74500.0,2.391807556152344,-9.239823341369627,-1.5538369417190552
676,74600.0,2.3026235103607178,-9.288904190063477,-1.4718354940414429
677,74700.0,2.3026235103607178,-9.288904190063477,-1.4718354940414429
678,74800.0,2.2469582557678223,-9.275136947631836,-1.4460978507995603
679,74900.0,2.2469582557678223,-9.275136947631836,-1.4460978507995603
680,75000.0,2.3367409706115723,-9.257779121398926,-1.569997787475586
681,75100.0,2.3367409706115723,-9.257779121398926,-1.569997787475586
682,75200.0,2.3469161987304688,-9.263166427612305,-1.4604630470275881
683,75300.0,2.3469161987304688,-9.263166427612305,-1.4604630470275881
684,75400.0,2.320580005645752,-9.254786491394043,-1.4700398445129397
685,75500.0,2.4331073760986333,-9.184157371520996,-1.615487575531006
686,75600.0,2.4331073760986333,-9.184157371520996,-1.615487575531006
687,75700.0,2.3074119091033936,-9.263166427612305,-1.4903905391693115
688,75800.0,2.3074119091033936,-9.263166427612305,-1.4903905391693115
689,75900.0,2.4007856845855717,-9.25179386138916,-1.5969325304031372
690,76000.0,2.4007856845855717,-9.25179386138916,-1.5969325304031372
691,76100.0,2.304419040679932,-9.258976936340332,-1.5191209316253662
692,76200.0,2.304419040679932,-9.258976936340332,-1.5191209316253662
693,76300.0,2.2685060501098637,-9.2841157913208,-1.4826093912124634
694,76400.0,2.4672248363494877,-9.243413925170898,-1.5628151893615725
695,76500.0,2.4672248363494877,-9.243413925170898,-1.5628151893615725
696,76600.0,2.2816741466522217,-9.283516883850098,-1.2838906049728394
697,76700.0,2.2816741466522217,-9.283516883850098,-1.2838906049728394
698,76800.0,2.4229321479797363,-9.19972038269043,-1.6885107755661009
699,76900.0,2.4229321479797363,-9.19972038269043,-1.6885107755661009
700,77000.0,2.3020248413085938,-9.278130531311037,-1.4544775485992432
701,77100.0,2.3020248413085938,-9.278130531311037,-1.4544775485992432
702,77200.0,2.367865562438965,-9.237428665161133,-1.4814122915267944
703,77300.0,2.407968282699585,-9.239224433898926,-1.4622586965560913
704,77400.0,2.407968282699585,-9.239224433898926,-1.4622586965560913
705,77500.0,2.4229321479797363,-9.239224433898926,-1.4915876388549805
706,77600.0,2.4229321479797363,-9.239224433898926,-1.4915876388549805
707,77700.0,2.3977930545806885,-9.232640266418457,-1.50355863571167
708,77800.0,2.3977930545806885,-9.232640266418457,-1.50355863571167
709,77900.0,2.3313539028167725,-9.276932716369627,-1.483207941055298
710,78000.0,2.3313539028167725,-9.276932716369627,-1.483207941055298
711,78100.0,2.492962598800659,-9.206304550170898,-1.5490485429763794
712,78200.0,2.4612393379211426,-9.220669746398926,-1.5670050382614136
713,78300.0,2.4612393379211426,-9.220669746398926,-1.5670050382614136
714,78400.0,2.4684219360351562,-9.221267700195312,-1.5580267906188965
715,78500.0,2.4684219360351562,-9.221267700195312,-1.5580267906188965
716,78600.0,2.363077163696289,-9.248801231384276,-1.5161281824111938
717,78700.0,2.363077163696289,-9.248801231384276,-1.5161281824111938
718,78800.0,2.472013235092163,-9.211690902709961,-1.566406488418579
719,78900.0,2.472013235092163,-9.211690902709961,-1.566406488418579
720,79000.0,2.4618380069732666,-9.242815971374512,-1.4939818382263184
721,79100.0,2.411559581756592,-9.23443603515625,-1.4856021404266355
722,79200.0,2.411559581756592,-9.23443603515625,-1.4856021404266355
723,79300.0,2.4384944438934326,-9.252392768859863,-1.4951789379119873
724,79400.0,2.4384944438934326,-9.252392768859863,-1.4951789379119873
725,79500.0,2.4049756526947017,-9.25957489013672,-1.4012064933776855
726,79600.0,2.4049756526947017,-9.25957489013672,-1.4012064933776855
727,79700.0,2.4402899742126465,-9.214085578918457,-1.52630352973938
728,79800.0,2.4402899742126465,-9.214085578918457,-1.52630352973938
729,79900.0,2.388814687728882,-9.251194953918457,-1.499967336654663
730,80000.0,2.38462495803833,-9.269750595092773,-1.493383288383484
731,80100.0,2.38462495803833,-9.269750595092773,-1.493383288383484
732,80200.0,2.451662540435791,-9.263166427612305,-1.5101426839828491
733,80300.0,2.451662540435791,-9.263166427612305,-1.5101426839828491
734,80400.0,2.430713176727295,-9.225458145141602,-1.4700398445129397
735,80500.0,2.430713176727295,-9.225458145141602,-1.4700398445129397
736,80600.0,2.7120320796966557,-9.110535621643066,-1.4317326545715332
737,80700.0,2.7120320796966557,-9.110535621643066,-1.4317326545715332
738,80800.0,2.0213048458099365,-9.352949142456056,-1.644816517829895
739,80900.0,2.6240451335906982,-9.238027572631836,-1.6196774244308472
740,81000.0,2.6240451335906982,-9.238027572631836,-1.6196774244308472
741,81100.0,2.3289597034454346,-9.20211410522461,-1.499967336654663
742,81200.0,2.3289597034454346,-9.20211410522461,-1.499967336654663
743,81300.0,2.5737667083740234,-9.05367374420166,-1.547252893447876
744,81400.0,2.5737667083740234,-9.05367374420166,-1.547252893447876
745,81500.0,2.499546527862549,-9.201516151428224,-1.7818846702575684
746,81600.0,2.499546527862549,-9.201516151428224,-1.7818846702575684
747,81700.0,2.5917234420776367,-9.194931983947754,-1.6932991743087769
748,81800.0,2.371456861495972,-9.25957489013672,-1.405994892120361
749,81900.0,2.371456861495972,-9.25957489013672,-1.405994892120361
750,82000.0,2.4181437492370605,-9.201516151428224,-1.446696400642395
751,82100.0,2.4181437492370605,-9.201516151428224,-1.446696400642395
752,82200.0,2.5480291843414307,-9.17697525024414,-1.6250643730163574
753,82300.0,2.5480291843414307,-9.17697525024414,-1.6250643730163574
754,82400.0,2.655768156051636,-9.171587944030762,-1.7459715604782104
755,82500.0,2.655768156051636,-9.171587944030762,-1.7459715604782104
756,82600.0,2.5450363159179688,-9.239224433898926,-1.544858694076538
757,82700.0,2.421136379241944,-9.248202323913574,-1.4460978507995603
758,82800.0,2.421136379241944,-9.248202323913574,-1.4460978507995603
759,82900.0,2.518101692199707,-9.231443405151367,-1.5508441925048828
760,83000.0,2.518101692199707,-9.231443405151367,-1.5508441925048828
761,83100.0,2.501342296600342,-9.21947193145752,-1.513733983039856
762,83200.0,2.501342296600342,-9.21947193145752,-1.513733983039856
763,83300.0,2.4462754726409908,-9.24640655517578,-1.4616601467132568
764,83400.0,2.4462754726409908,-9.24640655517578,-1.4616601467132568
765,83500.0,2.409165382385254,-9.25059700012207,-1.492186188697815
766,83600.0,2.4911668300628658,-9.15243434906006,-1.5921441316604614
767,83700.0,2.4911668300628658,-9.15243434906006,-1.5921441316604614
768,83800.0,2.3349452018737797,-9.294290542602539,-1.543063044548035
769,83900.0,2.3349452018737797,-9.294290542602539,-1.543063044548035
770,84000.0,2.523488521575928,-9.217676162719727,-1.4969745874404907
771,84100.0,2.523488521575928,-9.217676162719727,-1.4969745874404907
772,84200.0,2.364872694015503,-9.224859237670898,-1.5089455842971802
773,84300.0,2.364872694015503,-9.224859237670898,-1.5089455842971802
774,84400.0,2.384026288986206,-9.255983352661133,-1.4706383943557741
775,84500.0,2.516305923461914,-9.307458877563477,-1.5406688451766968
776,84600.0,2.516305923461914,-9.307458877563477,-1.5406688451766968
777,84700.0,2.454655408859253,-9.240421295166016,-1.37906014919281
778,84800.0,2.454655408859253,-9.240421295166016,-1.37906014919281
779,84900.0,2.3948001861572266,-9.231443405151367,-1.5532383918762207
780,85000.0,2.3948001861572266,-9.231443405151367,-1.5532383918762207
781,85100.0,2.456450939178467,-9.253589630126953,-1.4616601467132568
782,85200.0,2.456450939178467,-9.253589630126953,-1.4616601467132568
783,85300.0,2.4438812732696533,-9.254786491394043,-1.483207941055298
784,85400.0,2.404376983642578,-9.27034854888916,-1.4490906000137331
785,85500.0,2.404376983642578,-9.27034854888916,-1.4490906000137331
786,85600.0,2.406172752380371,-9.244611740112305,-1.3329718112945557
787,85700.0,2.406172752380371,-9.244611740112305,-1.3329718112945557
788,85800.0,2.4612393379211426,-9.243413925170898,-1.5568296909332275
789,85900.0,2.4612393379211426,-9.243413925170898,-1.5568296909332275
790,86000.0,2.5061306953430176,-9.220669746398926,-1.5340847969055176
791,86100.0,2.5061306953430176,-9.220669746398926,-1.5340847969055176
792,86200.0,2.47560453414917,-9.235034942626953,-1.4856021404266355
793,86300.0,2.453458309173584,-9.226056098937988,-1.4634557962417605
794,86400.0,2.453458309173584,-9.226056098937988,-1.4634557962417605
795,86500.0,2.448669672012329,-9.235034942626953,-1.417367458343506
796,86600.0,2.448669672012329,-9.235034942626953,-1.417367458343506
797,86700.0,2.451063871383667,-9.244012832641602,-1.4844050407409668
798,86800.0,2.451063871383667,-9.244012832641602,-1.4844050407409668
799,86900.0,2.43669867515564,-9.21827507019043,-1.5717934370040894
800,87000.0,2.43669867515564,-9.21827507019043,-1.5717934370040894
801,87100.0,2.367266893386841,-9.275136947631836,-1.5101426839828491
802,87200.0,2.457049608230591,-9.253589630126953,-1.3425486087799072
803,87300.0,2.457049608230591,-9.253589630126953,-1.3425486087799072
804,87400.0,2.521692991256714,-9.200318336486816,-1.6166846752166748
805,87500.0,2.521692991256714,-9.200318336486816,-1.6166846752166748
806,87600.0,2.45285964012146,-9.21947193145752,-1.50355863571167
807,87700.0,2.45285964012146,-9.21947193145752,-1.50355863571167
808,87800.0,2.4672248363494877,-9.23682975769043,-1.5442601442337036
809,87900.0,2.4672248363494877,-9.23682975769043,-1.5442601442337036
810,88000.0,2.3942017555236816,-9.26915168762207,-1.3503297567367554
811,88100.0,2.4444799423217773,-9.235034942626953,-1.5059528350830078
812,88200.0,2.4444799423217773,-9.235034942626953,-1.5059528350830078
813,88300.0,2.4642322063446045,-9.224260330200195,-1.568800687789917
814,88400.0,2.4642322063446045,-9.224260330200195,-1.568800687789917
815,88500.0,2.449268341064453,-9.218873977661133,-1.5089455842971802
816,88600.0,2.449268341064453,-9.218873977661133,-1.5089455842971802
817,88700.0,2.5127146244049072,-9.164405822753906,-1.569997787475586
818,88800.0,2.5127146244049072,-9.164405822753906,-1.569997787475586
819,88900.0,2.404376983642578,-9.24102020263672,-1.5041571855545044
820,89000.0,2.4690206050872803,-9.241618156433104,-1.4544775485992432
821,89100.0,2.4690206050872803,-9.241618156433104,-1.4544775485992432
822,89200.0,2.454655408859253,-9.232041358947754,-1.5083470344543457
823,89300.0,2.454655408859253,-9.232041358947754,-1.5083470344543457
824,89400.0,2.451063871383667,-9.238625526428224,-1.591545581817627
825,89500.0,2.451063871383667,-9.238625526428224,-1.591545581817627
826,89600.0,2.416347980499268,-9.23563289642334,-1.4814122915267944
827,89700.0,2.416347980499268,-9.23563289642334,-1.4814122915267944
828,89800.0,2.428917646408081,-9.263166427612305,-1.347337007522583
829,89900.0,2.428917646408081,-9.263166427612305,-1.347337007522583
830,90000.0,2.4241292476654053,-9.217676162719727,-1.5705963373184204
831,90100.0,2.4241292476654053,-9.248801231384276,-1.525106430053711
832,90200.0,2.4241292476654053,-9.248801231384276,-1.525106430053711
833,90300.0,2.40198278427124,-9.225458145141602,-1.4095861911773682
834,90400.0,2.40198278427124,-9.225458145141602,-1.4095861911773682
835,90500.0,2.387617588043213,-9.257181167602539,-1.5975310802459717
836,90600.0,2.387617588043213,-9.257181167602539,-1.5975310802459717
837,90700.0,2.472013235092163,-9.215282440185547,-1.4532804489135742
838,90800.0,2.432508945465088,-9.221866607666016,-1.4209587574005127
839,90900.0,2.432508945465088,-9.221866607666016,-1.4209587574005127
840,91000.0,2.425924777984619,-9.242815971374512,-1.5622166395187378
841,91100.0,2.425924777984619,-9.242815971374512,-1.5622166395187378
842,91200.0,2.3930046558380127,-9.248801231384276,-1.4544775485992432
843,91300.0,2.3930046558380127,-9.248801231384276,-1.4544775485992432
844,91400.0,2.454655408859253,-9.224859237670898,-1.6095020771026611
845,91500.0,2.454655408859253,-9.224859237670898,-1.6095020771026611
846,91600.0,2.4103624820709233,-9.248202323913574,-1.4089876413345337
847,91700.0,2.457648038864136,-9.237428665161133,-1.4969745874404907
848,91800.0,2.457648038864136,-9.237428665161133,-1.4969745874404907
849,91900.0,2.408566951751709,-9.24102020263672,-1.4957774877548218
850,92000.0,2.408566951751709,-9.24102020263672,-1.4957774877548218
851,92100.0,2.4007856845855717,-9.235034942626953,-1.3437457084655762
852,92200.0,2.4007856845855717,-9.235034942626953,-1.3437457084655762
853,92300.0,2.4420857429504395,-9.191938400268556,-1.5831658840179443
854,92400.0,2.4420857429504395,-9.191938400268556,-1.5831658840179443
855,92500.0,2.455852508544922,-9.23563289642334,-1.3820528984069824
856,92600.0,2.38462495803833,-9.248801231384276,-1.5059528350830078
857,92700.0,2.38462495803833,-9.248801231384276,-1.5059528350830078
858,92800.0,2.4911668300628658,-9.230246543884276,-1.5897499322891235
859,92900.0,2.4911668300628658,-9.230246543884276,-1.5897499322891235
860,93000.0,2.494159698486328,-9.233837127685547,-1.514931082725525
861,93100.0,2.494159698486328,-9.233837127685547,-1.514931082725525
862,93200.0,2.456450939178467,-9.229048728942873,-1.6124948263168335
863,93300.0,2.456450939178467,-9.229048728942873,-1.6124948263168335
864,93400.0,2.355295896530152,-9.245209693908693,-1.4036006927490234
865,93500.0,2.5115175247192383,-9.212289810180664,-1.5532383918762207
866,93600.0,2.5115175247192383,-9.212289810180664,-1.5532383918762207
867,93700.0,2.519897222518921,-9.20091724395752,-1.5598224401474
868,93800.0,2.519897222518921,-9.20091724395752,-1.5598224401474
869,93900.0,2.437297344207764,-9.23563289642334,-1.5610195398330688
870,94000.0,2.437297344207764,-9.23563289642334,-1.5610195398330688
871,94100.0,2.4911668300628658,-9.211690902709961,-1.5346833467483518
872,94200.0,2.4911668300628658,-9.211690902709961,-1.5346833467483518
873,94300.0,2.472611904144287,-9.252392768859863,-1.533486247062683
874,94400.0,2.472611904144287,-9.252392768859863,-1.533486247062683
875,94500.0,2.485780000686645,-9.221866607666016,-1.5209165811538696
876,94600.0,2.485780000686645,-9.190143585205078,-1.5843629837036133
877,94700.0,2.485780000686645,-9.190143585205078,-1.5843629837036133
878,94800.0,2.4600422382354736,-9.201516151428224,-1.4879963397979736
879,94900.0,2.4600422382354736,-9.201516151428224,-1.4879963397979736
880,95000.0,2.4426841735839844,-9.241618156433104,-1.5107412338256836
881,95100.0,2.4426841735839844,-9.241618156433104,-1.5107412338256836
882,95200.0,2.426523447036743,-9.238027572631836,-1.5221136808395386
883,95300.0,2.45285964012146,-9.21827507019043,-1.511339783668518
884,95400.0,2.45285964012146,-9.21827507019043,-1.511339783668518
885,95500.0,2.3750481605529785,-9.21947193145752,-1.514931082725525
886,95600.0,2.3750481605529785,-9.21947193145752,-1.514931082725525
887,95700.0,2.538452386856079,-9.233837127685547,-1.432929754257202
888,95800.0,2.538452386856079,-9.233837127685547,-1.432929754257202
889,95900.0,2.5270798206329346,-9.207501411437988,-1.66696298122406
890,96000.0,2.5270798206329346,-9.207501411437988,-1.66696298122406
891,96100.0,2.4642322063446045,-9.226655006408693,-1.5520412921905518
892,96200.0,2.4642322063446045,-9.226655006408693,-1.5520412921905518
893,96300.0,2.485181331634521,-9.20091724395752,-1.5693992376327517
894,96400.0,2.550423383712769,-9.227252960205078,-1.5963339805603027
895,96500.0,2.550423383712769,-9.227252960205078,-1.5963339805603027
896,96600.0,2.516305923461914,-9.21288776397705,-1.5520412921905518
897,96700.0,2.516305923461914,-9.21288776397705,-1.5520412921905518
898,96800.0,2.4630351066589355,-9.22785186767578,-1.6023194789886477
899,96900.0,2.4630351066589355,-9.22785186767578,-1.6023194789886477
900,97000.0,2.5264813899993896,-9.215282440185547,-1.5502456426620483
901,97100.0,2.5264813899993896,-9.215282440185547,-1.5502456426620483
902,97200.0,2.45824670791626,-9.248202323913574,-1.4490906000137331
903,97300.0,2.5773582458496094,-9.182361602783203,-1.6735470294952393
904,97400.0,2.5773582458496094,-9.182361602783203,-1.6735470294952393
905,97500.0,2.48757553100586,-9.224859237670898,-1.4203602075576782
906,97600.0,2.48757553100586,-9.224859237670898,-1.4203602075576782
907,97700.0,2.5085248947143555,-9.201516151428224,-1.6358382701873782
908,97800.0,2.5085248947143555,-9.201516151428224,-1.6358382701873782
909,97900.0,2.4803929328918457,-9.206304550170898,-1.5179238319396973
910,98000.0,2.518700122833252,-9.227252960205078,-1.498770236968994
911,98100.0,2.518700122833252,-9.227252960205078,-1.498770236968994
912,98200.0,2.448669672012329,-9.2033109664917,-1.5095441341400146
913,98300.0,2.448669672012329,-9.2033109664917,-1.5095441341400146
914,98400.0,2.49834942817688,-9.244012832641602,-1.4915876388549805
915,98500.0,2.49834942817688,-9.244012832641602,-1.4915876388549805
916,98600.0,2.3930046558380127,-9.226655006408693,-1.525106430053711
917,98700.0,2.3930046558380127,-9.226655006408693,-1.525106430053711
918,98800.0,2.5079262256622314,-9.215282440185547,-1.4963760375976565
919,98900.0,2.5079262256622314,-9.215282440185547,-1.4963760375976565
920,99000.0,2.5091233253479004,-9.238027572631836,-1.5520412921905518
921,99100.0,2.4600422382354736,-9.275735855102539,-1.4897919893264768
922,99200.0,2.4600422382354736,-9.275735855102539,-1.4897919893264768
923,99300.0,2.465429306030273,-9.215282440185547,-1.4179660081863403
924,99400.0,2.465429306030273,-9.215282440185547,-1.4179660081863403
925,99500.0,2.4684219360351562,-9.228450775146484,-1.5622166395187378
926,99600.0,2.4684219360351562,-9.228450775146484,-1.5622166395187378
927,99700.0,2.3953988552093506,-9.247005462646484,-1.3694833517074585
928,99800.0,2.3953988552093506,-9.247005462646484,-1.3694833517074585
929,99900.0,2.4444799423217773,-9.207501411437988,-1.6579847335815432
930,100000.0,2.419340848922729,-9.251194953918457,-1.4927847385406494
931,100100.0,2.419340848922729,-9.251194953918457,-1.4927847385406494
932,100200.0,2.419340848922729,-9.242217063903807,-1.5364789962768557
933,100300.0,2.419340848922729,-9.242217063903807,-1.5364789962768557
934,100400.0,2.457648038864136,-9.188945770263672,-1.5364789962768557
935,100500.0,2.457648038864136,-9.188945770263672,-1.5364789962768557
936,100600.0,2.380434989929199,-9.252392768859863,-1.4107834100723269
937,100700.0,2.380434989929199,-9.252392768859863,-1.4107834100723269
938,100800.0,2.4791958332061768,-9.242217063903807,-1.5095441341400146
939,100900.0,2.477400302886963,-9.21288776397705,-1.5855600833892822
940,101000.0,2.477400302886963,-9.21288776397705,-1.5855600833892822
941,101100.0,2.391807556152344,-9.238625526428224,-1.4371196031570437
942,101200.0,2.391807556152344,-9.238625526428224,-1.4371196031570437
943,101300.0,2.4779987335205083,-9.212289810180664,-1.5598224401474
944,101400.0,2.4779987335205083,-9.212289810180664,-1.5598224401474
945,101500.0,2.5055320262908936,-9.230844497680664,-1.3838485479354858
946,101600.0,2.5055320262908936,-9.230844497680664,-1.3838485479354858
947,101700.0,2.498948097229004,-9.19972038269043,-1.5292962789535522
948,101800.0,2.4343044757843018,-9.24940013885498,-1.488594889640808
949,101900.0,2.4343044757843018,-9.24940013885498,-1.488594889640808
950,102000.0,2.492363929748535,-9.238027572631836,-1.5167267322540283
951,102100.0,2.492363929748535,-9.238027572631836,-1.5167267322540283
952,102200.0,2.433706045150757,-9.243413925170898,-1.4676456451416016
953,102300.0,2.433706045150757,-9.243413925170898,-1.4676456451416016
954,102400.0,2.453458309173584,-9.226056098937988,-1.5269020795822144
955,102500.0,2.453458309173584,-9.226056098937988,-1.5269020795822144
956,102600.0,2.5025393962860107,-9.224859237670898,-1.5957354307174685
957,102700.0,2.5049335956573486,-9.228450775146484,-1.5298948287963867
958,102800.0,2.5049335956573486,-9.228450775146484,-1.5298948287963867
959,102900.0,2.4468741416931152,-9.21588134765625,-1.53169047832489
960,103000.0,2.4468741416931152,-9.21588134765625,-1.53169047832489
961,103100.0,2.4331073760986333,-9.227252960205078,-1.533486247062683
962,103200.0,2.4331073760986333,-9.227252960205078,-1.533486247062683
963,103300.0,2.5115175247192383,-9.215282440185547,-1.5203180313110352
964,103400.0,2.5115175247192383,-9.215282440185547,-1.5203180313110352
965,103500.0,2.431311845779419,-9.220669746398926,-1.58795428276062
966,103600.0,2.524087190628052,-9.174580574035645,-1.6095020771026611
967,103700.0,2.524087190628052,-9.174580574035645,-1.6095020771026611
968,103800.0,2.4013843536376958,-9.207501411437988,-1.6130933761596682
969,103900.0,2.4013843536376958,-9.207501411437988,-1.6130933761596682
970,104000.0,2.654571056365967,-9.14345645904541,-1.6382324695587158
971,104100.0,2.654571056365967,-9.14345645904541,-1.6382324695587158
972,104200.0,2.4343044757843018,-9.245209693908693,-1.5352818965911863
973,104300.0,2.4343044757843018,-9.245209693908693,-1.5352818965911863
974,104400.0,2.344521999359131,-9.2841157913208,-1.446696400642395
975,104500.0,2.431910276412964,-9.208099365234377,-1.521515130996704
976,104600.0,2.431910276412964,-9.208099365234377,-1.521515130996704
977,104700.0,2.564189910888672,-9.185953140258787,-1.6825252771377563
978,104800.0,2.564189910888672,-9.185953140258787,-1.6825252771377563
979,104900.0,2.3822307586669917,-9.247005462646484,-1.3694833517074585
980,105000.0,2.3822307586669917,-9.247005462646484,-1.3694833517074585
981,105100.0,2.5354595184326167,-9.177573204040527,-1.6196774244308472
982,105200.0,2.5354595184326167,-9.177573204040527,-1.6196774244308472
983,105300.0,2.43669867515564,-9.244012832641602,-1.450287699699402
984,105400.0,2.45824670791626,-9.232041358947754,-1.4993687868118286
985,105500.0,2.45824670791626,-9.232041358947754,-1.4993687868118286
986,105600.0,2.4642322063446045,-9.217676162719727,-1.479616641998291
987,105700.0,2.4642322063446045,-9.217676162719727,-1.479616641998291
988,105800.0,2.4606409072875977,-9.247604370117188,-1.5843629837036133
989,105900.0,2.4606409072875977,-9.247604370117188,-1.5843629837036133
990,106000.0,2.5067291259765625,-9.24102020263672,-1.521515130996704
991,106100.0,2.5067291259765625,-9.24102020263672,-1.521515130996704
992,106200.0,2.495955228805542,-9.207501411437988,-1.5388731956481934
993,106300.0,2.5001451969146733,-9.196727752685547,-1.5819687843322754
994,106400.0,2.5001451969146733,-9.196727752685547,-1.5819687843322754
995,106500.0,2.403179883956909,-9.271546363830566,-1.4514847993850708
996,106600.0,2.403179883956909,-9.271546363830566,-1.4514847993850708
997,106700.0,2.482787132263184,-9.18355941772461,-1.5292962789535522
998,106800.0,2.482787132263184,-9.18355941772461,-1.5292962789535522
999,106900.0,2.163759708404541,-9.394847869873047,-1.357512354850769
1000,107000.0,2.163759708404541,-9.394847869873047,-1.357512354850769
1001,107100.0,2.437297344207764,-9.24940013885498,-1.5885528326034546
1002,107200.0,2.2852654457092285,-9.552865028381348,-1.301847219467163
1003,107300.0,2.2852654457092285,-9.552865028381348,-1.301847219467163
1004,107400.0,2.230198860168457,-9.46607494354248,-1.10193133354187
1005,107500.0,2.230198860168457,-9.46607494354248,-1.10193133354187
1006,107600.0,3.310582399368286,-9.053074836730957,-1.6729484796524048
1007,107700.0,3.310582399368286,-9.053074836730957,-1.6729484796524048
1008,107800.0,2.7335798740386963,-9.20929718017578,-1.300650119781494
1009,107900.0,2.7335798740386963,-9.20929718017578,-1.300650119781494
1010,108000.0,2.1182699203491206,-9.346364974975586,-1.373074650764465
1011,108100.0,2.7461493015289307,-9.1446533203125,-1.8136078119277956
1012,108200.0,2.7461493015289307,-9.1446533203125,-1.8136078119277956
1013,108300.0,2.3948001861572266,-9.29189682006836,-1.3724761009216309
1014,108400.0,2.3948001861572266,-9.29189682006836,-1.3724761009216309
1015,108500.0,2.4456770420074463,-9.235034942626953,-1.5580267906188965
1016,108600.0,2.4456770420074463,-9.235034942626953,-1.5580267906188965
1017,108700.0,2.454056739807129,-9.225458145141602,-1.519719481468201
1018,108800.0,2.454056739807129,-9.225458145141602,-1.519719481468201
1019,108900.0,2.449268341064453,-9.220070838928224,-1.4496891498565674
1020,109000.0,2.477400302886963,-9.21588134765625,-1.5502456426620483
1021,109100.0,2.477400302886963,-9.21588134765625,-1.5502456426620483
1022,109200.0,2.457049608230591,-9.1847562789917,-1.52630352973938
1023,109300.0,2.457049608230591,-9.1847562789917,-1.52630352973938
1024,109400.0,2.497152328491211,-9.211092948913574,-1.5029600858688354
1025,109500.0,2.497152328491211,-9.211092948913574,-1.5029600858688354
1026,109600.0,2.4241292476654053,-9.198522567749023,-1.594538331031799
1027,109700.0,2.4241292476654053,-9.198522567749023,-1.594538331031799
1028,109800.0,2.370858192443848,-9.282918930053713,-1.348534107208252
1029,109900.0,2.5294740200042725,-9.21588134765625,-1.6765397787094116
1030,110000.0,2.5294740200042725,-9.21588134765625,-1.6765397787094116
1031,110100.0,2.476801633834839,-9.197325706481934,-1.4556746482849119
1032,110200.0,2.476801633834839,-9.197325706481934,-1.4556746482849119
1033,110300.0,2.4426841735839844,-9.237428665161133,-1.4814122915267944
1034,110400.0,2.4426841735839844,-9.237428665161133,-1.4814122915267944
1035,110500.0,2.439092874526977,-9.212289810180664,-1.4939818382263184
1036,110600.0,2.439092874526977,-9.212289810180664,-1.4939818382263184
1037,110700.0,2.431311845779419,-9.204508781433104,-1.4981716871261597
1038,110800.0,2.448071241378784,-9.232640266418457,-1.5897499322891235
1039,110900.0,2.448071241378784,-9.232640266418457,-1.5897499322891235
1040,111000.0,2.416347980499268,-9.242217063903807,-1.4083890914916992
1041,111100.0,2.416347980499268,-9.242217063903807,-1.4083890914916992
1042,111200.0,2.47560453414917,-9.226056098937988,-1.4838064908981323
1043,111300.0,2.47560453414917,-9.226056098937988,-1.4838064908981323
1044,111400.0,2.4223334789276123,-9.221866607666016,-1.5610195398330688
1045,111500.0,2.4223334789276123,-9.221866607666016,-1.5610195398330688
1046,111600.0,2.4690206050872803,-9.245808601379396,-1.535880446434021
1047,111700.0,2.406172752380371,-9.221267700195312,-1.6059107780456543
1048,111800.0,2.406172752380371,-9.221267700195312,-1.6059107780456543
1049,111900.0,2.5294740200042725,-9.190741539001463,-1.555034041404724
1050,112000.0,2.5294740200042725,-9.190741539001463,-1.555034041404724
1051,112100.0,2.320580005645752,-9.317634582519533,-1.4179660081863403
1052,112200.0,2.320580005645752,-9.317634582519533,-1.4179660081863403
1053,112300.0,2.451063871383667,-9.220669746398926,-1.4850035905838013
1054,112400.0,2.451063871383667,-9.220669746398926,-1.4850035905838013
1055,112500.0,2.469619035720825,-9.248801231384276,-1.5352818965911863
1056,112600.0,2.4013843536376958,-9.238027572631836,-1.5173252820968628
1057,112700.0,2.4013843536376958,-9.238027572631836,-1.5173252820968628
1058,112800.0,2.4343044757843018,-9.218873977661133,-1.5131354331970217
1059,112900.0,2.4343044757843018,-9.218873977661133,-1.5131354331970217
1060,113000.0,2.4438812732696533,-9.21947193145752,-1.600523829460144
1061,113100.0,2.4438812732696533,-9.21947193145752,-1.600523829460144
1062,113200.0,2.40736985206604,-9.230844497680664,-1.4407109022140503
1063,113300.0,2.40736985206604,-9.230844497680664,-1.4407109022140503
1064,113400.0,2.3110032081604004,-9.288305282592773,-1.5544354915618896
1065,113500.0,2.425326347351074,-9.239823341369627,-1.3880383968353271
1066,113600.0,2.425326347351074,-9.239823341369627,-1.3880383968353271
1067,113700.0,2.455852508544922,-9.248801231384276,-1.4634557962417605
1068,113800.0,2.455852508544922,-9.248801231384276,-1.4634557962417605
1069,113900.0,2.415150880813598,-9.214085578918457,-1.498770236968994
1070,114000.0,2.415150880813598,-9.214085578918457,-1.498770236968994
1071,114100.0,2.3277626037597656,-9.275136947631836,-1.483207941055298
1072,114200.0,2.3277626037597656,-9.275136947631836,-1.483207941055298
1073,114300.0,2.4630351066589355,-9.202713012695312,-1.465849995613098
1074,114400.0,2.454655408859253,-9.229647636413574,-1.5532383918762207
1075,114500.0,2.454655408859253,-9.229647636413574,-1.5532383918762207
1076,114600.0,2.4552538394927983,-9.226655006408693,-1.5041571855545044
1077,114700.0,2.4552538394927983,-9.226655006408693,-1.5041571855545044
1078,114800.0,2.450465440750122,-9.228450775146484,-1.4490906000137331
1079,114900.0,2.450465440750122,-9.228450775146484,-1.4490906000137331
1080,115000.0,2.421136379241944,-9.230844497680664,-1.4646528959274292
1081,115100.0,2.421136379241944,-9.230844497680664,-1.4646528959274292
1082,115200.0,2.457648038864136,-9.238625526428224,-1.5843629837036133
1083,115300.0,2.457648038864136,-9.238625526428224,-1.5843629837036133
1084,115400.0,2.47560453414917,-9.23323917388916,-1.43532395362854
1085,115500.0,2.513911724090576,-9.220669746398926,-1.594538331031799
1086,115600.0,2.513911724090576,-9.220669746398926,-1.594538331031799
1087,115700.0,2.416946649551392,-9.265560150146484,-1.490989089012146
1088,115800.0,2.416946649551392,-9.265560150146484,-1.490989089012146
1089,115900.0,2.4384944438934326,-9.276932716369627,-1.4119805097579956
1090,116000.0,2.4384944438934326,-9.276932716369627,-1.4119805097579956
1091,116100.0,2.411559581756592,-9.253589630126953,-1.4634557962417605
1092,116200.0,2.411559581756592,-9.253589630126953,-1.4634557962417605
1093,116300.0,2.452261209487915,-9.233837127685547,-1.4562731981277466
1094,116400.0,2.296638011932373,-9.264363288879396,-1.52630352973938
1095,116500.0,2.296638011932373,-9.264363288879396,-1.52630352973938
1096,116600.0,2.483385801315308,-9.21288776397705,-1.543063044548035
1097,116700.0,2.483385801315308,-9.21288776397705,-1.543063044548035
1098,116800.0,2.453458309173584,-9.260771751403807,-1.432929754257202
1099,116900.0,2.453458309173584,-9.260771751403807,-1.432929754257202
1100,117000.0,2.4127566814422607,-9.264363288879396,-1.4826093912124634
1101,117100.0,2.4127566814422607,-9.264363288879396,-1.4826093912124634
1102,117200.0,2.3965959548950195,-9.230844497680664,-1.4945803880691528
1103,117300.0,2.495356798171997,-9.238027572631836,-1.5280991792678833
1104,117400.0,2.495356798171997,-9.238027572631836,-1.5280991792678833
1105,117500.0,2.388814687728882,-9.279327392578123,-1.3593080043792725
1106,117600.0,2.388814687728882,-9.279327392578123,-1.3593080043792725
1107,117700.0,2.3582887649536133,-9.26915168762207,-1.5502456426620483
1108,117800.0,2.3582887649536133,-9.26915168762207,-1.5502456426620483
1109,117900.0,2.517503023147583,-9.21707820892334,-1.4281413555145264
1110,118000.0,2.517503023147583,-9.21707820892334,-1.4281413555145264
1111,118100.0,2.524087190628052,-9.220070838928224,-1.4341268539428709
1112,118200.0,2.483385801315308,-9.27334213256836,-1.5203180313110352
1113,118300.0,2.483385801315308,-9.27334213256836,-1.5203180313110352
1114,118400.0,2.4678235054016118,-9.227252960205078,-1.432929754257202
1115,118500.0,2.4678235054016118,-9.227252960205078,-1.432929754257202
1116,118600.0,2.454655408859253,-9.244611740112305,-1.436521053314209
1117,118700.0,2.454655408859253,-9.244611740112305,-1.436521053314209
1118,118800.0,2.481590032577514,-9.21588134765625,-1.5328876972198486
1119,118900.0,2.390610456466675,-9.255983352661133,-1.4071919918060305
1120,119000.0,2.390610456466675,-9.255983352661133,-1.4071919918060305
1121,119100.0,2.431311845779419,-9.222464561462402,-1.6322469711303709
1122,119200.0,2.431311845779419,-9.222464561462402,-1.6322469711303709
1123,119300.0,2.366069793701172,-9.271546363830566,-1.3898340463638306
1124,119400.0,2.366069793701172,-9.271546363830566,-1.3898340463638306
1125,119500.0,2.4331073760986333,-9.229048728942873,-1.5053542852401731
1126,119600.0,2.4331073760986333,-9.229048728942873,-1.5053542852401731
1127,119700.0,2.454056739807129,-9.22785186767578,-1.483207941055298
1128,119800.0,2.454056739807129,-9.22785186767578,-1.483207941055298
1129,119900.0,2.433706045150757,-9.214683532714844,-1.670554280281067
1130,120000.0,2.434903144836426,-9.257181167602539,-1.4449007511138916
1131,120100.0,2.434903144836426,-9.257181167602539,-1.4449007511138916
1132,120200.0,2.455852508544922,-9.241618156433104,-1.4472949504852295
1133,120300.0,2.455852508544922,-9.241618156433104,-1.4472949504852295
1134,120400.0,2.498948097229004,-9.214683532714844,-1.5693992376327517
1135,120500.0,2.498948097229004,-9.214683532714844,-1.5693992376327517
1136,120600.0,2.4588451385498047,-9.25179386138916,-1.5029600858688354
1137,120700.0,2.4588451385498047,-9.25179386138916,-1.5029600858688354
1138,120800.0,2.45285964012146,-9.191938400268556,-1.5526398420333862
1139,120900.0,2.516305923461914,-9.198522567749023,-1.4826093912124634
1140,121000.0,2.516305923461914,-9.198522567749023,-1.4826093912124634
1141,121100.0,2.4444799423217773,-9.24102020263672,-1.5867571830749512
1142,121200.0,2.4444799423217773,-9.24102020263672,-1.5867571830749512
1143,121300.0,2.503137826919556,-9.232041358947754,-1.483207941055298
1144,121400.0,2.503137826919556,-9.232041358947754,-1.483207941055298
1145,121500.0,2.5097219944000244,-9.229647636413574,-1.5328876972198486
1146,121600.0,2.5097219944000244,-9.229647636413574,-1.5328876972198486
1147,121700.0,2.492962598800659,-9.205106735229492,-1.5388731956481934
1148,121800.0,2.479794502258301,-9.230246543884276,-1.4742296934127808
1149,121900.0,2.479794502258301,-9.230246543884276,-1.4742296934127808
1150,122000.0,2.5294740200042725,-9.20929718017578,-1.6083049774169922
1151,122100.0,2.5294740200042725,-9.20929718017578,-1.6083049774169922
1152,122200.0,2.5121161937713623,-9.196727752685547,-1.513733983039856
1153,122300.0,2.5121161937713623,-9.196727752685547,-1.513733983039856
1154,122400.0,2.5252842903137207,-9.221866607666016,-1.5173252820968628
1155,122500.0,2.5252842903137207,-9.221866607666016,-1.5173252820968628
1156,122600.0,2.479794502258301,-9.229048728942873,-1.6089035272598269
1157,122700.0,2.5576059818267822,-9.200318336486816,-1.4616601467132568
1158,122800.0,2.5576059818267822,-9.200318336486816,-1.4616601467132568
1159,122900.0,2.404376983642578,-9.254786491394043,-1.5418659448623655
1160,123000.0,2.404376983642578,-9.254786491394043,-1.5418659448623655
1161,123100.0,2.3959972858428955,-9.214085578918457,-1.5257049798965454
1162,123200.0,2.3959972858428955,-9.214085578918457,-1.5257049798965454
1163,123300.0,2.4378957748413086,-9.217676162719727,-1.4520833492279053
1164,123400.0,2.4378957748413086,-9.217676162719727,-1.4520833492279053
1165,123500.0,2.5324668884277344,-9.200318336486816,-1.620874524116516
1166,123600.0,2.43011474609375,-9.23563289642334,-1.5352818965911863
1167,123700.0,2.43011474609375,-9.23563289642334,-1.5352818965911863
1168,123800.0,2.410961151123047,-9.240421295166016,-1.4981716871261597
1169,123900.0,2.410961151123047,-9.240421295166016,-1.4981716871261597
1170,124000.0,2.406172752380371,-9.23323917388916,-1.5652093887329102
1171,124100.0,2.406172752380371,-9.23323917388916,-1.5652093887329102
1172,124200.0,2.4444799423217773,-9.220070838928224,-1.5400702953338623
1173,124300.0,2.4444799423217773,-9.220070838928224,-1.5400702953338623
1174,124400.0,2.431311845779419,-9.243413925170898,-1.5406688451766968
1175,124500.0,2.449866771697998,-9.19433307647705,-1.4802151918411257
1176,124600.0,2.449866771697998,-9.19433307647705,-1.4802151918411257
1177,124700.0,2.387019157409668,-9.220669746398926,-1.6023194789886477
1178,124800.0,2.387019157409668,-9.220669746398926,-1.6023194789886477
1179,124900.0,2.388814687728882,-9.25299072265625,-1.5095441341400146
1180,125000.0,2.388814687728882,-9.25299072265625,-1.5095441341400146
1181,125100.0,2.3499090671539307,-9.275735855102539,-1.4784195423126218
1182,125200.0,2.3499090671539307,-9.275735855102539,-1.4784195423126218
1183,125300.0,2.465429306030273,-9.239224433898926,-1.4347254037857056
1184,125400.0,2.3983914852142334,-9.147047996520996,-1.799242615699768
1185,125500.0,2.3983914852142334,-9.147047996520996,-1.799242615699768
1186,125600.0,2.437297344207764,-9.209895133972168,-1.4604630470275881
1187,125700.0,2.437297344207764,-9.209895133972168,-1.4604630470275881
1188,125800.0,2.381632089614868,-9.273940086364746,-1.5454572439193726
1189,125900.0,2.381632089614868,-9.273940086364746,-1.5454572439193726
1190,126000.0,2.5270798206329346,-9.167996406555176,-1.6424223184585571
1191,126100.0,2.5270798206329346,-9.167996406555176,-1.6424223184585571
1192,126200.0,2.3469161987304688,-9.24102020263672,-1.66696298122406
1193,126300.0,2.43011474609375,-9.225458145141602,-1.5723919868469238
1194,126400.0,2.43011474609375,-9.225458145141602,-1.5723919868469238
1195,126500.0,2.3343467712402344,-9.272743225097656,-1.493383288383484
1196,126600.0,2.3343467712402344,-9.272743225097656,-1.493383288383484
1197,126700.0,2.358887195587158,-9.224260330200195,-1.660977482795715
1198,126800.0,2.358887195587158,-9.224260330200195,-1.660977482795715
1199,126900.0,2.3379380702972408,-9.26915168762207,-1.4454993009567259
1200,127000.0,2.3379380702972408,-9.26915168762207,-1.4454993009567259
1201,127100.0,2.301426410675049,-9.226056098937988,-1.483207941055298
1202,127200.0,2.5246856212615967,-9.176376342773438,-1.6478092670440674
1203,127300.0,2.5246856212615967,-9.176376342773438,-1.6478092670440674
1204,127400.0,2.336142301559448,-9.255385398864746,-1.4724340438842771
1205,127500.0,2.336142301559448,-9.255385398864746,-1.4724340438842771
1206,127600.0,2.5109190940856934,-9.175179481506348,-1.5352818965911863
1207,127700.0,2.5109190940856934,-9.175179481506348,-1.5352818965911863
1208,127800.0,2.27748441696167,-9.288305282592773,-1.3670891523361206
1209,127900.0,2.27748441696167,-9.288305282592773,-1.3670891523361206
1210,128000.0,2.4025814533233643,-9.251194953918457,-1.5520412921905518
1211,128100.0,2.325368404388428,-9.25059700012207,-1.5454572439193726
1212,128200.0,2.325368404388428,-9.25059700012207,-1.5454572439193726
1213,128300.0,2.3343467712402344,-9.255385398864746,-1.5047557353973389
1214,128400.0,2.3343467712402344,-9.255385398864746,-1.5047557353973389
1215,128500.0,2.28945541381836,-9.263765335083008,-1.4748282432556152
1216,128600.0,2.28945541381836,-9.263765335083008,-1.4748282432556152
1217,128700.0,2.3319525718688965,-9.265560150146484,-1.4036006927490234
1218,128800.0,2.3319525718688965,-9.265560150146484,-1.4036006927490234
1219,128900.0,2.3768436908721924,-9.213486671447754,-1.6717513799667358
1220,129000.0,2.31758713722229,-9.264962196350098,-1.4401123523712158
1221,129100.0,2.31758713722229,-9.264962196350098,-1.4401123523712158
1222,129200.0,2.455852508544922,-9.214085578918457,-1.43532395362854
1223,129300.0,2.455852508544922,-9.214085578918457,-1.43532395362854
1224,129400.0,2.2002713680267334,-9.31045150756836,-1.50355863571167
1225,129500.0,2.2002713680267334,-9.31045150756836,-1.50355863571167
1226,129600.0,2.6198551654815674,-9.041104316711426,-1.3892354965209959
1227,129700.0,2.6198551654815674,-9.041104316711426,-1.3892354965209959
1228,129800.0,2.8191723823547363,-8.753201484680176,-2.536656618118286
1229,129900.0,2.677914619445801,-8.981847763061523,-1.8932149410247805
1230,130000.0,2.677914619445801,-8.981847763061523,-1.8932149410247805
1231,130100.0,2.319981336593628,-9.151836395263672,-1.514931082725525
1232,130200.0,2.319981336593628,-9.151836395263672,-1.514931082725525
1233,130300.0,1.3784615993499756,-10.038289070129396,-1.3826514482498171
1234,130400.0,1.3784615993499756,-10.038289070129396,-1.3826514482498171
1235,130500.0,2.606088638305664,-9.309853553771973,-1.4083890914916992
1236,130600.0,2.606088638305664,-9.309853553771973,-1.4083890914916992
1237,130700.0,2.9041666984558105,-8.728660583496094,-1.291671872138977
1238,130800.0,2.145204782485962,-9.207501411437988,-1.5544354915618896
1239,130900.0,2.145204782485962,-9.207501411437988,-1.5544354915618896
1240,131000.0,2.4438812732696533,-9.539097785949707,-0.9786299467086792
1241,131100.0,2.4438812732696533,-9.539097785949707,-0.9786299467086792
1242,131200.0,2.5049335956573486,-9.18355941772461,-1.1516109704971311
1243,131300.0,2.5049335956573486,-9.18355941772461,-1.1516109704971311
1244,131400.0,2.9287071228027344,-8.909422874450684,-1.7806875705718994
1245,131500.0,2.9287071228027344,-8.909422874450684,-1.7806875705718994
1246,131600.0,0.8110358119010925,-10.628459930419922,0.1849520802497864
1247,131700.0,2.481590032577514,-9.218873977661133,-1.6328455209732056
1248,131800.0,2.481590032577514,-9.218873977661133,-1.6328455209732056
1249,131900.0,3.3686418533325195,-8.472481727600098,-3.250128746032715
1250,132000.0,3.3686418533325195,-8.472481727600098,-3.250128746032715
1251,132100.0,1.4520833492279053,-9.932944297790527,-0.3064578175544739
1252,132200.0,1.4520833492279053,-9.932944297790527,-0.3064578175544739
1253,132300.0,2.6641478538513184,-9.23443603515625,-1.0271124839782717
1254,132400.0,2.6641478538513184,-9.23443603515625,-1.0271124839782717
1255,132500.0,2.517503023147583,-9.17817211151123,-1.6747441291809082
1256,132600.0,2.448071241378784,-9.232041358947754,-1.5652093887329102
1257,132700.0,2.448071241378784,-9.232041358947754,-1.5652093887329102
1258,132800.0,2.476801633834839,-9.240421295166016,-1.535880446434021
1259,132900.0,2.476801633834839,-9.240421295166016,-1.535880446434021
1260,133000.0,2.45285964012146,-9.255983352661133,-1.4514847993850708
1261,133100.0,2.45285964012146,-9.255983352661133,-1.4514847993850708
1262,133200.0,2.481590032577514,-9.245209693908693,-1.578976035118103
1263,133300.0,2.481590032577514,-9.245209693908693,-1.578976035118103
1264,133400.0,2.521692991256714,-9.161413192749023,-1.6160861253738403
1265,133500.0,2.44747257232666,-9.237428665161133,-1.4347254037857056
1266,133600.0,2.44747257232666,-9.237428665161133,-1.4347254037857056
1267,133700.0,2.4205379486083984,-9.21707820892334,-1.4742296934127808
1268,133800.0,2.4205379486083984,-9.21707820892334,-1.4742296934127808
1269,133900.0,2.4905683994293213,-9.208099365234377,-1.7076643705368042
1270,134000.0,2.4905683994293213,-9.208099365234377,-1.7076643705368042
1271,134100.0,2.5300726890563965,-9.179967880249023,-1.535880446434021
1272,134200.0,2.5300726890563965,-9.179967880249023,-1.535880446434021
1273,134300.0,2.471414804458618,-9.202713012695312,-1.7058687210083008
1274,134400.0,2.4414870738983154,-9.212289810180664,-1.4341268539428709
1275,134500.0,2.4414870738983154,-9.212289810180664,-1.4341268539428709
1276,134600.0,2.5755624771118164,-9.170391082763672,-1.7561469078063965
1277,134700.0,2.5755624771118164,-9.170391082763672,-1.7561469078063965
1278,134800.0,2.3750481605529785,-9.23682975769043,-1.3120225667953491
1279,134900.0,2.3750481605529785,-9.23682975769043,-1.3120225667953491
1280,135000.0,2.457648038864136,-9.212289810180664,-1.6903064250946045
1281,135100.0,2.457648038864136,-9.212289810180664,-1.6903064250946045
1282,135200.0,2.4821887016296387,-9.23443603515625,-1.548449993133545
1283,135300.0,2.536656618118286,-9.203909873962402,-1.5705963373184204
1284,135400.0,2.536656618118286,-9.203909873962402,-1.5705963373184204
1285,135500.0,2.515108823776245,-9.196128845214844,-1.58795428276062
1286,135600.0,2.515108823776245,-9.196128845214844,-1.58795428276062
1287,135700.0,2.4642322063446045,-9.197325706481934,-1.556231141090393
1288,135800.0,2.4642322063446045,-9.197325706481934,-1.556231141090393
1289,135900.0,2.595314741134644,-9.153631210327148,-1.7136498689651491
1290,136000.0,2.595314741134644,-9.153631210327148,-1.7136498689651491
1291,136100.0,2.5055320262908936,-9.240421295166016,-1.5795745849609375
1292,136200.0,2.3499090671539307,-9.267355918884276,-1.4377181529998782
1293,136300.0,2.3499090671539307,-9.267355918884276,-1.4377181529998782
1294,136400.0,2.5360581874847408,-9.166799545288086,-1.7154455184936523
1295,136500.0,2.5360581874847408,-9.166799545288086,-1.7154455184936523
1296,136600.0,2.586336374282837,-9.12849235534668,-1.6053122282028198
1297,136700.0,2.586336374282837,-9.12849235534668,-1.6053122282028198
1298,136800.0,2.321178436279297,-9.261969566345217,-1.549647092819214
1299,136900.0,2.321178436279297,-9.261969566345217,-1.549647092819214
1300,137000.0,2.5917234420776367,-9.184157371520996,-1.6148890256881714
1301,137100.0,2.5049335956573486,-9.173383712768556,-1.6807296276092532
1302,137200.0,2.5049335956573486,-9.173383712768556,-1.6807296276092532
1303,137300.0,2.4612393379211426,-9.230844497680664,-1.5837644338607788
1304,137400.0,2.4612393379211426,-9.230844497680664,-1.5837644338607788
1305,137500.0,2.477400302886963,-9.260173797607422,-1.569997787475586
1306,137600.0,2.477400302886963,-9.260173797607422,-1.569997787475586
1307,137700.0,2.4911668300628658,-9.170391082763672,-1.5191209316253662
1308,137800.0,2.4911668300628658,-9.170391082763672,-1.5191209316253662
1309,137900.0,2.469619035720825,-9.226056098937988,-1.6352397203445437
1310,138000.0,2.469619035720825,-9.226056098937988,-1.6352397203445437
1311,138100.0,2.474407434463501,-9.21588134765625,-1.6112977266311646
1312,138200.0,2.439092874526977,-9.238027572631836,-1.5340847969055176
1313,138300.0,2.439092874526977,-9.238027572631836,-1.5340847969055176
1314,138400.0,2.4881742000579834,-9.218873977661133,-1.4838064908981323
1315,138500.0,2.4881742000579834,-9.218873977661133,-1.4838064908981323
1316,138600.0,2.4881742000579834,-9.218873977661133,-1.4838064908981323
1317,138700.0,2.4013843536376958,-9.248202323913574,-1.4802151918411257
1318,138800.0,2.5528175830841064,-9.167996406555176,-1.7274165153503418
1319,138900.0,2.5528175830841064,-9.167996406555176,-1.7274165153503418
1320,139000.0,2.4606409072875977,-9.229647636413574,-1.488594889640808
1321,139100.0,2.4103624820709233,-9.245209693908693,-1.5556325912475586
1322,139200.0,2.4103624820709233,-9.245209693908693,-1.5556325912475586
1323,139300.0,2.5270798206329346,-9.19433307647705,-1.6382324695587158
1324,139400.0,2.5270798206329346,-9.19433307647705,-1.6382324695587158
1325,139500.0,2.428318977355957,-9.205705642700195,-1.5059528350830078
1326,139600.0,2.428318977355957,-9.205705642700195,-1.5059528350830078
1327,139700.0,2.4618380069732666,-9.217676162719727,-1.6053122282028198
1328,139800.0,2.4618380069732666,-9.217676162719727,-1.6053122282028198
1329,139900.0,2.5103204250335693,-9.226056098937988,-1.5520412921905518
1330,140000.0,2.451662540435791,-9.231443405151367,-1.5873557329177856
1331,140100.0,2.451662540435791,-9.231443405151367,-1.5873557329177856
1332,140200.0,2.450465440750122,-9.243413925170898,-1.5526398420333862
1333,140300.0,2.450465440750122,-9.243413925170898,-1.5526398420333862
1334,140400.0,2.4355015754699707,-9.228450775146484,-1.4113819599151611
1335,140500.0,2.4355015754699707,-9.228450775146484,-1.4113819599151611
1336,140600.0,2.419340848922729,-9.230844497680664,-1.53169047832489
1337,140700.0,2.454056739807129,-9.265560150146484,-1.45806884765625
1338,140800.0,2.454056739807129,-9.265560150146484,-1.45806884765625
1339,140900.0,2.5498247146606445,-9.181164741516113,-1.5849615335464478
1340,141000.0,2.5498247146606445,-9.181164741516113,-1.5849615335464478
1341,141100.0,2.4343044757843018,-9.242217063903807,-1.4443022012710571
1342,141200.0,2.4343044757843018,-9.242217063903807,-1.4443022012710571
1343,141300.0,2.4552538394927983,-9.236231803894043,-1.5280991792678833
1344,141400.0,2.4552538394927983,-9.236231803894043,-1.5280991792678833
1345,141500.0,2.454655408859253,-9.23323917388916,-1.511339783668518
1346,141600.0,2.454655408859253,-9.23323917388916,-1.511339783668518
1347,141700.0,2.380434989929199,-9.263166427612305,-1.427542805671692
1348,141800.0,2.5971102714538574,-9.135076522827148,-1.7166426181793213
1349,141900.0,2.5971102714538574,-9.135076522827148,-1.7166426181793213
1350,142000.0,2.4343044757843018,-9.187748908996582,-1.4257471561431885
1351,142100.0,2.4343044757843018,-9.187748908996582,-1.4257471561431885
1352,142200.0,2.5079262256622314,-9.17817211151123,-1.7274165153503418
1353,142300.0,2.5079262256622314,-9.17817211151123,-1.7274165153503418
1354,142400.0,2.421136379241944,-9.239224433898926,-1.4431051015853882
1355,142500.0,2.421136379241944,-9.239224433898926,-1.4431051015853882
1356,142600.0,2.4133553504943848,-9.24102020263672,-1.5520412921905518
1357,142700.0,2.483385801315308,-9.190143585205078,-1.6059107780456543
1358,142800.0,2.483385801315308,-9.190143585205078,-1.6059107780456543
1359,142900.0,2.561197280883789,-9.064447402954102,-1.68970787525177
1360,143000.0,2.561197280883789,-9.064447402954102,-1.68970787525177
1361,143100.0,2.492363929748535,-9.138069152832033,-1.7250223159790041
1362,143200.0,2.492363929748535,-9.138069152832033,-1.7250223159790041
1363,143300.0,2.496553897857666,-9.228450775146484,-1.4634557962417605
1364,143400.0,2.496553897857666,-9.228450775146484,-1.4634557962417605
1365,143500.0,2.434903144836426,-9.23443603515625,-1.615487575531006
1366,143600.0,2.477400302886963,-9.238625526428224,-1.5514427423477173
1367,143700.0,2.477400302886963,-9.238625526428224,-1.5514427423477173
1368,143800.0,2.4642322063446045,-9.222464561462402,-1.567603588104248
1369,143900.0,2.4642322063446045,-9.222464561462402,-1.567603588104248
1370,144000.0,2.5324668884277344,-9.18715000152588,-1.7322049140930176
1371,144100.0,2.5324668884277344,-9.18715000152588,-1.7322049140930176
1372,144200.0,2.473809003829956,-9.17697525024414,-1.7274165153503418
1373,144300.0,2.473809003829956,-9.17697525024414,-1.7274165153503418
1374,144400.0,2.60548996925354,-9.167398452758787,-1.8830395936965945
1375,144500.0,2.31758713722229,-9.228450775146484,-1.61069917678833
1376,144600.0,2.31758713722229,-9.228450775146484,-1.61069917678833
1377,144700.0,2.409165382385254,-9.205106735229492,-1.2102689743041992
1378,144800.0,2.409165382385254,-9.205106735229492,-1.2102689743041992
1379,144900.0,2.609679937362671,-9.169194221496582,-1.7399860620498655
1380,145000.0,2.609679937362671,-9.169194221496582,-1.7399860620498655
1381,145100.0,2.380434989929199,-9.208099365234377,-1.6537947654724119
1382,145200.0,2.380434989929199,-9.208099365234377,-1.6537947654724119
1383,145300.0,2.386420488357544,-9.225458145141602,-1.6059107780456543
1384,145400.0,2.474407434463501,-9.215282440185547,-1.5987281799316406
1385,145500.0,2.474407434463501,-9.215282440185547,-1.5987281799316406
1386,145600.0,2.540846586227417,-9.21288776397705,-1.602918028831482
1387,145700.0,2.540846586227417,-9.21288776397705,-1.602918028831482
1388,145800.0,2.3810336589813232,-9.211690902709961,-1.6292542219161987
1389,145900.0,2.3810336589813232,-9.211690902709961,-1.6292542219161987
1390,146000.0,2.405574083328247,-9.24640655517578,-1.6101006269454956
1391,146100.0,2.405574083328247,-9.24640655517578,-1.6101006269454956
1392,146200.0,2.456450939178467,-9.214683532714844,-1.6573861837387085
1393,146300.0,2.427121877670288,-9.22785186767578,-1.4604630470275881
1394,146400.0,2.427121877670288,-9.22785186767578,-1.4604630470275881
1395,146500.0,2.4438812732696533,-9.224260330200195,-1.6663644313812256
1396,146600.0,2.4438812732696533,-9.224260330200195,-1.6663644313812256
1397,146700.0,2.383427858352661,-9.223662376403807,-1.514931082725525
1398,146800.0,2.383427858352661,-9.223662376403807,-1.514931082725525
1399,146900.0,2.476203203201294,-9.216479301452637,-1.581370234489441
1400,147000.0,2.476203203201294,-9.216479301452637,-1.581370234489441
1401,147100.0,2.4636335372924805,-9.217676162719727,-1.6316484212875366
1402,147200.0,2.298433542251587,-9.272743225097656,-1.3982137441635132
1403,147300.0,2.298433542251587,-9.272743225097656,-1.3982137441635132
1404,147400.0,2.472611904144287,-9.278728485107422,-1.4802151918411257
1405,147500.0,2.472611904144287,-9.278728485107422,-1.4802151918411257
1406,147600.0,2.431311845779419,-9.221866607666016,-1.4850035905838013
1407,147700.0,2.431311845779419,-9.221866607666016,-1.4850035905838013
1408,147800.0,2.408566951751709,-9.21947193145752,-1.6412252187728882
1409,147900.0,2.408566951751709,-9.21947193145752,-1.6412252187728882
1410,148000.0,2.365471363067627,-9.28531265258789,-1.3072341680526731
1411,148100.0,2.3989901542663574,-9.229647636413574,-1.6699557304382324
1412,148200.0,2.3989901542663574,-9.229647636413574,-1.6699557304382324
1413,148300.0,2.4127566814422607,-9.196128845214844,-1.620874524116516
1414,148400.0,2.4127566814422607,-9.196128845214844,-1.620874524116516
1415,148500.0,2.449268341064453,-9.22785186767578,-1.367687702178955
1416,148600.0,2.449268341064453,-9.22785186767578,-1.367687702178955
1417,148700.0,2.469619035720825,-9.241618156433104,-1.678335428237915
1418,148800.0,2.469619035720825,-9.241618156433104,-1.678335428237915
1419,148900.0,2.3558945655822754,-9.230844497680664,-1.568800687789917
1420,149000.0,2.42472767829895,-9.220070838928224,-1.5867571830749512
1421,149100.0,2.42472767829895,-9.220070838928224,-1.5867571830749512
1422,149200.0,2.452261209487915,-9.221866607666016,-1.5873557329177856
1423,149300.0,2.452261209487915,-9.221866607666016,-1.5873557329177856
1424,149400.0,2.4396915435791016,-9.205106735229492,-1.52630352973938
1425,149500.0,2.4396915435791016,-9.205106735229492,-1.52630352973938
1426,149600.0,2.473210334777832,-9.170391082763672,-1.6418237686157229
1427,149700.0,2.473210334777832,-9.170391082763672,-1.6418237686157229
1428,149800.0,2.45824670791626,-9.226056098937988,-1.535880446434021
1429,149900.0,2.4343044757843018,-9.20929718017578,-1.5526398420333862
1430,150000.0,2.4343044757843018,-9.20929718017578,-1.5526398420333862
1431,150100.0,2.42472767829895,-9.263765335083008,-1.324592113494873
1432,150200.0,2.42472767829895,-9.263765335083008,-1.324592113494873
1433,150300.0,2.388814687728882,-9.197924613952637,-1.6843209266662598
1434,150400.0,2.388814687728882,-9.197924613952637,-1.6843209266662598
1435,150500.0,2.3780407905578613,-9.252392768859863,-1.4454993009567259
1436,150600.0,2.3780407905578613,-9.252392768859863,-1.4454993009567259
1437,150700.0,2.4648306369781494,-9.23563289642334,-1.48081374168396
1438,150800.0,2.454655408859253,-9.201516151428224,-1.6531962156295776
1439,150900.0,2.454655408859253,-9.201516151428224,-1.6531962156295776
1440,151000.0,2.449268341064453,-9.235034942626953,-1.5406688451766968
1441,151100.0,2.449268341064453,-9.235034942626953,-1.5406688451766968
1442,151200.0,2.4420857429504395,-9.254188537597656,-1.4963760375976565
1443,151300.0,2.4420857429504395,-9.254188537597656,-1.4963760375976565
1444,151400.0,2.4672248363494877,-9.231443405151367,-1.6166846752166748
1445,151500.0,2.4672248363494877,-9.231443405151367,-1.6166846752166748
1446,151600.0,2.4355015754699707,-9.208698272705078,-1.5053542852401731
1447,151700.0,2.3056161403656006,-9.29069995880127,-1.346139907836914
1448,151800.0,2.3056161403656006,-9.29069995880127,-1.346139907836914
1449,151900.0,2.2248120307922363,-9.334393501281738,-1.7621324062347412
1450,152000.0,2.2248120307922363,-9.334393501281738,-1.7621324062347412
1451,152100.0,2.3762452602386475,-9.301473617553713,-1.8590975999832156
1452,152200.0,2.3762452602386475,-9.301473617553713,-1.8590975999832156
1453,152300.0,2.518101692199707,-9.189544677734377,-1.614290475845337
1454,152400.0,2.518101692199707,-9.189544677734377,-1.614290475845337
1455,152500.0,2.437297344207764,-9.189544677734377,-1.4071919918060305
1456,152600.0,2.3469161987304688,-9.244611740112305,-1.5328876972198486
1457,152700.0,2.3469161987304688,-9.244611740112305,-1.5328876972198486
1458,152800.0,2.4672248363494877,-9.196128845214844,-1.523909330368042
1459,152900.0,2.4672248363494877,-9.196128845214844,-1.523909330368042
1460,153000.0,2.4408886432647705,-9.242815971374512,-1.567603588104248
1461,153100.0,2.4408886432647705,-9.242815971374512,-1.567603588104248
1462,153200.0,2.434903144836426,-9.20929718017578,-1.5741876363754272
1463,153300.0,2.434903144836426,-9.20929718017578,-1.5741876363754272
1464,153400.0,2.4630351066589355,-9.197325706481934,-1.5610195398330688
1465,153500.0,2.5222914218902592,-9.20211410522461,-1.4179660081863403
1466,153600.0,2.5222914218902592,-9.20211410522461,-1.4179660081863403
1467,153700.0,2.39120888710022,-9.255385398864746,-1.5298948287963867
1468,153800.0,2.39120888710022,-9.255385398864746,-1.5298948287963867
1469,153900.0,2.524087190628052,-9.224859237670898,-1.543063044548035
1470,154000.0,2.524087190628052,-9.224859237670898,-1.543063044548035
1471,154100.0,2.4420857429504395,-9.242217063903807,-1.4155718088150024
1472,154200.0,2.4420857429504395,-9.242217063903807,-1.4155718088150024
1473,154300.0,2.5133132934570317,-9.19972038269043,-1.6202759742736816
1474,154400.0,2.5450363159179688,-9.162610054016113,-1.5807716846466064
1475,154500.0,2.5450363159179688,-9.162610054016113,-1.5807716846466064
1476,154600.0,2.4223334789276123,-9.238625526428224,-1.502361536026001
1477,154700.0,2.4223334789276123,-9.238625526428224,-1.502361536026001
1478,154800.0,2.475006103515625,-9.23323917388916,-1.5957354307174685
1479,154900.0,2.475006103515625,-9.23323917388916,-1.5957354307174685
1480,155000.0,2.4241292476654053,-9.200318336486816,-1.4778209924697876
1481,155100.0,2.4241292476654053,-9.200318336486816,-1.4778209924697876
1482,155200.0,2.4678235054016118,-9.225458145141602,-1.5628151893615725
1483,155300.0,2.4678235054016118,-9.225458145141602,-1.5628151893615725
1484,155400.0,2.3696610927581787,-9.294290542602539,-1.432929754257202
1485,155500.0,2.5061306953430176,-9.20929718017578,-1.5717934370040894
1486,155600.0,2.5061306953430176,-9.20929718017578,-1.5717934370040894
1487,155700.0,2.4660277366638184,-9.230246543884276,-1.5119383335113523
1488,155800.0,2.4660277366638184,-9.230246543884276,-1.5119383335113523
1489,155900.0,2.451662540435791,-9.21588134765625,-1.5729905366897583
1490,156000.0,2.451662540435791,-9.21588134765625,-1.5729905366897583
1491,156100.0,2.4606409072875977,-9.235034942626953,-1.589151382446289
1492,156200.0,2.472611904144287,-9.192537307739258,-1.5269020795822144
1493,156300.0,2.472611904144287,-9.192537307739258,-1.5269020795822144
1494,156400.0,2.45824670791626,-9.229647636413574,-1.592742681503296
1495,156500.0,2.45824670791626,-9.229647636413574,-1.592742681503296
1496,156600.0,2.521692991256714,-9.21827507019043,-1.6083049774169922
1497,156700.0,2.521692991256714,-9.21827507019043,-1.6083049774169922
1498,156800.0,2.455852508544922,-9.194931983947754,-1.615487575531006
1499,156900.0,2.455852508544922,-9.194931983947754,-1.615487575531006
1500,157000.0,2.4791958332061768,-9.226056098937988,-1.5161281824111938
1501,157100.0,2.448669672012329,-9.23323917388916,-1.5544354915618896
1502,157200.0,2.448669672012329,-9.23323917388916,-1.5544354915618896
1503,157300.0,2.45285964012146,-9.188945770263672,-1.6693571805953982
1504,157400.0,2.45285964012146,-9.188945770263672,-1.6693571805953982
1505,157500.0,2.439092874526977,-9.223662376403807,-1.4610615968704224
1506,157600.0,2.439092874526977,-9.223662376403807,-1.4610615968704224
1507,157700.0,2.474407434463501,-9.239823341369627,-1.6585832834243774
1508,157800.0,2.474407434463501,-9.239823341369627,-1.6585832834243774
1509,157900.0,2.5073277950286865,-9.224859237670898,-1.5406688451766968
1510,158000.0,2.453458309173584,-9.21947193145752,-1.623268723487854
1511,158100.0,2.453458309173584,-9.21947193145752,-1.623268723487854
1512,158200.0,2.472013235092163,-9.239224433898926,-1.5292962789535522
1513,158300.0,2.472013235092163,-9.239224433898926,-1.5292962789535522
1514,158400.0,2.494159698486328,-9.216479301452637,-1.5340847969055176
1515,158500.0,2.494159698486328,-9.216479301452637,-1.5340847969055176
1516,158600.0,2.5348610877990723,-9.190741539001463,-1.6376339197158811
1517,158700.0,2.5348610877990723,-9.190741539001463,-1.6376339197158811
1518,158800.0,2.524087190628052,-9.185953140258787,-1.679532527923584
1519,158900.0,2.45285964012146,-9.248202323913574,-1.5544354915618896
1520,159000.0,2.45285964012146,-9.248202323913574,-1.5544354915618896
1521,159100.0,2.5055320262908936,-9.24102020263672,-1.5705963373184204
1522,159200.0,2.5055320262908936,-9.24102020263672,-1.5705963373184204
1523,159300.0,2.513911724090576,-9.205106735229492,-1.6244658231735232
1524,159400.0,2.513911724090576,-9.205106735229492,-1.6244658231735232
1525,159500.0,2.5276784896850586,-9.202713012695312,-1.6190788745880127
1526,159600.0,2.5276784896850586,-9.202713012695312,-1.6190788745880127
1527,159700.0,2.503137826919556,-9.209895133972168,-1.5574282407760618
1528,159800.0,2.503137826919556,-9.209895133972168,-1.5574282407760618
1529,159900.0,2.534262418746948,-9.203909873962402,-1.6340426206588743
1530,160000.0,2.470816135406494,-9.216479301452637,-1.5101426839828491
1531,160100.0,2.470816135406494,-9.216479301452637,-1.5101426839828491
1532,160200.0,2.540846586227417,-9.1632080078125,-1.6915035247802734
1533,160300.0,2.540846586227417,-9.1632080078125,-1.6915035247802734
1534,160400.0,2.450465440750122,-9.233837127685547,-1.488594889640808
1535,160500.0,2.450465440750122,-9.233837127685547,-1.488594889640808
1536,160600.0,2.427121877670288,-9.21707820892334,-1.5221136808395386
1537,160700.0,2.427121877670288,-9.21707820892334,-1.5221136808395386
1538,160800.0,2.4408886432647705,-9.244611740112305,-1.5304933786392212
1539,160900.0,2.4241292476654053,-9.230844497680664,-1.5364789962768557
1540,161000.0,2.4241292476654053,-9.230844497680664,-1.5364789962768557
1541,161100.0,2.4803929328918457,-9.255385398864746,-1.544858694076538
1542,161200.0,2.4803929328918457,-9.255385398864746,-1.544858694076538
1543,161300.0,2.4791958332061768,-9.218873977661133,-1.5753847360610962
1544,161400.0,2.4791958332061768,-9.218873977661133,-1.5753847360610962
1545,161500.0,2.3738510608673096,-9.247604370117188,-1.4772224426269531
1546,161600.0,2.3738510608673096,-9.247604370117188,-1.4772224426269531
1547,161700.0,2.4175450801849365,-9.258378028869627,-1.519719481468201
1548,161800.0,2.4229321479797363,-9.220669746398926,-1.589151382446289
1549,161900.0,2.4229321479797363,-9.220669746398926,-1.589151382446289
1550,162000.0,2.483385801315308,-9.208698272705078,-1.535880446434021
1551,162100.0,2.483385801315308,-9.208698272705078,-1.535880446434021
1552,162200.0,2.4420857429504395,-9.23682975769043,-1.549647092819214
1553,162300.0,2.4420857429504395,-9.23682975769043,-1.549647092819214
1554,162400.0,2.42472767829895,-9.21588134765625,-1.568800687789917
1555,162500.0,2.42472767829895,-9.21588134765625,-1.568800687789917
1556,162600.0,2.50373649597168,-9.215282440185547,-1.5478514432907104
1557,162700.0,2.4378957748413086,-9.221866607666016,-1.4628572463989258
1558,162800.0,2.4378957748413086,-9.221866607666016,-1.4628572463989258
1559,162900.0,2.363077163696289,-9.261370658874512,-1.5406688451766968
1560,163000.0,2.363077163696289,-9.261370658874512,-1.5406688451766968
1561,163100.0,2.5492262840271,-9.196128845214844,-1.5610195398330688
1562,163200.0,2.5492262840271,-9.196128845214844,-1.5610195398330688
1563,163300.0,2.4384944438934326,-9.205705642700195,-1.4520833492279053
1564,163400.0,2.4384944438934326,-9.205705642700195,-1.4520833492279053
1565,163500.0,2.473809003829956,-9.20929718017578,-1.5837644338607788
1566,163600.0,2.4235305786132812,-9.240421295166016,-1.4742296934127808
1567,163700.0,2.4235305786132812,-9.240421295166016,-1.4742296934127808
1568,163800.0,2.521692991256714,-9.173383712768556,-1.6807296276092532
1569,163900.0,2.521692991256714,-9.173383712768556,-1.6807296276092532
1570,164000.0,2.3948001861572266,-9.242815971374512,-1.3934253454208374
1571,164100.0,2.3948001861572266,-9.242815971374512,-1.3934253454208374
1572,164200.0,2.542642116546631,-9.188347816467283,-1.6747441291809082
1573,164300.0,2.542642116546631,-9.188347816467283,-1.6747441291809082
1574,164400.0,2.450465440750122,-9.25059700012207,-1.5065513849258425
1575,164500.0,2.4666264057159424,-9.242217063903807,-1.580173134803772
1576,164600.0,2.4666264057159424,-9.242217063903807,-1.580173134803772
1577,164700.0,2.40736985206604,-9.217676162719727,-1.590348482131958
1578,164800.0,2.40736985206604,-9.217676162719727,-1.590348482131958
1579,164900.0,2.496553897857666,-9.22785186767578,-1.450287699699402
1580,165000.0,2.496553897857666,-9.22785186767578,-1.450287699699402
1581,165100.0,2.411559581756592,-9.21947193145752,-1.6519991159439087
1582,165200.0,2.411559581756592,-9.21947193145752,-1.6519991159439087
1583,165300.0,2.456450939178467,-9.242217063903807,-1.4460978507995603
1584,165400.0,2.465429306030273,-9.21588134765625,-1.592742681503296
1585,165500.0,2.465429306030273,-9.21588134765625,-1.592742681503296
1586,165600.0,2.4402899742126465,-9.214683532714844,-1.6633716821670532
1587,165700.0,2.4402899742126465,-9.214683532714844,-1.6633716821670532
1588,165800.0,2.408566951751709,-9.243413925170898,-1.5029600858688354
1589,165900.0,2.408566951751709,-9.243413925170898,-1.5029600858688354
1590,166000.0,2.485181331634521,-9.237428665161133,-1.6579847335815432
1591,166100.0,2.485181331634521,-9.237428665161133,-1.6579847335815432
1592,166200.0,2.519298791885376,-9.205705642700195,-1.5622166395187378
1593,166300.0,2.482787132263184,-9.205106735229492,-1.6478092670440674
1594,166400.0,2.482787132263184,-9.205106735229492,-1.6478092670440674
1595,166500.0,2.4636335372924805,-9.210494041442873,-1.5963339805603027
1596,166600.0,2.4636335372924805,-9.210494041442873,-1.5963339805603027
1597,166700.0,2.473809003829956,-9.184157371520996,-1.6525976657867432
1598,166800.0,2.473809003829956,-9.184157371520996,-1.6525976657867432
1599,166900.0,2.390011787414551,-9.231443405151367,-1.502361536026001
1600,167000.0,2.390011787414551,-9.231443405151367,-1.502361536026001
1601,167100.0,2.4444799423217773,-9.221267700195312,-1.6358382701873782
1602,167200.0,2.390610456466675,-9.254188537597656,-1.4969745874404907
1603,167300.0,2.390610456466675,-9.254188537597656,-1.4969745874404907
1604,167400.0,2.5755624771118164,-9.162610054016113,-1.7088614702224731
1605,167500.0,2.5755624771118164,-9.162610054016113,-1.7088614702224731
1606,167600.0,2.3924059867858887,-9.241618156433104,-1.6178817749023438
1607,167700.0,2.3924059867858887,-9.241618156433104,-1.6178817749023438
1608,167800.0,2.343324899673462,-9.258976936340332,-1.5394717454910278
1609,167900.0,2.343324899673462,-9.258976936340332,-1.5394717454910278
1610,168000.0,2.45285964012146,-9.233837127685547,-1.533486247062683
1611,168100.0,2.513911724090576,-9.198522567749023,-1.7094600200653076
1612,168200.0,2.513911724090576,-9.198522567749023,-1.7094600200653076
1613,168300.0,2.3576900959014893,-9.258976936340332,-1.5173252820968628
1614,168400.0,2.3576900959014893,-9.258976936340332,-1.5173252820968628
1615,168500.0,2.4917654991149902,-9.213486671447754,-1.592742681503296
1616,168600.0,2.4917654991149902,-9.213486671447754,-1.592742681503296
1617,168700.0,2.4803929328918457,-9.196727752685547,-1.6561890840530396
1618,168800.0,2.4803929328918457,-9.196727752685547,-1.6561890840530396
1619,168900.0,2.4600422382354736,-9.218873977661133,-1.6124948263168335
1620,169000.0,2.425326347351074,-9.23682975769043,-1.519719481468201
1621,169100.0,2.425326347351074,-9.23682975769043,-1.519719481468201
1622,169200.0,2.452261209487915,-9.224859237670898,-1.556231141090393
1623,169300.0,2.452261209487915,-9.224859237670898,-1.556231141090393
1624,169400.0,2.4660277366638184,-9.210494041442873,-1.675342679023743
1625,169500.0,2.4660277366638184,-9.210494041442873,-1.675342679023743
1626,169600.0,2.416347980499268,-9.22785186767578,-1.4071919918060305
1627,169700.0,2.416347980499268,-9.22785186767578,-1.4071919918060305
1628,169800.0,2.403778553009033,-9.248801231384276,-1.6579847335815432
1629,169900.0,2.3720552921295166,-9.245209693908693,-1.521515130996704
1630,170000.0,2.3720552921295166,-9.245209693908693,-1.521515130996704
1631,170100.0,2.484582901000977,-9.2033109664917,-1.7046716213226318
1632,170200.0,2.484582901000977,-9.2033109664917,-1.7046716213226318
1633,170300.0,2.454056739807129,-9.252392768859863,-1.3982137441635132
1634,170400.0,2.454056739807129,-9.252392768859863,-1.3982137441635132
1635,170500.0,2.4624364376068115,-9.185953140258787,-1.7262194156646729
1636,170600.0,2.4624364376068115,-9.185953140258787,-1.7262194156646729
1637,170700.0,2.4426841735839844,-9.258378028869627,-1.5185223817825315
1638,170800.0,2.451063871383667,-9.220070838928224,-1.578976035118103
1639,170900.0,2.451063871383667,-9.220070838928224,-1.578976035118103
1640,171000.0,2.406771183013916,-9.222464561462402,-1.6843209266662598
1641,171100.0,2.406771183013916,-9.222464561462402,-1.6843209266662598
1642,171200.0,2.451063871383667,-9.226655006408693,-1.5873557329177856
1643,171300.0,2.451063871383667,-9.226655006408693,-1.5873557329177856
1644,171400.0,2.3822307586669917,-9.242217063903807,-1.479616641998291
1645,171500.0,2.3822307586669917,-9.242217063903807,-1.479616641998291
1646,171600.0,2.3696610927581787,-9.215282440185547,-1.7950527667999268
1647,171700.0,2.503137826919556,-9.241618156433104,-1.4215573072433472
1648,171800.0,2.503137826919556,-9.241618156433104,-1.4215573072433472
1649,171900.0,2.4444799423217773,-9.214683532714844,-1.6807296276092532
1650,172000.0,2.4444799423217773,-9.214683532714844,-1.6807296276092532
1651,172100.0,2.411559581756592,-9.244012832641602,-1.5520412921905518
1652,172200.0,2.411559581756592,-9.244012832641602,-1.5520412921905518
1653,172300.0,2.5324668884277344,-9.188347816467283,-1.6891093254089355
1654,172400.0,2.5324668884277344,-9.188347816467283,-1.6891093254089355
