,timestamp,ax,ay,az
0,7000.0,7.0923261642456055,3.938585996627808,-1.9286150932312007
1,7100.0,7.0923261642456055,3.938585996627808,-1.9286150932312007
2,7200.0,7.0923261642456055,3.938585996627808,-1.9286150932312007
3,7300.0,7.0923261642456055,3.938585996627808,-1.9286150932312007
4,7400.0,6.790830135345459,5.44845724105835,-4.256831645965576
5,7500.0,6.790830135345459,5.44845724105835,-4.256831645965576
6,7600.0,6.790830135345459,5.44845724105835,-4.256831645965576
7,7700.0,7.719245910644531,3.617947816848755,-1.9669002294540403
8,7800.0,7.719245910644531,3.617947816848755,-1.9669002294540403
9,7900.0,9.016156196594238,3.5676987171173096,-2.754138946533203
10,8000.0,9.016156196594238,3.5676987171173096,-2.754138946533203
11,8100.0,8.465806007385254,1.931007981300354,-2.0889341831207275
12,8200.0,8.465806007385254,1.931007981300354,-2.0889341831207275
13,8300.0,8.317451477050781,3.060420036315918,-2.124826431274414
14,8400.0,8.317451477050781,3.060420036315918,-2.124826431274414
15,8500.0,7.207180976867676,3.005385160446167,-2.620140790939331
16,8600.0,7.207180976867676,3.005385160446167,-2.620140790939331
17,8700.0,7.207180976867676,3.005385160446167,-2.620140790939331
18,8800.0,14.778071403503418,3.4743783473968506,-2.8402805328369136
19,8900.0,14.778071403503418,3.4743783473968506,-2.8402805328369136
20,8000.0,9.016156196594238,3.5676987171173096,-2.754138946533203
21,8100.0,8.465806007385254,1.931007981300354,-2.0889341831207275
22,8200.0,8.465806007385254,1.931007981300354,-2.0889341831207275
23,8300.0,8.317451477050781,3.060420036315918,-2.124826431274414
24,8400.0,8.317451477050781,3.060420036315918,-2.124826431274414
25,8500.0,7.207180976867676,3.005385160446167,-2.620140790939331
26,8600.0,7.207180976867676,3.005385160446167,-2.620140790939331
27,8700.0,7.207180976867676,3.005385160446167,-2.620140790939331
28,8800.0,14.778071403503418,3.4743783473968506,-2.8402805328369136
29,8900.0,14.778071403503418,3.4743783473968506,-2.8402805328369136
30,9000.0,8.322237014770508,1.6606187820434568,-2.9862425327301025
31,9100.0,8.322237014770508,1.6606187820434568,-2.9862425327301025
32,9200.0,8.322237014770508,1.6606187820434568,-2.9862425327301025
33,9300.0,6.886543273925781,1.758724570274353,-2.7038896083831787
34,9400.0,6.886543273925781,1.758724570274353,-2.7038896083831787
35,9500.0,9.556933403015137,3.754338502883911,-2.234896183013916
36,9600.0,9.556933403015137,3.754338502883911,-2.234896183013916
37,9700.0,8.437092781066895,3.687339782714844,-2.100898265838623
38,9800.0,8.437092781066895,3.687339782714844,-2.100898265838623
39,9900.0,9.72921657562256,3.10109806060791,-1.8783657550811768
40,9000.0,8.322237014770508,1.6606187820434568,-2.9862425327301025
41,9100.0,8.322237014770508,1.6606187820434568,-2.9862425327301025
42,9200.0,8.322237014770508,1.6606187820434568,-2.9862425327301025
43,9300.0,6.886543273925781,1.758724570274353,-2.7038896083831787
44,9400.0,6.886543273925781,1.758724570274353,-2.7038896083831787
45,9500.0,9.556933403015137,3.754338502883911,-2.234896183013916
46,9600.0,9.556933403015137,3.754338502883911,-2.234896183013916
47,9700.0,8.437092781066895,3.687339782714844,-2.100898265838623
48,9800.0,8.437092781066895,3.687339782714844,-2.100898265838623
49,9900.0,9.72921657562256,3.10109806060791,-1.8783657550811768
50,10000.0,9.72921657562256,3.10109806060791,-1.8783657550811768
51,10100.0,9.72921657562256,3.10109806060791,-1.8783657550811768
52,10200.0,8.671588897705076,2.567498683929444,-1.9860427379608157
53,10300.0,8.671588897705076,2.567498683929444,-1.9860427379608157
54,10400.0,7.738388061523437,3.012563943862915,-2.148754596710205
55,10500.0,7.738388061523437,3.012563943862915,-2.148754596710205
56,10600.0,7.097111701965332,3.103491306304932,-2.553141593933105
57,10700.0,7.097111701965332,3.103491306304932,-2.553141593933105
58,10800.0,7.097111701965332,3.103491306304932,-2.553141593933105
59,10900.0,11.763115882873535,2.517249345779419,-2.945564746856689
60,10000.0,9.72921657562256,3.10109806060791,-1.8783657550811768
61,10100.0,9.72921657562256,3.10109806060791,-1.8783657550811768
62,10200.0,8.671588897705076,2.567498683929444,-1.9860427379608157
63,10300.0,8.671588897705076,2.567498683929444,-1.9860427379608157
64,10400.0,7.738388061523437,3.012563943862915,-2.148754596710205
65,10500.0,7.738388061523437,3.012563943862915,-2.148754596710205
66,10600.0,7.097111701965332,3.103491306304932,-2.553141593933105
67,10700.0,7.097111701965332,3.103491306304932,-2.553141593933105
68,10800.0,7.097111701965332,3.103491306304932,-2.553141593933105
69,10900.0,11.763115882873535,2.517249345779419,-2.945564746856689
70,11000.0,11.763115882873535,2.517249345779419,-2.945564746856689
71,11100.0,6.537191867828369,1.8424735069274905,-2.1726830005645748
72,11200.0,6.537191867828369,1.8424735069274905,-2.1726830005645748
73,11300.0,9.06879711151123,2.8426735401153564,-3.0652055740356445
74,11400.0,9.06879711151123,2.8426735401153564,-3.0652055740356445
75,11500.0,7.570890426635742,3.3164520263671875,-2.8953151702880864
76,11600.0,7.570890426635742,3.3164520263671875,-2.8953151702880864
77,11700.0,7.570890426635742,3.3164520263671875,-2.8953151702880864
78,11800.0,6.4462642669677725,2.847458839416504,-2.770888566970825
79,11900.0,6.4462642669677725,2.847458839416504,-2.770888566970825
80,11000.0,11.763115882873535,2.517249345779419,-2.945564746856689
81,11100.0,6.537191867828369,1.8424735069274905,-2.1726830005645748
82,11200.0,6.537191867828369,1.8424735069274905,-2.1726830005645748
83,11300.0,9.06879711151123,2.8426735401153564,-3.0652055740356445
84,11400.0,9.06879711151123,2.8426735401153564,-3.0652055740356445
85,11500.0,7.570890426635742,3.3164520263671875,-2.8953151702880864
86,11600.0,7.570890426635742,3.3164520263671875,-2.8953151702880864
87,11700.0,7.570890426635742,3.3164520263671875,-2.8953151702880864
88,11800.0,6.4462642669677725,2.847458839416504,-2.770888566970825
89,11900.0,6.4462642669677725,2.847458839416504,-2.770888566970825
90,12000.0,9.67657470703125,2.878565788269043,-2.524427890777588
91,12100.0,9.67657470703125,2.878565788269043,-2.524427890777588
92,12200.0,7.987241268157959,2.3066811561584477,-1.7706886529922483
93,12300.0,7.987241268157959,2.3066811561584477,-1.7706886529922483
94,12400.0,7.987241268157959,2.3066811561584477,-1.7706886529922483
95,12500.0,9.518648147583008,3.9864425659179688,-2.57228422164917
96,12600.0,9.518648147583008,3.9864425659179688,-2.57228422164917
97,12700.0,6.695117950439452,3.050848960876465,-3.751945972442627
98,12800.0,6.695117950439452,3.050848960876465,-3.751945972442627
99,12900.0,15.089139938354492,3.871586799621582,-2.885744333267212
100,12000.0,9.67657470703125,2.878565788269043,-2.524427890777588
101,12100.0,9.67657470703125,2.878565788269043,-2.524427890777588
102,12200.0,7.987241268157959,2.3066811561584477,-1.7706886529922483
103,12300.0,7.987241268157959,2.3066811561584477,-1.7706886529922483
104,12400.0,7.987241268157959,2.3066811561584477,-1.7706886529922483
105,12500.0,9.518648147583008,3.9864425659179688,-2.57228422164917
106,12600.0,9.518648147583008,3.9864425659179688,-2.57228422164917
107,12700.0,6.695117950439452,3.050848960876465,-3.751945972442627
108,12800.0,6.695117950439452,3.050848960876465,-3.751945972442627
109,12900.0,15.089139938354492,3.871586799621582,-2.885744333267212
110,13000.0,15.089139938354492,3.871586799621582,-2.885744333267212
111,13100.0,5.546562671661377,1.2873386144638062,-2.5076780319213867
112,13200.0,5.546562671661377,1.2873386144638062,-2.5076780319213867
113,13300.0,5.546562671661377,1.2873386144638062,-2.5076780319213867
114,13400.0,7.939385414123535,2.57228422164917,-3.6610186100006095
115,13500.0,7.939385414123535,2.57228422164917,-3.6610186100006095
116,13600.0,7.2023963928222665,3.122633695602417,-2.8594231605529785
117,13700.0,7.2023963928222665,3.122633695602417,-2.8594231605529785
118,13800.0,13.720444679260256,3.5198421478271484,-3.4193434715271
119,13900.0,13.720444679260256,3.5198421478271484,-3.4193434715271
120,13000.0,15.089139938354492,3.871586799621582,-2.885744333267212
121,13100.0,5.546562671661377,1.2873386144638062,-2.5076780319213867
122,13200.0,5.546562671661377,1.2873386144638062,-2.5076780319213867
123,13300.0,5.546562671661377,1.2873386144638062,-2.5076780319213867
124,13400.0,7.939385414123535,2.57228422164917,-3.6610186100006095
125,13500.0,7.939385414123535,2.57228422164917,-3.6610186100006095
126,13600.0,7.2023963928222665,3.122633695602417,-2.8594231605529785
127,13700.0,7.2023963928222665,3.122633695602417,-2.8594231605529785
128,13800.0,13.720444679260256,3.5198421478271484,-3.4193434715271
129,13900.0,13.720444679260256,3.5198421478271484,-3.4193434715271
130,14000.0,13.720444679260256,3.5198421478271484,-3.4193434715271
131,14100.0,8.212166786193848,2.8426735401153564,-2.7589242458343506
132,14200.0,8.212166786193848,2.8426735401153564,-2.7589242458343506
133,14300.0,9.509077072143556,2.8761727809906006,-1.514656662940979
134,14400.0,9.509077072143556,2.8761727809906006,-1.514656662940979
135,14500.0,8.891729354858398,2.7900311946868896,-2.2516460418701167
136,14600.0,8.891729354858398,2.7900311946868896,-2.2516460418701167
137,14700.0,7.5661048889160165,2.9551358222961426,-2.746960401535034
138,14800.0,7.5661048889160165,2.9551358222961426,-2.746960401535034
139,14900.0,12.562318801879885,3.4983065128326416,-3.3643085956573486
140,14000.0,13.720444679260256,3.5198421478271484,-3.4193434715271
141,14100.0,8.212166786193848,2.8426735401153564,-2.7589242458343506
142,14200.0,8.212166786193848,2.8426735401153564,-2.7589242458343506
143,14300.0,9.509077072143556,2.8761727809906006,-1.514656662940979
144,14400.0,9.509077072143556,2.8761727809906006,-1.514656662940979
145,14500.0,8.891729354858398,2.7900311946868896,-2.2516460418701167
146,14600.0,8.891729354858398,2.7900311946868896,-2.2516460418701167
147,14700.0,7.5661048889160165,2.9551358222961426,-2.746960401535034
148,14800.0,7.5661048889160165,2.9551358222961426,-2.746960401535034
149,14900.0,12.562318801879885,3.4983065128326416,-3.3643085956573486
150,15000.0,12.562318801879885,3.4983065128326416,-3.3643085956573486
151,15100.0,12.562318801879885,3.4983065128326416,-3.3643085956573486
152,15200.0,8.446663856506348,1.4093725681304932,-2.651247262954712
153,15300.0,8.446663856506348,1.4093725681304932,-2.651247262954712
154,15400.0,7.5661048889160165,2.249253273010254,-2.739781856536865
155,15500.0,7.5661048889160165,2.249253273010254,-2.739781856536865
156,15600.0,7.5661048889160165,2.249253273010254,-2.739781856536865
157,15700.0,8.360522270202638,3.608376264572144,-3.053241729736328
158,15800.0,8.360522270202638,3.608376264572144,-3.053241729736328
159,15900.0,8.556733131408691,3.2446675300598145,-2.553141593933105
160,15000.0,12.562318801879885,3.4983065128326416,-3.3643085956573486
161,15100.0,12.562318801879885,3.4983065128326416,-3.3643085956573486
162,15200.0,8.446663856506348,1.4093725681304932,-2.651247262954712
163,15300.0,8.446663856506348,1.4093725681304932,-2.651247262954712
164,15400.0,7.5661048889160165,2.249253273010254,-2.739781856536865
165,15500.0,7.5661048889160165,2.249253273010254,-2.739781856536865
166,15600.0,7.5661048889160165,2.249253273010254,-2.739781856536865
167,15700.0,8.360522270202638,3.608376264572144,-3.053241729736328
168,15800.0,8.360522270202638,3.608376264572144,-3.053241729736328
169,15900.0,8.556733131408691,3.2446675300598145,-2.553141593933105
170,16000.0,8.556733131408691,3.2446675300598145,-2.553141593933105
171,16100.0,8.939584732055664,2.359323024749756,-2.462214469909668
172,16200.0,8.939584732055664,2.359323024749756,-2.462214469909668
173,16300.0,7.728816509246826,2.1439690589904785,-2.1391832828521733
174,16400.0,7.728816509246826,2.1439690589904785,-2.1391832828521733
175,16500.0,6.953542709350586,3.658626079559326,-2.868994235992432
176,16600.0,6.953542709350586,3.658626079559326,-2.868994235992432
177,16700.0,6.8482584953308105,2.919243574142456,-3.050848960876465
178,16800.0,6.8482584953308105,2.919243574142456,-3.050848960876465
179,16900.0,6.8482584953308105,2.919243574142456,-3.050848960876465
180,16000.0,8.556733131408691,3.2446675300598145,-2.553141593933105
181,16100.0,8.939584732055664,2.359323024749756,-2.462214469909668
182,16200.0,8.939584732055664,2.359323024749756,-2.462214469909668
183,16300.0,7.728816509246826,2.1439690589904785,-2.1391832828521733
184,16400.0,7.728816509246826,2.1439690589904785,-2.1391832828521733
185,16500.0,6.953542709350586,3.658626079559326,-2.868994235992432
186,16600.0,6.953542709350586,3.658626079559326,-2.868994235992432
187,16700.0,6.8482584953308105,2.919243574142456,-3.050848960876465
188,16800.0,6.8482584953308105,2.919243574142456,-3.050848960876465
189,16900.0,6.8482584953308105,2.919243574142456,-3.050848960876465
190,17000.0,9.18843936920166,2.062613010406494,-3.232703685760498
191,17100.0,9.18843936920166,2.062613010406494,-3.232703685760498
192,17200.0,8.398807525634767,1.8233308792114256,-3.617947816848755
193,17300.0,8.398807525634767,1.8233308792114256,-3.617947816848755
194,17400.0,7.77188777923584,3.012563943862915,-3.3714869022369385
195,17500.0,7.77188777923584,3.012563943862915,-3.3714869022369385
196,17600.0,7.77188777923584,3.012563943862915,-3.3714869022369385
197,17700.0,7.8006019592285165,2.974278450012207,-3.2374887466430664
198,17800.0,7.8006019592285165,2.974278450012207,-3.2374887466430664
199,17900.0,12.954741477966307,3.1824538707733154,-3.785445213317871
200,17000.0,9.18843936920166,2.062613010406494,-3.232703685760498
201,17100.0,9.18843936920166,2.062613010406494,-3.232703685760498
202,17200.0,8.398807525634767,1.8233308792114256,-3.617947816848755
203,17300.0,8.398807525634767,1.8233308792114256,-3.617947816848755
204,17400.0,7.77188777923584,3.012563943862915,-3.3714869022369385
205,17500.0,7.77188777923584,3.012563943862915,-3.3714869022369385
206,17600.0,7.77188777923584,3.012563943862915,-3.3714869022369385
207,17700.0,7.8006019592285165,2.974278450012207,-3.2374887466430664
208,17800.0,7.8006019592285165,2.974278450012207,-3.2374887466430664
209,17900.0,12.954741477966307,3.1824538707733154,-3.785445213317871
210,18000.0,12.954741477966307,3.1824538707733154,-3.785445213317871
211,18100.0,8.547162055969237,2.833101987838745,-2.445464611053467
212,18200.0,8.547162055969237,2.833101987838745,-2.445464611053467
213,18300.0,8.547162055969237,2.833101987838745,-2.445464611053467
214,18400.0,8.073383331298826,2.785245418548584,-2.395215511322021
215,18500.0,8.073383331298826,2.785245418548584,-2.395215511322021
216,18600.0,7.3124656677246085,3.2374887466430664,-2.6560330390930176
217,18700.0,7.3124656677246085,3.2374887466430664,-2.6560330390930176
218,18800.0,13.313664436340332,3.5748770236968994,-3.366701364517212
219,18900.0,13.313664436340332,3.5748770236968994,-3.366701364517212
220,18000.0,12.954741477966307,3.1824538707733154,-3.785445213317871
221,18100.0,8.547162055969237,2.833101987838745,-2.445464611053467
222,18200.0,8.547162055969237,2.833101987838745,-2.445464611053467
223,18300.0,8.547162055969237,2.833101987838745,-2.445464611053467
224,18400.0,8.073383331298826,2.785245418548584,-2.395215511322021
225,18500.0,8.073383331298826,2.785245418548584,-2.395215511322021
226,18600.0,7.3124656677246085,3.2374887466430664,-2.6560330390930176
227,18700.0,7.3124656677246085,3.2374887466430664,-2.6560330390930176
228,18800.0,13.313664436340332,3.5748770236968994,-3.366701364517212
229,18900.0,13.313664436340332,3.5748770236968994,-3.366701364517212
230,19000.0,8.504091262817383,1.832902193069458,-2.4670000076293945
231,19100.0,8.504091262817383,1.832902193069458,-2.4670000076293945
232,19200.0,8.504091262817383,1.832902193069458,-2.4670000076293945
233,19300.0,7.494320392608643,2.0003998279571533,-3.3379876613616943
234,19400.0,7.494320392608643,2.0003998279571533,-3.3379876613616943
235,19500.0,7.776673316955566,2.682354211807251,-3.3332018852233887
236,19600.0,7.776673316955566,2.682354211807251,-3.3332018852233887
237,19700.0,8.590232849121094,3.06999135017395,-2.524427890777588
238,19800.0,8.590232849121094,3.06999135017395,-2.524427890777588
239,19900.0,8.590232849121094,3.06999135017395,-2.524427890777588
240,19000.0,8.504091262817383,1.832902193069458,-2.4670000076293945
241,19100.0,8.504091262817383,1.832902193069458,-2.4670000076293945
242,19200.0,8.504091262817383,1.832902193069458,-2.4670000076293945
243,19300.0,7.494320392608643,2.0003998279571533,-3.3379876613616943
244,19400.0,7.494320392608643,2.0003998279571533,-3.3379876613616943
245,19500.0,7.776673316955566,2.682354211807251,-3.3332018852233887
246,19600.0,7.776673316955566,2.682354211807251,-3.3332018852233887
247,19700.0,8.590232849121094,3.06999135017395,-2.524427890777588
248,19800.0,8.590232849121094,3.06999135017395,-2.524427890777588
249,19900.0,8.590232849121094,3.06999135017395,-2.524427890777588
250,20000.0,8.968299865722656,3.3403804302215576,-2.476571559906006
251,20100.0,8.968299865722656,3.3403804302215576,-2.476571559906006
252,20200.0,8.662017822265625,2.823530912399292,-1.6582260131835938
253,20300.0,8.662017822265625,2.823530912399292,-1.6582260131835938
254,20400.0,8.140382766723633,3.036492109298706,-2.514856576919556
255,20500.0,8.140382766723633,3.036492109298706,-2.514856576919556
256,20600.0,8.140382766723633,3.036492109298706,-2.514856576919556
257,20700.0,7.130610942840576,2.998206615447998,-2.7732813358306885
258,20800.0,7.130610942840576,2.998206615447998,-2.7732813358306885
259,20900.0,13.42852020263672,3.6514470577239986,-3.1202406883239746
260,20000.0,8.968299865722656,3.3403804302215576,-2.476571559906006
261,20100.0,8.968299865722656,3.3403804302215576,-2.476571559906006
262,20200.0,8.662017822265625,2.823530912399292,-1.6582260131835938
263,20300.0,8.662017822265625,2.823530912399292,-1.6582260131835938
264,20400.0,8.140382766723633,3.036492109298706,-2.514856576919556
265,20500.0,8.140382766723633,3.036492109298706,-2.514856576919556
266,20600.0,8.140382766723633,3.036492109298706,-2.514856576919556
267,20700.0,7.130610942840576,2.998206615447998,-2.7732813358306885
268,20800.0,7.130610942840576,2.998206615447998,-2.7732813358306885
269,20900.0,13.42852020263672,3.6514470577239986,-3.1202406883239746
270,21000.0,13.42852020263672,3.6514470577239986,-3.1202406883239746
271,21100.0,8.920442581176758,1.9956141710281368,-3.0939197540283203
272,21200.0,8.920442581176758,1.9956141710281368,-3.0939197540283203
273,21300.0,7.001399040222168,1.5242280960083008,-3.4025940895080566
274,21400.0,7.001399040222168,1.5242280960083008,-3.4025940895080566
275,21500.0,8.202595710754395,2.524427890777588,-3.294916868209839
276,21600.0,8.202595710754395,2.524427890777588,-3.294916868209839
277,21700.0,8.202595710754395,2.524427890777588,-3.294916868209839
278,21800.0,14.175081253051758,4.122833251953125,-2.2205395698547363
279,21900.0,14.175081253051758,4.122833251953125,-2.2205395698547363
280,21000.0,13.42852020263672,3.6514470577239986,-3.1202406883239746
281,21100.0,8.920442581176758,1.9956141710281368,-3.0939197540283203
282,21200.0,8.920442581176758,1.9956141710281368,-3.0939197540283203
283,21300.0,7.001399040222168,1.5242280960083008,-3.4025940895080566
284,21400.0,7.001399040222168,1.5242280960083008,-3.4025940895080566
285,21500.0,8.202595710754395,2.524427890777588,-3.294916868209839
286,21600.0,8.202595710754395,2.524427890777588,-3.294916868209839
287,21700.0,8.202595710754395,2.524427890777588,-3.294916868209839
288,21800.0,14.175081253051758,4.122833251953125,-2.2205395698547363
289,21900.0,14.175081253051758,4.122833251953125,-2.2205395698547363
290,22000.0,7.326822757720947,2.423929214477539,-3.1704900264739986
291,22100.0,7.326822757720947,2.423929214477539,-3.1704900264739986
292,22200.0,8.992227554321289,3.1800613403320312,-1.8735800981521609
293,22300.0,8.992227554321289,3.1800613403320312,-1.8735800981521609
294,22400.0,7.805387496948242,3.0245277881622314,-2.2468602657318115
295,22500.0,7.805387496948242,3.0245277881622314,-2.2468602657318115
296,22600.0,7.805387496948242,3.0245277881622314,-2.2468602657318115
297,22700.0,10.174281120300293,2.9862425327301025,-2.44067907333374
298,22800.0,10.174281120300293,2.9862425327301025,-2.44067907333374
299,22900.0,7.293323516845702,1.6031911373138428,-3.0963122844696045
300,22000.0,7.326822757720947,2.423929214477539,-3.1704900264739986
301,22100.0,7.326822757720947,2.423929214477539,-3.1704900264739986
302,22200.0,8.992227554321289,3.1800613403320312,-1.8735800981521609
303,22300.0,8.992227554321289,3.1800613403320312,-1.8735800981521609
304,22400.0,7.805387496948242,3.0245277881622314,-2.2468602657318115
305,22500.0,7.805387496948242,3.0245277881622314,-2.2468602657318115
306,22600.0,7.805387496948242,3.0245277881622314,-2.2468602657318115
307,22700.0,10.174281120300293,2.9862425327301025,-2.44067907333374
308,22800.0,10.174281120300293,2.9862425327301025,-2.44067907333374
309,22900.0,7.293323516845702,1.6031911373138428,-3.0963122844696045
310,23000.0,7.293323516845702,1.6031911373138428,-3.0963122844696045
311,23100.0,7.293323516845702,1.6031911373138428,-3.0963122844696045
312,23200.0,7.728816509246826,2.09850549697876,-3.7351961135864262
313,23300.0,7.728816509246826,2.09850549697876,-3.7351961135864262
314,23400.0,6.168696403503418,2.3473589420318604,-3.462414264678955
315,23500.0,6.168696403503418,2.3473589420318604,-3.462414264678955
316,23600.0,12.53839111328125,5.259423732757568,-2.715853452682495
317,23700.0,12.53839111328125,5.259423732757568,-2.715853452682495
318,23800.0,12.53839111328125,5.259423732757568,-2.715853452682495
319,23900.0,6.604190349578857,2.739781856536865,-2.9479575157165527
320,23000.0,7.293323516845702,1.6031911373138428,-3.0963122844696045
321,23100.0,7.293323516845702,1.6031911373138428,-3.0963122844696045
322,23200.0,7.728816509246826,2.09850549697876,-3.7351961135864262
323,23300.0,7.728816509246826,2.09850549697876,-3.7351961135864262
324,23400.0,6.168696403503418,2.3473589420318604,-3.462414264678955
325,23500.0,6.168696403503418,2.3473589420318604,-3.462414264678955
326,23600.0,12.53839111328125,5.259423732757568,-2.715853452682495
327,23700.0,12.53839111328125,5.259423732757568,-2.715853452682495
328,23800.0,12.53839111328125,5.259423732757568,-2.715853452682495
329,23900.0,6.604190349578857,2.739781856536865,-2.9479575157165527
330,24000.0,6.604190349578857,2.739781856536865,-2.9479575157165527
331,24100.0,6.585048198699951,3.81655216217041,-3.2255251407623287
332,24200.0,6.585048198699951,3.81655216217041,-3.2255251407623287
333,24300.0,15.256637573242188,4.0390844345092765,-5.429314613342285
334,24400.0,15.256637573242188,4.0390844345092765,-5.429314613342285
335,24500.0,15.256637573242188,4.0390844345092765,-5.429314613342285
336,24600.0,5.292923927307129,2.09850549697876,-1.983649969100952
337,24700.0,5.292923927307129,2.09850549697876,-1.983649969100952
338,24800.0,8.752944946289062,3.620340585708618,-3.0077781677246094
339,24900.0,8.752944946289062,3.620340585708618,-3.0077781677246094
340,24000.0,6.604190349578857,2.739781856536865,-2.9479575157165527
341,24100.0,6.585048198699951,3.81655216217041,-3.2255251407623287
342,24200.0,6.585048198699951,3.81655216217041,-3.2255251407623287
343,24300.0,15.256637573242188,4.0390844345092765,-5.429314613342285
344,24400.0,15.256637573242188,4.0390844345092765,-5.429314613342285
345,24500.0,15.256637573242188,4.0390844345092765,-5.429314613342285
346,24600.0,5.292923927307129,2.09850549697876,-1.983649969100952
347,24700.0,5.292923927307129,2.09850549697876,-1.983649969100952
348,24800.0,8.752944946289062,3.620340585708618,-3.0077781677246094
349,24900.0,8.752944946289062,3.620340585708618,-3.0077781677246094
350,25000.0,9.566505432128906,2.902493953704834,-3.2829525470733643
351,25100.0,9.566505432128906,2.902493953704834,-3.2829525470733643
352,25200.0,8.752944946289062,3.531806230545044,-2.0410776138305664
353,25300.0,8.752944946289062,3.531806230545044,-2.0410776138305664
354,25400.0,9.131011009216307,2.6464619636535645,-1.442872166633606
355,25500.0,9.131011009216307,2.6464619636535645,-1.442872166633606
356,25600.0,9.131011009216307,2.6464619636535645,-1.442872166633606
357,25700.0,8.145168304443361,2.8953151702880864,-2.0362920761108403
358,25800.0,8.145168304443361,2.8953151702880864,-2.0362920761108403
359,25900.0,6.3936219215393075,3.3930225372314453,-2.8713872432708736
360,25000.0,9.566505432128906,2.902493953704834,-3.2829525470733643
361,25100.0,9.566505432128906,2.902493953704834,-3.2829525470733643
362,25200.0,8.752944946289062,3.531806230545044,-2.0410776138305664
363,25300.0,8.752944946289062,3.531806230545044,-2.0410776138305664
364,25400.0,9.131011009216307,2.6464619636535645,-1.442872166633606
365,25500.0,9.131011009216307,2.6464619636535645,-1.442872166633606
366,25600.0,9.131011009216307,2.6464619636535645,-1.442872166633606
367,25700.0,8.145168304443361,2.8953151702880864,-2.0362920761108403
368,25800.0,8.145168304443361,2.8953151702880864,-2.0362920761108403
369,25900.0,6.3936219215393075,3.3930225372314453,-2.8713872432708736
370,26000.0,6.3936219215393075,3.3930225372314453,-2.8713872432708736
371,26100.0,13.332807540893555,3.754338502883911,-3.7304105758666988
372,26200.0,13.332807540893555,3.754338502883911,-3.7304105758666988
373,26300.0,13.332807540893555,3.754338502883911,-3.7304105758666988
374,26400.0,6.86261510848999,2.7254250049591064,-2.579463005065918
375,26500.0,6.86261510848999,2.7254250049591064,-2.579463005065918
376,26600.0,7.537391662597656,2.6392831802368164,-3.7710886001586914
377,26700.0,7.537391662597656,2.6392831802368164,-3.7710886001586914
378,26800.0,7.537391662597656,2.6392831802368164,-3.7710886001586914
379,26900.0,6.589833736419678,2.6847469806671143,-2.6081764698028564
380,26000.0,6.3936219215393075,3.3930225372314453,-2.8713872432708736
381,26100.0,13.332807540893555,3.754338502883911,-3.7304105758666988
382,26200.0,13.332807540893555,3.754338502883911,-3.7304105758666988
383,26300.0,13.332807540893555,3.754338502883911,-3.7304105758666988
384,26400.0,6.86261510848999,2.7254250049591064,-2.579463005065918
385,26500.0,6.86261510848999,2.7254250049591064,-2.579463005065918
386,26600.0,7.537391662597656,2.6392831802368164,-3.7710886001586914
387,26700.0,7.537391662597656,2.6392831802368164,-3.7710886001586914
388,26800.0,7.537391662597656,2.6392831802368164,-3.7710886001586914
389,26900.0,6.589833736419678,2.6847469806671143,-2.6081764698028564
390,27000.0,6.589833736419678,2.6847469806671143,-2.6081764698028564
391,27100.0,13.643874168395994,4.826323509216309,-3.2662029266357417
392,27200.0,13.643874168395994,4.826323509216309,-3.2662029266357417
393,27300.0,6.896114826202393,2.567498683929444,-2.8666017055511475
394,27400.0,6.896114826202393,2.567498683929444,-2.8666017055511475
395,27500.0,6.896114826202393,2.567498683929444,-2.8666017055511475
396,27600.0,7.015756130218506,2.6464619636535645,-1.8903299570083616
397,27700.0,7.015756130218506,2.6464619636535645,-1.8903299570083616
398,27800.0,6.790830135345459,2.816352128982544,-2.5507488250732417
399,27900.0,6.790830135345459,2.816352128982544,-2.5507488250732417
400,27000.0,6.589833736419678,2.6847469806671143,-2.6081764698028564
401,27100.0,13.643874168395994,4.826323509216309,-3.2662029266357417
402,27200.0,13.643874168395994,4.826323509216309,-3.2662029266357417
403,27300.0,6.896114826202393,2.567498683929444,-2.8666017055511475
404,27400.0,6.896114826202393,2.567498683929444,-2.8666017055511475
405,27500.0,6.896114826202393,2.567498683929444,-2.8666017055511475
406,27600.0,7.015756130218506,2.6464619636535645,-1.8903299570083616
407,27700.0,7.015756130218506,2.6464619636535645,-1.8903299570083616
408,27800.0,6.790830135345459,2.816352128982544,-2.5507488250732417
409,27900.0,6.790830135345459,2.816352128982544,-2.5507488250732417
410,28000.0,6.790830135345459,2.816352128982544,-2.5507488250732417
411,28100.0,7.326822757720947,1.5529417991638184,-3.400200843811035
412,28200.0,7.326822757720947,1.5529417991638184,-3.400200843811035
413,28300.0,8.102097511291504,2.179861307144165,-2.51007080078125
414,28400.0,8.102097511291504,2.179861307144165,-2.51007080078125
415,28500.0,7.269395351409912,2.617748022079468,-2.8354949951171875
416,28600.0,7.269395351409912,2.617748022079468,-2.8354949951171875
417,28700.0,7.269395351409912,2.617748022079468,-2.8354949951171875
418,28800.0,16.132410049438473,4.295116424560547,-3.708875179290772
419,28900.0,16.132410049438473,4.295116424560547,-3.708875179290772
420,28000.0,6.790830135345459,2.816352128982544,-2.5507488250732417
421,28100.0,7.326822757720947,1.5529417991638184,-3.400200843811035
422,28200.0,7.326822757720947,1.5529417991638184,-3.400200843811035
423,28300.0,8.102097511291504,2.179861307144165,-2.51007080078125
424,28400.0,8.102097511291504,2.179861307144165,-2.51007080078125
425,28500.0,7.269395351409912,2.617748022079468,-2.8354949951171875
426,28600.0,7.269395351409912,2.617748022079468,-2.8354949951171875
427,28700.0,7.269395351409912,2.617748022079468,-2.8354949951171875
428,28800.0,16.132410049438473,4.295116424560547,-3.708875179290772
429,28900.0,16.132410049438473,4.295116424560547,-3.708875179290772
430,29000.0,5.86720085144043,2.63449764251709,-2.438286304473877
431,29100.0,5.86720085144043,2.63449764251709,-2.438286304473877
432,29200.0,9.734003067016602,3.211168050765991,-2.3856441974639893
433,29300.0,9.734003067016602,3.211168050765991,-2.3856441974639893
434,29400.0,6.5659050941467285,2.7804601192474365,-1.5553346872329712
435,29500.0,6.5659050941467285,2.7804601192474365,-1.5553346872329712
436,29600.0,19.27657890319824,5.592026710510254,-4.465007305145264
437,29700.0,19.27657890319824,5.592026710510254,-4.465007305145264
438,29800.0,19.27657890319824,5.592026710510254,-4.465007305145264
439,29900.0,6.585048198699951,3.292524099349976,-1.246660590171814
440,29000.0,5.86720085144043,2.63449764251709,-2.438286304473877
441,29100.0,5.86720085144043,2.63449764251709,-2.438286304473877
442,29200.0,9.734003067016602,3.211168050765991,-2.3856441974639893
443,29300.0,9.734003067016602,3.211168050765991,-2.3856441974639893
444,29400.0,6.5659050941467285,2.7804601192474365,-1.5553346872329712
445,29500.0,6.5659050941467285,2.7804601192474365,-1.5553346872329712
446,29600.0,19.27657890319824,5.592026710510254,-4.465007305145264
447,29700.0,19.27657890319824,5.592026710510254,-4.465007305145264
448,29800.0,19.27657890319824,5.592026710510254,-4.465007305145264
449,29900.0,6.585048198699951,3.292524099349976,-1.246660590171814
450,30000.0,6.585048198699951,3.292524099349976,-1.246660590171814
451,30100.0,7.685746192932129,2.4095723628997803,-3.3475589752197266
452,30200.0,7.685746192932129,2.4095723628997803,-3.3475589752197266
453,30300.0,8.580661773681639,3.617947816848755,-3.88594388961792
454,30400.0,8.580661773681639,3.617947816848755,-3.88594388961792
455,30500.0,7.613961696624756,2.565105676651001,-3.0436704158782963
456,30600.0,7.613961696624756,2.565105676651001,-3.0436704158782963
457,30700.0,7.613961696624756,2.565105676651001,-3.0436704158782963
458,30800.0,14.280364990234375,4.493720531463623,-3.610769510269165
459,30900.0,14.280364990234375,4.493720531463623,-3.610769510269165
460,30000.0,6.585048198699951,3.292524099349976,-1.246660590171814
461,30100.0,7.685746192932129,2.4095723628997803,-3.3475589752197266
462,30200.0,7.685746192932129,2.4095723628997803,-3.3475589752197266
463,30300.0,8.580661773681639,3.617947816848755,-3.88594388961792
464,30400.0,8.580661773681639,3.617947816848755,-3.88594388961792
465,30500.0,7.613961696624756,2.565105676651001,-3.0436704158782963
466,30600.0,7.613961696624756,2.565105676651001,-3.0436704158782963
467,30700.0,7.613961696624756,2.565105676651001,-3.0436704158782963
468,30800.0,14.280364990234375,4.493720531463623,-3.610769510269165
469,30900.0,14.280364990234375,4.493720531463623,-3.610769510269165
470,31000.0,6.915257453918457,2.5124638080596924,-3.0556347370147705
471,31100.0,6.915257453918457,2.5124638080596924,-3.0556347370147705
472,31200.0,6.915257453918457,2.5124638080596924,-3.0556347370147705
473,31300.0,7.977671146392822,3.32602334022522,-1.5337992906570437
474,31400.0,7.977671146392822,3.32602334022522,-1.5337992906570437
475,31500.0,7.599604606628418,2.3306093215942383,-2.9790639877319336
476,31600.0,7.599604606628418,2.3306093215942383,-2.9790639877319336
477,31700.0,9.107083320617676,1.5744771957397459,-3.160918712615967
478,31800.0,9.107083320617676,1.5744771957397459,-3.160918712615967
479,31900.0,9.107083320617676,1.5744771957397459,-3.160918712615967
480,31000.0,6.915257453918457,2.5124638080596924,-3.0556347370147705
481,31100.0,6.915257453918457,2.5124638080596924,-3.0556347370147705
482,31200.0,6.915257453918457,2.5124638080596924,-3.0556347370147705
483,31300.0,7.977671146392822,3.32602334022522,-1.5337992906570437
484,31400.0,7.977671146392822,3.32602334022522,-1.5337992906570437
485,31500.0,7.599604606628418,2.3306093215942383,-2.9790639877319336
486,31600.0,7.599604606628418,2.3306093215942383,-2.9790639877319336
487,31700.0,9.107083320617676,1.5744771957397459,-3.160918712615967
488,31800.0,9.107083320617676,1.5744771957397459,-3.160918712615967
489,31900.0,9.107083320617676,1.5744771957397459,-3.160918712615967
490,32000.0,8.504091262817383,1.9501504898071291,-2.9671001434326167
491,32100.0,8.504091262817383,1.9501504898071291,-2.9671001434326167
492,32200.0,7.484748840332031,2.706282377243042,-2.861815929412842
493,32300.0,7.484748840332031,2.706282377243042,-2.861815929412842
494,32400.0,6.7860450744628915,2.4023938179016118,-2.7948169708251958
495,32500.0,6.7860450744628915,2.4023938179016118,-2.7948169708251958
496,32600.0,9.31765079498291,3.780659914016724,-2.483749866485596
497,32700.0,9.31765079498291,3.780659914016724,-2.483749866485596
498,32800.0,6.881758213043213,2.67278265953064,-1.9262222051620483
499,32900.0,6.881758213043213,2.67278265953064,-1.9262222051620483
500,32000.0,8.504091262817383,1.9501504898071291,-2.9671001434326167
501,32100.0,8.504091262817383,1.9501504898071291,-2.9671001434326167
502,32200.0,7.484748840332031,2.706282377243042,-2.861815929412842
503,32300.0,7.484748840332031,2.706282377243042,-2.861815929412842
504,32400.0,6.7860450744628915,2.4023938179016118,-2.7948169708251958
505,32500.0,6.7860450744628915,2.4023938179016118,-2.7948169708251958
506,32600.0,9.31765079498291,3.780659914016724,-2.483749866485596
507,32700.0,9.31765079498291,3.780659914016724,-2.483749866485596
508,32800.0,6.881758213043213,2.67278265953064,-1.9262222051620483
509,32900.0,6.881758213043213,2.67278265953064,-1.9262222051620483
510,33000.0,6.881758213043213,2.67278265953064,-1.9262222051620483
511,33100.0,9.016156196594238,3.292524099349976,-2.25403904914856
512,33200.0,9.016156196594238,3.292524099349976,-2.25403904914856
513,33300.0,7.661818027496338,2.526820659637451,-2.71346116065979
514,33400.0,7.661818027496338,2.526820659637451,-2.71346116065979
515,33500.0,12.232110023498535,2.445464611053467,-2.7421746253967285
516,33600.0,12.232110023498535,2.445464611053467,-2.7421746253967285
517,33700.0,8.518448829650879,0.82791668176651,-3.4480574131011963
518,33800.0,8.518448829650879,0.82791668176651,-3.4480574131011963
519,33900.0,8.518448829650879,0.82791668176651,-3.4480574131011963
520,33000.0,6.881758213043213,2.67278265953064,-1.9262222051620483
521,33100.0,9.016156196594238,3.292524099349976,-2.25403904914856
522,33200.0,9.016156196594238,3.292524099349976,-2.25403904914856
523,33300.0,7.661818027496338,2.526820659637451,-2.71346116065979
524,33400.0,7.661818027496338,2.526820659637451,-2.71346116065979
525,33500.0,12.232110023498535,2.445464611053467,-2.7421746253967285
526,33600.0,12.232110023498535,2.445464611053467,-2.7421746253967285
527,33700.0,8.518448829650879,0.82791668176651,-3.4480574131011963
528,33800.0,8.518448829650879,0.82791668176651,-3.4480574131011963
529,33900.0,8.518448829650879,0.82791668176651,-3.4480574131011963
530,34000.0,7.6522464752197275,2.187039852142334,-2.7661027908325195
531,34100.0,7.6522464752197275,2.187039852142334,-2.7661027908325195
532,34200.0,7.542177200317383,2.89052963256836,-3.060420036315918
533,34300.0,7.542177200317383,2.89052963256836,-3.060420036315918
534,34400.0,7.542177200317383,2.89052963256836,-3.060420036315918
535,34500.0,15.04128360748291,3.3403804302215576,-2.4909284114837646
536,34600.0,15.04128360748291,3.3403804302215576,-2.4909284114837646
537,34700.0,6.881758213043213,1.9286150932312007,-2.1750757694244385
538,34800.0,6.881758213043213,1.9286150932312007,-2.1750757694244385
539,34900.0,8.145168304443361,3.500699520111084,-1.1892328262329102
540,34000.0,7.6522464752197275,2.187039852142334,-2.7661027908325195
541,34100.0,7.6522464752197275,2.187039852142334,-2.7661027908325195
542,34200.0,7.542177200317383,2.89052963256836,-3.060420036315918
543,34300.0,7.542177200317383,2.89052963256836,-3.060420036315918
544,34400.0,7.542177200317383,2.89052963256836,-3.060420036315918
545,34500.0,15.04128360748291,3.3403804302215576,-2.4909284114837646
546,34600.0,15.04128360748291,3.3403804302215576,-2.4909284114837646
547,34700.0,6.881758213043213,1.9286150932312007,-2.1750757694244385
548,34800.0,6.881758213043213,1.9286150932312007,-2.1750757694244385
549,34900.0,8.145168304443361,3.500699520111084,-1.1892328262329102
550,35000.0,8.145168304443361,3.500699520111084,-1.1892328262329102
551,35100.0,8.145168304443361,3.500699520111084,-1.1892328262329102
552,35200.0,7.465606689453125,3.211168050765991,-3.0101709365844727
553,35300.0,7.465606689453125,3.211168050765991,-3.0101709365844727
554,35400.0,14.404792785644533,3.086741209030152,-2.71346116065979
555,35500.0,14.404792785644533,3.086741209030152,-2.71346116065979
556,35600.0,6.7621169090271,2.0243279933929443,-2.2683956623077397
557,35700.0,6.7621169090271,2.0243279933929443,-2.2683956623077397
558,35800.0,6.7621169090271,2.0243279933929443,-2.2683956623077397
559,35900.0,8.317451477050781,1.782652735710144,-2.8522443771362305
560,35000.0,8.145168304443361,3.500699520111084,-1.1892328262329102
561,35100.0,8.145168304443361,3.500699520111084,-1.1892328262329102
562,35200.0,7.465606689453125,3.211168050765991,-3.0101709365844727
563,35300.0,7.465606689453125,3.211168050765991,-3.0101709365844727
564,35400.0,14.404792785644533,3.086741209030152,-2.71346116065979
565,35500.0,14.404792785644533,3.086741209030152,-2.71346116065979
566,35600.0,6.7621169090271,2.0243279933929443,-2.2683956623077397
567,35700.0,6.7621169090271,2.0243279933929443,-2.2683956623077397
568,35800.0,6.7621169090271,2.0243279933929443,-2.2683956623077397
569,35900.0,8.317451477050781,1.782652735710144,-2.8522443771362305
570,36000.0,8.317451477050781,1.782652735710144,-2.8522443771362305
571,36100.0,7.010970115661621,2.4191436767578125,-2.799602746963501
572,36200.0,7.010970115661621,2.4191436767578125,-2.799602746963501
573,36300.0,12.954741477966307,5.08953332901001,-3.400200843811035
574,36400.0,12.954741477966307,5.08953332901001,-3.400200843811035
575,36500.0,12.954741477966307,5.08953332901001,-3.400200843811035
576,36600.0,7.762316703796388,2.3066811561584477,-1.557727575302124
577,36700.0,7.762316703796388,2.3066811561584477,-1.557727575302124
578,36800.0,7.144968032836914,2.447857618331909,-2.0410776138305664
579,36900.0,7.144968032836914,2.447857618331909,-2.0410776138305664
580,36000.0,8.317451477050781,1.782652735710144,-2.8522443771362305
581,36100.0,7.010970115661621,2.4191436767578125,-2.799602746963501
582,36200.0,7.010970115661621,2.4191436767578125,-2.799602746963501
583,36300.0,12.954741477966307,5.08953332901001,-3.400200843811035
584,36400.0,12.954741477966307,5.08953332901001,-3.400200843811035
585,36500.0,12.954741477966307,5.08953332901001,-3.400200843811035
586,36600.0,7.762316703796388,2.3066811561584477,-1.557727575302124
587,36700.0,7.762316703796388,2.3066811561584477,-1.557727575302124
588,36800.0,7.144968032836914,2.447857618331909,-2.0410776138305664
589,36900.0,7.144968032836914,2.447857618331909,-2.0410776138305664
590,37000.0,6.647261142730713,2.799602746963501,-3.5676987171173096
591,37100.0,6.647261142730713,2.799602746963501,-3.5676987171173096
592,37200.0,6.647261142730713,2.799602746963501,-3.5676987171173096
593,37300.0,13.868800163269045,2.2947168350219727,-4.522434711456299
594,37400.0,13.868800163269045,2.2947168350219727,-4.522434711456299
595,37500.0,6.360122680664063,2.0147566795349117,-2.514856576919556
596,37600.0,6.360122680664063,2.0147566795349117,-2.514856576919556
597,37700.0,8.542377471923826,2.115255117416382,-3.2446675300598145
598,37800.0,8.542377471923826,2.115255117416382,-3.2446675300598145
599,37900.0,8.446663856506348,2.9766712188720703,-2.0099709033966064
600,37000.0,6.647261142730713,2.799602746963501,-3.5676987171173096
601,37100.0,6.647261142730713,2.799602746963501,-3.5676987171173096
602,37200.0,6.647261142730713,2.799602746963501,-3.5676987171173096
603,37300.0,13.868800163269045,2.2947168350219727,-4.522434711456299
604,37400.0,13.868800163269045,2.2947168350219727,-4.522434711456299
605,37500.0,6.360122680664063,2.0147566795349117,-2.514856576919556
606,37600.0,6.360122680664063,2.0147566795349117,-2.514856576919556
607,37700.0,8.542377471923826,2.115255117416382,-3.2446675300598145
608,37800.0,8.542377471923826,2.115255117416382,-3.2446675300598145
609,37900.0,8.446663856506348,2.9766712188720703,-2.0099709033966064
610,38000.0,8.446663856506348,2.9766712188720703,-2.0099709033966064
611,38100.0,8.446663856506348,2.9766712188720703,-2.0099709033966064
612,38200.0,9.17886734008789,2.562713146209717,-2.67278265953064
613,38300.0,9.17886734008789,2.562713146209717,-2.67278265953064
614,38400.0,6.833901405334473,1.710868239402771,-1.0217353105545044
615,38500.0,6.833901405334473,1.710868239402771,-1.0217353105545044
616,38600.0,6.833901405334473,1.710868239402771,-1.0217353105545044
617,38700.0,11.313264846801758,2.763710021972656,-2.3306093215942383
618,38800.0,11.313264846801758,2.763710021972656,-2.3306093215942383
619,38900.0,9.145368576049805,-0.11964112520217896,-3.541377305984497
620,38000.0,8.446663856506348,2.9766712188720703,-2.0099709033966064
621,38100.0,8.446663856506348,2.9766712188720703,-2.0099709033966064
622,38200.0,9.17886734008789,2.562713146209717,-2.67278265953064
623,38300.0,9.17886734008789,2.562713146209717,-2.67278265953064
624,38400.0,6.833901405334473,1.710868239402771,-1.0217353105545044
625,38500.0,6.833901405334473,1.710868239402771,-1.0217353105545044
626,38600.0,6.833901405334473,1.710868239402771,-1.0217353105545044
627,38700.0,11.313264846801758,2.763710021972656,-2.3306093215942383
628,38800.0,11.313264846801758,2.763710021972656,-2.3306093215942383
629,38900.0,9.145368576049805,-0.11964112520217896,-3.541377305984497
630,39000.0,9.145368576049805,-0.11964112520217896,-3.541377305984497
631,39100.0,7.858029365539551,3.081955671310425,-1.8640089035034182
632,39200.0,7.858029365539551,3.081955671310425,-1.8640089035034182
633,39300.0,7.613961696624756,2.0673987865448002,-2.2253248691558842
634,39400.0,7.613961696624756,2.0673987865448002,-2.2253248691558842
635,39500.0,7.613961696624756,2.0673987865448002,-2.2253248691558842
636,39600.0,12.193824768066404,4.869394302368164,-2.723031997680664
637,39700.0,12.193824768066404,4.869394302368164,-2.723031997680664
638,39800.0,7.5661048889160165,2.4598214626312256,-1.9070796966552732
639,39900.0,7.5661048889160165,2.4598214626312256,-1.9070796966552732
640,39000.0,9.145368576049805,-0.11964112520217896,-3.541377305984497
641,39100.0,7.858029365539551,3.081955671310425,-1.8640089035034182
642,39200.0,7.858029365539551,3.081955671310425,-1.8640089035034182
643,39300.0,7.613961696624756,2.0673987865448002,-2.2253248691558842
644,39400.0,7.613961696624756,2.0673987865448002,-2.2253248691558842
645,39500.0,7.613961696624756,2.0673987865448002,-2.2253248691558842
646,39600.0,12.193824768066404,4.869394302368164,-2.723031997680664
647,39700.0,12.193824768066404,4.869394302368164,-2.723031997680664
648,39800.0,7.5661048889160165,2.4598214626312256,-1.9070796966552732
649,39900.0,7.5661048889160165,2.4598214626312256,-1.9070796966552732
650,40000.0,8.073383331298826,3.3236305713653564,-2.203789472579956
651,40100.0,8.073383331298826,3.3236305713653564,-2.203789472579956
652,40200.0,8.073383331298826,3.3236305713653564,-2.203789472579956
653,40300.0,13.1365966796875,1.797009825706482,-2.337787628173828
654,40400.0,13.1365966796875,1.797009825706482,-2.337787628173828
655,40500.0,6.465407371520996,0.4450649619102478,-1.6199408769607544
656,40600.0,6.465407371520996,0.4450649619102478,-1.6199408769607544
657,40700.0,8.575876235961914,2.5052852630615234,-2.770888566970825
658,40800.0,8.575876235961914,2.5052852630615234,-2.770888566970825
659,40900.0,8.575876235961914,2.5052852630615234,-2.770888566970825
660,40000.0,8.073383331298826,3.3236305713653564,-2.203789472579956
661,40100.0,8.073383331298826,3.3236305713653564,-2.203789472579956
662,40200.0,8.073383331298826,3.3236305713653564,-2.203789472579956
663,40300.0,13.1365966796875,1.797009825706482,-2.337787628173828
664,40400.0,13.1365966796875,1.797009825706482,-2.337787628173828
665,40500.0,6.465407371520996,0.4450649619102478,-1.6199408769607544
666,40600.0,6.465407371520996,0.4450649619102478,-1.6199408769607544
667,40700.0,8.575876235961914,2.5052852630615234,-2.770888566970825
668,40800.0,8.575876235961914,2.5052852630615234,-2.770888566970825
669,40900.0,8.575876235961914,2.5052852630615234,-2.770888566970825
670,41000.0,10.140782356262207,3.687339782714844,-3.3547375202178955
671,41100.0,10.140782356262207,3.687339782714844,-3.3547375202178955
672,41200.0,9.968499183654783,3.239881753921509,-1.1940184831619265
673,41300.0,9.968499183654783,3.239881753921509,-1.1940184831619265
674,41400.0,8.877371788024902,2.0961124897003174,-0.4737788736820221
675,41500.0,8.877371788024902,2.0961124897003174,-0.4737788736820221
676,41600.0,6.173482418060303,3.4743783473968506,-2.914458036422729
677,41700.0,6.173482418060303,3.4743783473968506,-2.914458036422729
678,41800.0,6.173482418060303,3.4743783473968506,-2.914458036422729
679,41900.0,6.312265872955322,3.838087558746338,-4.01037073135376
680,41000.0,10.140782356262207,3.687339782714844,-3.3547375202178955
681,41100.0,10.140782356262207,3.687339782714844,-3.3547375202178955
682,41200.0,9.968499183654783,3.239881753921509,-1.1940184831619265
683,41300.0,9.968499183654783,3.239881753921509,-1.1940184831619265
684,41400.0,8.877371788024902,2.0961124897003174,-0.4737788736820221
685,41500.0,8.877371788024902,2.0961124897003174,-0.4737788736820221
686,41600.0,6.173482418060303,3.4743783473968506,-2.914458036422729
687,41700.0,6.173482418060303,3.4743783473968506,-2.914458036422729
688,41800.0,6.173482418060303,3.4743783473968506,-2.914458036422729
689,41900.0,6.312265872955322,3.838087558746338,-4.01037073135376
690,42000.0,6.312265872955322,3.838087558746338,-4.01037073135376
691,42100.0,11.499905586242676,1.3232309818267822,-3.936193227767944
692,42200.0,11.499905586242676,1.3232309818267822,-3.936193227767944
693,42300.0,7.925028324127197,2.5507488250732417,-2.4813570976257324
694,42400.0,7.925028324127197,2.5507488250732417,-2.4813570976257324
695,42500.0,7.925028324127197,2.5507488250732417,-2.4813570976257324
696,42600.0,8.02074146270752,2.8761727809906006,-3.294916868209839
697,42700.0,8.02074146270752,2.8761727809906006,-3.294916868209839
698,42800.0,15.424134254455565,3.445664882659912,-2.7828526496887207
699,42900.0,15.424134254455565,3.445664882659912,-2.7828526496887207
700,42000.0,6.312265872955322,3.838087558746338,-4.01037073135376
701,42100.0,11.499905586242676,1.3232309818267822,-3.936193227767944
702,42200.0,11.499905586242676,1.3232309818267822,-3.936193227767944
703,42300.0,7.925028324127197,2.5507488250732417,-2.4813570976257324
704,42400.0,7.925028324127197,2.5507488250732417,-2.4813570976257324
705,42500.0,7.925028324127197,2.5507488250732417,-2.4813570976257324
706,42600.0,8.02074146270752,2.8761727809906006,-3.294916868209839
707,42700.0,8.02074146270752,2.8761727809906006,-3.294916868209839
708,42800.0,15.424134254455565,3.445664882659912,-2.7828526496887207
709,42900.0,15.424134254455565,3.445664882659912,-2.7828526496887207
710,43000.0,7.130610942840576,1.7682960033416748,-2.3018953800201416
711,43100.0,7.130610942840576,1.7682960033416748,-2.3018953800201416
712,43200.0,8.920442581176758,3.5557346343994136,-1.8424735069274905
713,43300.0,8.920442581176758,3.5557346343994136,-1.8424735069274905
714,43400.0,8.920442581176758,3.5557346343994136,-1.8424735069274905
715,43500.0,6.939186096191406,4.878964900970459,-2.115255117416382
716,43600.0,6.939186096191406,4.878964900970459,-2.115255117416382
717,43700.0,9.437292098999023,3.187239646911621,-2.007578134536743
718,43800.0,9.437292098999023,3.187239646911621,-2.007578134536743
719,43900.0,9.437292098999023,3.187239646911621,-2.007578134536743
720,43000.0,7.130610942840576,1.7682960033416748,-2.3018953800201416
721,43100.0,7.130610942840576,1.7682960033416748,-2.3018953800201416
722,43200.0,8.920442581176758,3.5557346343994136,-1.8424735069274905
723,43300.0,8.920442581176758,3.5557346343994136,-1.8424735069274905
724,43400.0,8.920442581176758,3.5557346343994136,-1.8424735069274905
725,43500.0,6.939186096191406,4.878964900970459,-2.115255117416382
726,43600.0,6.939186096191406,4.878964900970459,-2.115255117416382
727,43700.0,9.437292098999023,3.187239646911621,-2.007578134536743
728,43800.0,9.437292098999023,3.187239646911621,-2.007578134536743
729,43900.0,9.437292098999023,3.187239646911621,-2.007578134536743
730,44000.0,6.350551128387451,1.902293920516968,-2.4646072387695312
731,44100.0,6.350551128387451,1.902293920516968,-2.4646072387695312
732,44200.0,8.752944946289062,2.89052963256836,-3.25663161277771
733,44300.0,8.752944946289062,2.89052963256836,-3.25663161277771
734,44400.0,7.245467185974121,2.3090739250183105,-2.799602746963501
735,44500.0,7.245467185974121,2.3090739250183105,-2.799602746963501
736,44600.0,12.787243843078613,3.5557346343994136,-1.916650891304016
737,44700.0,12.787243843078613,3.5557346343994136,-1.916650891304016
738,44800.0,7.317252159118652,2.390429735183716,-2.648854732513428
739,44900.0,7.317252159118652,2.390429735183716,-2.648854732513428
740,44000.0,6.350551128387451,1.902293920516968,-2.4646072387695312
741,44100.0,6.350551128387451,1.902293920516968,-2.4646072387695312
742,44200.0,8.752944946289062,2.89052963256836,-3.25663161277771
743,44300.0,8.752944946289062,2.89052963256836,-3.25663161277771
744,44400.0,7.245467185974121,2.3090739250183105,-2.799602746963501
745,44500.0,7.245467185974121,2.3090739250183105,-2.799602746963501
746,44600.0,12.787243843078613,3.5557346343994136,-1.916650891304016
747,44700.0,12.787243843078613,3.5557346343994136,-1.916650891304016
748,44800.0,7.317252159118652,2.390429735183716,-2.648854732513428
749,44900.0,7.317252159118652,2.390429735183716,-2.648854732513428
750,45000.0,8.796016693115233,2.538784980773926,-1.8400806188583372
751,45100.0,8.796016693115233,2.538784980773926,-1.8400806188583372
752,45200.0,9.044869422912598,3.1537401676177983,-2.5363922119140625
753,45300.0,9.044869422912598,3.1537401676177983,-2.5363922119140625
754,45400.0,9.044869422912598,3.1537401676177983,-2.5363922119140625
755,45500.0,7.848458290100098,3.192025184631348,-2.885744333267212
756,45600.0,7.848458290100098,3.192025184631348,-2.885744333267212
757,45700.0,13.744373321533205,2.8402805328369136,-2.7182462215423584
758,45800.0,13.744373321533205,2.8402805328369136,-2.7182462215423584
759,45900.0,7.6522464752197275,1.155733346939087,-2.476571559906006
760,45000.0,8.796016693115233,2.538784980773926,-1.8400806188583372
761,45100.0,8.796016693115233,2.538784980773926,-1.8400806188583372
762,45200.0,9.044869422912598,3.1537401676177983,-2.5363922119140625
763,45300.0,9.044869422912598,3.1537401676177983,-2.5363922119140625
764,45400.0,9.044869422912598,3.1537401676177983,-2.5363922119140625
765,45500.0,7.848458290100098,3.192025184631348,-2.885744333267212
766,45600.0,7.848458290100098,3.192025184631348,-2.885744333267212
767,45700.0,13.744373321533205,2.8402805328369136,-2.7182462215423584
768,45800.0,13.744373321533205,2.8402805328369136,-2.7182462215423584
769,45900.0,7.6522464752197275,1.155733346939087,-2.476571559906006
770,46000.0,7.6522464752197275,1.155733346939087,-2.476571559906006
771,46100.0,7.838886737823486,1.6175479888916016,-3.187239646911621
772,46200.0,7.838886737823486,1.6175479888916016,-3.187239646911621
773,46300.0,7.838886737823486,1.6175479888916016,-3.187239646911621
774,46400.0,7.527820110321045,2.763710021972656,-2.5866410732269287
775,46500.0,7.527820110321045,2.763710021972656,-2.5866410732269287
776,46600.0,8.762516975402832,3.4672000408172607,-2.0769701004028316
777,46700.0,8.762516975402832,3.4672000408172607,-2.0769701004028316
778,46800.0,8.762516975402832,3.4672000408172607,-2.0769701004028316
779,46900.0,7.8245296478271475,2.548356056213379,-1.9118653535842896
780,46000.0,7.6522464752197275,1.155733346939087,-2.476571559906006
781,46100.0,7.838886737823486,1.6175479888916016,-3.187239646911621
782,46200.0,7.838886737823486,1.6175479888916016,-3.187239646911621
783,46300.0,7.838886737823486,1.6175479888916016,-3.187239646911621
784,46400.0,7.527820110321045,2.763710021972656,-2.5866410732269287
785,46500.0,7.527820110321045,2.763710021972656,-2.5866410732269287
786,46600.0,8.762516975402832,3.4672000408172607,-2.0769701004028316
787,46700.0,8.762516975402832,3.4672000408172607,-2.0769701004028316
788,46800.0,8.762516975402832,3.4672000408172607,-2.0769701004028316
789,46900.0,7.8245296478271475,2.548356056213379,-1.9118653535842896
790,47000.0,7.8245296478271475,2.548356056213379,-1.9118653535842896
791,47100.0,6.403193473815918,2.6632115840911865,-2.63449764251709
792,47200.0,6.403193473815918,2.6632115840911865,-2.63449764251709
793,47300.0,6.403193473815918,2.6632115840911865,-2.63449764251709
794,47400.0,13.050454139709473,2.589033842086792,-3.1824538707733154
795,47500.0,13.050454139709473,2.589033842086792,-3.1824538707733154
796,47600.0,7.36032247543335,2.5914268493652344,-2.785245418548584
797,47700.0,7.36032247543335,2.5914268493652344,-2.785245418548584
798,47800.0,8.528019905090332,2.8833510875701904,-3.2039895057678223
799,47900.0,8.528019905090332,2.8833510875701904,-3.2039895057678223
800,47000.0,7.8245296478271475,2.548356056213379,-1.9118653535842896
801,47100.0,6.403193473815918,2.6632115840911865,-2.63449764251709
802,47200.0,6.403193473815918,2.6632115840911865,-2.63449764251709
803,47300.0,6.403193473815918,2.6632115840911865,-2.63449764251709
804,47400.0,13.050454139709473,2.589033842086792,-3.1824538707733154
805,47500.0,13.050454139709473,2.589033842086792,-3.1824538707733154
806,47600.0,7.36032247543335,2.5914268493652344,-2.785245418548584
807,47700.0,7.36032247543335,2.5914268493652344,-2.785245418548584
808,47800.0,8.528019905090332,2.8833510875701904,-3.2039895057678223
809,47900.0,8.528019905090332,2.8833510875701904,-3.2039895057678223
810,48000.0,5.704488754272461,2.155933380126953,-2.423929214477539
811,48100.0,5.704488754272461,2.155933380126953,-2.423929214477539
812,48200.0,5.704488754272461,2.155933380126953,-2.423929214477539
813,48300.0,9.805787086486816,4.211367607116698,-2.6153552532196045
814,48400.0,9.805787086486816,4.211367607116698,-2.6153552532196045
815,48500.0,7.451249599456787,2.321038007736206,-2.455036163330078
816,48600.0,7.451249599456787,2.321038007736206,-2.455036163330078
817,48700.0,8.398807525634767,3.4025940895080566,-2.1846470832824707
818,48800.0,8.398807525634767,3.4025940895080566,-2.1846470832824707
819,48900.0,14.749359130859375,2.785245418548584,-4.252045631408691
820,48000.0,5.704488754272461,2.155933380126953,-2.423929214477539
821,48100.0,5.704488754272461,2.155933380126953,-2.423929214477539
822,48200.0,5.704488754272461,2.155933380126953,-2.423929214477539
823,48300.0,9.805787086486816,4.211367607116698,-2.6153552532196045
824,48400.0,9.805787086486816,4.211367607116698,-2.6153552532196045
825,48500.0,7.451249599456787,2.321038007736206,-2.455036163330078
826,48600.0,7.451249599456787,2.321038007736206,-2.455036163330078
827,48700.0,8.398807525634767,3.4025940895080566,-2.1846470832824707
828,48800.0,8.398807525634767,3.4025940895080566,-2.1846470832824707
829,48900.0,14.749359130859375,2.785245418548584,-4.252045631408691
830,49000.0,14.749359130859375,2.785245418548584,-4.252045631408691
831,49100.0,6.666403770446777,2.1846470832824707,-2.0650060176849365
832,49200.0,6.666403770446777,2.1846470832824707,-2.0650060176849365
833,49300.0,6.666403770446777,2.1846470832824707,-2.0650060176849365
834,49400.0,8.063812255859375,1.356730580329895,-3.94097900390625
835,49500.0,8.063812255859375,1.356730580329895,-3.94097900390625
836,49600.0,6.618547439575195,2.629711866378784,-2.8115665912628174
837,49700.0,6.618547439575195,2.629711866378784,-2.8115665912628174
838,49800.0,15.519847869873047,5.7547383308410645,-2.1439690589904785
839,49900.0,15.519847869873047,5.7547383308410645,-2.1439690589904785
840,49000.0,14.749359130859375,2.785245418548584,-4.252045631408691
841,49100.0,6.666403770446777,2.1846470832824707,-2.0650060176849365
842,49200.0,6.666403770446777,2.1846470832824707,-2.0650060176849365
843,49300.0,6.666403770446777,2.1846470832824707,-2.0650060176849365
844,49400.0,8.063812255859375,1.356730580329895,-3.94097900390625
845,49500.0,8.063812255859375,1.356730580329895,-3.94097900390625
846,49600.0,6.618547439575195,2.629711866378784,-2.8115665912628174
847,49700.0,6.618547439575195,2.629711866378784,-2.8115665912628174
848,49800.0,15.519847869873047,5.7547383308410645,-2.1439690589904785
849,49900.0,15.519847869873047,5.7547383308410645,-2.1439690589904785
850,50000.0,15.519847869873047,5.7547383308410645,-2.1439690589904785
851,50100.0,6.833901405334473,2.3425734043121342,-2.0099709033966064
852,50200.0,6.833901405334473,2.3425734043121342,-2.0099709033966064
853,50300.0,8.733802795410156,3.9122648239135738,-2.09850549697876
854,50400.0,8.733802795410156,3.9122648239135738,-2.09850549697876
855,50500.0,6.465407371520996,2.416750907897949,-2.263610363006592
856,50600.0,6.465407371520996,2.416750907897949,-2.263610363006592
857,50700.0,12.610175132751465,1.6941183805465698,-3.6945178508758554
858,50800.0,12.610175132751465,1.6941183805465698,-3.6945178508758554
859,50900.0,12.610175132751465,1.6941183805465698,-3.6945178508758554
860,50000.0,15.519847869873047,5.7547383308410645,-2.1439690589904785
861,50100.0,6.833901405334473,2.3425734043121342,-2.0099709033966064
862,50200.0,6.833901405334473,2.3425734043121342,-2.0099709033966064
863,50300.0,8.733802795410156,3.9122648239135738,-2.09850549697876
864,50400.0,8.733802795410156,3.9122648239135738,-2.09850549697876
865,50500.0,6.465407371520996,2.416750907897949,-2.263610363006592
866,50600.0,6.465407371520996,2.416750907897949,-2.263610363006592
867,50700.0,12.610175132751465,1.6941183805465698,-3.6945178508758554
868,50800.0,12.610175132751465,1.6941183805465698,-3.6945178508758554
869,50900.0,12.610175132751465,1.6941183805465698,-3.6945178508758554
870,51000.0,6.967899799346924,2.4023938179016118,-2.423929214477539
871,51100.0,6.967899799346924,2.4023938179016118,-2.423929214477539
872,51200.0,6.853044033050537,2.3497519493103027,-2.7732813358306885
873,51300.0,6.853044033050537,2.3497519493103027,-2.7732813358306885
874,51400.0,18.29073715209961,5.149354457855225,-3.8596229553222656
875,51500.0,18.29073715209961,5.149354457855225,-3.8596229553222656
876,51600.0,18.29073715209961,5.149354457855225,-3.8596229553222656
877,51700.0,5.603990077972412,2.538784980773926,-2.3186452388763428
878,51800.0,5.603990077972412,2.538784980773926,-2.3186452388763428
879,51900.0,7.58524751663208,4.479363918304443,-2.452643394470215
880,51000.0,6.967899799346924,2.4023938179016118,-2.423929214477539
881,51100.0,6.967899799346924,2.4023938179016118,-2.423929214477539
882,51200.0,6.853044033050537,2.3497519493103027,-2.7732813358306885
883,51300.0,6.853044033050537,2.3497519493103027,-2.7732813358306885
884,51400.0,18.29073715209961,5.149354457855225,-3.8596229553222656
885,51500.0,18.29073715209961,5.149354457855225,-3.8596229553222656
886,51600.0,18.29073715209961,5.149354457855225,-3.8596229553222656
887,51700.0,5.603990077972412,2.538784980773926,-2.3186452388763428
888,51800.0,5.603990077972412,2.538784980773926,-2.3186452388763428
889,51900.0,7.58524751663208,4.479363918304443,-2.452643394470215
890,52000.0,7.58524751663208,4.479363918304443,-2.452643394470215
891,52100.0,12.06461238861084,1.7850456237792969,-2.493321180343628
892,52200.0,12.06461238861084,1.7850456237792969,-2.493321180343628
893,52300.0,5.962913990020753,0.2512463629245758,-1.8089739084243772
894,52400.0,5.962913990020753,0.2512463629245758,-1.8089739084243772
895,52500.0,5.962913990020753,0.2512463629245758,-1.8089739084243772
896,52600.0,9.81057357788086,3.464807271957397,-3.1992037296295166
897,52700.0,9.81057357788086,3.464807271957397,-3.1992037296295166
898,52800.0,11.207980155944824,3.964907169342041,-4.074976921081543
899,52900.0,11.207980155944824,3.964907169342041,-4.074976921081543
900,52000.0,7.58524751663208,4.479363918304443,-2.452643394470215
901,52100.0,12.06461238861084,1.7850456237792969,-2.493321180343628
902,52200.0,12.06461238861084,1.7850456237792969,-2.493321180343628
903,52300.0,5.962913990020753,0.2512463629245758,-1.8089739084243772
904,52400.0,5.962913990020753,0.2512463629245758,-1.8089739084243772
905,52500.0,5.962913990020753,0.2512463629245758,-1.8089739084243772
906,52600.0,9.81057357788086,3.464807271957397,-3.1992037296295166
907,52700.0,9.81057357788086,3.464807271957397,-3.1992037296295166
908,52800.0,11.207980155944824,3.964907169342041,-4.074976921081543
909,52900.0,11.207980155944824,3.964907169342041,-4.074976921081543
910,53000.0,9.78664493560791,2.885744333267212,-1.7778673171997068
911,53100.0,9.78664493560791,2.885744333267212,-1.7778673171997068
912,53200.0,7.613961696624756,2.4598214626312256,-1.06480610370636
913,53300.0,7.613961696624756,2.4598214626312256,-1.06480610370636
914,53400.0,7.613961696624756,2.4598214626312256,-1.06480610370636
915,53500.0,7.207180976867676,1.8783657550811768,-2.562713146209717
916,53600.0,7.207180976867676,1.8783657550811768,-2.562713146209717
917,53700.0,10.925628662109377,4.591826438903809,-3.2159535884857178
918,53800.0,10.925628662109377,4.591826438903809,-3.2159535884857178
919,53900.0,7.073184013366699,3.2829525470733643,-3.414557933807373
920,53000.0,9.78664493560791,2.885744333267212,-1.7778673171997068
921,53100.0,9.78664493560791,2.885744333267212,-1.7778673171997068
922,53200.0,7.613961696624756,2.4598214626312256,-1.06480610370636
923,53300.0,7.613961696624756,2.4598214626312256,-1.06480610370636
924,53400.0,7.613961696624756,2.4598214626312256,-1.06480610370636
925,53500.0,7.207180976867676,1.8783657550811768,-2.562713146209717
926,53600.0,7.207180976867676,1.8783657550811768,-2.562713146209717
927,53700.0,10.925628662109377,4.591826438903809,-3.2159535884857178
928,53800.0,10.925628662109377,4.591826438903809,-3.2159535884857178
929,53900.0,7.073184013366699,3.2829525470733643,-3.414557933807373
930,54000.0,7.073184013366699,3.2829525470733643,-3.414557933807373
931,54100.0,8.580661773681639,2.4717857837677,-3.4121649265289307
932,54200.0,8.580661773681639,2.4717857837677,-3.4121649265289307
933,54300.0,12.174681663513185,2.9168508052825928,-2.612962245941162
934,54400.0,12.174681663513185,2.9168508052825928,-2.612962245941162
935,54500.0,7.073184013366699,2.4957141876220703,-2.124826431274414
936,54600.0,7.073184013366699,2.4957141876220703,-2.124826431274414
937,54700.0,7.073184013366699,2.4957141876220703,-2.124826431274414
938,54800.0,7.8006019592285165,3.1657044887542725,-3.0963122844696045
939,54900.0,7.8006019592285165,3.1657044887542725,-3.0963122844696045
940,54000.0,7.073184013366699,3.2829525470733643,-3.414557933807373
941,54100.0,8.580661773681639,2.4717857837677,-3.4121649265289307
942,54200.0,8.580661773681639,2.4717857837677,-3.4121649265289307
943,54300.0,12.174681663513185,2.9168508052825928,-2.612962245941162
944,54400.0,12.174681663513185,2.9168508052825928,-2.612962245941162
945,54500.0,7.073184013366699,2.4957141876220703,-2.124826431274414
946,54600.0,7.073184013366699,2.4957141876220703,-2.124826431274414
947,54700.0,7.073184013366699,2.4957141876220703,-2.124826431274414
948,54800.0,7.8006019592285165,3.1657044887542725,-3.0963122844696045
949,54900.0,7.8006019592285165,3.1657044887542725,-3.0963122844696045
950,55000.0,6.613761901855469,2.9934213161468506,-3.4193434715271
951,55100.0,6.613761901855469,2.9934213161468506,-3.4193434715271
952,55200.0,6.613761901855469,2.9934213161468506,-3.4193434715271
953,55300.0,12.562318801879885,4.366901397705078,-3.4049866199493413
954,55400.0,12.562318801879885,4.366901397705078,-3.4049866199493413
955,55500.0,6.522834300994872,2.407179594039917,-2.048256158828736
956,55600.0,6.522834300994872,2.407179594039917,-2.048256158828736
957,55700.0,7.623533248901367,2.4741785526275635,-3.089133977890014
958,55800.0,7.623533248901367,2.4741785526275635,-3.089133977890014
959,55900.0,15.491133689880373,2.9862425327301025,-2.565105676651001
960,55000.0,6.613761901855469,2.9934213161468506,-3.4193434715271
961,55100.0,6.613761901855469,2.9934213161468506,-3.4193434715271
962,55200.0,6.613761901855469,2.9934213161468506,-3.4193434715271
963,55300.0,12.562318801879885,4.366901397705078,-3.4049866199493413
964,55400.0,12.562318801879885,4.366901397705078,-3.4049866199493413
965,55500.0,6.522834300994872,2.407179594039917,-2.048256158828736
966,55600.0,6.522834300994872,2.407179594039917,-2.048256158828736
967,55700.0,7.623533248901367,2.4741785526275635,-3.089133977890014
968,55800.0,7.623533248901367,2.4741785526275635,-3.089133977890014
969,55900.0,15.491133689880373,2.9862425327301025,-2.565105676651001
970,56000.0,15.491133689880373,2.9862425327301025,-2.565105676651001
971,56100.0,15.491133689880373,2.9862425327301025,-2.565105676651001
972,56200.0,7.302894115447997,2.400001049041748,-2.4598214626312256
973,56300.0,7.302894115447997,2.400001049041748,-2.4598214626312256
974,56400.0,8.169095993041992,2.560320377349853,-1.2035897970199585
975,56500.0,8.169095993041992,2.560320377349853,-1.2035897970199585
976,56600.0,5.647061824798584,2.232503652572632,-2.675175428390503
977,56700.0,5.647061824798584,2.232503652572632,-2.675175428390503
978,56800.0,11.461621284484865,3.029313325881958,-4.675575256347656
979,56900.0,11.461621284484865,3.029313325881958,-4.675575256347656
980,56000.0,15.491133689880373,2.9862425327301025,-2.565105676651001
981,56100.0,15.491133689880373,2.9862425327301025,-2.565105676651001
982,56200.0,7.302894115447997,2.400001049041748,-2.4598214626312256
983,56300.0,7.302894115447997,2.400001049041748,-2.4598214626312256
984,56400.0,8.169095993041992,2.560320377349853,-1.2035897970199585
985,56500.0,8.169095993041992,2.560320377349853,-1.2035897970199585
986,56600.0,5.647061824798584,2.232503652572632,-2.675175428390503
987,56700.0,5.647061824798584,2.232503652572632,-2.675175428390503
988,56800.0,11.461621284484865,3.029313325881958,-4.675575256347656
989,56900.0,11.461621284484865,3.029313325881958,-4.675575256347656
990,57000.0,6.843472957611084,2.263610363006592,-2.242074966430664
991,57100.0,6.843472957611084,2.263610363006592,-2.242074966430664
992,57200.0,6.843472957611084,2.263610363006592,-2.242074966430664
993,57300.0,8.461020469665527,2.4957141876220703,-3.2231321334838867
994,57400.0,8.461020469665527,2.4957141876220703,-3.2231321334838867
995,57500.0,7.36032247543335,2.3856441974639893,-3.16331148147583
996,57600.0,7.36032247543335,2.3856441974639893,-3.16331148147583
997,57700.0,13.99801254272461,2.7732813358306885,-3.1130621433258057
998,57800.0,13.99801254272461,2.7732813358306885,-3.1130621433258057
999,57900.0,7.446464061737059,2.5196423530578613,-2.581855773925781
1000,57000.0,6.843472957611084,2.263610363006592,-2.242074966430664
1001,57100.0,6.843472957611084,2.263610363006592,-2.242074966430664
1002,57200.0,6.843472957611084,2.263610363006592,-2.242074966430664
1003,57300.0,8.461020469665527,2.4957141876220703,-3.2231321334838867
1004,57400.0,8.461020469665527,2.4957141876220703,-3.2231321334838867
1005,57500.0,7.36032247543335,2.3856441974639893,-3.16331148147583
1006,57600.0,7.36032247543335,2.3856441974639893,-3.16331148147583
1007,57700.0,13.99801254272461,2.7732813358306885,-3.1130621433258057
1008,57800.0,13.99801254272461,2.7732813358306885,-3.1130621433258057
1009,57900.0,7.446464061737059,2.5196423530578613,-2.581855773925781
1010,58000.0,7.446464061737059,2.5196423530578613,-2.581855773925781
1011,58100.0,7.446464061737059,2.5196423530578613,-2.581855773925781
1012,58200.0,8.307880401611326,3.4360933303833012,-1.6079767942428589
1013,58300.0,8.307880401611326,3.4360933303833012,-1.6079767942428589
1014,58400.0,7.5804619789123535,3.615554809570313,-2.12961220741272
1015,58500.0,7.5804619789123535,3.615554809570313,-2.12961220741272
1016,58600.0,14.304293632507324,2.9838497638702397,-3.31166672706604
1017,58700.0,14.304293632507324,2.9838497638702397,-3.31166672706604
1018,58800.0,14.304293632507324,2.9838497638702397,-3.31166672706604
1019,58900.0,7.838886737823486,1.3543376922607422,-2.421536445617676
1020,58000.0,7.446464061737059,2.5196423530578613,-2.581855773925781
1021,58100.0,7.446464061737059,2.5196423530578613,-2.581855773925781
1022,58200.0,8.307880401611326,3.4360933303833012,-1.6079767942428589
1023,58300.0,8.307880401611326,3.4360933303833012,-1.6079767942428589
1024,58400.0,7.5804619789123535,3.615554809570313,-2.12961220741272
1025,58500.0,7.5804619789123535,3.615554809570313,-2.12961220741272
1026,58600.0,14.304293632507324,2.9838497638702397,-3.31166672706604
1027,58700.0,14.304293632507324,2.9838497638702397,-3.31166672706604
1028,58800.0,14.304293632507324,2.9838497638702397,-3.31166672706604
1029,58900.0,7.838886737823486,1.3543376922607422,-2.421536445617676
1030,59000.0,7.838886737823486,1.3543376922607422,-2.421536445617676
1031,59100.0,7.561319828033447,1.9860427379608157,-2.629711866378784
1032,59200.0,7.561319828033447,1.9860427379608157,-2.629711866378784
1033,59300.0,7.561319828033447,1.9860427379608157,-2.629711866378784
1034,59400.0,7.901099681854247,2.7900311946868896,-3.062812805175781
1035,59500.0,7.901099681854247,2.7900311946868896,-3.062812805175781
1036,59600.0,13.069597244262695,4.711467742919922,-3.10109806060791
1037,59700.0,13.069597244262695,4.711467742919922,-3.10109806060791
1038,59800.0,8.169095993041992,2.6464619636535645,-2.337787628173828
1039,59900.0,8.169095993041992,2.6464619636535645,-2.337787628173828
1040,59000.0,7.838886737823486,1.3543376922607422,-2.421536445617676
1041,59100.0,7.561319828033447,1.9860427379608157,-2.629711866378784
1042,59200.0,7.561319828033447,1.9860427379608157,-2.629711866378784
1043,59300.0,7.561319828033447,1.9860427379608157,-2.629711866378784
1044,59400.0,7.901099681854247,2.7900311946868896,-3.062812805175781
1045,59500.0,7.901099681854247,2.7900311946868896,-3.062812805175781
1046,59600.0,13.069597244262695,4.711467742919922,-3.10109806060791
1047,59700.0,13.069597244262695,4.711467742919922,-3.10109806060791
1048,59800.0,8.169095993041992,2.6464619636535645,-2.337787628173828
1049,59900.0,8.169095993041992,2.6464619636535645,-2.337787628173828
1050,60000.0,8.169095993041992,2.6464619636535645,-2.337787628173828
1051,60100.0,8.370094299316406,3.31166672706604,-1.241874933242798
1052,60200.0,8.370094299316406,3.31166672706604,-1.241874933242798
1053,60300.0,6.963113307952881,2.919243574142456,-2.390429735183716
1054,60400.0,6.963113307952881,2.919243574142456,-2.390429735183716
1055,60500.0,15.352350234985352,3.9744782447814937,-4.383650779724121
1056,60600.0,15.352350234985352,3.9744782447814937,-4.383650779724121
1057,60700.0,6.666403770446777,2.5914268493652344,-1.7371891736984253
1058,60800.0,6.666403770446777,2.5914268493652344,-1.7371891736984253
1059,60900.0,8.173882484436035,2.9264223575592037,-2.675175428390503
1060,60000.0,8.169095993041992,2.6464619636535645,-2.337787628173828
1061,60100.0,8.370094299316406,3.31166672706604,-1.241874933242798
1062,60200.0,8.370094299316406,3.31166672706604,-1.241874933242798
1063,60300.0,6.963113307952881,2.919243574142456,-2.390429735183716
1064,60400.0,6.963113307952881,2.919243574142456,-2.390429735183716
1065,60500.0,15.352350234985352,3.9744782447814937,-4.383650779724121
1066,60600.0,15.352350234985352,3.9744782447814937,-4.383650779724121
1067,60700.0,6.666403770446777,2.5914268493652344,-1.7371891736984253
1068,60800.0,6.666403770446777,2.5914268493652344,-1.7371891736984253
1069,60900.0,8.173882484436035,2.9264223575592037,-2.675175428390503
1070,61000.0,8.173882484436035,2.9264223575592037,-2.675175428390503
1071,61100.0,8.173882484436035,2.9264223575592037,-2.675175428390503
1072,61200.0,6.695117950439452,1.8927226066589355,-2.3712873458862305
1073,61300.0,6.695117950439452,1.8927226066589355,-2.3712873458862305
1074,61400.0,14.543575286865234,5.156532764434815,-3.1082763671875
1075,61500.0,14.543575286865234,5.156532764434815,-3.1082763671875
1076,61600.0,7.75753116607666,3.1202406883239746,-1.4261221885681152
1077,61700.0,7.75753116607666,3.1202406883239746,-1.4261221885681152
1078,61800.0,8.561518669128418,3.742374420166016,-2.25403904914856
1079,61900.0,8.561518669128418,3.742374420166016,-2.25403904914856
1080,61000.0,8.173882484436035,2.9264223575592037,-2.675175428390503
1081,61100.0,8.173882484436035,2.9264223575592037,-2.675175428390503
1082,61200.0,6.695117950439452,1.8927226066589355,-2.3712873458862305
1083,61300.0,6.695117950439452,1.8927226066589355,-2.3712873458862305
1084,61400.0,14.543575286865234,5.156532764434815,-3.1082763671875
1085,61500.0,14.543575286865234,5.156532764434815,-3.1082763671875
1086,61600.0,7.75753116607666,3.1202406883239746,-1.4261221885681152
1087,61700.0,7.75753116607666,3.1202406883239746,-1.4261221885681152
1088,61800.0,8.561518669128418,3.742374420166016,-2.25403904914856
1089,61900.0,8.561518669128418,3.742374420166016,-2.25403904914856
1090,62000.0,8.561518669128418,3.742374420166016,-2.25403904914856
1091,62100.0,6.824329853057861,2.864208698272705,-2.51007080078125
1092,62200.0,6.824329853057861,2.864208698272705,-2.51007080078125
1093,62300.0,6.824329853057861,2.864208698272705,-2.51007080078125
1094,62400.0,16.21376609802246,5.2905311584472665,-2.021935224533081
1095,62500.0,16.21376609802246,5.2905311584472665,-2.021935224533081
1096,62600.0,6.62333345413208,2.3234307765960693,-2.5052852630615234
1097,62700.0,6.62333345413208,2.3234307765960693,-2.5052852630615234
1098,62800.0,6.62333345413208,2.3234307765960693,-2.5052852630615234
1099,62900.0,7.355536937713622,2.2468602657318115,-2.5938196182250977
1100,62000.0,8.561518669128418,3.742374420166016,-2.25403904914856
1101,62100.0,6.824329853057861,2.864208698272705,-2.51007080078125
1102,62200.0,6.824329853057861,2.864208698272705,-2.51007080078125
1103,62300.0,6.824329853057861,2.864208698272705,-2.51007080078125
1104,62400.0,16.21376609802246,5.2905311584472665,-2.021935224533081
1105,62500.0,16.21376609802246,5.2905311584472665,-2.021935224533081
1106,62600.0,6.62333345413208,2.3234307765960693,-2.5052852630615234
1107,62700.0,6.62333345413208,2.3234307765960693,-2.5052852630615234
1108,62800.0,6.62333345413208,2.3234307765960693,-2.5052852630615234
1109,62900.0,7.355536937713622,2.2468602657318115,-2.5938196182250977
1110,63000.0,7.355536937713622,2.2468602657318115,-2.5938196182250977
1111,63100.0,14.017155647277832,3.9912283420562735,-3.5461630821228027
1112,63200.0,14.017155647277832,3.9912283420562735,-3.5461630821228027
1113,63300.0,6.8721866607666025,3.072384119033813,-2.0554347038269043
1114,63400.0,6.8721866607666025,3.072384119033813,-2.0554347038269043
1115,63500.0,6.8721866607666025,3.072384119033813,-2.0554347038269043
1116,63600.0,8.298308372497559,4.067798614501953,-2.203789472579956
1117,63700.0,8.298308372497559,4.067798614501953,-2.203789472579956
1118,63800.0,6.451050281524657,2.5986053943634038,-3.304487943649292
1119,63900.0,6.451050281524657,2.5986053943634038,-3.304487943649292
1120,63000.0,7.355536937713622,2.2468602657318115,-2.5938196182250977
1121,63100.0,14.017155647277832,3.9912283420562735,-3.5461630821228027
1122,63200.0,14.017155647277832,3.9912283420562735,-3.5461630821228027
1123,63300.0,6.8721866607666025,3.072384119033813,-2.0554347038269043
1124,63400.0,6.8721866607666025,3.072384119033813,-2.0554347038269043
1125,63500.0,6.8721866607666025,3.072384119033813,-2.0554347038269043
1126,63600.0,8.298308372497559,4.067798614501953,-2.203789472579956
1127,63700.0,8.298308372497559,4.067798614501953,-2.203789472579956
1128,63800.0,6.451050281524657,2.5986053943634038,-3.304487943649292
1129,63900.0,6.451050281524657,2.5986053943634038,-3.304487943649292
1130,64000.0,16.122838973999027,3.4743783473968506,-5.551348686218262
1131,64100.0,16.122838973999027,3.4743783473968506,-5.551348686218262
1132,64200.0,8.513663291931152,1.8592231273651123,-2.100898265838623
1133,64300.0,8.513663291931152,1.8592231273651123,-2.100898265838623
1134,64400.0,8.513663291931152,1.8592231273651123,-2.100898265838623
1135,64500.0,7.389035701751709,2.416750907897949,-2.6536402702331543
1136,64600.0,7.389035701751709,2.416750907897949,-2.6536402702331543
1137,64700.0,7.925028324127197,2.218146562576294,-3.0963122844696045
1138,64800.0,7.925028324127197,2.218146562576294,-3.0963122844696045
1139,64900.0,18.18545150756836,5.359922409057617,-3.328416109085083
1140,64000.0,16.122838973999027,3.4743783473968506,-5.551348686218262
1141,64100.0,16.122838973999027,3.4743783473968506,-5.551348686218262
1142,64200.0,8.513663291931152,1.8592231273651123,-2.100898265838623
1143,64300.0,8.513663291931152,1.8592231273651123,-2.100898265838623
1144,64400.0,8.513663291931152,1.8592231273651123,-2.100898265838623
1145,64500.0,7.389035701751709,2.416750907897949,-2.6536402702331543
1146,64600.0,7.389035701751709,2.416750907897949,-2.6536402702331543
1147,64700.0,7.925028324127197,2.218146562576294,-3.0963122844696045
1148,64800.0,7.925028324127197,2.218146562576294,-3.0963122844696045
1149,64900.0,18.18545150756836,5.359922409057617,-3.328416109085083
1150,65000.0,18.18545150756836,5.359922409057617,-3.328416109085083
1151,65100.0,18.18545150756836,5.359922409057617,-3.328416109085083
1152,65200.0,6.460620880126952,2.486142873764038,-2.108076810836792
1153,65300.0,6.460620880126952,2.486142873764038,-2.108076810836792
1154,65400.0,8.810372352600098,3.3978083133697514,-2.3401806354522705
1155,65500.0,8.810372352600098,3.3978083133697514,-2.3401806354522705
1156,65600.0,7.781459331512451,3.1058835983276367,-2.9790639877319336
1157,65700.0,7.781459331512451,3.1058835983276367,-2.9790639877319336
1158,65800.0,12.337392807006836,3.957728624343872,-2.3497519493103027
1159,65900.0,12.337392807006836,3.957728624343872,-2.3497519493103027
1160,65000.0,18.18545150756836,5.359922409057617,-3.328416109085083
1161,65100.0,18.18545150756836,5.359922409057617,-3.328416109085083
1162,65200.0,6.460620880126952,2.486142873764038,-2.108076810836792
1163,65300.0,6.460620880126952,2.486142873764038,-2.108076810836792
1164,65400.0,8.810372352600098,3.3978083133697514,-2.3401806354522705
1165,65500.0,8.810372352600098,3.3978083133697514,-2.3401806354522705
1166,65600.0,7.781459331512451,3.1058835983276367,-2.9790639877319336
1167,65700.0,7.781459331512451,3.1058835983276367,-2.9790639877319336
1168,65800.0,12.337392807006836,3.957728624343872,-2.3497519493103027
1169,65900.0,12.337392807006836,3.957728624343872,-2.3497519493103027
1170,66000.0,6.967899799346924,1.7204395532608032,-2.629711866378784
1171,66100.0,6.967899799346924,1.7204395532608032,-2.629711866378784
1172,66200.0,6.967899799346924,1.7204395532608032,-2.629711866378784
1173,66300.0,8.015955924987793,2.1942183971405034,-3.2518460750579834
1174,66400.0,8.015955924987793,2.1942183971405034,-3.2518460750579834
1175,66500.0,14.969497680664062,3.7734813690185542,-2.6775684356689453
1176,66600.0,14.969497680664062,3.7734813690185542,-2.6775684356689453
1177,66700.0,14.969497680664062,3.7734813690185542,-2.6775684356689453
1178,66800.0,7.15932559967041,3.060420036315918,-1.710868239402771
1179,66900.0,7.15932559967041,3.060420036315918,-1.710868239402771
1180,66000.0,6.967899799346924,1.7204395532608032,-2.629711866378784
1181,66100.0,6.967899799346924,1.7204395532608032,-2.629711866378784
1182,66200.0,6.967899799346924,1.7204395532608032,-2.629711866378784
1183,66300.0,8.015955924987793,2.1942183971405034,-3.2518460750579834
1184,66400.0,8.015955924987793,2.1942183971405034,-3.2518460750579834
1185,66500.0,14.969497680664062,3.7734813690185542,-2.6775684356689453
1186,66600.0,14.969497680664062,3.7734813690185542,-2.6775684356689453
1187,66700.0,14.969497680664062,3.7734813690185542,-2.6775684356689453
1188,66800.0,7.15932559967041,3.060420036315918,-1.710868239402771
1189,66900.0,7.15932559967041,3.060420036315918,-1.710868239402771
1190,67000.0,8.279166221618652,3.3140592575073238,-1.5122638940811155
1191,67100.0,8.279166221618652,3.3140592575073238,-1.5122638940811155
1192,67200.0,7.829315185546875,3.259024381637573,-2.3617160320281982
1193,67300.0,7.829315185546875,3.259024381637573,-2.3617160320281982
1194,67400.0,14.605788230895994,3.1250264644622803,-2.943171739578247
1195,67500.0,14.605788230895994,3.1250264644622803,-2.943171739578247
1196,67600.0,14.605788230895994,3.1250264644622803,-2.943171739578247
1197,67700.0,7.293323516845702,1.2514461278915403,-2.8426735401153564
1198,67800.0,7.293323516845702,1.2514461278915403,-2.8426735401153564
1199,67900.0,7.087540626525879,2.560320377349853,-3.5748770236968994
1200,67000.0,8.279166221618652,3.3140592575073238,-1.5122638940811155
1201,67100.0,8.279166221618652,3.3140592575073238,-1.5122638940811155
1202,67200.0,7.829315185546875,3.259024381637573,-2.3617160320281982
1203,67300.0,7.829315185546875,3.259024381637573,-2.3617160320281982
1204,67400.0,14.605788230895994,3.1250264644622803,-2.943171739578247
1205,67500.0,14.605788230895994,3.1250264644622803,-2.943171739578247
1206,67600.0,14.605788230895994,3.1250264644622803,-2.943171739578247
1207,67700.0,7.293323516845702,1.2514461278915403,-2.8426735401153564
1208,67800.0,7.293323516845702,1.2514461278915403,-2.8426735401153564
1209,67900.0,7.087540626525879,2.560320377349853,-3.5748770236968994
1210,68000.0,7.087540626525879,2.560320377349853,-3.5748770236968994
1211,68100.0,5.340780735015869,4.433900356292725,-4.369294166564941
1212,68200.0,5.340780735015869,4.433900356292725,-4.369294166564941
1213,68300.0,12.533604621887207,5.453242778778076,-4.299902439117432
1214,68400.0,12.533604621887207,5.453242778778076,-4.299902439117432
1215,68500.0,12.533604621887207,5.453242778778076,-4.299902439117432
1216,68600.0,6.766902446746826,2.531606435775757,-2.431107759475708
1217,68700.0,6.766902446746826,2.531606435775757,-2.431107759475708
1218,68800.0,7.513463020324707,2.730210542678833,-3.1058835983276367
1219,68900.0,7.513463020324707,2.730210542678833,-3.1058835983276367
1220,68000.0,7.087540626525879,2.560320377349853,-3.5748770236968994
1221,68100.0,5.340780735015869,4.433900356292725,-4.369294166564941
1222,68200.0,5.340780735015869,4.433900356292725,-4.369294166564941
1223,68300.0,12.533604621887207,5.453242778778076,-4.299902439117432
1224,68400.0,12.533604621887207,5.453242778778076,-4.299902439117432
1225,68500.0,12.533604621887207,5.453242778778076,-4.299902439117432
1226,68600.0,6.766902446746826,2.531606435775757,-2.431107759475708
1227,68700.0,6.766902446746826,2.531606435775757,-2.431107759475708
1228,68800.0,7.513463020324707,2.730210542678833,-3.1058835983276367
1229,68900.0,7.513463020324707,2.730210542678833,-3.1058835983276367
1230,69000.0,11.528619766235352,3.2805597782135014,-2.5866410732269287
1231,69100.0,11.528619766235352,3.2805597782135014,-2.5866410732269287
1232,69200.0,11.528619766235352,3.2805597782135014,-2.5866410732269287
1233,69300.0,7.432106971740723,2.857030153274536,-1.7922240495681765
1234,69400.0,7.432106971740723,2.857030153274536,-1.7922240495681765
1235,69500.0,8.647661209106445,3.062812805175781,-2.455036163330078
1236,69600.0,8.647661209106445,3.062812805175781,-2.455036163330078
1237,69700.0,8.86780071258545,2.0458633899688716,-3.1992037296295166
1238,69800.0,8.86780071258545,2.0458633899688716,-3.1992037296295166
1239,69900.0,8.86780071258545,2.0458633899688716,-3.1992037296295166
1240,69000.0,11.528619766235352,3.2805597782135014,-2.5866410732269287
1241,69100.0,11.528619766235352,3.2805597782135014,-2.5866410732269287
1242,69200.0,11.528619766235352,3.2805597782135014,-2.5866410732269287
1243,69300.0,7.432106971740723,2.857030153274536,-1.7922240495681765
1244,69400.0,7.432106971740723,2.857030153274536,-1.7922240495681765
1245,69500.0,8.647661209106445,3.062812805175781,-2.455036163330078
1246,69600.0,8.647661209106445,3.062812805175781,-2.455036163330078
1247,69700.0,8.86780071258545,2.0458633899688716,-3.1992037296295166
1248,69800.0,8.86780071258545,2.0458633899688716,-3.1992037296295166
1249,69900.0,8.86780071258545,2.0458633899688716,-3.1992037296295166
1250,70000.0,12.576675415039062,3.873979806900024,-1.4524433612823486
1251,70100.0,12.576675415039062,3.873979806900024,-1.4524433612823486
1252,70200.0,7.9585280418396,2.421536445617676,-1.184447169303894
1253,70300.0,7.9585280418396,2.421536445617676,-1.184447169303894
1254,70400.0,6.058626651763916,3.328416109085083,-1.9908283948898315
1255,70500.0,6.058626651763916,3.328416109085083,-1.9908283948898315
1256,70600.0,16.878971099853516,5.489135265350342,-3.960121393203736
1257,70700.0,16.878971099853516,5.489135265350342,-3.960121393203736
1258,70800.0,7.8867435455322275,1.84965181350708,-2.935993194580078
1259,70900.0,7.8867435455322275,1.84965181350708,-2.935993194580078
1260,70000.0,12.576675415039062,3.873979806900024,-1.4524433612823486
1261,70100.0,12.576675415039062,3.873979806900024,-1.4524433612823486
1262,70200.0,7.9585280418396,2.421536445617676,-1.184447169303894
1263,70300.0,7.9585280418396,2.421536445617676,-1.184447169303894
1264,70400.0,6.058626651763916,3.328416109085083,-1.9908283948898315
1265,70500.0,6.058626651763916,3.328416109085083,-1.9908283948898315
1266,70600.0,16.878971099853516,5.489135265350342,-3.960121393203736
1267,70700.0,16.878971099853516,5.489135265350342,-3.960121393203736
1268,70800.0,7.8867435455322275,1.84965181350708,-2.935993194580078
1269,70900.0,7.8867435455322275,1.84965181350708,-2.935993194580078
1270,71000.0,7.8867435455322275,1.84965181350708,-2.935993194580078
1271,71100.0,7.499105930328369,2.0458633899688716,-2.998206615447998
1272,71200.0,7.499105930328369,2.0458633899688716,-2.998206615447998
1273,71300.0,13.26580810546875,3.785445213317871,-3.13220477104187
1274,71400.0,13.26580810546875,3.785445213317871,-3.13220477104187
1275,71500.0,9.226724624633787,4.055834770202637,-2.5842485427856445
1276,71600.0,9.226724624633787,4.055834770202637,-2.5842485427856445
1277,71700.0,9.226724624633787,4.055834770202637,-2.5842485427856445
1278,71800.0,9.241080284118652,3.6059837341308594,-2.455036163330078
1279,71900.0,9.241080284118652,3.6059837341308594,-2.455036163330078
1280,71000.0,7.8867435455322275,1.84965181350708,-2.935993194580078
1281,71100.0,7.499105930328369,2.0458633899688716,-2.998206615447998
1282,71200.0,7.499105930328369,2.0458633899688716,-2.998206615447998
1283,71300.0,13.26580810546875,3.785445213317871,-3.13220477104187
1284,71400.0,13.26580810546875,3.785445213317871,-3.13220477104187
1285,71500.0,9.226724624633787,4.055834770202637,-2.5842485427856445
1286,71600.0,9.226724624633787,4.055834770202637,-2.5842485427856445
1287,71700.0,9.226724624633787,4.055834770202637,-2.5842485427856445
1288,71800.0,9.241080284118652,3.6059837341308594,-2.455036163330078
1289,71900.0,9.241080284118652,3.6059837341308594,-2.455036163330078
1290,72000.0,7.762316703796388,2.3401806354522705,-1.9812570810317995
1291,72100.0,7.762316703796388,2.3401806354522705,-1.9812570810317995
1292,72200.0,7.843672752380371,2.8211379051208496,-1.7730815410614014
1293,72300.0,7.843672752380371,2.8211379051208496,-1.7730815410614014
1294,72400.0,7.843672752380371,2.8211379051208496,-1.7730815410614014
1295,72500.0,11.265408515930176,1.6390833854675293,-3.263810157775879
1296,72600.0,11.265408515930176,1.6390833854675293,-3.263810157775879
1297,72700.0,7.513463020324707,1.2969098091125488,-3.0149567127227783
1298,72800.0,7.513463020324707,1.2969098091125488,-3.0149567127227783
1299,72900.0,6.953542709350586,2.0673987865448002,-3.232703685760498
1300,72000.0,7.762316703796388,2.3401806354522705,-1.9812570810317995
1301,72100.0,7.762316703796388,2.3401806354522705,-1.9812570810317995
1302,72200.0,7.843672752380371,2.8211379051208496,-1.7730815410614014
1303,72300.0,7.843672752380371,2.8211379051208496,-1.7730815410614014
1304,72400.0,7.843672752380371,2.8211379051208496,-1.7730815410614014
1305,72500.0,11.265408515930176,1.6390833854675293,-3.263810157775879
1306,72600.0,11.265408515930176,1.6390833854675293,-3.263810157775879
1307,72700.0,7.513463020324707,1.2969098091125488,-3.0149567127227783
1308,72800.0,7.513463020324707,1.2969098091125488,-3.0149567127227783
1309,72900.0,6.953542709350586,2.0673987865448002,-3.232703685760498
1310,73000.0,6.953542709350586,2.0673987865448002,-3.232703685760498
1311,73100.0,10.533205032348633,3.5270204544067383,-2.2947168350219727
1312,73200.0,10.533205032348633,3.5270204544067383,-2.2947168350219727
1313,73300.0,10.533205032348633,3.5270204544067383,-2.2947168350219727
1314,73400.0,8.901299476623535,3.7663028240203857,-2.4574286937713623
1315,73500.0,8.901299476623535,3.7663028240203857,-2.4574286937713623
1316,73600.0,9.107083320617676,2.8666017055511475,-2.2875385284423833
1317,73700.0,9.107083320617676,2.8666017055511475,-2.2875385284423833
1318,73800.0,9.107083320617676,2.8666017055511475,-2.2875385284423833
1319,73900.0,6.63769006729126,2.945564746856689,-2.1918253898620605
1320,73000.0,6.953542709350586,2.0673987865448002,-3.232703685760498
1321,73100.0,10.533205032348633,3.5270204544067383,-2.2947168350219727
1322,73200.0,10.533205032348633,3.5270204544067383,-2.2947168350219727
1323,73300.0,10.533205032348633,3.5270204544067383,-2.2947168350219727
1324,73400.0,8.901299476623535,3.7663028240203857,-2.4574286937713623
1325,73500.0,8.901299476623535,3.7663028240203857,-2.4574286937713623
1326,73600.0,9.107083320617676,2.8666017055511475,-2.2875385284423833
1327,73700.0,9.107083320617676,2.8666017055511475,-2.2875385284423833
1328,73800.0,9.107083320617676,2.8666017055511475,-2.2875385284423833
1329,73900.0,6.63769006729126,2.945564746856689,-2.1918253898620605
1330,74000.0,6.63769006729126,2.945564746856689,-2.1918253898620605
1331,74100.0,17.10389518737793,4.00319242477417,-3.680161237716675
1332,74200.0,17.10389518737793,4.00319242477417,-3.680161237716675
1333,74300.0,8.341379165649414,1.3495519161224363,-2.5124638080596924
1334,74400.0,8.341379165649414,1.3495519161224363,-2.5124638080596924
1335,74500.0,8.341379165649414,1.3495519161224363,-2.5124638080596924
1336,74600.0,6.98704195022583,1.7754744291305542,-2.7732813358306885
1337,74700.0,6.98704195022583,1.7754744291305542,-2.7732813358306885
1338,74800.0,7.393822193145753,2.6057839393615723,-3.4480574131011963
1339,74900.0,7.393822193145753,2.6057839393615723,-3.4480574131011963
1340,74000.0,6.63769006729126,2.945564746856689,-2.1918253898620605
1341,74100.0,17.10389518737793,4.00319242477417,-3.680161237716675
1342,74200.0,17.10389518737793,4.00319242477417,-3.680161237716675
1343,74300.0,8.341379165649414,1.3495519161224363,-2.5124638080596924
1344,74400.0,8.341379165649414,1.3495519161224363,-2.5124638080596924
1345,74500.0,8.341379165649414,1.3495519161224363,-2.5124638080596924
1346,74600.0,6.98704195022583,1.7754744291305542,-2.7732813358306885
1347,74700.0,6.98704195022583,1.7754744291305542,-2.7732813358306885
1348,74800.0,7.393822193145753,2.6057839393615723,-3.4480574131011963
1349,74900.0,7.393822193145753,2.6057839393615723,-3.4480574131011963
1350,75000.0,15.227923393249512,4.814359188079834,-2.998206615447998
1351,75100.0,15.227923393249512,4.814359188079834,-2.998206615447998
1352,75200.0,15.227923393249512,4.814359188079834,-2.998206615447998
1353,75300.0,7.867600917816162,2.770888566970825,-2.629711866378784
1354,75400.0,7.867600917816162,2.770888566970825,-2.629711866378784
1355,75500.0,8.772088050842285,2.6536402702331543,-2.4670000076293945
1356,75600.0,8.772088050842285,2.6536402702331543,-2.4670000076293945
1357,75700.0,7.269395351409912,3.0317063331604004,-2.1128623485565186
1358,75800.0,7.269395351409912,3.0317063331604004,-2.1128623485565186
1359,75900.0,13.351950645446776,2.4909284114837646,-3.4360933303833012
1360,75000.0,15.227923393249512,4.814359188079834,-2.998206615447998
1361,75100.0,15.227923393249512,4.814359188079834,-2.998206615447998
1362,75200.0,15.227923393249512,4.814359188079834,-2.998206615447998
1363,75300.0,7.867600917816162,2.770888566970825,-2.629711866378784
1364,75400.0,7.867600917816162,2.770888566970825,-2.629711866378784
1365,75500.0,8.772088050842285,2.6536402702331543,-2.4670000076293945
1366,75600.0,8.772088050842285,2.6536402702331543,-2.4670000076293945
1367,75700.0,7.269395351409912,3.0317063331604004,-2.1128623485565186
1368,75800.0,7.269395351409912,3.0317063331604004,-2.1128623485565186
1369,75900.0,13.351950645446776,2.4909284114837646,-3.4360933303833012
1370,76000.0,13.351950645446776,2.4909284114837646,-3.4360933303833012
1371,76100.0,6.747759819030763,1.8400806188583372,-3.8979082107543945
1372,76200.0,6.747759819030763,1.8400806188583372,-3.8979082107543945
1373,76300.0,6.747759819030763,1.8400806188583372,-3.8979082107543945
1374,76400.0,9.006584167480469,2.806780815124512,-3.187239646911621
1375,76500.0,9.006584167480469,2.806780815124512,-3.187239646911621
1376,76600.0,7.661818027496338,3.034099102020264,-3.034099102020264
1377,76700.0,7.661818027496338,3.034099102020264,-3.034099102020264
1378,76800.0,8.427520751953125,3.1992037296295166,-2.974278450012207
1379,76900.0,8.427520751953125,3.1992037296295166,-2.974278450012207
1380,76000.0,13.351950645446776,2.4909284114837646,-3.4360933303833012
1381,76100.0,6.747759819030763,1.8400806188583372,-3.8979082107543945
1382,76200.0,6.747759819030763,1.8400806188583372,-3.8979082107543945
1383,76300.0,6.747759819030763,1.8400806188583372,-3.8979082107543945
1384,76400.0,9.006584167480469,2.806780815124512,-3.187239646911621
1385,76500.0,9.006584167480469,2.806780815124512,-3.187239646911621
1386,76600.0,7.661818027496338,3.034099102020264,-3.034099102020264
1387,76700.0,7.661818027496338,3.034099102020264,-3.034099102020264
1388,76800.0,8.427520751953125,3.1992037296295166,-2.974278450012207
1389,76900.0,8.427520751953125,3.1992037296295166,-2.974278450012207
1390,77000.0,9.80100154876709,2.935993194580078,-2.577069997787476
1391,77100.0,9.80100154876709,2.935993194580078,-2.577069997787476
1392,77200.0,9.80100154876709,2.935993194580078,-2.577069997787476
1393,77300.0,7.747959613800049,2.3497519493103027,-2.304288148880005
1394,77400.0,7.747959613800049,2.3497519493103027,-2.304288148880005
1395,77500.0,7.149754047393799,3.610769510269165,-2.644068956375122
1396,77600.0,7.149754047393799,3.610769510269165,-2.644068956375122
1397,77700.0,12.275179862976074,3.5557346343994136,-4.101297855377196
1398,77800.0,12.275179862976074,3.5557346343994136,-4.101297855377196
1399,77900.0,8.70508861541748,0.784845769405365,-2.864208698272705
1400,77000.0,9.80100154876709,2.935993194580078,-2.577069997787476
1401,77100.0,9.80100154876709,2.935993194580078,-2.577069997787476
1402,77200.0,9.80100154876709,2.935993194580078,-2.577069997787476
1403,77300.0,7.747959613800049,2.3497519493103027,-2.304288148880005
1404,77400.0,7.747959613800049,2.3497519493103027,-2.304288148880005
1405,77500.0,7.149754047393799,3.610769510269165,-2.644068956375122
1406,77600.0,7.149754047393799,3.610769510269165,-2.644068956375122
1407,77700.0,12.275179862976074,3.5557346343994136,-4.101297855377196
1408,77800.0,12.275179862976074,3.5557346343994136,-4.101297855377196
1409,77900.0,8.70508861541748,0.784845769405365,-2.864208698272705
1410,78000.0,8.70508861541748,0.784845769405365,-2.864208698272705
1411,78100.0,8.70508861541748,0.784845769405365,-2.864208698272705
1412,78200.0,7.068397998809815,1.9046868085861208,-3.34995174407959
1413,78300.0,7.068397998809815,1.9046868085861208,-3.34995174407959
1414,78400.0,8.236095428466799,2.9264223575592037,-3.290131092071533
1415,78500.0,8.236095428466799,2.9264223575592037,-3.290131092071533
1416,78600.0,12.54317569732666,2.6632115840911865,-2.483749866485596
1417,78700.0,12.54317569732666,2.6632115840911865,-2.483749866485596
1418,78800.0,6.723831653594972,2.7254250049591064,-3.062812805175781
1419,78900.0,6.723831653594972,2.7254250049591064,-3.062812805175781
1420,78000.0,8.70508861541748,0.784845769405365,-2.864208698272705
1421,78100.0,8.70508861541748,0.784845769405365,-2.864208698272705
1422,78200.0,7.068397998809815,1.9046868085861208,-3.34995174407959
1423,78300.0,7.068397998809815,1.9046868085861208,-3.34995174407959
1424,78400.0,8.236095428466799,2.9264223575592037,-3.290131092071533
1425,78500.0,8.236095428466799,2.9264223575592037,-3.290131092071533
1426,78600.0,12.54317569732666,2.6632115840911865,-2.483749866485596
1427,78700.0,12.54317569732666,2.6632115840911865,-2.483749866485596
1428,78800.0,6.723831653594972,2.7254250049591064,-3.062812805175781
1429,78900.0,6.723831653594972,2.7254250049591064,-3.062812805175781
1430,79000.0,6.723831653594972,2.7254250049591064,-3.062812805175781
1431,79100.0,7.776673316955566,3.483949899673462,-1.9262222051620483
1432,79200.0,7.776673316955566,3.483949899673462,-1.9262222051620483
1433,79300.0,6.412764549255371,1.9118653535842896,-2.335394859313965
1434,79400.0,6.412764549255371,1.9118653535842896,-2.335394859313965
1435,79500.0,15.328421592712402,3.684947013854981,-3.677768468856812
1436,79600.0,15.328421592712402,3.684947013854981,-3.677768468856812
1437,79700.0,15.328421592712402,3.684947013854981,-3.677768468856812
1438,79800.0,6.719045639038086,2.1415762901306152,-1.8185452222824097
1439,79900.0,6.719045639038086,2.1415762901306152,-1.8185452222824097
1440,79000.0,6.723831653594972,2.7254250049591064,-3.062812805175781
1441,79100.0,7.776673316955566,3.483949899673462,-1.9262222051620483
1442,79200.0,7.776673316955566,3.483949899673462,-1.9262222051620483
1443,79300.0,6.412764549255371,1.9118653535842896,-2.335394859313965
1444,79400.0,6.412764549255371,1.9118653535842896,-2.335394859313965
1445,79500.0,15.328421592712402,3.684947013854981,-3.677768468856812
1446,79600.0,15.328421592712402,3.684947013854981,-3.677768468856812
1447,79700.0,15.328421592712402,3.684947013854981,-3.677768468856812
1448,79800.0,6.719045639038086,2.1415762901306152,-1.8185452222824097
1449,79900.0,6.719045639038086,2.1415762901306152,-1.8185452222824097
1450,80000.0,8.173882484436035,2.7421746253967285,-2.756531953811645
1451,80100.0,8.173882484436035,2.7421746253967285,-2.756531953811645
1452,80200.0,7.0444698333740225,2.5124638080596924,-3.1178479194641118
1453,80300.0,7.0444698333740225,2.5124638080596924,-3.1178479194641118
1454,80400.0,7.0444698333740225,2.5124638080596924,-3.1178479194641118
1455,80500.0,11.241480827331543,5.178067684173584,-2.1846470832824707
1456,80600.0,11.241480827331543,5.178067684173584,-2.1846470832824707
1457,80700.0,8.240880966186522,2.778067111968994,-2.5076780319213867
1458,80800.0,8.240880966186522,2.778067111968994,-2.5076780319213867
1459,80900.0,8.805586814880371,3.2207393646240234,-1.5672988891601562
1460,80000.0,8.173882484436035,2.7421746253967285,-2.756531953811645
1461,80100.0,8.173882484436035,2.7421746253967285,-2.756531953811645
1462,80200.0,7.0444698333740225,2.5124638080596924,-3.1178479194641118
1463,80300.0,7.0444698333740225,2.5124638080596924,-3.1178479194641118
1464,80400.0,7.0444698333740225,2.5124638080596924,-3.1178479194641118
1465,80500.0,11.241480827331543,5.178067684173584,-2.1846470832824707
1466,80600.0,11.241480827331543,5.178067684173584,-2.1846470832824707
1467,80700.0,8.240880966186522,2.778067111968994,-2.5076780319213867
1468,80800.0,8.240880966186522,2.778067111968994,-2.5076780319213867
1469,80900.0,8.805586814880371,3.2207393646240234,-1.5672988891601562
1470,81000.0,8.805586814880371,3.2207393646240234,-1.5672988891601562
1471,81100.0,8.805586814880371,3.2207393646240234,-1.5672988891601562
1472,81200.0,7.144968032836914,2.603391170501709,-2.761317014694214
1473,81300.0,7.144968032836914,2.603391170501709,-2.761317014694214
1474,81400.0,16.955541610717773,3.680161237716675,-5.254639148712158
1475,81500.0,16.955541610717773,3.680161237716675,-5.254639148712158
1476,81600.0,6.384050369262695,1.1820544004440308,-2.321038007736206
1477,81700.0,6.384050369262695,1.1820544004440308,-2.321038007736206
1478,81800.0,7.422535419464111,1.411765456199646,-4.299902439117432
1479,81900.0,7.422535419464111,1.411765456199646,-4.299902439117432
1480,81000.0,8.805586814880371,3.2207393646240234,-1.5672988891601562
1481,81100.0,8.805586814880371,3.2207393646240234,-1.5672988891601562
1482,81200.0,7.144968032836914,2.603391170501709,-2.761317014694214
1483,81300.0,7.144968032836914,2.603391170501709,-2.761317014694214
1484,81400.0,16.955541610717773,3.680161237716675,-5.254639148712158
1485,81500.0,16.955541610717773,3.680161237716675,-5.254639148712158
1486,81600.0,6.384050369262695,1.1820544004440308,-2.321038007736206
1487,81700.0,6.384050369262695,1.1820544004440308,-2.321038007736206
1488,81800.0,7.422535419464111,1.411765456199646,-4.299902439117432
1489,81900.0,7.422535419464111,1.411765456199646,-4.299902439117432
1490,82000.0,7.422535419464111,1.411765456199646,-4.299902439117432
1491,82100.0,6.996613025665282,2.2683956623077397,-4.177868366241455
1492,82200.0,6.996613025665282,2.2683956623077397,-4.177868366241455
1493,82300.0,11.940185546875,4.752145767211914,-4.074976921081543
1494,82400.0,11.940185546875,4.752145767211914,-4.074976921081543
1495,82500.0,7.331608772277832,2.995814085006714,-2.3306093215942383
1496,82600.0,7.331608772277832,2.995814085006714,-2.3306093215942383
1497,82700.0,7.331608772277832,2.995814085006714,-2.3306093215942383
1498,82800.0,7.920242786407472,2.9814569950103764,-2.6081764698028564
1499,82900.0,7.920242786407472,2.9814569950103764,-2.6081764698028564
1500,82000.0,7.422535419464111,1.411765456199646,-4.299902439117432
1501,82100.0,6.996613025665282,2.2683956623077397,-4.177868366241455
1502,82200.0,6.996613025665282,2.2683956623077397,-4.177868366241455
1503,82300.0,11.940185546875,4.752145767211914,-4.074976921081543
1504,82400.0,11.940185546875,4.752145767211914,-4.074976921081543
1505,82500.0,7.331608772277832,2.995814085006714,-2.3306093215942383
1506,82600.0,7.331608772277832,2.995814085006714,-2.3306093215942383
1507,82700.0,7.331608772277832,2.995814085006714,-2.3306093215942383
1508,82800.0,7.920242786407472,2.9814569950103764,-2.6081764698028564
1509,82900.0,7.920242786407472,2.9814569950103764,-2.6081764698028564
1510,83000.0,10.552348136901855,2.7421746253967285,-3.192025184631348
1511,83100.0,10.552348136901855,2.7421746253967285,-3.192025184631348
1512,83200.0,8.685946464538574,1.529013752937317,-3.0987055301666264
1513,83300.0,8.685946464538574,1.529013752937317,-3.0987055301666264
1514,83400.0,8.685946464538574,1.529013752937317,-3.0987055301666264
1515,83500.0,7.963313579559326,2.155933380126953,-3.680161237716675
1516,83600.0,7.963313579559326,2.155933380126953,-3.680161237716675
1517,83700.0,7.140182495117188,3.1968109607696533,-3.905086755752564
1518,83800.0,7.140182495117188,3.1968109607696533,-3.905086755752564
1519,83900.0,7.140182495117188,3.1968109607696533,-3.905086755752564
1520,83000.0,10.552348136901855,2.7421746253967285,-3.192025184631348
1521,83100.0,10.552348136901855,2.7421746253967285,-3.192025184631348
1522,83200.0,8.685946464538574,1.529013752937317,-3.0987055301666264
1523,83300.0,8.685946464538574,1.529013752937317,-3.0987055301666264
1524,83400.0,8.685946464538574,1.529013752937317,-3.0987055301666264
1525,83500.0,7.963313579559326,2.155933380126953,-3.680161237716675
1526,83600.0,7.963313579559326,2.155933380126953,-3.680161237716675
1527,83700.0,7.140182495117188,3.1968109607696533,-3.905086755752564
1528,83800.0,7.140182495117188,3.1968109607696533,-3.905086755752564
1529,83900.0,7.140182495117188,3.1968109607696533,-3.905086755752564
1530,84000.0,12.452248573303224,4.426721572875977,-4.53200626373291
1531,84100.0,12.452248573303224,4.426721572875977,-4.53200626373291
1532,84200.0,8.087740898132324,3.1752755641937256,-2.227717876434326
1533,84300.0,8.087740898132324,3.1752755641937256,-2.227717876434326
1534,84400.0,8.398807525634767,4.067798614501953,-2.2396819591522217
1535,84500.0,8.398807525634767,4.067798614501953,-2.2396819591522217
1536,84600.0,8.116454124450684,3.9912283420562735,-3.4121649265289307
1537,84700.0,8.116454124450684,3.9912283420562735,-3.4121649265289307
1538,84800.0,8.173882484436035,3.3786656856536865,-3.6610186100006095
1539,84900.0,8.173882484436035,3.3786656856536865,-3.6610186100006095
1540,84000.0,12.452248573303224,4.426721572875977,-4.53200626373291
1541,84100.0,12.452248573303224,4.426721572875977,-4.53200626373291
1542,84200.0,8.087740898132324,3.1752755641937256,-2.227717876434326
1543,84300.0,8.087740898132324,3.1752755641937256,-2.227717876434326
1544,84400.0,8.398807525634767,4.067798614501953,-2.2396819591522217
1545,84500.0,8.398807525634767,4.067798614501953,-2.2396819591522217
1546,84600.0,8.116454124450684,3.9912283420562735,-3.4121649265289307
1547,84700.0,8.116454124450684,3.9912283420562735,-3.4121649265289307
1548,84800.0,8.173882484436035,3.3786656856536865,-3.6610186100006095
1549,84900.0,8.173882484436035,3.3786656856536865,-3.6610186100006095
1550,85000.0,8.173882484436035,3.3786656856536865,-3.6610186100006095
1551,85100.0,11.763115882873535,-0.17228324711322784,-2.2995026111602783
1552,85200.0,11.763115882873535,-0.17228324711322784,-2.2995026111602783
1553,85300.0,7.154539585113525,2.959921598434448,-2.4191436767578125
1554,85400.0,7.154539585113525,2.959921598434448,-2.4191436767578125
1555,85500.0,7.36032247543335,3.888336658477783,-3.249453067779541
1556,85600.0,7.36032247543335,3.888336658477783,-3.249453067779541
1557,85700.0,7.36032247543335,3.888336658477783,-3.249453067779541
1558,85800.0,13.24666690826416,4.0462632179260245,-1.969292998313904
1559,85900.0,13.24666690826416,4.0462632179260245,-1.969292998313904
