,timestamp,ax,ay,az
0,5000.0,-1.6573861837387085,-9.177573204040527,0.22026655077934265
1,5100.0,-1.6573861837387085,-9.177573204040527,0.22026655077934265
2,5200.0,-1.6573861837387085,-9.177573204040527,0.22026655077934265
3,5300.0,-0.7829039692878723,-8.391077995300293,-1.4443022012710571
4,5400.0,-0.7829039692878723,-8.391077995300293,-1.4443022012710571
5,5500.0,-1.3401544094085691,-13.413515090942385,3.25611424446106
6,5600.0,1.1988965272903442,-6.962338447570801,0.18136078119277954
7,5700.0,1.1988965272903442,-6.962338447570801,0.18136078119277954
8,5800.0,-5.503671169281006,-9.343372344970703,1.9812018871307373
9,5900.0,-5.503671169281006,-9.343372344970703,1.9812018871307373
10,6000.0,0.03591302409768105,-8.281543731689451,0.16340427100658414
11,6100.0,0.03591302409768105,-8.281543731689451,0.16340427100658414
12,6200.0,-4.779425144195557,-14.40890407562256,-2.387019157409668
13,6300.0,-4.779425144195557,-14.40890407562256,-2.387019157409668
14,6400.0,0.1843535304069519,-12.000337600708008,1.3922282457351685
15,6500.0,-1.4790180921554563,-10.029311180114746,-0.3872621357440949
16,6600.0,-1.4790180921554563,-10.029311180114746,-0.3872621357440949
17,6700.0,-2.0482394695281982,-10.770316123962402,0.405218631029129
18,6800.0,-2.0482394695281982,-10.770316123962402,0.405218631029129
19,6900.0,0.28969839215278625,-8.704120635986326,-1.1007342338562012
20,6000.0,0.03591302409768105,-8.281543731689451,0.16340427100658414
21,6100.0,0.03591302409768105,-8.281543731689451,0.16340427100658414
22,6200.0,-4.779425144195557,-14.40890407562256,-2.387019157409668
23,6300.0,-4.779425144195557,-14.40890407562256,-2.387019157409668
24,6400.0,0.1843535304069519,-12.000337600708008,1.3922282457351685
25,6500.0,-1.4790180921554563,-10.029311180114746,-0.3872621357440949
26,6600.0,-1.4790180921554563,-10.029311180114746,-0.3872621357440949
27,6700.0,-2.0482394695281982,-10.770316123962402,0.405218631029129
28,6800.0,-2.0482394695281982,-10.770316123962402,0.405218631029129
29,6900.0,0.28969839215278625,-8.704120635986326,-1.1007342338562012
30,7000.0,0.28969839215278625,-8.704120635986326,-1.1007342338562012
31,7100.0,0.7368155717849731,-9.264363288879396,0.13287819921970367
32,7200.0,0.7368155717849731,-9.264363288879396,0.13287819921970367
33,7300.0,-4.0270471572875985,-7.382521152496338,1.0199298858642578
34,7400.0,1.359906554222107,-12.47438907623291,0.4734533727169037
35,7500.0,1.359906554222107,-12.47438907623291,0.4734533727169037
36,7600.0,-1.854907751083374,-8.265382766723633,1.4640543460845947
37,7700.0,-1.854907751083374,-8.265382766723633,1.4640543460845947
38,7800.0,-0.6787561774253845,-7.599794864654541,2.9071593284606934
39,7900.0,-0.6787561774253845,-7.599794864654541,2.9071593284606934
40,7000.0,0.28969839215278625,-8.704120635986326,-1.1007342338562012
41,7100.0,0.7368155717849731,-9.264363288879396,0.13287819921970367
42,7200.0,0.7368155717849731,-9.264363288879396,0.13287819921970367
43,7300.0,-4.0270471572875985,-7.382521152496338,1.0199298858642578
44,7400.0,1.359906554222107,-12.47438907623291,0.4734533727169037
45,7500.0,1.359906554222107,-12.47438907623291,0.4734533727169037
46,7600.0,-1.854907751083374,-8.265382766723633,1.4640543460845947
47,7700.0,-1.854907751083374,-8.265382766723633,1.4640543460845947
48,7800.0,-0.6787561774253845,-7.599794864654541,2.9071593284606934
49,7900.0,-0.6787561774253845,-7.599794864654541,2.9071593284606934
50,8000.0,-1.349731206893921,-8.273762702941895,1.9261353015899656
51,8100.0,-1.349731206893921,-8.273762702941895,1.9261353015899656
52,8200.0,-1.0283095836639404,-7.611167430877685,1.0702081918716428
53,8300.0,-1.6651673316955566,-8.275558471679688,2.7509377002716064
54,8400.0,-1.6651673316955566,-8.275558471679688,2.7509377002716064
55,8500.0,-7.152677536010742,-11.802815437316895,2.2667105197906494
56,8600.0,-7.152677536010742,-11.802815437316895,2.2667105197906494
57,8700.0,-1.3784615993499756,-9.154829025268556,-0.657806932926178
58,8800.0,-1.3784615993499756,-9.154829025268556,-0.657806932926178
59,8900.0,-2.6426000595092773,-9.616311073303224,0.3663128614425659
60,8000.0,-1.349731206893921,-8.273762702941895,1.9261353015899656
61,8100.0,-1.349731206893921,-8.273762702941895,1.9261353015899656
62,8200.0,-1.0283095836639404,-7.611167430877685,1.0702081918716428
63,8300.0,-1.6651673316955566,-8.275558471679688,2.7509377002716064
64,8400.0,-1.6651673316955566,-8.275558471679688,2.7509377002716064
65,8500.0,-7.152677536010742,-11.802815437316895,2.2667105197906494
66,8600.0,-7.152677536010742,-11.802815437316895,2.2667105197906494
67,8700.0,-1.3784615993499756,-9.154829025268556,-0.657806932926178
68,8800.0,-1.3784615993499756,-9.154829025268556,-0.657806932926178
69,8900.0,-2.6426000595092773,-9.616311073303224,0.3663128614425659
70,9000.0,-2.6426000595092773,-9.616311073303224,0.3663128614425659
71,9100.0,-3.207631826400757,-9.017162322998047,-0.8595184087753296
72,9200.0,-1.535880446434021,-8.27974796295166,-0.9331400990486144
73,9300.0,-1.535880446434021,-8.27974796295166,-0.9331400990486144
74,9400.0,-3.511695384979248,-12.199056625366213,0.9660604000091552
75,9500.0,-3.511695384979248,-12.199056625366213,0.9660604000091552
76,9600.0,0.4884171485900879,-11.89499282836914,1.6130933761596682
77,9700.0,0.4884171485900879,-11.89499282836914,1.6130933761596682
78,9800.0,0.7936778664588928,-6.819284915924072,0.8667010068893433
79,9900.0,0.7936778664588928,-6.819284915924072,0.8667010068893433
80,9000.0,-2.6426000595092773,-9.616311073303224,0.3663128614425659
81,9100.0,-3.207631826400757,-9.017162322998047,-0.8595184087753296
82,9200.0,-1.535880446434021,-8.27974796295166,-0.9331400990486144
83,9300.0,-1.535880446434021,-8.27974796295166,-0.9331400990486144
84,9400.0,-3.511695384979248,-12.199056625366213,0.9660604000091552
85,9500.0,-3.511695384979248,-12.199056625366213,0.9660604000091552
86,9600.0,0.4884171485900879,-11.89499282836914,1.6130933761596682
87,9700.0,0.4884171485900879,-11.89499282836914,1.6130933761596682
88,9800.0,0.7936778664588928,-6.819284915924072,0.8667010068893433
89,9900.0,0.7936778664588928,-6.819284915924072,0.8667010068893433
90,10000.0,-1.094150185585022,-8.665214538574219,1.4389152526855469
91,10100.0,-1.2114660739898682,-10.176554679870604,3.4727895259857178
92,10200.0,-1.2114660739898682,-10.176554679870604,3.4727895259857178
93,10300.0,-2.676717519760132,-8.752602577209473,0.017956512048840526
94,10400.0,-2.676717519760132,-8.752602577209473,0.017956512048840526
95,10500.0,-3.976170539855957,-13.340492248535154,0.0005985504249110818
96,10600.0,-3.976170539855957,-13.340492248535154,0.0005985504249110818
97,10700.0,-2.9053637981414795,-9.355342864990234,-0.9475052952766418
98,10800.0,-2.9053637981414795,-9.355342864990234,-0.9475052952766418
99,10900.0,-1.9357120990753172,-9.352350234985352,-0.2352303117513657
100,10000.0,-1.094150185585022,-8.665214538574219,1.4389152526855469
101,10100.0,-1.2114660739898682,-10.176554679870604,3.4727895259857178
102,10200.0,-1.2114660739898682,-10.176554679870604,3.4727895259857178
103,10300.0,-2.676717519760132,-8.752602577209473,0.017956512048840526
104,10400.0,-2.676717519760132,-8.752602577209473,0.017956512048840526
105,10500.0,-3.976170539855957,-13.340492248535154,0.0005985504249110818
106,10600.0,-3.976170539855957,-13.340492248535154,0.0005985504249110818
107,10700.0,-2.9053637981414795,-9.355342864990234,-0.9475052952766418
108,10800.0,-2.9053637981414795,-9.355342864990234,-0.9475052952766418
109,10900.0,-1.9357120990753172,-9.352350234985352,-0.2352303117513657
110,11000.0,-2.0009541511535645,-7.376535415649414,-0.26815059781074524
111,11100.0,-2.0009541511535645,-7.376535415649414,-0.26815059781074524
112,11200.0,-2.97778844833374,-8.052298545837402,0.535702645778656
113,11300.0,-2.97778844833374,-8.052298545837402,0.535702645778656
114,11400.0,0.4333505034446716,-12.266094207763672,2.172738075256348
115,11500.0,0.4333505034446716,-12.266094207763672,2.172738075256348
116,11600.0,0.497395396232605,-8.182783126831055,0.9702502489089966
117,11700.0,0.497395396232605,-8.182783126831055,0.9702502489089966
118,11800.0,-2.543240785598755,-8.839991569519043,2.1493945121765137
119,11900.0,-0.3884592354297638,-9.248202323913574,2.624643564224243
120,11000.0,-2.0009541511535645,-7.376535415649414,-0.26815059781074524
121,11100.0,-2.0009541511535645,-7.376535415649414,-0.26815059781074524
122,11200.0,-2.97778844833374,-8.052298545837402,0.535702645778656
123,11300.0,-2.97778844833374,-8.052298545837402,0.535702645778656
124,11400.0,0.4333505034446716,-12.266094207763672,2.172738075256348
125,11500.0,0.4333505034446716,-12.266094207763672,2.172738075256348
126,11600.0,0.497395396232605,-8.182783126831055,0.9702502489089966
127,11700.0,0.497395396232605,-8.182783126831055,0.9702502489089966
128,11800.0,-2.543240785598755,-8.839991569519043,2.1493945121765137
129,11900.0,-0.3884592354297638,-9.248202323913574,2.624643564224243
130,12000.0,-0.3884592354297638,-9.248202323913574,2.624643564224243
131,12100.0,-0.31603461503982544,-8.7484130859375,1.7417817115783691
132,12200.0,-0.31603461503982544,-8.7484130859375,1.7417817115783691
133,12300.0,-0.8457517623901367,-8.805274963378906,0.4285621047019959
134,12400.0,-0.8457517623901367,-8.805274963378906,0.4285621047019959
135,12500.0,-3.5506010055541988,-12.664728164672852,-2.322375535964966
136,12600.0,-3.5506010055541988,-12.664728164672852,-2.322375535964966
137,12700.0,2.5061306953430176,-9.494805335998537,-2.145803213119507
138,12800.0,-1.2689268589019775,-9.90780544281006,0.18195933103561399
139,12900.0,-1.2689268589019775,-9.90780544281006,0.18195933103561399
140,12000.0,-0.3884592354297638,-9.248202323913574,2.624643564224243
141,12100.0,-0.31603461503982544,-8.7484130859375,1.7417817115783691
142,12200.0,-0.31603461503982544,-8.7484130859375,1.7417817115783691
143,12300.0,-0.8457517623901367,-8.805274963378906,0.4285621047019959
144,12400.0,-0.8457517623901367,-8.805274963378906,0.4285621047019959
145,12500.0,-3.5506010055541988,-12.664728164672852,-2.322375535964966
146,12600.0,-3.5506010055541988,-12.664728164672852,-2.322375535964966
147,12700.0,2.5061306953430176,-9.494805335998537,-2.145803213119507
148,12800.0,-1.2689268589019775,-9.90780544281006,0.18195933103561399
149,12900.0,-1.2689268589019775,-9.90780544281006,0.18195933103561399
150,13000.0,-1.7525556087493896,-8.980650901794434,-1.3299790620803833
151,13100.0,-1.7525556087493896,-8.980650901794434,-1.3299790620803833
152,13200.0,-0.7356184720993042,-8.165425300598145,0.979827046394348
153,13300.0,-0.7356184720993042,-8.165425300598145,0.979827046394348
154,13400.0,-2.7246015071868896,-9.771934509277344,0.12749123573303225
155,13500.0,-2.7246015071868896,-9.771934509277344,0.12749123573303225
156,13600.0,-0.8667010068893433,-9.515155792236328,1.2850877046585083
157,13700.0,-0.07302315533161162,-12.251729011535645,2.343923568725586
158,13800.0,-0.07302315533161162,-12.251729011535645,2.343923568725586
159,13900.0,-1.037886381149292,-6.343437194824219,1.656787633895874
160,13000.0,-1.7525556087493896,-8.980650901794434,-1.3299790620803833
161,13100.0,-1.7525556087493896,-8.980650901794434,-1.3299790620803833
162,13200.0,-0.7356184720993042,-8.165425300598145,0.979827046394348
163,13300.0,-0.7356184720993042,-8.165425300598145,0.979827046394348
164,13400.0,-2.7246015071868896,-9.771934509277344,0.12749123573303225
165,13500.0,-2.7246015071868896,-9.771934509277344,0.12749123573303225
166,13600.0,-0.8667010068893433,-9.515155792236328,1.2850877046585083
167,13700.0,-0.07302315533161162,-12.251729011535645,2.343923568725586
168,13800.0,-0.07302315533161162,-12.251729011535645,2.343923568725586
169,13900.0,-1.037886381149292,-6.343437194824219,1.656787633895874
170,14000.0,-1.037886381149292,-6.343437194824219,1.656787633895874
171,14100.0,-2.648585557937622,-8.310274124145508,0.8493430614471436
172,14200.0,-2.648585557937622,-8.310274124145508,0.8493430614471436
173,14300.0,1.315613865852356,-8.599972724914549,1.9812018871307373
174,14400.0,1.315613865852356,-8.599972724914549,1.9812018871307373
175,14500.0,-5.108029365539551,-11.059415817260742,-1.2647370100021362
176,14600.0,0.33997663855552673,-7.967903137207031,-1.829170107841492
177,14700.0,0.33997663855552673,-7.967903137207031,-1.829170107841492
178,14800.0,0.4399345517158508,-9.440936088562012,-1.3976151943206787
179,14900.0,0.4399345517158508,-9.440936088562012,-1.3976151943206787
180,14000.0,-1.037886381149292,-6.343437194824219,1.656787633895874
181,14100.0,-2.648585557937622,-8.310274124145508,0.8493430614471436
182,14200.0,-2.648585557937622,-8.310274124145508,0.8493430614471436
183,14300.0,1.315613865852356,-8.599972724914549,1.9812018871307373
184,14400.0,1.315613865852356,-8.599972724914549,1.9812018871307373
185,14500.0,-5.108029365539551,-11.059415817260742,-1.2647370100021362
186,14600.0,0.33997663855552673,-7.967903137207031,-1.829170107841492
187,14700.0,0.33997663855552673,-7.967903137207031,-1.829170107841492
188,14800.0,0.4399345517158508,-9.440936088562012,-1.3976151943206787
189,14900.0,0.4399345517158508,-9.440936088562012,-1.3976151943206787
190,15000.0,-1.194706678390503,-9.182361602783203,-0.5440823435783386
191,15100.0,-1.194706678390503,-9.182361602783203,-0.5440823435783386
192,15200.0,-1.994369983673096,-8.844779968261719,0.22385786473751068
193,15300.0,-1.994369983673096,-8.844779968261719,0.22385786473751068
194,15400.0,-2.557007312774658,-8.103176116943361,-0.12988543510437012
195,15500.0,-2.503137826919556,-8.856152534484863,1.2826935052871704
196,15600.0,-2.503137826919556,-8.856152534484863,1.2826935052871704
197,15700.0,-1.4215573072433472,-14.102446556091307,2.481590032577514
198,15800.0,-1.4215573072433472,-14.102446556091307,2.481590032577514
199,15900.0,3.067570924758911,-6.596025466918945,-0.1538274586200714
200,15000.0,-1.194706678390503,-9.182361602783203,-0.5440823435783386
201,15100.0,-1.194706678390503,-9.182361602783203,-0.5440823435783386
202,15200.0,-1.994369983673096,-8.844779968261719,0.22385786473751068
203,15300.0,-1.994369983673096,-8.844779968261719,0.22385786473751068
204,15400.0,-2.557007312774658,-8.103176116943361,-0.12988543510437012
205,15500.0,-2.503137826919556,-8.856152534484863,1.2826935052871704
206,15600.0,-2.503137826919556,-8.856152534484863,1.2826935052871704
207,15700.0,-1.4215573072433472,-14.102446556091307,2.481590032577514
208,15800.0,-1.4215573072433472,-14.102446556091307,2.481590032577514
209,15900.0,3.067570924758911,-6.596025466918945,-0.1538274586200714
210,16000.0,3.067570924758911,-6.596025466918945,-0.1538274586200714
211,16100.0,-7.283760070800781,-10.701482772827148,5.585073947906494
212,16200.0,-7.283760070800781,-10.701482772827148,5.585073947906494
213,16300.0,-3.37402868270874,-7.603385925292969,3.652953147888184
214,16400.0,-1.7423802614212036,-8.562862396240233,3.5470097064971924
215,16500.0,-1.7423802614212036,-8.562862396240233,3.5470097064971924
216,16600.0,-7.8511857986450195,-18.173786163330078,4.043806552886963
217,16700.0,-7.8511857986450195,-18.173786163330078,4.043806552886963
218,16800.0,-2.0811598300933842,-8.710105895996094,2.2619221210479736
219,16900.0,-2.0811598300933842,-8.710105895996094,2.2619221210479736
220,16000.0,3.067570924758911,-6.596025466918945,-0.1538274586200714
221,16100.0,-7.283760070800781,-10.701482772827148,5.585073947906494
222,16200.0,-7.283760070800781,-10.701482772827148,5.585073947906494
223,16300.0,-3.37402868270874,-7.603385925292969,3.652953147888184
224,16400.0,-1.7423802614212036,-8.562862396240233,3.5470097064971924
225,16500.0,-1.7423802614212036,-8.562862396240233,3.5470097064971924
226,16600.0,-7.8511857986450195,-18.173786163330078,4.043806552886963
227,16700.0,-7.8511857986450195,-18.173786163330078,4.043806552886963
228,16800.0,-2.0811598300933842,-8.710105895996094,2.2619221210479736
229,16900.0,-2.0811598300933842,-8.710105895996094,2.2619221210479736
230,17000.0,0.16101007163524628,-9.59715747833252,-1.4143747091293335
231,17100.0,0.16101007163524628,-9.59715747833252,-1.4143747091293335
232,17200.0,-2.367266893386841,-10.040084838867188,-1.801636815071106
233,17300.0,-1.189319729804993,-11.560402870178224,-1.2832920551300049
234,17400.0,-1.189319729804993,-11.560402870178224,-1.2832920551300049
235,17500.0,2.04045844078064,-7.5908164978027335,-3.770867586135864
236,17600.0,2.04045844078064,-7.5908164978027335,-3.770867586135864
237,17700.0,-1.807622313499451,-10.624868392944336,5.307945251464844
238,17800.0,-1.807622313499451,-10.624868392944336,5.307945251464844
239,17900.0,-3.3877954483032227,-8.610746383666992,1.5987281799316406
240,17000.0,0.16101007163524628,-9.59715747833252,-1.4143747091293335
241,17100.0,0.16101007163524628,-9.59715747833252,-1.4143747091293335
242,17200.0,-2.367266893386841,-10.040084838867188,-1.801636815071106
243,17300.0,-1.189319729804993,-11.560402870178224,-1.2832920551300049
244,17400.0,-1.189319729804993,-11.560402870178224,-1.2832920551300049
245,17500.0,2.04045844078064,-7.5908164978027335,-3.770867586135864
246,17600.0,2.04045844078064,-7.5908164978027335,-3.770867586135864
247,17700.0,-1.807622313499451,-10.624868392944336,5.307945251464844
248,17800.0,-1.807622313499451,-10.624868392944336,5.307945251464844
249,17900.0,-3.3877954483032227,-8.610746383666992,1.5987281799316406
250,18000.0,-3.3877954483032227,-8.610746383666992,1.5987281799316406
251,18100.0,-0.24600422382354736,-10.098742485046387,-0.345363587141037
252,18200.0,-0.5925649404525757,-9.78869342803955,0.4818331003189087
253,18300.0,-0.5925649404525757,-9.78869342803955,0.4818331003189087
254,18400.0,1.7926585674285889,-9.718064308166504,-0.04728548228740692
255,18500.0,1.7926585674285889,-9.718064308166504,-0.04728548228740692
256,18600.0,0.5835866928100586,-9.856928825378418,-0.33997663855552673
257,18700.0,0.5835866928100586,-9.856928825378418,-0.33997663855552673
258,18800.0,0.0802057534456253,-11.28806209564209,-1.3150153160095217
259,18900.0,0.0802057534456253,-11.28806209564209,-1.3150153160095217
260,18000.0,-3.3877954483032227,-8.610746383666992,1.5987281799316406
261,18100.0,-0.24600422382354736,-10.098742485046387,-0.345363587141037
262,18200.0,-0.5925649404525757,-9.78869342803955,0.4818331003189087
263,18300.0,-0.5925649404525757,-9.78869342803955,0.4818331003189087
264,18400.0,1.7926585674285889,-9.718064308166504,-0.04728548228740692
265,18500.0,1.7926585674285889,-9.718064308166504,-0.04728548228740692
266,18600.0,0.5835866928100586,-9.856928825378418,-0.33997663855552673
267,18700.0,0.5835866928100586,-9.856928825378418,-0.33997663855552673
268,18800.0,0.0802057534456253,-11.28806209564209,-1.3150153160095217
269,18900.0,0.0802057534456253,-11.28806209564209,-1.3150153160095217
270,19000.0,1.7328034639358518,-5.254673957824707,-2.1074960231781006
271,19100.0,1.7328034639358518,-5.254673957824707,-2.1074960231781006
272,19200.0,-9.04828643798828,-7.294534206390381,6.913856029510497
273,19300.0,-5.106832027435303,-6.36378812789917,-1.3766659498214722
274,19400.0,-5.106832027435303,-6.36378812789917,-1.3766659498214722
275,19500.0,-0.7439981698989868,-9.503783226013184,-2.4432828426361084
276,19600.0,-0.7439981698989868,-9.503783226013184,-2.4432828426361084
277,19700.0,-2.7539305686950684,-10.289081573486328,1.1994950771331787
278,19800.0,-2.7539305686950684,-10.289081573486328,1.1994950771331787
279,19900.0,-1.1713632345199585,-10.973224639892578,-0.8236053586006165
280,19000.0,1.7328034639358518,-5.254673957824707,-2.1074960231781006
281,19100.0,1.7328034639358518,-5.254673957824707,-2.1074960231781006
282,19200.0,-9.04828643798828,-7.294534206390381,6.913856029510497
283,19300.0,-5.106832027435303,-6.36378812789917,-1.3766659498214722
284,19400.0,-5.106832027435303,-6.36378812789917,-1.3766659498214722
285,19500.0,-0.7439981698989868,-9.503783226013184,-2.4432828426361084
286,19600.0,-0.7439981698989868,-9.503783226013184,-2.4432828426361084
287,19700.0,-2.7539305686950684,-10.289081573486328,1.1994950771331787
288,19800.0,-2.7539305686950684,-10.289081573486328,1.1994950771331787
289,19900.0,-1.1713632345199585,-10.973224639892578,-0.8236053586006165
290,20000.0,-1.1713632345199585,-10.973224639892578,-0.8236053586006165
291,20100.0,-1.7525556087493896,-7.380126953125,2.0356700420379643
292,20200.0,-3.0998926162719727,-8.647856712341309,2.391807556152344
293,20300.0,-3.0998926162719727,-8.647856712341309,2.391807556152344
294,20400.0,-1.8303672075271609,-9.077615737915039,2.897582530975342
295,20500.0,-1.8303672075271609,-9.077615737915039,2.897582530975342
296,20600.0,-2.024896144866944,-8.836400032043457,1.6849194765090942
297,20700.0,-2.024896144866944,-8.836400032043457,1.6849194765090942
298,20800.0,-4.127603530883788,-10.089165687561037,1.7274165153503418
299,20900.0,-4.127603530883788,-10.089165687561037,1.7274165153503418
300,20000.0,-1.1713632345199585,-10.973224639892578,-0.8236053586006165
301,20100.0,-1.7525556087493896,-7.380126953125,2.0356700420379643
302,20200.0,-3.0998926162719727,-8.647856712341309,2.391807556152344
303,20300.0,-3.0998926162719727,-8.647856712341309,2.391807556152344
304,20400.0,-1.8303672075271609,-9.077615737915039,2.897582530975342
305,20500.0,-1.8303672075271609,-9.077615737915039,2.897582530975342
306,20600.0,-2.024896144866944,-8.836400032043457,1.6849194765090942
307,20700.0,-2.024896144866944,-8.836400032043457,1.6849194765090942
308,20800.0,-4.127603530883788,-10.089165687561037,1.7274165153503418
309,20900.0,-4.127603530883788,-10.089165687561037,1.7274165153503418
310,21000.0,-0.8876502513885498,-9.03870964050293,1.3126211166381836
311,21100.0,-1.0001777410507202,-11.161767959594727,4.457405090332031
312,21200.0,-1.0001777410507202,-11.161767959594727,4.457405090332031
313,21300.0,1.1534066200256348,-6.18302583694458,-3.17590856552124
314,21400.0,1.1534066200256348,-6.18302583694458,-3.17590856552124
315,21500.0,-1.974019289016724,-10.709263801574707,-1.1180921792984009
316,21600.0,-1.974019289016724,-10.709263801574707,-1.1180921792984009
317,21700.0,-0.702099621295929,-9.351752281188963,-0.2603694200515747
318,21800.0,0.008978256024420261,-10.527304649353027,-0.7380126714706421
319,21900.0,0.008978256024420261,-10.527304649353027,-0.7380126714706421
320,21000.0,-0.8876502513885498,-9.03870964050293,1.3126211166381836
321,21100.0,-1.0001777410507202,-11.161767959594727,4.457405090332031
322,21200.0,-1.0001777410507202,-11.161767959594727,4.457405090332031
323,21300.0,1.1534066200256348,-6.18302583694458,-3.17590856552124
324,21400.0,1.1534066200256348,-6.18302583694458,-3.17590856552124
325,21500.0,-1.974019289016724,-10.709263801574707,-1.1180921792984009
326,21600.0,-1.974019289016724,-10.709263801574707,-1.1180921792984009
327,21700.0,-0.702099621295929,-9.351752281188963,-0.2603694200515747
328,21800.0,0.008978256024420261,-10.527304649353027,-0.7380126714706421
329,21900.0,0.008978256024420261,-10.527304649353027,-0.7380126714706421
330,22000.0,-1.3126211166381836,-8.08162784576416,-0.8451532125473022
331,22100.0,-1.3126211166381836,-8.08162784576416,-0.8451532125473022
332,22200.0,-3.6960489749908447,-14.59565258026123,3.647566318511963
333,22300.0,-3.6960489749908447,-14.59565258026123,3.647566318511963
334,22400.0,-2.122459888458252,-7.71591329574585,-0.07900865375995636
335,22500.0,-2.122459888458252,-7.71591329574585,-0.07900865375995636
336,22600.0,0.3878606855869293,-10.478822708129883,2.5276784896850586
337,22700.0,0.3878606855869293,-10.478822708129883,2.5276784896850586
338,22800.0,-0.228047713637352,-9.500192642211914,1.646013617515564
339,22900.0,-1.839944005012512,-8.070854187011719,1.1982979774475098
340,22000.0,-1.3126211166381836,-8.08162784576416,-0.8451532125473022
341,22100.0,-1.3126211166381836,-8.08162784576416,-0.8451532125473022
342,22200.0,-3.6960489749908447,-14.59565258026123,3.647566318511963
343,22300.0,-3.6960489749908447,-14.59565258026123,3.647566318511963
344,22400.0,-2.122459888458252,-7.71591329574585,-0.07900865375995636
345,22500.0,-2.122459888458252,-7.71591329574585,-0.07900865375995636
346,22600.0,0.3878606855869293,-10.478822708129883,2.5276784896850586
347,22700.0,0.3878606855869293,-10.478822708129883,2.5276784896850586
348,22800.0,-0.228047713637352,-9.500192642211914,1.646013617515564
349,22900.0,-1.839944005012512,-8.070854187011719,1.1982979774475098
350,23000.0,-1.839944005012512,-8.070854187011719,1.1982979774475098
351,23100.0,-1.6490063667297363,-7.947552680969237,1.53707754611969
352,23200.0,-1.6490063667297363,-7.947552680969237,1.53707754611969
353,23300.0,-1.2635399103164673,-8.073846817016603,1.5538369417190552
354,23400.0,-1.2635399103164673,-8.073846817016603,1.5538369417190552
355,23500.0,1.259350061416626,-5.0260281562805185,-5.589263916015625
356,23600.0,1.259350061416626,-5.0260281562805185,-5.589263916015625
357,23700.0,-5.12000036239624,-11.080365180969238,0.6739677786827087
358,23800.0,-1.0672154426574707,-9.456498146057127,-0.71766197681427
359,23900.0,-1.0672154426574707,-9.456498146057127,-0.71766197681427
360,23000.0,-1.839944005012512,-8.070854187011719,1.1982979774475098
361,23100.0,-1.6490063667297363,-7.947552680969237,1.53707754611969
362,23200.0,-1.6490063667297363,-7.947552680969237,1.53707754611969
363,23300.0,-1.2635399103164673,-8.073846817016603,1.5538369417190552
364,23400.0,-1.2635399103164673,-8.073846817016603,1.5538369417190552
365,23500.0,1.259350061416626,-5.0260281562805185,-5.589263916015625
366,23600.0,1.259350061416626,-5.0260281562805185,-5.589263916015625
367,23700.0,-5.12000036239624,-11.080365180969238,0.6739677786827087
368,23800.0,-1.0672154426574707,-9.456498146057127,-0.71766197681427
369,23900.0,-1.0672154426574707,-9.456498146057127,-0.71766197681427
370,24000.0,-1.853710651397705,-6.888118267059326,-1.048660397529602
371,24100.0,-1.853710651397705,-6.888118267059326,-1.048660397529602
372,24200.0,4.125209331512451,-12.65275764465332,2.3702597618103027
373,24300.0,4.125209331512451,-12.65275764465332,2.3702597618103027
374,24400.0,0.6919242739677429,-6.449979305267334,-0.15801730751991272
375,24500.0,0.6919242739677429,-6.449979305267334,-0.15801730751991272
376,24600.0,-7.266402244567871,-13.077129364013672,7.506421089172362
377,24700.0,-1.347337007522583,-7.066486358642577,4.635773181915283
378,24800.0,-1.347337007522583,-7.066486358642577,4.635773181915283
379,24900.0,-1.192312479019165,-6.875548839569093,0.9666589498519896
380,24000.0,-1.853710651397705,-6.888118267059326,-1.048660397529602
381,24100.0,-1.853710651397705,-6.888118267059326,-1.048660397529602
382,24200.0,4.125209331512451,-12.65275764465332,2.3702597618103027
383,24300.0,4.125209331512451,-12.65275764465332,2.3702597618103027
384,24400.0,0.6919242739677429,-6.449979305267334,-0.15801730751991272
385,24500.0,0.6919242739677429,-6.449979305267334,-0.15801730751991272
386,24600.0,-7.266402244567871,-13.077129364013672,7.506421089172362
387,24700.0,-1.347337007522583,-7.066486358642577,4.635773181915283
388,24800.0,-1.347337007522583,-7.066486358642577,4.635773181915283
389,24900.0,-1.192312479019165,-6.875548839569093,0.9666589498519896
390,25000.0,-1.192312479019165,-6.875548839569093,0.9666589498519896
391,25100.0,-3.2345664501190186,-19.608510971069336,-0.5135562419891357
392,25200.0,-3.2345664501190186,-19.608510971069336,-0.5135562419891357
393,25300.0,-0.3405751883983612,-8.565855026245117,-2.2379801273345947
394,25400.0,-0.3405751883983612,-8.565855026245117,-2.2379801273345947
395,25500.0,-3.9618053436279297,-8.826823234558105,-0.7439981698989868
396,25600.0,-2.343923568725586,-9.408614158630373,-1.3401544094085691
397,25700.0,-2.343923568725586,-9.408614158630373,-1.3401544094085691
398,25800.0,-0.13108254969120026,-8.877100944519043,-2.1284453868865967
399,25900.0,-0.13108254969120026,-8.877100944519043,-2.1284453868865967
400,25000.0,-1.192312479019165,-6.875548839569093,0.9666589498519896
401,25100.0,-3.2345664501190186,-19.608510971069336,-0.5135562419891357
402,25200.0,-3.2345664501190186,-19.608510971069336,-0.5135562419891357
403,25300.0,-0.3405751883983612,-8.565855026245117,-2.2379801273345947
404,25400.0,-0.3405751883983612,-8.565855026245117,-2.2379801273345947
405,25500.0,-3.9618053436279297,-8.826823234558105,-0.7439981698989868
406,25600.0,-2.343923568725586,-9.408614158630373,-1.3401544094085691
407,25700.0,-2.343923568725586,-9.408614158630373,-1.3401544094085691
408,25800.0,-0.13108254969120026,-8.877100944519043,-2.1284453868865967
409,25900.0,-0.13108254969120026,-8.877100944519043,-2.1284453868865967
410,26000.0,-2.2218191623687744,-8.092401504516603,-1.8800468444824217
411,26100.0,-2.2218191623687744,-8.092401504516603,-1.8800468444824217
412,26200.0,-0.9481038451194764,-12.734160423278807,1.764526605606079
413,26300.0,-0.9481038451194764,-12.734160423278807,1.764526605606079
414,26400.0,1.269525408744812,-6.910863399505615,1.0666168928146362
415,26500.0,2.00574254989624,-13.383587837219238,7.531559944152832
416,26600.0,2.00574254989624,-13.383587837219238,7.531559944152832
417,26700.0,-3.8361096382141113,-8.130708694458008,-1.7884687185287476
418,26800.0,-3.8361096382141113,-8.130708694458008,-1.7884687185287476
419,26900.0,1.3221979141235352,-7.65845251083374,0.9983820915222168
420,26000.0,-2.2218191623687744,-8.092401504516603,-1.8800468444824217
421,26100.0,-2.2218191623687744,-8.092401504516603,-1.8800468444824217
422,26200.0,-0.9481038451194764,-12.734160423278807,1.764526605606079
423,26300.0,-0.9481038451194764,-12.734160423278807,1.764526605606079
424,26400.0,1.269525408744812,-6.910863399505615,1.0666168928146362
425,26500.0,2.00574254989624,-13.383587837219238,7.531559944152832
426,26600.0,2.00574254989624,-13.383587837219238,7.531559944152832
427,26700.0,-3.8361096382141113,-8.130708694458008,-1.7884687185287476
428,26800.0,-3.8361096382141113,-8.130708694458008,-1.7884687185287476
429,26900.0,1.3221979141235352,-7.65845251083374,0.9983820915222168
430,27000.0,1.3221979141235352,-7.65845251083374,0.9983820915222168
431,27100.0,-5.924452304840088,-8.614337921142576,5.940014362335205
432,27200.0,-5.924452304840088,-8.614337921142576,5.940014362335205
433,27300.0,-6.466140270233153,-10.03350067138672,-1.7423802614212036
434,27400.0,-1.7854759693145752,-9.633668899536133,-1.877652645111084
435,27500.0,-1.7854759693145752,-9.633668899536133,-1.877652645111084
436,27600.0,-0.8960300087928772,-6.575076580047607,-0.6147112846374512
437,27700.0,-0.8960300087928772,-6.575076580047607,-0.6147112846374512
438,27800.0,-3.0544028282165527,-6.265027523040772,0.639850378036499
439,27900.0,-3.0544028282165527,-6.265027523040772,0.639850378036499
440,27000.0,1.3221979141235352,-7.65845251083374,0.9983820915222168
441,27100.0,-5.924452304840088,-8.614337921142576,5.940014362335205
442,27200.0,-5.924452304840088,-8.614337921142576,5.940014362335205
443,27300.0,-6.466140270233153,-10.03350067138672,-1.7423802614212036
444,27400.0,-1.7854759693145752,-9.633668899536133,-1.877652645111084
445,27500.0,-1.7854759693145752,-9.633668899536133,-1.877652645111084
446,27600.0,-0.8960300087928772,-6.575076580047607,-0.6147112846374512
447,27700.0,-0.8960300087928772,-6.575076580047607,-0.6147112846374512
448,27800.0,-3.0544028282165527,-6.265027523040772,0.639850378036499
449,27900.0,-3.0544028282165527,-6.265027523040772,0.639850378036499
450,28000.0,0.4944026470184326,-13.07174301147461,1.3108254671096802
451,28100.0,0.4944026470184326,-13.07174301147461,1.3108254671096802
452,28200.0,4.123414039611816,-6.666056156158447,0.3603273630142212
453,28300.0,-1.1827356815338137,-7.27837324142456,0.015562310814857485
454,28400.0,-1.1827356815338137,-7.27837324142456,0.015562310814857485
455,28500.0,0.8331822156906128,-7.502829551696777,1.898003339767456
456,28600.0,0.8331822156906128,-7.502829551696777,1.898003339767456
457,28700.0,1.4197616577148438,-10.504559516906738,-6.291962146759032
458,28800.0,1.4197616577148438,-10.504559516906738,-6.291962146759032
459,28900.0,-2.683301448822021,-9.264363288879396,1.4748282432556152
460,28000.0,0.4944026470184326,-13.07174301147461,1.3108254671096802
461,28100.0,0.4944026470184326,-13.07174301147461,1.3108254671096802
462,28200.0,4.123414039611816,-6.666056156158447,0.3603273630142212
463,28300.0,-1.1827356815338137,-7.27837324142456,0.015562310814857485
464,28400.0,-1.1827356815338137,-7.27837324142456,0.015562310814857485
465,28500.0,0.8331822156906128,-7.502829551696777,1.898003339767456
466,28600.0,0.8331822156906128,-7.502829551696777,1.898003339767456
467,28700.0,1.4197616577148438,-10.504559516906738,-6.291962146759032
468,28800.0,1.4197616577148438,-10.504559516906738,-6.291962146759032
469,28900.0,-2.683301448822021,-9.264363288879396,1.4748282432556152
470,29000.0,-2.683301448822021,-9.264363288879396,1.4748282432556152
471,29100.0,-2.692279815673828,-8.665813446044924,0.12988543510437012
472,29200.0,-0.8451532125473022,-9.220070838928224,-1.1767501831054688
473,29300.0,-0.8451532125473022,-9.220070838928224,-1.1767501831054688
474,29400.0,-4.702810764312744,-7.38132381439209,-1.2964602708816528
475,29500.0,-4.702810764312744,-7.38132381439209,-1.2964602708816528
476,29600.0,-4.896142482757568,-14.777012825012207,2.913743495941162
477,29700.0,-4.896142482757568,-14.777012825012207,2.913743495941162
478,29800.0,-0.062249243259429925,-5.960963726043701,-0.8541314601898193
479,29900.0,-0.062249243259429925,-5.960963726043701,-0.8541314601898193
480,29000.0,-2.683301448822021,-9.264363288879396,1.4748282432556152
481,29100.0,-2.692279815673828,-8.665813446044924,0.12988543510437012
482,29200.0,-0.8451532125473022,-9.220070838928224,-1.1767501831054688
483,29300.0,-0.8451532125473022,-9.220070838928224,-1.1767501831054688
484,29400.0,-4.702810764312744,-7.38132381439209,-1.2964602708816528
485,29500.0,-4.702810764312744,-7.38132381439209,-1.2964602708816528
486,29600.0,-4.896142482757568,-14.777012825012207,2.913743495941162
487,29700.0,-4.896142482757568,-14.777012825012207,2.913743495941162
488,29800.0,-0.062249243259429925,-5.960963726043701,-0.8541314601898193
489,29900.0,-0.062249243259429925,-5.960963726043701,-0.8541314601898193
490,30000.0,-1.7483657598495483,-7.775768756866455,2.9029695987701416
491,30100.0,-7.474697589874268,-7.599195957183838,0.8086416125297546
492,30200.0,-7.474697589874268,-7.599195957183838,0.8086416125297546
493,30300.0,-0.24600422382354736,-8.480860710144043,-10.401609420776367
494,30400.0,-0.24600422382354736,-8.480860710144043,-10.401609420776367
495,30500.0,-1.2904747724533079,-9.08719253540039,-0.8301894664764404
496,30600.0,-1.2904747724533079,-9.08719253540039,-0.8301894664764404
497,30700.0,0.46627077460289,-9.24940013885498,-1.0821791887283323
498,30800.0,0.46627077460289,-9.24940013885498,-1.0821791887283323
499,30900.0,-0.19452889263629916,-10.630255699157717,-0.1041477769613266
500,30000.0,-1.7483657598495483,-7.775768756866455,2.9029695987701416
501,30100.0,-7.474697589874268,-7.599195957183838,0.8086416125297546
502,30200.0,-7.474697589874268,-7.599195957183838,0.8086416125297546
503,30300.0,-0.24600422382354736,-8.480860710144043,-10.401609420776367
504,30400.0,-0.24600422382354736,-8.480860710144043,-10.401609420776367
505,30500.0,-1.2904747724533079,-9.08719253540039,-0.8301894664764404
506,30600.0,-1.2904747724533079,-9.08719253540039,-0.8301894664764404
507,30700.0,0.46627077460289,-9.24940013885498,-1.0821791887283323
508,30800.0,0.46627077460289,-9.24940013885498,-1.0821791887283323
509,30900.0,-0.19452889263629916,-10.630255699157717,-0.1041477769613266
510,31000.0,-5.525218963623047,-11.394604682922365,-0.2675520479679108
511,31100.0,-5.525218963623047,-11.394604682922365,-0.2675520479679108
512,31200.0,0.7475894689559937,-10.990582466125488,-3.6954503059387207
513,31300.0,0.7475894689559937,-10.990582466125488,-3.6954503059387207
514,31400.0,2.172738075256348,-7.912238121032715,-1.192312479019165
515,31500.0,2.172738075256348,-7.912238121032715,-1.192312479019165
516,31600.0,-10.005369186401367,-15.80292797088623,6.406883716583253
517,31700.0,-10.005369186401367,-15.80292797088623,6.406883716583253
518,31800.0,-6.5289878845214835,-16.700754165649414,1.745373010635376
519,31900.0,-0.5997475385665894,-10.442909240722656,-3.530848979949951
520,31000.0,-5.525218963623047,-11.394604682922365,-0.2675520479679108
521,31100.0,-5.525218963623047,-11.394604682922365,-0.2675520479679108
522,31200.0,0.7475894689559937,-10.990582466125488,-3.6954503059387207
523,31300.0,0.7475894689559937,-10.990582466125488,-3.6954503059387207
524,31400.0,2.172738075256348,-7.912238121032715,-1.192312479019165
525,31500.0,2.172738075256348,-7.912238121032715,-1.192312479019165
526,31600.0,-10.005369186401367,-15.80292797088623,6.406883716583253
527,31700.0,-10.005369186401367,-15.80292797088623,6.406883716583253
528,31800.0,-6.5289878845214835,-16.700754165649414,1.745373010635376
529,31900.0,-0.5997475385665894,-10.442909240722656,-3.530848979949951
530,32000.0,-0.5997475385665894,-10.442909240722656,-3.530848979949951
531,32100.0,2.278082847595215,-10.050260543823242,-0.6643909811973572
532,32200.0,2.278082847595215,-10.050260543823242,-0.6643909811973572
533,32300.0,-1.699883222579956,-12.680291175842285,-0.2304419130086899
534,32400.0,-1.699883222579956,-12.680291175842285,-0.2304419130086899
535,32500.0,1.5041571855545044,-14.3424654006958,-4.8476600646972665
536,32600.0,1.5041571855545044,-14.3424654006958,-4.8476600646972665
537,32700.0,1.40180504322052,-6.51641845703125,-3.144783973693848
538,32800.0,-1.756745457649231,-6.953958988189697,0.5063736438751221
539,32900.0,-1.756745457649231,-6.953958988189697,0.5063736438751221
540,32000.0,-0.5997475385665894,-10.442909240722656,-3.530848979949951
541,32100.0,2.278082847595215,-10.050260543823242,-0.6643909811973572
542,32200.0,2.278082847595215,-10.050260543823242,-0.6643909811973572
543,32300.0,-1.699883222579956,-12.680291175842285,-0.2304419130086899
544,32400.0,-1.699883222579956,-12.680291175842285,-0.2304419130086899
545,32500.0,1.5041571855545044,-14.3424654006958,-4.8476600646972665
546,32600.0,1.5041571855545044,-14.3424654006958,-4.8476600646972665
547,32700.0,1.40180504322052,-6.51641845703125,-3.144783973693848
548,32800.0,-1.756745457649231,-6.953958988189697,0.5063736438751221
549,32900.0,-1.756745457649231,-6.953958988189697,0.5063736438751221
550,33000.0,3.830124139785767,-5.200804710388184,-5.649717330932617
551,33100.0,3.830124139785767,-5.200804710388184,-5.649717330932617
552,33200.0,-1.3221979141235352,-9.568427085876463,-1.2994530200958252
553,33300.0,-1.3221979141235352,-9.568427085876463,-1.2994530200958252
554,33400.0,-7.182605266571045,-10.664372444152832,4.79857873916626
555,33500.0,-7.182605266571045,-10.664372444152832,4.79857873916626
556,33600.0,-10.391433715820312,-8.82323169708252,2.234388828277588
557,33700.0,2.4438812732696533,-8.15524959564209,-0.9858125448226928
558,33800.0,2.4438812732696533,-8.15524959564209,-0.9858125448226928
559,33900.0,-1.592742681503296,-7.355586051940918,4.264073371887207
560,33000.0,3.830124139785767,-5.200804710388184,-5.649717330932617
561,33100.0,3.830124139785767,-5.200804710388184,-5.649717330932617
562,33200.0,-1.3221979141235352,-9.568427085876463,-1.2994530200958252
563,33300.0,-1.3221979141235352,-9.568427085876463,-1.2994530200958252
564,33400.0,-7.182605266571045,-10.664372444152832,4.79857873916626
565,33500.0,-7.182605266571045,-10.664372444152832,4.79857873916626
566,33600.0,-10.391433715820312,-8.82323169708252,2.234388828277588
567,33700.0,2.4438812732696533,-8.15524959564209,-0.9858125448226928
568,33800.0,2.4438812732696533,-8.15524959564209,-0.9858125448226928
569,33900.0,-1.592742681503296,-7.355586051940918,4.264073371887207
570,34000.0,-1.592742681503296,-7.355586051940918,4.264073371887207
571,34100.0,-7.909843921661378,-12.20145034790039,10.427945137023926
572,34200.0,-7.909843921661378,-12.20145034790039,10.427945137023926
573,34300.0,-2.0733785629272456,-8.28094482421875,-2.6138696670532227
574,34400.0,-2.0733785629272456,-8.28094482421875,-2.6138696670532227
575,34500.0,-0.3387795388698578,-9.132682800292967,-2.255936622619629
576,34600.0,-3.37941575050354,-7.326855659484862,-0.4315548539161682
577,34700.0,-3.37941575050354,-7.326855659484862,-0.4315548539161682
578,34800.0,-4.16112232208252,-17.054496765136722,3.918709516525269
579,34900.0,-4.16112232208252,-17.054496765136722,3.918709516525269
580,34000.0,-1.592742681503296,-7.355586051940918,4.264073371887207
581,34100.0,-7.909843921661378,-12.20145034790039,10.427945137023926
582,34200.0,-7.909843921661378,-12.20145034790039,10.427945137023926
583,34300.0,-2.0733785629272456,-8.28094482421875,-2.6138696670532227
584,34400.0,-2.0733785629272456,-8.28094482421875,-2.6138696670532227
585,34500.0,-0.3387795388698578,-9.132682800292967,-2.255936622619629
586,34600.0,-3.37941575050354,-7.326855659484862,-0.4315548539161682
587,34700.0,-3.37941575050354,-7.326855659484862,-0.4315548539161682
588,34800.0,-4.16112232208252,-17.054496765136722,3.918709516525269
589,34900.0,-4.16112232208252,-17.054496765136722,3.918709516525269
590,35000.0,-0.28371289372444153,-7.894880294799805,-0.20530278980731964
591,35100.0,-0.28371289372444153,-7.894880294799805,-0.20530278980731964
592,35200.0,0.4207809567451477,-10.848726272583008,0.6530185341835022
593,35300.0,0.4207809567451477,-10.848726272583008,0.6530185341835022
594,35400.0,0.08918401598930359,-8.486846923828125,2.9724013805389404
595,35500.0,0.5530605912208557,-9.43375301361084,1.8860323429107664
596,35600.0,0.5530605912208557,-9.43375301361084,1.8860323429107664
597,35700.0,-0.10594342648983003,-7.147889137268066,0.5021837949752808
598,35800.0,-0.10594342648983003,-7.147889137268066,0.5021837949752808
599,35900.0,-0.7523778676986694,-12.865840911865234,-2.8413188457489014
600,35000.0,-0.28371289372444153,-7.894880294799805,-0.20530278980731964
601,35100.0,-0.28371289372444153,-7.894880294799805,-0.20530278980731964
602,35200.0,0.4207809567451477,-10.848726272583008,0.6530185341835022
603,35300.0,0.4207809567451477,-10.848726272583008,0.6530185341835022
604,35400.0,0.08918401598930359,-8.486846923828125,2.9724013805389404
605,35500.0,0.5530605912208557,-9.43375301361084,1.8860323429107664
606,35600.0,0.5530605912208557,-9.43375301361084,1.8860323429107664
607,35700.0,-0.10594342648983003,-7.147889137268066,0.5021837949752808
608,35800.0,-0.10594342648983003,-7.147889137268066,0.5021837949752808
609,35900.0,-0.7523778676986694,-12.865840911865234,-2.8413188457489014
610,36000.0,-0.7523778676986694,-12.865840911865234,-2.8413188457489014
611,36100.0,-2.5115175247192383,-10.660781860351564,1.7693150043487549
612,36200.0,-2.5115175247192383,-10.660781860351564,1.7693150043487549
613,36300.0,-0.5650315880775452,-9.642048835754396,-0.8984242081642151
614,36400.0,-0.9445125460624696,-9.932944297790527,-1.347337007522583
615,36500.0,-0.9445125460624696,-9.932944297790527,-1.347337007522583
616,36600.0,-0.405218631029129,-9.196727752685547,-0.7876923680305481
617,36700.0,-0.405218631029129,-9.196727752685547,-0.7876923680305481
618,36800.0,0.9636662006378174,-8.158242225646973,-0.557250440120697
619,36900.0,0.9636662006378174,-8.158242225646973,-0.557250440120697
620,36000.0,-0.7523778676986694,-12.865840911865234,-2.8413188457489014
621,36100.0,-2.5115175247192383,-10.660781860351564,1.7693150043487549
622,36200.0,-2.5115175247192383,-10.660781860351564,1.7693150043487549
623,36300.0,-0.5650315880775452,-9.642048835754396,-0.8984242081642151
624,36400.0,-0.9445125460624696,-9.932944297790527,-1.347337007522583
625,36500.0,-0.9445125460624696,-9.932944297790527,-1.347337007522583
626,36600.0,-0.405218631029129,-9.196727752685547,-0.7876923680305481
627,36700.0,-0.405218631029129,-9.196727752685547,-0.7876923680305481
628,36800.0,0.9636662006378174,-8.158242225646973,-0.557250440120697
629,36900.0,0.9636662006378174,-8.158242225646973,-0.557250440120697
630,37000.0,-2.485780000686645,-6.988674640655518,0.2908954918384552
631,37100.0,-2.485780000686645,-6.988674640655518,0.2908954918384552
632,37200.0,-1.0881646871566772,-14.826093673706055,1.5939397811889648
633,37300.0,-0.05925649031996728,-8.432378768920897,1.0145429372787476
634,37400.0,-0.05925649031996728,-8.432378768920897,1.0145429372787476
635,37500.0,-3.3686418533325195,-9.314043045043944,1.161187767982483
636,37600.0,-3.3686418533325195,-9.314043045043944,1.161187767982483
637,37700.0,-1.269525408744812,-9.079411506652832,2.0961236953735347
638,37800.0,-1.269525408744812,-9.079411506652832,2.0961236953735347
639,37900.0,-4.149750232696533,-9.008183479309082,2.3810336589813232
640,37000.0,-2.485780000686645,-6.988674640655518,0.2908954918384552
641,37100.0,-2.485780000686645,-6.988674640655518,0.2908954918384552
642,37200.0,-1.0881646871566772,-14.826093673706055,1.5939397811889648
643,37300.0,-0.05925649031996728,-8.432378768920897,1.0145429372787476
644,37400.0,-0.05925649031996728,-8.432378768920897,1.0145429372787476
645,37500.0,-3.3686418533325195,-9.314043045043944,1.161187767982483
646,37600.0,-3.3686418533325195,-9.314043045043944,1.161187767982483
647,37700.0,-1.269525408744812,-9.079411506652832,2.0961236953735347
648,37800.0,-1.269525408744812,-9.079411506652832,2.0961236953735347
649,37900.0,-4.149750232696533,-9.008183479309082,2.3810336589813232
650,38000.0,-4.149750232696533,-9.008183479309082,2.3810336589813232
651,38100.0,-0.568622887134552,-9.063849449157717,1.192312479019165
652,38200.0,-2.949058055877685,-13.47995376586914,-1.7052701711654663
653,38300.0,-2.949058055877685,-13.47995376586914,-1.7052701711654663
654,38400.0,1.2024878263473509,-14.602834701538086,0.4842272996902466
655,38500.0,1.2024878263473509,-14.602834701538086,0.4842272996902466
656,38600.0,-2.10210919380188,-9.55585765838623,-2.0183119773864746
657,38700.0,-2.10210919380188,-9.55585765838623,-2.0183119773864746
658,38800.0,-0.1256955862045288,-9.77253246307373,-1.0923545360565186
659,38900.0,-0.1256955862045288,-9.77253246307373,-1.0923545360565186
660,38000.0,-4.149750232696533,-9.008183479309082,2.3810336589813232
661,38100.0,-0.568622887134552,-9.063849449157717,1.192312479019165
662,38200.0,-2.949058055877685,-13.47995376586914,-1.7052701711654663
663,38300.0,-2.949058055877685,-13.47995376586914,-1.7052701711654663
664,38400.0,1.2024878263473509,-14.602834701538086,0.4842272996902466
665,38500.0,1.2024878263473509,-14.602834701538086,0.4842272996902466
666,38600.0,-2.10210919380188,-9.55585765838623,-2.0183119773864746
667,38700.0,-2.10210919380188,-9.55585765838623,-2.0183119773864746
668,38800.0,-0.1256955862045288,-9.77253246307373,-1.0923545360565186
669,38900.0,-0.1256955862045288,-9.77253246307373,-1.0923545360565186
670,39000.0,-1.0821791887283323,-9.384073257446287,-1.7723077535629272
671,39100.0,-0.6003460884094238,-9.495404243469238,-1.1671733856201172
672,39200.0,-0.6003460884094238,-9.495404243469238,-1.1671733856201172
673,39300.0,-0.9361328482627868,-8.756793022155763,-0.10714052617549896
674,39400.0,-0.9361328482627868,-8.756793022155763,-0.10714052617549896
675,39500.0,-1.0522516965866089,-9.013570785522461,-1.648407816886902
676,39600.0,-1.0522516965866089,-9.013570785522461,-1.648407816886902
677,39700.0,-4.089895248413087,-10.491990089416504,2.756923198699951
678,39800.0,-4.089895248413087,-10.491990089416504,2.756923198699951
679,39900.0,2.33913516998291,-12.720992088317873,0.3711012601852417
680,39000.0,-1.0821791887283323,-9.384073257446287,-1.7723077535629272
681,39100.0,-0.6003460884094238,-9.495404243469238,-1.1671733856201172
682,39200.0,-0.6003460884094238,-9.495404243469238,-1.1671733856201172
683,39300.0,-0.9361328482627868,-8.756793022155763,-0.10714052617549896
684,39400.0,-0.9361328482627868,-8.756793022155763,-0.10714052617549896
685,39500.0,-1.0522516965866089,-9.013570785522461,-1.648407816886902
686,39600.0,-1.0522516965866089,-9.013570785522461,-1.648407816886902
687,39700.0,-4.089895248413087,-10.491990089416504,2.756923198699951
688,39800.0,-4.089895248413087,-10.491990089416504,2.756923198699951
689,39900.0,2.33913516998291,-12.720992088317873,0.3711012601852417
690,40000.0,-0.32022446393966675,-8.198944091796875,1.3425486087799072
691,40100.0,-0.32022446393966675,-8.198944091796875,1.3425486087799072
692,40200.0,0.4010287821292877,-8.631695747375487,1.1887211799621582
693,40300.0,0.4010287821292877,-8.631695747375487,1.1887211799621582
694,40400.0,-2.4361002445220947,-8.702922821044924,3.0053217411041264
695,40500.0,-2.4361002445220947,-8.702922821044924,3.0053217411041264
696,40600.0,-0.6248866319656372,-7.58483076095581,2.8143839836120605
697,40700.0,-0.6248866319656372,-7.58483076095581,2.8143839836120605
698,40800.0,-3.066972494125366,-8.36953067779541,1.417367458343506
699,40900.0,-1.7776948213577268,-12.83591365814209,0.9409212470054626
700,40000.0,-0.32022446393966675,-8.198944091796875,1.3425486087799072
701,40100.0,-0.32022446393966675,-8.198944091796875,1.3425486087799072
702,40200.0,0.4010287821292877,-8.631695747375487,1.1887211799621582
703,40300.0,0.4010287821292877,-8.631695747375487,1.1887211799621582
704,40400.0,-2.4361002445220947,-8.702922821044924,3.0053217411041264
705,40500.0,-2.4361002445220947,-8.702922821044924,3.0053217411041264
706,40600.0,-0.6248866319656372,-7.58483076095581,2.8143839836120605
707,40700.0,-0.6248866319656372,-7.58483076095581,2.8143839836120605
708,40800.0,-3.066972494125366,-8.36953067779541,1.417367458343506
709,40900.0,-1.7776948213577268,-12.83591365814209,0.9409212470054626
710,41000.0,-1.7776948213577268,-12.83591365814209,0.9409212470054626
711,41100.0,1.2844891548156738,-9.383475303649902,-1.3311761617660522
712,41200.0,1.2844891548156738,-9.383475303649902,-1.3311761617660522
713,41300.0,-2.872443437576294,-9.729436874389648,-0.3417722880840301
714,41400.0,-2.872443437576294,-9.729436874389648,-0.3417722880840301
715,41500.0,-1.3742717504501345,-8.905831336975098,-0.13766659796237946
716,41600.0,-1.3742717504501345,-8.905831336975098,-0.13766659796237946
717,41700.0,1.839944005012512,-8.398261070251465,-0.8601169586181641
718,41800.0,1.839944005012512,-8.398261070251465,-0.8601169586181641
719,41900.0,-1.835754156112671,-7.3029136657714835,-0.6548141837120056
720,41000.0,-1.7776948213577268,-12.83591365814209,0.9409212470054626
721,41100.0,1.2844891548156738,-9.383475303649902,-1.3311761617660522
722,41200.0,1.2844891548156738,-9.383475303649902,-1.3311761617660522
723,41300.0,-2.872443437576294,-9.729436874389648,-0.3417722880840301
724,41400.0,-2.872443437576294,-9.729436874389648,-0.3417722880840301
725,41500.0,-1.3742717504501345,-8.905831336975098,-0.13766659796237946
726,41600.0,-1.3742717504501345,-8.905831336975098,-0.13766659796237946
727,41700.0,1.839944005012512,-8.398261070251465,-0.8601169586181641
728,41800.0,1.839944005012512,-8.398261070251465,-0.8601169586181641
729,41900.0,-1.835754156112671,-7.3029136657714835,-0.6548141837120056
730,42000.0,0.010175357572734356,-12.371438980102539,2.426523447036743
731,42100.0,0.010175357572734356,-12.371438980102539,2.426523447036743
732,42200.0,-2.0284874439239498,-8.050502777099611,1.1540051698684692
733,42300.0,-2.0284874439239498,-8.050502777099611,1.1540051698684692
734,42400.0,0.13407529890537262,-8.780735015869139,0.1801636815071106
735,42500.0,0.13407529890537262,-8.780735015869139,0.1801636815071106
736,42600.0,0.4554968774318695,-8.661025047302246,3.9486372470855713
737,42700.0,0.4554968774318695,-8.661025047302246,3.9486372470855713
738,42800.0,-2.3989901542663574,-10.528501510620117,2.319382905960083
739,42900.0,4.265868663787842,-19.340959548950195,-5.008669853210449
740,42000.0,0.010175357572734356,-12.371438980102539,2.426523447036743
741,42100.0,0.010175357572734356,-12.371438980102539,2.426523447036743
742,42200.0,-2.0284874439239498,-8.050502777099611,1.1540051698684692
743,42300.0,-2.0284874439239498,-8.050502777099611,1.1540051698684692
744,42400.0,0.13407529890537262,-8.780735015869139,0.1801636815071106
745,42500.0,0.13407529890537262,-8.780735015869139,0.1801636815071106
746,42600.0,0.4554968774318695,-8.661025047302246,3.9486372470855713
747,42700.0,0.4554968774318695,-8.661025047302246,3.9486372470855713
748,42800.0,-2.3989901542663574,-10.528501510620117,2.319382905960083
749,42900.0,4.265868663787842,-19.340959548950195,-5.008669853210449
750,43000.0,4.265868663787842,-19.340959548950195,-5.008669853210449
751,43100.0,4.8913540840148935,-8.404845237731934,-1.2575544118881226
752,43200.0,4.8913540840148935,-8.404845237731934,-1.2575544118881226
753,43300.0,-1.2904747724533079,-9.509769439697266,-0.5907692909240723
754,43400.0,-1.2904747724533079,-9.509769439697266,-0.5907692909240723
755,43500.0,0.2406172752380371,-9.768342971801758,0.15023615956306458
756,43600.0,0.2406172752380371,-9.768342971801758,0.15023615956306458
757,43700.0,-0.9367313981056212,-9.916783332824707,-1.4341268539428709
758,43800.0,-3.0364463329315186,-9.967659950256348,1.4640543460845947
759,43900.0,-3.0364463329315186,-9.967659950256348,1.4640543460845947
760,43000.0,4.265868663787842,-19.340959548950195,-5.008669853210449
761,43100.0,4.8913540840148935,-8.404845237731934,-1.2575544118881226
762,43200.0,4.8913540840148935,-8.404845237731934,-1.2575544118881226
763,43300.0,-1.2904747724533079,-9.509769439697266,-0.5907692909240723
764,43400.0,-1.2904747724533079,-9.509769439697266,-0.5907692909240723
765,43500.0,0.2406172752380371,-9.768342971801758,0.15023615956306458
766,43600.0,0.2406172752380371,-9.768342971801758,0.15023615956306458
767,43700.0,-0.9367313981056212,-9.916783332824707,-1.4341268539428709
768,43800.0,-3.0364463329315186,-9.967659950256348,1.4640543460845947
769,43900.0,-3.0364463329315186,-9.967659950256348,1.4640543460845947
770,44000.0,-2.962226152420044,-11.194089889526367,-0.8026561141014099
771,44100.0,-2.962226152420044,-11.194089889526367,-0.8026561141014099
772,44200.0,2.6611552238464355,-7.73207426071167,0.4339490532875061
773,44300.0,2.6611552238464355,-7.73207426071167,0.4339490532875061
774,44400.0,-3.878606796264648,-6.867767810821532,-0.4423287510871887
775,44500.0,-3.878606796264648,-6.867767810821532,-0.4423287510871887
776,44600.0,-2.207453966140747,-17.044919967651367,6.51641845703125
777,44700.0,-3.449446201324463,-14.501081466674805,3.9402575492858887
778,44800.0,-3.449446201324463,-14.501081466674805,3.9402575492858887
779,44900.0,1.8812439441680908,-9.30386734008789,-0.0999579206109047
780,44000.0,-2.962226152420044,-11.194089889526367,-0.8026561141014099
781,44100.0,-2.962226152420044,-11.194089889526367,-0.8026561141014099
782,44200.0,2.6611552238464355,-7.73207426071167,0.4339490532875061
783,44300.0,2.6611552238464355,-7.73207426071167,0.4339490532875061
784,44400.0,-3.878606796264648,-6.867767810821532,-0.4423287510871887
785,44500.0,-3.878606796264648,-6.867767810821532,-0.4423287510871887
786,44600.0,-2.207453966140747,-17.044919967651367,6.51641845703125
787,44700.0,-3.449446201324463,-14.501081466674805,3.9402575492858887
788,44800.0,-3.449446201324463,-14.501081466674805,3.9402575492858887
789,44900.0,1.8812439441680908,-9.30386734008789,-0.0999579206109047
790,45000.0,1.8812439441680908,-9.30386734008789,-0.0999579206109047
791,45100.0,-0.3345896899700165,-9.983820915222168,-2.220622062683105
792,45200.0,-0.3345896899700165,-9.983820915222168,-2.220622062683105
793,45300.0,-1.6615760326385498,-10.249577522277832,1.5209165811538696
794,45400.0,-1.6615760326385498,-10.249577522277832,1.5209165811538696
795,45500.0,-0.3621230125427246,-8.65982723236084,-1.6466121673583984
796,45600.0,2.11946702003479,-7.850587368011475,1.0229226350784302
797,45700.0,2.11946702003479,-7.850587368011475,1.0229226350784302
798,45800.0,2.2571337223052983,-4.138976097106934,0.6739677786827087
799,45900.0,2.2571337223052983,-4.138976097106934,0.6739677786827087
800,45000.0,1.8812439441680908,-9.30386734008789,-0.0999579206109047
801,45100.0,-0.3345896899700165,-9.983820915222168,-2.220622062683105
802,45200.0,-0.3345896899700165,-9.983820915222168,-2.220622062683105
803,45300.0,-1.6615760326385498,-10.249577522277832,1.5209165811538696
804,45400.0,-1.6615760326385498,-10.249577522277832,1.5209165811538696
805,45500.0,-0.3621230125427246,-8.65982723236084,-1.6466121673583984
806,45600.0,2.11946702003479,-7.850587368011475,1.0229226350784302
807,45700.0,2.11946702003479,-7.850587368011475,1.0229226350784302
808,45800.0,2.2571337223052983,-4.138976097106934,0.6739677786827087
809,45900.0,2.2571337223052983,-4.138976097106934,0.6739677786827087
810,46000.0,-1.8692729473114011,-9.32541561126709,4.247313976287842
811,46100.0,-1.8692729473114011,-9.32541561126709,4.247313976287842
812,46200.0,-3.0699651241302486,-10.955866813659668,-3.614645957946777
813,46300.0,-3.0699651241302486,-10.955866813659668,-3.614645957946777
814,46400.0,-3.606266260147095,-10.615890502929688,-0.9564836025238036
815,46500.0,-0.4686649739742279,-9.625887870788574,-0.2902969419956207
816,46600.0,-0.4686649739742279,-9.625887870788574,-0.2902969419956207
817,46700.0,0.2082955539226532,-8.480262756347656,-0.33997663855552673
818,46800.0,0.2082955539226532,-8.480262756347656,-0.33997663855552673
819,46900.0,0.07661445438861847,-8.016386032104492,-3.3297359943389893
820,46000.0,-1.8692729473114011,-9.32541561126709,4.247313976287842
821,46100.0,-1.8692729473114011,-9.32541561126709,4.247313976287842
822,46200.0,-3.0699651241302486,-10.955866813659668,-3.614645957946777
823,46300.0,-3.0699651241302486,-10.955866813659668,-3.614645957946777
824,46400.0,-3.606266260147095,-10.615890502929688,-0.9564836025238036
825,46500.0,-0.4686649739742279,-9.625887870788574,-0.2902969419956207
826,46600.0,-0.4686649739742279,-9.625887870788574,-0.2902969419956207
827,46700.0,0.2082955539226532,-8.480262756347656,-0.33997663855552673
828,46800.0,0.2082955539226532,-8.480262756347656,-0.33997663855552673
829,46900.0,0.07661445438861847,-8.016386032104492,-3.3297359943389893
830,47000.0,0.07661445438861847,-8.016386032104492,-3.3297359943389893
831,47100.0,-1.0324994325637815,-7.643488883972168,-0.4584896266460418
832,47200.0,-1.0324994325637815,-7.643488883972168,-0.4584896266460418
833,47300.0,-0.9463081955909728,-12.980164527893065,2.0452468395233154
834,47400.0,0.026336219161748886,-6.8557963371276855,0.05686229094862937
835,47500.0,0.026336219161748886,-6.8557963371276855,0.05686229094862937
836,47600.0,-0.029927521944046017,-10.037092208862305,2.694674015045166
837,47700.0,-0.029927521944046017,-10.037092208862305,2.694674015045166
838,47800.0,-0.9941922426223756,-8.922591209411621,1.3509283065795898
839,47900.0,-0.9941922426223756,-8.922591209411621,1.3509283065795898
840,47000.0,0.07661445438861847,-8.016386032104492,-3.3297359943389893
841,47100.0,-1.0324994325637815,-7.643488883972168,-0.4584896266460418
842,47200.0,-1.0324994325637815,-7.643488883972168,-0.4584896266460418
843,47300.0,-0.9463081955909728,-12.980164527893065,2.0452468395233154
844,47400.0,0.026336219161748886,-6.8557963371276855,0.05686229094862937
845,47500.0,0.026336219161748886,-6.8557963371276855,0.05686229094862937
846,47600.0,-0.029927521944046017,-10.037092208862305,2.694674015045166
847,47700.0,-0.029927521944046017,-10.037092208862305,2.694674015045166
848,47800.0,-0.9941922426223756,-8.922591209411621,1.3509283065795898
849,47900.0,-0.9941922426223756,-8.922591209411621,1.3509283065795898
850,48000.0,-1.9764134883880613,-9.287108421325684,1.5089455842971802
851,48100.0,-1.9764134883880613,-9.287108421325684,1.5089455842971802
852,48200.0,-0.8122329115867615,-8.425195693969728,1.0983400344848633
853,48300.0,-0.5141547918319702,-7.97329044342041,1.1516109704971311
854,48400.0,-0.5141547918319702,-7.97329044342041,1.1516109704971311
855,48500.0,-1.2539631128311155,-10.70746898651123,-2.990956544876098
856,48600.0,-1.2539631128311155,-10.70746898651123,-2.990956544876098
857,48700.0,1.1097124814987185,-8.939949035644531,0.16879121959209442
858,48800.0,1.1097124814987185,-8.939949035644531,0.16879121959209442
859,48900.0,-0.6470330357551575,-9.396642684936523,-1.0588357448577879
860,48000.0,-1.9764134883880613,-9.287108421325684,1.5089455842971802
861,48100.0,-1.9764134883880613,-9.287108421325684,1.5089455842971802
862,48200.0,-0.8122329115867615,-8.425195693969728,1.0983400344848633
863,48300.0,-0.5141547918319702,-7.97329044342041,1.1516109704971311
864,48400.0,-0.5141547918319702,-7.97329044342041,1.1516109704971311
865,48500.0,-1.2539631128311155,-10.70746898651123,-2.990956544876098
866,48600.0,-1.2539631128311155,-10.70746898651123,-2.990956544876098
867,48700.0,1.1097124814987185,-8.939949035644531,0.16879121959209442
868,48800.0,1.1097124814987185,-8.939949035644531,0.16879121959209442
869,48900.0,-0.6470330357551575,-9.396642684936523,-1.0588357448577879
870,49000.0,-0.6470330357551575,-9.396642684936523,-1.0588357448577879
871,49100.0,-1.0157400369644165,-9.41519832611084,-0.6637924313545227
872,49200.0,-1.6675615310668943,-9.537900924682617,-1.2096704244613647
873,49300.0,-1.6675615310668943,-9.537900924682617,-1.2096704244613647
874,49400.0,1.2503718137741089,-7.096413612365723,-5.139752388000488
875,49500.0,1.2503718137741089,-7.096413612365723,-5.139752388000488
876,49600.0,0.7380126714706421,-8.692748069763184,1.1689690351486206
877,49700.0,0.7380126714706421,-8.692748069763184,1.1689690351486206
878,49800.0,0.4991910457611084,-7.4082584381103525,-2.4618380069732666
879,49900.0,0.4991910457611084,-7.4082584381103525,-2.4618380069732666
880,49000.0,-0.6470330357551575,-9.396642684936523,-1.0588357448577879
881,49100.0,-1.0157400369644165,-9.41519832611084,-0.6637924313545227
882,49200.0,-1.6675615310668943,-9.537900924682617,-1.2096704244613647
883,49300.0,-1.6675615310668943,-9.537900924682617,-1.2096704244613647
884,49400.0,1.2503718137741089,-7.096413612365723,-5.139752388000488
885,49500.0,1.2503718137741089,-7.096413612365723,-5.139752388000488
886,49600.0,0.7380126714706421,-8.692748069763184,1.1689690351486206
887,49700.0,0.7380126714706421,-8.692748069763184,1.1689690351486206
888,49800.0,0.4991910457611084,-7.4082584381103525,-2.4618380069732666
889,49900.0,0.4991910457611084,-7.4082584381103525,-2.4618380069732666
890,50000.0,-3.4656069278717037,-15.555727005004885,2.767697095870972
891,50100.0,0.6829460263252258,-9.552266120910645,1.371279001235962
892,50200.0,0.6829460263252258,-9.552266120910645,1.371279001235962
893,50300.0,-1.3455413579940796,-9.208099365234377,1.9907786846160889
894,50400.0,-1.3455413579940796,-9.208099365234377,1.9907786846160889
895,50500.0,-0.4626794755458832,-8.453327178955076,2.24935245513916
896,50600.0,-0.4626794755458832,-8.453327178955076,2.24935245513916
897,50700.0,-0.997184991836548,-9.013570785522461,-0.507570743560791
898,50800.0,-0.997184991836548,-9.013570785522461,-0.507570743560791
899,50900.0,0.9014169573783876,-8.321047782897951,1.9279309511184688
900,50000.0,-3.4656069278717037,-15.555727005004885,2.767697095870972
901,50100.0,0.6829460263252258,-9.552266120910645,1.371279001235962
902,50200.0,0.6829460263252258,-9.552266120910645,1.371279001235962
903,50300.0,-1.3455413579940796,-9.208099365234377,1.9907786846160889
904,50400.0,-1.3455413579940796,-9.208099365234377,1.9907786846160889
905,50500.0,-0.4626794755458832,-8.453327178955076,2.24935245513916
906,50600.0,-0.4626794755458832,-8.453327178955076,2.24935245513916
907,50700.0,-0.997184991836548,-9.013570785522461,-0.507570743560791
908,50800.0,-0.997184991836548,-9.013570785522461,-0.507570743560791
909,50900.0,0.9014169573783876,-8.321047782897951,1.9279309511184688
910,51000.0,-1.1162965297698977,-8.742427825927733,2.9263129234313965
911,51100.0,-1.1162965297698977,-8.742427825927733,2.9263129234313965
912,51200.0,-0.5602431893348694,-11.820772171020508,-5.4252610206604
913,51300.0,-0.5602431893348694,-11.820772171020508,-5.4252610206604
914,51400.0,0.13168109953403473,-9.280524253845217,-0.7852981686592102
915,51500.0,0.13168109953403473,-9.280524253845217,-0.7852981686592102
916,51600.0,-0.5057750940322876,-9.329007148742676,-1.4077905416488647
917,51700.0,-0.5057750940322876,-9.329007148742676,-1.4077905416488647
918,51800.0,-1.6789339780807495,-8.866327285766602,-0.6165069341659546
919,51900.0,-2.4672248363494877,-9.260173797607422,0.2472013235092163
920,51000.0,-1.1162965297698977,-8.742427825927733,2.9263129234313965
921,51100.0,-1.1162965297698977,-8.742427825927733,2.9263129234313965
922,51200.0,-0.5602431893348694,-11.820772171020508,-5.4252610206604
923,51300.0,-0.5602431893348694,-11.820772171020508,-5.4252610206604
924,51400.0,0.13168109953403473,-9.280524253845217,-0.7852981686592102
925,51500.0,0.13168109953403473,-9.280524253845217,-0.7852981686592102
926,51600.0,-0.5057750940322876,-9.329007148742676,-1.4077905416488647
927,51700.0,-0.5057750940322876,-9.329007148742676,-1.4077905416488647
928,51800.0,-1.6789339780807495,-8.866327285766602,-0.6165069341659546
929,51900.0,-2.4672248363494877,-9.260173797607422,0.2472013235092163
930,52000.0,-2.4672248363494877,-9.260173797607422,0.2472013235092163
931,52100.0,-3.4464533329010014,-8.483853340148926,0.6063315868377686
932,52200.0,-3.4464533329010014,-8.483853340148926,0.6063315868377686
933,52300.0,1.499967336654663,-12.607866287231445,1.9494787454605105
934,52400.0,1.499967336654663,-12.607866287231445,1.9494787454605105
935,52500.0,0.9888052940368652,-7.9200191497802725,1.5125368833541868
936,52600.0,0.9888052940368652,-7.9200191497802725,1.5125368833541868
937,52700.0,-0.8367735147476196,-8.780136108398438,1.9800047874450684
938,52800.0,-4.124012470245361,-10.441712379455566,1.9674352407455444
939,52900.0,-4.124012470245361,-10.441712379455566,1.9674352407455444
940,52000.0,-2.4672248363494877,-9.260173797607422,0.2472013235092163
941,52100.0,-3.4464533329010014,-8.483853340148926,0.6063315868377686
942,52200.0,-3.4464533329010014,-8.483853340148926,0.6063315868377686
943,52300.0,1.499967336654663,-12.607866287231445,1.9494787454605105
944,52400.0,1.499967336654663,-12.607866287231445,1.9494787454605105
945,52500.0,0.9888052940368652,-7.9200191497802725,1.5125368833541868
946,52600.0,0.9888052940368652,-7.9200191497802725,1.5125368833541868
947,52700.0,-0.8367735147476196,-8.780136108398438,1.9800047874450684
948,52800.0,-4.124012470245361,-10.441712379455566,1.9674352407455444
949,52900.0,-4.124012470245361,-10.441712379455566,1.9674352407455444
950,53000.0,-1.8596961498260496,-8.389881134033201,0.9858125448226928
951,53100.0,-1.8596961498260496,-8.389881134033201,0.9858125448226928
952,53200.0,-0.6009446382522583,-8.602965354919434,2.1936872005462646
953,53300.0,-0.6009446382522583,-8.602965354919434,2.1936872005462646
954,53400.0,1.3431471586227417,-9.786299705505373,-1.1420341730117798
955,53500.0,1.3431471586227417,-9.786299705505373,-1.1420341730117798
956,53600.0,-1.4185645580291748,-10.383652687072754,-1.809417963027954
957,53700.0,-0.1951274424791336,-9.333196640014648,-0.20949265360832212
958,53800.0,-0.1951274424791336,-9.333196640014648,-0.20949265360832212
959,53900.0,0.2059013396501541,-9.331400871276855,-1.225232720375061
960,53000.0,-1.8596961498260496,-8.389881134033201,0.9858125448226928
961,53100.0,-1.8596961498260496,-8.389881134033201,0.9858125448226928
962,53200.0,-0.6009446382522583,-8.602965354919434,2.1936872005462646
963,53300.0,-0.6009446382522583,-8.602965354919434,2.1936872005462646
964,53400.0,1.3431471586227417,-9.786299705505373,-1.1420341730117798
965,53500.0,1.3431471586227417,-9.786299705505373,-1.1420341730117798
966,53600.0,-1.4185645580291748,-10.383652687072754,-1.809417963027954
967,53700.0,-0.1951274424791336,-9.333196640014648,-0.20949265360832212
968,53800.0,-0.1951274424791336,-9.333196640014648,-0.20949265360832212
969,53900.0,0.2059013396501541,-9.331400871276855,-1.225232720375061
970,54000.0,0.2059013396501541,-9.331400871276855,-1.225232720375061
971,54100.0,-1.5963339805603027,-8.526948928833008,-0.5105634927749634
972,54200.0,-1.5963339805603027,-8.526948928833008,-0.5105634927749634
973,54300.0,-2.2439656257629395,-7.916428089141847,-0.3902548849582672
974,54400.0,-2.2439656257629395,-7.916428089141847,-0.3902548849582672
975,54500.0,0.09935937076807022,-12.535441398620605,2.7928361892700195
976,54600.0,1.0905588865280151,-6.658275127410889,0.33339259028434753
977,54700.0,1.0905588865280151,-6.658275127410889,0.33339259028434753
978,54800.0,-3.181894063949585,-11.753734588623047,8.647257804870605
979,54900.0,-3.181894063949585,-11.753734588623047,8.647257804870605
980,54000.0,0.2059013396501541,-9.331400871276855,-1.225232720375061
981,54100.0,-1.5963339805603027,-8.526948928833008,-0.5105634927749634
982,54200.0,-1.5963339805603027,-8.526948928833008,-0.5105634927749634
983,54300.0,-2.2439656257629395,-7.916428089141847,-0.3902548849582672
984,54400.0,-2.2439656257629395,-7.916428089141847,-0.3902548849582672
985,54500.0,0.09935937076807022,-12.535441398620605,2.7928361892700195
986,54600.0,1.0905588865280151,-6.658275127410889,0.33339259028434753
987,54700.0,1.0905588865280151,-6.658275127410889,0.33339259028434753
988,54800.0,-3.181894063949585,-11.753734588623047,8.647257804870605
989,54900.0,-3.181894063949585,-11.753734588623047,8.647257804870605
990,55000.0,-2.8185739517211914,-9.111733436584473,0.8529343605041504
991,55100.0,-2.8185739517211914,-9.111733436584473,0.8529343605041504
992,55200.0,0.7146692276000977,-7.913434982299805,1.2084733247756958
993,55300.0,0.7146692276000977,-7.913434982299805,1.2084733247756958
994,55400.0,-0.6141127347946167,-8.711302757263184,1.9512743949890137
995,55500.0,-2.5228900909423833,-11.282675743103027,-4.705204963684082
996,55600.0,-2.5228900909423833,-11.282675743103027,-4.705204963684082
997,55700.0,-1.268328309059143,-9.782708168029783,-0.44532153010368347
998,55800.0,-1.268328309059143,-9.782708168029783,-0.44532153010368347
999,55900.0,-1.416170358657837,-9.651026725769043,-0.15023615956306458
1000,55000.0,-2.8185739517211914,-9.111733436584473,0.8529343605041504
1001,55100.0,-2.8185739517211914,-9.111733436584473,0.8529343605041504
1002,55200.0,0.7146692276000977,-7.913434982299805,1.2084733247756958
1003,55300.0,0.7146692276000977,-7.913434982299805,1.2084733247756958
1004,55400.0,-0.6141127347946167,-8.711302757263184,1.9512743949890137
1005,55500.0,-2.5228900909423833,-11.282675743103027,-4.705204963684082
1006,55600.0,-2.5228900909423833,-11.282675743103027,-4.705204963684082
1007,55700.0,-1.268328309059143,-9.782708168029783,-0.44532153010368347
1008,55800.0,-1.268328309059143,-9.782708168029783,-0.44532153010368347
1009,55900.0,-1.416170358657837,-9.651026725769043,-0.15023615956306458
1010,56000.0,-1.416170358657837,-9.651026725769043,-0.15023615956306458
1011,56100.0,-1.4969745874404907,-9.72285270690918,-0.018555063754320145
1012,56200.0,-1.4969745874404907,-9.72285270690918,-0.018555063754320145
1013,56300.0,0.8690952062606812,-6.666056156158447,0.3214215636253357
1014,56400.0,0.5368997454643251,-7.628525257110597,-0.5285200476646423
1015,56500.0,0.5368997454643251,-7.628525257110597,-0.5285200476646423
1016,56600.0,-1.9584569931030276,-14.824297904968262,1.7298107147216797
1017,56700.0,-1.9584569931030276,-14.824297904968262,1.7298107147216797
1018,56800.0,-1.6328455209732056,-11.933300018310547,1.6124948263168335
1019,56900.0,-1.6328455209732056,-11.933300018310547,1.6124948263168335
1020,56000.0,-1.416170358657837,-9.651026725769043,-0.15023615956306458
1021,56100.0,-1.4969745874404907,-9.72285270690918,-0.018555063754320145
1022,56200.0,-1.4969745874404907,-9.72285270690918,-0.018555063754320145
1023,56300.0,0.8690952062606812,-6.666056156158447,0.3214215636253357
1024,56400.0,0.5368997454643251,-7.628525257110597,-0.5285200476646423
1025,56500.0,0.5368997454643251,-7.628525257110597,-0.5285200476646423
1026,56600.0,-1.9584569931030276,-14.824297904968262,1.7298107147216797
1027,56700.0,-1.9584569931030276,-14.824297904968262,1.7298107147216797
1028,56800.0,-1.6328455209732056,-11.933300018310547,1.6124948263168335
1029,56900.0,-1.6328455209732056,-11.933300018310547,1.6124948263168335
1030,57000.0,-0.7284358739852905,-8.105569839477539,2.2930467128753658
1031,57100.0,-0.7284358739852905,-8.105569839477539,2.2930467128753658
1032,57200.0,-1.7172411680221558,-8.947132110595703,-0.01975216343998909
1033,57300.0,-0.5171475410461426,-8.82323169708252,0.2783259451389313
1034,57400.0,-0.5171475410461426,-8.82323169708252,0.2783259451389313
1035,57500.0,-0.2495955228805542,-9.035717010498047,1.0558429956436155
1036,57600.0,-0.2495955228805542,-9.035717010498047,1.0558429956436155
1037,57700.0,-0.21607670187950132,-9.699509620666504,3.5595793724060063
1038,57800.0,-0.21607670187950132,-9.699509620666504,3.5595793724060063
1039,57900.0,-1.5735890865325928,-8.7669677734375,-1.8896236419677732
1040,57000.0,-0.7284358739852905,-8.105569839477539,2.2930467128753658
1041,57100.0,-0.7284358739852905,-8.105569839477539,2.2930467128753658
1042,57200.0,-1.7172411680221558,-8.947132110595703,-0.01975216343998909
1043,57300.0,-0.5171475410461426,-8.82323169708252,0.2783259451389313
1044,57400.0,-0.5171475410461426,-8.82323169708252,0.2783259451389313
1045,57500.0,-0.2495955228805542,-9.035717010498047,1.0558429956436155
1046,57600.0,-0.2495955228805542,-9.035717010498047,1.0558429956436155
1047,57700.0,-0.21607670187950132,-9.699509620666504,3.5595793724060063
1048,57800.0,-0.21607670187950132,-9.699509620666504,3.5595793724060063
1049,57900.0,-1.5735890865325928,-8.7669677734375,-1.8896236419677732
1050,58000.0,-1.5735890865325928,-8.7669677734375,-1.8896236419677732
1051,58100.0,-2.672527551651001,-9.106945037841797,-1.4622586965560913
1052,58200.0,-1.2431892156600952,-9.473258018493652,-0.9582792520523072
1053,58300.0,-1.2431892156600952,-9.473258018493652,-0.9582792520523072
1054,58400.0,-1.2413935661315918,-9.103952407836914,-0.0802057534456253
1055,58500.0,-1.2413935661315918,-9.103952407836914,-0.0802057534456253
1056,58600.0,-1.558625340461731,-8.82203483581543,-0.9014169573783876
1057,58700.0,-1.558625340461731,-8.82203483581543,-0.9014169573783876
1058,58800.0,-0.8218097090721129,-8.377311706542969,-0.2519897222518921
1059,58900.0,-0.8218097090721129,-8.377311706542969,-0.2519897222518921
1060,58000.0,-1.5735890865325928,-8.7669677734375,-1.8896236419677732
1061,58100.0,-2.672527551651001,-9.106945037841797,-1.4622586965560913
1062,58200.0,-1.2431892156600952,-9.473258018493652,-0.9582792520523072
1063,58300.0,-1.2431892156600952,-9.473258018493652,-0.9582792520523072
1064,58400.0,-1.2413935661315918,-9.103952407836914,-0.0802057534456253
1065,58500.0,-1.2413935661315918,-9.103952407836914,-0.0802057534456253
1066,58600.0,-1.558625340461731,-8.82203483581543,-0.9014169573783876
1067,58700.0,-1.558625340461731,-8.82203483581543,-0.9014169573783876
1068,58800.0,-0.8218097090721129,-8.377311706542969,-0.2519897222518921
1069,58900.0,-0.8218097090721129,-8.377311706542969,-0.2519897222518921
1070,59000.0,-4.561553001403809,-12.008118629455565,1.9674352407455444
1071,59100.0,1.3000515699386597,-10.172364234924316,-1.6944962739944458
1072,59200.0,1.3000515699386597,-10.172364234924316,-1.6944962739944458
1073,59300.0,1.6915035247802734,-8.844181060791016,2.1475989818573002
1074,59400.0,1.6915035247802734,-8.844181060791016,2.1475989818573002
1075,59500.0,-1.8740613460540767,-8.352770805358888,1.7088614702224731
1076,59600.0,-1.8740613460540767,-8.352770805358888,1.7088614702224731
1077,59700.0,2.1888988018035893,-11.659762382507324,3.1693243980407715
1078,59800.0,2.1888988018035893,-11.659762382507324,3.1693243980407715
1079,59900.0,-1.136048674583435,-11.37545108795166,0.8265981078147888
1080,59000.0,-4.561553001403809,-12.008118629455565,1.9674352407455444
1081,59100.0,1.3000515699386597,-10.172364234924316,-1.6944962739944458
1082,59200.0,1.3000515699386597,-10.172364234924316,-1.6944962739944458
1083,59300.0,1.6915035247802734,-8.844181060791016,2.1475989818573002
1084,59400.0,1.6915035247802734,-8.844181060791016,2.1475989818573002
1085,59500.0,-1.8740613460540767,-8.352770805358888,1.7088614702224731
1086,59600.0,-1.8740613460540767,-8.352770805358888,1.7088614702224731
1087,59700.0,2.1888988018035893,-11.659762382507324,3.1693243980407715
1088,59800.0,2.1888988018035893,-11.659762382507324,3.1693243980407715
1089,59900.0,-1.136048674583435,-11.37545108795166,0.8265981078147888
1090,60000.0,-1.136048674583435,-11.37545108795166,0.8265981078147888
1091,60100.0,-1.069011092185974,-8.729259490966799,-1.3778630495071411
1092,60200.0,-2.6803088188171387,-9.489418029785156,-2.717418909072876
1093,60300.0,-2.6803088188171387,-9.489418029785156,-2.717418909072876
1094,60400.0,0.8631097078323364,-9.592369079589844,-0.1777694821357727
1095,60500.0,0.8631097078323364,-9.592369079589844,-0.1777694821357727
1096,60600.0,-1.1162965297698977,-10.141240119934082,-2.5923218727111816
1097,60700.0,-1.1162965297698977,-10.141240119934082,-2.5923218727111816
1098,60800.0,1.6735470294952393,-8.422801971435549,1.3479355573654177
1099,60900.0,-0.9193734526634216,-9.691129684448242,-2.8610711097717285
1100,60000.0,-1.136048674583435,-11.37545108795166,0.8265981078147888
1101,60100.0,-1.069011092185974,-8.729259490966799,-1.3778630495071411
1102,60200.0,-2.6803088188171387,-9.489418029785156,-2.717418909072876
1103,60300.0,-2.6803088188171387,-9.489418029785156,-2.717418909072876
1104,60400.0,0.8631097078323364,-9.592369079589844,-0.1777694821357727
1105,60500.0,0.8631097078323364,-9.592369079589844,-0.1777694821357727
1106,60600.0,-1.1162965297698977,-10.141240119934082,-2.5923218727111816
1107,60700.0,-1.1162965297698977,-10.141240119934082,-2.5923218727111816
1108,60800.0,1.6735470294952393,-8.422801971435549,1.3479355573654177
1109,60900.0,-0.9193734526634216,-9.691129684448242,-2.8610711097717285
1110,61000.0,-0.9193734526634216,-9.691129684448242,-2.8610711097717285
1111,61100.0,1.6286556720733645,-11.56279754638672,1.228824019432068
1112,61200.0,1.6286556720733645,-11.56279754638672,1.228824019432068
1113,61300.0,0.6003460884094238,-8.348581314086914,0.4315548539161682
1114,61400.0,0.6003460884094238,-8.348581314086914,0.4315548539161682
1115,61500.0,-1.9309237003326416,-8.732851028442383,1.4951789379119873
1116,61600.0,-1.9309237003326416,-8.732851028442383,1.4951789379119873
1117,61700.0,-7.158064365386963,-18.879478454589844,6.370372295379639
1118,61800.0,-4.392761707305908,-9.54209041595459,-1.6023194789886477
1119,61900.0,-4.392761707305908,-9.54209041595459,-1.6023194789886477
1120,61000.0,-0.9193734526634216,-9.691129684448242,-2.8610711097717285
1121,61100.0,1.6286556720733645,-11.56279754638672,1.228824019432068
1122,61200.0,1.6286556720733645,-11.56279754638672,1.228824019432068
1123,61300.0,0.6003460884094238,-8.348581314086914,0.4315548539161682
1124,61400.0,0.6003460884094238,-8.348581314086914,0.4315548539161682
1125,61500.0,-1.9309237003326416,-8.732851028442383,1.4951789379119873
1126,61600.0,-1.9309237003326416,-8.732851028442383,1.4951789379119873
1127,61700.0,-7.158064365386963,-18.879478454589844,6.370372295379639
1128,61800.0,-4.392761707305908,-9.54209041595459,-1.6023194789886477
1129,61900.0,-4.392761707305908,-9.54209041595459,-1.6023194789886477
1130,62000.0,1.27191960811615,-9.68813705444336,-0.5171475410461426
1131,62100.0,1.27191960811615,-9.68813705444336,-0.5171475410461426
1132,62200.0,-1.0983400344848633,-9.651026725769043,-0.8744821548461914
1133,62300.0,-1.0983400344848633,-9.651026725769043,-0.8744821548461914
1134,62400.0,-1.413776159286499,-11.756129264831545,0.5321113467216492
1135,62500.0,-1.413776159286499,-11.756129264831545,0.5321113467216492
1136,62600.0,-0.396240383386612,-9.773131370544434,-2.630629062652588
1137,62700.0,-0.396240383386612,-9.773131370544434,-2.630629062652588
1138,62800.0,-2.1260511875152592,-9.998186111450195,-1.6789339780807495
1139,62900.0,-2.3313539028167725,-6.936600685119629,-0.5201402902603149
1140,62000.0,1.27191960811615,-9.68813705444336,-0.5171475410461426
1141,62100.0,1.27191960811615,-9.68813705444336,-0.5171475410461426
1142,62200.0,-1.0983400344848633,-9.651026725769043,-0.8744821548461914
1143,62300.0,-1.0983400344848633,-9.651026725769043,-0.8744821548461914
1144,62400.0,-1.413776159286499,-11.756129264831545,0.5321113467216492
1145,62500.0,-1.413776159286499,-11.756129264831545,0.5321113467216492
1146,62600.0,-0.396240383386612,-9.773131370544434,-2.630629062652588
1147,62700.0,-0.396240383386612,-9.773131370544434,-2.630629062652588
1148,62800.0,-2.1260511875152592,-9.998186111450195,-1.6789339780807495
1149,62900.0,-2.3313539028167725,-6.936600685119629,-0.5201402902603149
1150,63000.0,-2.3313539028167725,-6.936600685119629,-0.5201402902603149
1151,63100.0,-3.1675288677215576,-15.421052932739258,-1.2527660131454468
1152,63200.0,-3.1675288677215576,-15.421052932739258,-1.2527660131454468
1153,63300.0,-0.10594342648983003,-7.406463146209718,0.4513070285320282
1154,63400.0,-0.10594342648983003,-7.406463146209718,0.4513070285320282
1155,63500.0,-0.984615445137024,-8.943540573120117,0.1125274822115898
1156,63600.0,-0.984615445137024,-8.943540573120117,0.1125274822115898
1157,63700.0,-1.6921020746231081,-9.779715538024902,2.846705913543701
1158,63800.0,0.6901286244392395,-8.06666374206543,1.3491326570510864
1159,63900.0,0.6901286244392395,-8.06666374206543,1.3491326570510864
1160,63000.0,-2.3313539028167725,-6.936600685119629,-0.5201402902603149
1161,63100.0,-3.1675288677215576,-15.421052932739258,-1.2527660131454468
1162,63200.0,-3.1675288677215576,-15.421052932739258,-1.2527660131454468
1163,63300.0,-0.10594342648983003,-7.406463146209718,0.4513070285320282
1164,63400.0,-0.10594342648983003,-7.406463146209718,0.4513070285320282
1165,63500.0,-0.984615445137024,-8.943540573120117,0.1125274822115898
1166,63600.0,-0.984615445137024,-8.943540573120117,0.1125274822115898
1167,63700.0,-1.6921020746231081,-9.779715538024902,2.846705913543701
1168,63800.0,0.6901286244392395,-8.06666374206543,1.3491326570510864
1169,63900.0,0.6901286244392395,-8.06666374206543,1.3491326570510864
1170,64000.0,-2.470816135406494,-8.507795333862305,2.342127799987793
1171,64100.0,-2.470816135406494,-8.507795333862305,2.342127799987793
1172,64200.0,1.0079588890075684,-11.8411226272583,-0.4525041282176971
1173,64300.0,1.0079588890075684,-11.8411226272583,-0.4525041282176971
1174,64400.0,2.041056871414185,-9.043498039245604,0.5398924946784973
1175,64500.0,2.041056871414185,-9.043498039245604,0.5398924946784973
1176,64600.0,-1.6238672733306885,-9.945513725280762,0.7661445140838623
1177,64700.0,-2.6162638664245605,-9.582792282104492,0.09935937076807022
1178,64800.0,-2.6162638664245605,-9.582792282104492,0.09935937076807022
1179,64900.0,-1.2324153184890747,-8.662221908569336,-0.08499415963888167
1180,64000.0,-2.470816135406494,-8.507795333862305,2.342127799987793
1181,64100.0,-2.470816135406494,-8.507795333862305,2.342127799987793
1182,64200.0,1.0079588890075684,-11.8411226272583,-0.4525041282176971
1183,64300.0,1.0079588890075684,-11.8411226272583,-0.4525041282176971
1184,64400.0,2.041056871414185,-9.043498039245604,0.5398924946784973
1185,64500.0,2.041056871414185,-9.043498039245604,0.5398924946784973
1186,64600.0,-1.6238672733306885,-9.945513725280762,0.7661445140838623
1187,64700.0,-2.6162638664245605,-9.582792282104492,0.09935937076807022
1188,64800.0,-2.6162638664245605,-9.582792282104492,0.09935937076807022
1189,64900.0,-1.2324153184890747,-8.662221908569336,-0.08499415963888167
1190,65000.0,-1.2324153184890747,-8.662221908569336,-0.08499415963888167
1191,65100.0,-1.8752584457397459,-8.385092735290527,-0.8846575021743774
1192,65200.0,-1.8752584457397459,-8.385092735290527,-0.8846575021743774
1193,65300.0,0.6554127335548401,-14.137761116027832,3.1340100765228267
1194,65400.0,0.6554127335548401,-14.137761116027832,3.1340100765228267
1195,65500.0,-0.11611878126859665,-8.734047889709473,0.7727286219596863
1196,65600.0,0.32261869311332697,-9.821015357971193,0.8038532137870789
1197,65700.0,0.32261869311332697,-9.821015357971193,0.8038532137870789
1198,65800.0,-1.4281413555145264,-9.884461402893066,3.4877533912658687
1199,65900.0,-1.4281413555145264,-9.884461402893066,3.4877533912658687
1200,65000.0,-1.2324153184890747,-8.662221908569336,-0.08499415963888167
1201,65100.0,-1.8752584457397459,-8.385092735290527,-0.8846575021743774
1202,65200.0,-1.8752584457397459,-8.385092735290527,-0.8846575021743774
1203,65300.0,0.6554127335548401,-14.137761116027832,3.1340100765228267
1204,65400.0,0.6554127335548401,-14.137761116027832,3.1340100765228267
1205,65500.0,-0.11611878126859665,-8.734047889709473,0.7727286219596863
1206,65600.0,0.32261869311332697,-9.821015357971193,0.8038532137870789
1207,65700.0,0.32261869311332697,-9.821015357971193,0.8038532137870789
1208,65800.0,-1.4281413555145264,-9.884461402893066,3.4877533912658687
1209,65900.0,-1.4281413555145264,-9.884461402893066,3.4877533912658687
1210,66000.0,0.8918401598930359,-7.609970092773437,-2.098517894744873
1211,66100.0,0.8918401598930359,-7.609970092773437,-2.098517894744873
1212,66200.0,0.900818407535553,-7.5842323303222665,0.4602852761745453
1213,66300.0,0.900818407535553,-7.5842323303222665,0.4602852761745453
1214,66400.0,0.025737667456269264,-11.532869338989258,-2.355295896530152
1215,66500.0,-1.1725603342056274,-8.814851760864258,-2.2619221210479736
1216,66600.0,-1.1725603342056274,-8.814851760864258,-2.2619221210479736
1217,66700.0,-1.6621745824813845,-8.710704803466799,-0.8391677141189575
1218,66800.0,-1.6621745824813845,-8.710704803466799,-0.8391677141189575
1219,66900.0,-1.0301052331924438,-8.639476776123049,0.08439560979604721
1220,66000.0,0.8918401598930359,-7.609970092773437,-2.098517894744873
1221,66100.0,0.8918401598930359,-7.609970092773437,-2.098517894744873
1222,66200.0,0.900818407535553,-7.5842323303222665,0.4602852761745453
1223,66300.0,0.900818407535553,-7.5842323303222665,0.4602852761745453
1224,66400.0,0.025737667456269264,-11.532869338989258,-2.355295896530152
1225,66500.0,-1.1725603342056274,-8.814851760864258,-2.2619221210479736
1226,66600.0,-1.1725603342056274,-8.814851760864258,-2.2619221210479736
1227,66700.0,-1.6621745824813845,-8.710704803466799,-0.8391677141189575
1228,66800.0,-1.6621745824813845,-8.710704803466799,-0.8391677141189575
1229,66900.0,-1.0301052331924438,-8.639476776123049,0.08439560979604721
1230,67000.0,-1.0301052331924438,-8.639476776123049,0.08439560979604721
1231,67100.0,-0.8110358119010925,-9.989208221435547,-0.3902548849582672
1232,67200.0,0.606930136680603,-8.366538047790527,1.0235211849212646
1233,67300.0,0.606930136680603,-8.366538047790527,1.0235211849212646
1234,67400.0,-1.7292121648788452,-9.476250648498537,-0.641047477722168
1235,67500.0,-1.7292121648788452,-9.476250648498537,-0.641047477722168
1236,67600.0,-0.029927521944046017,-11.00015926361084,1.655590534210205
1237,67700.0,-0.029927521944046017,-11.00015926361084,1.655590534210205
1238,67800.0,2.737769603729248,-9.55585765838623,0.5213374495506287
1239,67900.0,2.737769603729248,-9.55585765838623,0.5213374495506287
1240,67000.0,-1.0301052331924438,-8.639476776123049,0.08439560979604721
1241,67100.0,-0.8110358119010925,-9.989208221435547,-0.3902548849582672
1242,67200.0,0.606930136680603,-8.366538047790527,1.0235211849212646
1243,67300.0,0.606930136680603,-8.366538047790527,1.0235211849212646
1244,67400.0,-1.7292121648788452,-9.476250648498537,-0.641047477722168
1245,67500.0,-1.7292121648788452,-9.476250648498537,-0.641047477722168
1246,67600.0,-0.029927521944046017,-11.00015926361084,1.655590534210205
1247,67700.0,-0.029927521944046017,-11.00015926361084,1.655590534210205
1248,67800.0,2.737769603729248,-9.55585765838623,0.5213374495506287
1249,67900.0,2.737769603729248,-9.55585765838623,0.5213374495506287
1250,68000.0,0.5770025849342346,-9.515754699707033,1.0899603366851809
1251,68100.0,0.5770025849342346,-9.515754699707033,1.0899603366851809
1252,68200.0,-0.9858125448226928,-8.177395820617676,-0.4393360018730164
1253,68300.0,-0.4070142805576325,-8.932168006896973,0.3471592366695404
1254,68400.0,-0.4070142805576325,-8.932168006896973,0.3471592366695404
1255,68500.0,-4.127005100250243,-11.475408554077148,0.5901707410812378
1256,68600.0,-4.127005100250243,-11.475408554077148,0.5901707410812378
1257,68700.0,-6.187814235687256,-14.771625518798828,9.50617790222168
1258,68800.0,-6.187814235687256,-14.771625518798828,9.50617790222168
1259,68900.0,-4.646546840667725,-9.797073364257812,-0.8924387097358704
1260,68000.0,0.5770025849342346,-9.515754699707033,1.0899603366851809
1261,68100.0,0.5770025849342346,-9.515754699707033,1.0899603366851809
1262,68200.0,-0.9858125448226928,-8.177395820617676,-0.4393360018730164
1263,68300.0,-0.4070142805576325,-8.932168006896973,0.3471592366695404
1264,68400.0,-0.4070142805576325,-8.932168006896973,0.3471592366695404
1265,68500.0,-4.127005100250243,-11.475408554077148,0.5901707410812378
1266,68600.0,-4.127005100250243,-11.475408554077148,0.5901707410812378
1267,68700.0,-6.187814235687256,-14.771625518798828,9.50617790222168
1268,68800.0,-6.187814235687256,-14.771625518798828,9.50617790222168
1269,68900.0,-4.646546840667725,-9.797073364257812,-0.8924387097358704
1270,69000.0,-4.646546840667725,-9.797073364257812,-0.8924387097358704
1271,69100.0,-1.24917471408844,-10.153210639953613,-2.0500352382659908
1272,69200.0,1.2300211191177368,-8.796297073364258,-2.559401512145996
1273,69300.0,1.2300211191177368,-8.796297073364258,-2.559401512145996
1274,69400.0,-2.5767595767974854,-8.507197380065918,-0.4141969084739685
1275,69500.0,-2.5767595767974854,-8.507197380065918,-0.4141969084739685
1276,69600.0,0.3034650683403015,-10.645218849182127,0.3561375141143799
1277,69700.0,0.3034650683403015,-10.645218849182127,0.3561375141143799
1278,69800.0,0.5464765429496765,-7.959523677825928,1.954267144203186
1279,69900.0,0.5464765429496765,-7.959523677825928,1.954267144203186
1280,69000.0,-4.646546840667725,-9.797073364257812,-0.8924387097358704
1281,69100.0,-1.24917471408844,-10.153210639953613,-2.0500352382659908
1282,69200.0,1.2300211191177368,-8.796297073364258,-2.559401512145996
1283,69300.0,1.2300211191177368,-8.796297073364258,-2.559401512145996
1284,69400.0,-2.5767595767974854,-8.507197380065918,-0.4141969084739685
1285,69500.0,-2.5767595767974854,-8.507197380065918,-0.4141969084739685
1286,69600.0,0.3034650683403015,-10.645218849182127,0.3561375141143799
1287,69700.0,0.3034650683403015,-10.645218849182127,0.3561375141143799
1288,69800.0,0.5464765429496765,-7.959523677825928,1.954267144203186
1289,69900.0,0.5464765429496765,-7.959523677825928,1.954267144203186
1290,70000.0,-0.8421604633331299,-10.355521202087402,4.158728122711182
1291,70100.0,-0.8738836050033569,-8.67359447479248,0.18195933103561399
1292,70200.0,-0.8738836050033569,-8.67359447479248,0.18195933103561399
1293,70300.0,-0.4566939771175385,-8.946533203125,1.4167689085006714
1294,70400.0,-0.4566939771175385,-8.946533203125,1.4167689085006714
1295,70500.0,-0.13946224749088287,-7.537545680999756,1.6962919235229492
1296,70600.0,-0.13946224749088287,-7.537545680999756,1.6962919235229492
1297,70700.0,-3.2998085021972656,-11.572972297668455,-4.443039894104004
1298,70800.0,-3.2998085021972656,-11.572972297668455,-4.443039894104004
1299,70900.0,-1.4119805097579956,-9.284713745117188,-1.3084312677383425
1300,70000.0,-0.8421604633331299,-10.355521202087402,4.158728122711182
1301,70100.0,-0.8738836050033569,-8.67359447479248,0.18195933103561399
1302,70200.0,-0.8738836050033569,-8.67359447479248,0.18195933103561399
1303,70300.0,-0.4566939771175385,-8.946533203125,1.4167689085006714
1304,70400.0,-0.4566939771175385,-8.946533203125,1.4167689085006714
1305,70500.0,-0.13946224749088287,-7.537545680999756,1.6962919235229492
1306,70600.0,-0.13946224749088287,-7.537545680999756,1.6962919235229492
1307,70700.0,-3.2998085021972656,-11.572972297668455,-4.443039894104004
1308,70800.0,-3.2998085021972656,-11.572972297668455,-4.443039894104004
1309,70900.0,-1.4119805097579956,-9.284713745117188,-1.3084312677383425
1310,71000.0,-1.7495628595352173,-9.158419609069824,-1.5269020795822144
1311,71100.0,-1.7495628595352173,-9.158419609069824,-1.5269020795822144
1312,71200.0,0.872686505317688,-8.317456245422362,0.26815059781074524
1313,71300.0,0.872686505317688,-8.317456245422362,0.26815059781074524
1314,71400.0,-1.9590555429458616,-7.906252384185791,-0.2968810200691223
1315,71500.0,-1.9590555429458616,-7.906252384185791,-0.2968810200691223
1316,71600.0,-3.07415509223938,-11.575366973876953,0.1628057211637497
1317,71700.0,-3.07415509223938,-11.575366973876953,0.1628057211637497
1318,71800.0,-0.20111294090747836,-12.06617832183838,1.8183962106704712
1319,71900.0,2.477400302886963,-6.558915615081787,0.910993754863739
1320,71000.0,-1.7495628595352173,-9.158419609069824,-1.5269020795822144
1321,71100.0,-1.7495628595352173,-9.158419609069824,-1.5269020795822144
1322,71200.0,0.872686505317688,-8.317456245422362,0.26815059781074524
1323,71300.0,0.872686505317688,-8.317456245422362,0.26815059781074524
1324,71400.0,-1.9590555429458616,-7.906252384185791,-0.2968810200691223
1325,71500.0,-1.9590555429458616,-7.906252384185791,-0.2968810200691223
1326,71600.0,-3.07415509223938,-11.575366973876953,0.1628057211637497
1327,71700.0,-3.07415509223938,-11.575366973876953,0.1628057211637497
1328,71800.0,-0.20111294090747836,-12.06617832183838,1.8183962106704712
1329,71900.0,2.477400302886963,-6.558915615081787,0.910993754863739
1330,72000.0,2.477400302886963,-6.558915615081787,0.910993754863739
1331,72100.0,-0.7805097699165344,-9.148244857788086,2.085349798202514
1332,72200.0,-0.7805097699165344,-9.148244857788086,2.085349798202514
1333,72300.0,0.04728548228740692,-6.638522624969482,-0.6667851805686951
1334,72400.0,0.04728548228740692,-6.638522624969482,-0.6667851805686951
1335,72500.0,-2.801814556121826,-14.320319175720215,-1.6089035272598269
1336,72600.0,-2.801814556121826,-14.320319175720215,-1.6089035272598269
1337,72700.0,-0.16759411990642548,-11.759121894836426,-1.0732009410858154
1338,72800.0,-2.1218612194061284,-9.1662015914917,-1.5837644338607788
1339,72900.0,-2.1218612194061284,-9.1662015914917,-1.5837644338607788
1340,72000.0,2.477400302886963,-6.558915615081787,0.910993754863739
1341,72100.0,-0.7805097699165344,-9.148244857788086,2.085349798202514
1342,72200.0,-0.7805097699165344,-9.148244857788086,2.085349798202514
1343,72300.0,0.04728548228740692,-6.638522624969482,-0.6667851805686951
1344,72400.0,0.04728548228740692,-6.638522624969482,-0.6667851805686951
1345,72500.0,-2.801814556121826,-14.320319175720215,-1.6089035272598269
1346,72600.0,-2.801814556121826,-14.320319175720215,-1.6089035272598269
1347,72700.0,-0.16759411990642548,-11.759121894836426,-1.0732009410858154
1348,72800.0,-2.1218612194061284,-9.1662015914917,-1.5837644338607788
1349,72900.0,-2.1218612194061284,-9.1662015914917,-1.5837644338607788
1350,73000.0,-2.583343744277954,-8.860342025756836,-1.0139443874359129
1351,73100.0,-2.583343744277954,-8.860342025756836,-1.0139443874359129
1352,73200.0,-1.909974455833435,-9.388263702392578,-0.2992752194404602
1353,73300.0,-1.909974455833435,-9.388263702392578,-0.2992752194404602
1354,73400.0,-2.85448694229126,-7.152677536010742,-1.3072341680526731
1355,73500.0,-2.85448694229126,-7.152677536010742,-1.3072341680526731
1356,73600.0,-4.244320869445802,-9.249998092651367,-0.7026981711387634
1357,73700.0,-1.2653355598449707,-14.05456256866455,0.055665191262960434
1358,73800.0,-1.2653355598449707,-14.05456256866455,0.055665191262960434
1359,73900.0,2.8634653091430664,-5.764040470123291,-0.8319851160049438
1360,73000.0,-2.583343744277954,-8.860342025756836,-1.0139443874359129
1361,73100.0,-2.583343744277954,-8.860342025756836,-1.0139443874359129
1362,73200.0,-1.909974455833435,-9.388263702392578,-0.2992752194404602
1363,73300.0,-1.909974455833435,-9.388263702392578,-0.2992752194404602
1364,73400.0,-2.85448694229126,-7.152677536010742,-1.3072341680526731
1365,73500.0,-2.85448694229126,-7.152677536010742,-1.3072341680526731
1366,73600.0,-4.244320869445802,-9.249998092651367,-0.7026981711387634
1367,73700.0,-1.2653355598449707,-14.05456256866455,0.055665191262960434
1368,73800.0,-1.2653355598449707,-14.05456256866455,0.055665191262960434
1369,73900.0,2.8634653091430664,-5.764040470123291,-0.8319851160049438
1370,74000.0,2.8634653091430664,-5.764040470123291,-0.8319851160049438
1371,74100.0,-6.831255912780763,-13.156737327575685,12.327744483947756
1372,74200.0,-6.831255912780763,-13.156737327575685,12.327744483947756
1373,74300.0,-5.988496780395508,-5.5114521980285645,1.201290726661682
1374,74400.0,-5.988496780395508,-5.5114521980285645,1.201290726661682
1375,74500.0,2.6659436225891118,-8.45931339263916,-5.505466938018799
1376,74600.0,2.1954829692840576,-6.798335552215576,-4.554370403289795
1377,74700.0,2.1954829692840576,-6.798335552215576,-4.554370403289795
1378,74800.0,0.8738836050033569,-10.29865837097168,1.2300211191177368
1379,74900.0,0.8738836050033569,-10.29865837097168,1.2300211191177368
1380,74000.0,2.8634653091430664,-5.764040470123291,-0.8319851160049438
1381,74100.0,-6.831255912780763,-13.156737327575685,12.327744483947756
1382,74200.0,-6.831255912780763,-13.156737327575685,12.327744483947756
1383,74300.0,-5.988496780395508,-5.5114521980285645,1.201290726661682
1384,74400.0,-5.988496780395508,-5.5114521980285645,1.201290726661682
1385,74500.0,2.6659436225891118,-8.45931339263916,-5.505466938018799
1386,74600.0,2.1954829692840576,-6.798335552215576,-4.554370403289795
1387,74700.0,2.1954829692840576,-6.798335552215576,-4.554370403289795
1388,74800.0,0.8738836050033569,-10.29865837097168,1.2300211191177368
1389,74900.0,0.8738836050033569,-10.29865837097168,1.2300211191177368
1390,75000.0,-0.6979097723960876,-9.370306968688963,-0.2902969419956207
1391,75100.0,-0.6979097723960876,-9.370306968688963,-0.2902969419956207
1392,75200.0,-1.4431051015853882,-10.837952613830566,2.9316999912261963
1393,75300.0,-1.4431051015853882,-10.837952613830566,2.9316999912261963
1394,75400.0,-1.104325532913208,-10.496180534362793,-0.8355764150619507
1395,75500.0,0.7248445749282837,-9.111733436584473,-2.3086090087890625
1396,75600.0,0.7248445749282837,-9.111733436584473,-2.3086090087890625
1397,75700.0,-4.857835292816162,-11.511919975280762,5.185242176055908
1398,75800.0,-4.857835292816162,-11.511919975280762,5.185242176055908
1399,75900.0,4.1653122901916495,-7.185597896575928,-1.7603367567062378
1400,75000.0,-0.6979097723960876,-9.370306968688963,-0.2902969419956207
1401,75100.0,-0.6979097723960876,-9.370306968688963,-0.2902969419956207
1402,75200.0,-1.4431051015853882,-10.837952613830566,2.9316999912261963
1403,75300.0,-1.4431051015853882,-10.837952613830566,2.9316999912261963
1404,75400.0,-1.104325532913208,-10.496180534362793,-0.8355764150619507
1405,75500.0,0.7248445749282837,-9.111733436584473,-2.3086090087890625
1406,75600.0,0.7248445749282837,-9.111733436584473,-2.3086090087890625
1407,75700.0,-4.857835292816162,-11.511919975280762,5.185242176055908
1408,75800.0,-4.857835292816162,-11.511919975280762,5.185242176055908
1409,75900.0,4.1653122901916495,-7.185597896575928,-1.7603367567062378
1410,76000.0,4.1653122901916495,-7.185597896575928,-1.7603367567062378
1411,76100.0,0.10594342648983003,-11.446080207824707,0.5985504388809204
1412,76200.0,0.10594342648983003,-11.446080207824707,0.5985504388809204
1413,76300.0,-3.830124139785767,-11.07138729095459,-0.17537526786327362
1414,76400.0,0.811634361743927,-12.542025566101074,0.8409633636474609
1415,76500.0,0.811634361743927,-12.542025566101074,0.8409633636474609
1416,76600.0,3.9821560382843018,-6.662464618682861,0.9870096445083618
1417,76700.0,3.9821560382843018,-6.662464618682861,0.9870096445083618
1418,76800.0,1.127070426940918,-10.318410873413086,1.786673069000244
1419,76900.0,1.127070426940918,-10.318410873413086,1.786673069000244
1420,76000.0,4.1653122901916495,-7.185597896575928,-1.7603367567062378
1421,76100.0,0.10594342648983003,-11.446080207824707,0.5985504388809204
1422,76200.0,0.10594342648983003,-11.446080207824707,0.5985504388809204
1423,76300.0,-3.830124139785767,-11.07138729095459,-0.17537526786327362
1424,76400.0,0.811634361743927,-12.542025566101074,0.8409633636474609
1425,76500.0,0.811634361743927,-12.542025566101074,0.8409633636474609
1426,76600.0,3.9821560382843018,-6.662464618682861,0.9870096445083618
1427,76700.0,3.9821560382843018,-6.662464618682861,0.9870096445083618
1428,76800.0,1.127070426940918,-10.318410873413086,1.786673069000244
1429,76900.0,1.127070426940918,-10.318410873413086,1.786673069000244
1430,77000.0,-1.037886381149292,-8.587403297424316,4.125808238983153
1431,77100.0,-1.037886381149292,-8.587403297424316,4.125808238983153
1432,77200.0,0.4752490520477295,-8.15524959564209,-2.89339280128479
1433,77300.0,0.03232172131538391,-7.616554260253906,1.201290726661682
1434,77400.0,0.03232172131538391,-7.616554260253906,1.201290726661682
1435,77500.0,-2.932897090911865,-9.277531623840332,-0.558447539806366
1436,77600.0,-2.932897090911865,-9.277531623840332,-0.558447539806366
1437,77700.0,-0.37529110908508295,-10.252570152282717,-0.8780734539031982
1438,77800.0,-0.37529110908508295,-10.252570152282717,-0.8780734539031982
1439,77900.0,-2.2146365642547607,-7.760804653167725,0.2890998423099518
1440,77000.0,-1.037886381149292,-8.587403297424316,4.125808238983153
1441,77100.0,-1.037886381149292,-8.587403297424316,4.125808238983153
1442,77200.0,0.4752490520477295,-8.15524959564209,-2.89339280128479
1443,77300.0,0.03232172131538391,-7.616554260253906,1.201290726661682
1444,77400.0,0.03232172131538391,-7.616554260253906,1.201290726661682
1445,77500.0,-2.932897090911865,-9.277531623840332,-0.558447539806366
1446,77600.0,-2.932897090911865,-9.277531623840332,-0.558447539806366
1447,77700.0,-0.37529110908508295,-10.252570152282717,-0.8780734539031982
1448,77800.0,-0.37529110908508295,-10.252570152282717,-0.8780734539031982
1449,77900.0,-2.2146365642547607,-7.760804653167725,0.2890998423099518
1450,78000.0,-2.2146365642547607,-7.760804653167725,0.2890998423099518
1451,78100.0,-0.4357447028160095,-12.197260856628418,3.62302565574646
1452,78200.0,0.017956512048840526,-10.119691848754883,1.6992846727371216
1453,78300.0,0.017956512048840526,-10.119691848754883,1.6992846727371216
1454,78400.0,-0.11133038252592088,-8.565256118774414,-0.6883329749107361
1455,78500.0,-0.11133038252592088,-8.565256118774414,-0.6883329749107361
1456,78600.0,-0.8529343605041504,-8.497620582580566,2.8772318363189697
1457,78700.0,-0.8529343605041504,-8.497620582580566,2.8772318363189697
1458,78800.0,-0.6476315855979919,-7.586028099060059,2.867056608200073
1459,78900.0,-0.6476315855979919,-7.586028099060059,2.867056608200073
1460,78000.0,-2.2146365642547607,-7.760804653167725,0.2890998423099518
1461,78100.0,-0.4357447028160095,-12.197260856628418,3.62302565574646
1462,78200.0,0.017956512048840526,-10.119691848754883,1.6992846727371216
1463,78300.0,0.017956512048840526,-10.119691848754883,1.6992846727371216
1464,78400.0,-0.11133038252592088,-8.565256118774414,-0.6883329749107361
1465,78500.0,-0.11133038252592088,-8.565256118774414,-0.6883329749107361
1466,78600.0,-0.8529343605041504,-8.497620582580566,2.8772318363189697
1467,78700.0,-0.8529343605041504,-8.497620582580566,2.8772318363189697
1468,78800.0,-0.6476315855979919,-7.586028099060059,2.867056608200073
1469,78900.0,-0.6476315855979919,-7.586028099060059,2.867056608200073
1470,79000.0,-3.0765492916107178,-14.686033248901367,1.986588835716248
1471,79100.0,-1.8034324645996092,-9.4636812210083,-0.04908113554120064
1472,79200.0,-1.8034324645996092,-9.4636812210083,-0.04908113554120064
1473,79300.0,-3.660135746002197,-10.441712379455566,0.9002198576927185
1474,79400.0,-3.660135746002197,-10.441712379455566,0.9002198576927185
1475,79500.0,-1.5203180313110352,-10.086771965026855,0.07003039866685867
1476,79600.0,-1.5203180313110352,-10.086771965026855,0.07003039866685867
1477,79700.0,-0.6428431272506714,-9.148842811584473,-2.4917654991149902
1478,79800.0,-0.6428431272506714,-9.148842811584473,-2.4917654991149902
1479,79900.0,-1.2575544118881226,-9.704896926879883,0.9235633015632628
1480,79000.0,-3.0765492916107178,-14.686033248901367,1.986588835716248
1481,79100.0,-1.8034324645996092,-9.4636812210083,-0.04908113554120064
1482,79200.0,-1.8034324645996092,-9.4636812210083,-0.04908113554120064
1483,79300.0,-3.660135746002197,-10.441712379455566,0.9002198576927185
1484,79400.0,-3.660135746002197,-10.441712379455566,0.9002198576927185
1485,79500.0,-1.5203180313110352,-10.086771965026855,0.07003039866685867
1486,79600.0,-1.5203180313110352,-10.086771965026855,0.07003039866685867
1487,79700.0,-0.6428431272506714,-9.148842811584473,-2.4917654991149902
1488,79800.0,-0.6428431272506714,-9.148842811584473,-2.4917654991149902
1489,79900.0,-1.2575544118881226,-9.704896926879883,0.9235633015632628
1490,80000.0,-0.07541735470294952,-11.620258331298828,1.6687586307525637
1491,80100.0,-0.07541735470294952,-11.620258331298828,1.6687586307525637
1492,80200.0,0.15741875767707825,-9.850942611694336,1.8692729473114011
1493,80300.0,0.15741875767707825,-9.850942611694336,1.8692729473114011
1494,80400.0,-2.367266893386841,-8.659229278564451,1.082777738571167
1495,80500.0,-2.367266893386841,-8.659229278564451,1.082777738571167
1496,80600.0,2.152387380599976,-6.980893611907959,-0.08439560979604721
1497,80700.0,2.152387380599976,-6.980893611907959,-0.08439560979604721
1498,80800.0,-1.32818341255188,-8.686163902282715,1.5155296325683594
1499,80900.0,-0.08978256583213806,-17.011402130126953,-4.345476150512694
1500,80000.0,-0.07541735470294952,-11.620258331298828,1.6687586307525637
1501,80100.0,-0.07541735470294952,-11.620258331298828,1.6687586307525637
1502,80200.0,0.15741875767707825,-9.850942611694336,1.8692729473114011
1503,80300.0,0.15741875767707825,-9.850942611694336,1.8692729473114011
1504,80400.0,-2.367266893386841,-8.659229278564451,1.082777738571167
1505,80500.0,-2.367266893386841,-8.659229278564451,1.082777738571167
1506,80600.0,2.152387380599976,-6.980893611907959,-0.08439560979604721
1507,80700.0,2.152387380599976,-6.980893611907959,-0.08439560979604721
1508,80800.0,-1.32818341255188,-8.686163902282715,1.5155296325683594
1509,80900.0,-0.08978256583213806,-17.011402130126953,-4.345476150512694
1510,81000.0,-0.08978256583213806,-17.011402130126953,-4.345476150512694
1511,81100.0,-2.2469582557678223,-8.920795440673828,-0.8086416125297546
1512,81200.0,-2.2469582557678223,-8.920795440673828,-0.8086416125297546
1513,81300.0,-0.8289923667907715,-8.999804496765137,-0.3776853084564209
1514,81400.0,-0.8289923667907715,-8.999804496765137,-0.3776853084564209
1515,81500.0,-2.1296424865722656,-7.628525257110597,-1.2144588232040403
1516,81600.0,-2.1296424865722656,-7.628525257110597,-1.2144588232040403
1517,81700.0,-4.445434093475342,-14.554351806640625,2.5737667083740234
1518,81800.0,0.3417722880840301,-6.581061840057372,0.1238999366760254
1519,81900.0,0.3417722880840301,-6.581061840057372,0.1238999366760254
1520,81000.0,-0.08978256583213806,-17.011402130126953,-4.345476150512694
1521,81100.0,-2.2469582557678223,-8.920795440673828,-0.8086416125297546
1522,81200.0,-2.2469582557678223,-8.920795440673828,-0.8086416125297546
1523,81300.0,-0.8289923667907715,-8.999804496765137,-0.3776853084564209
1524,81400.0,-0.8289923667907715,-8.999804496765137,-0.3776853084564209
1525,81500.0,-2.1296424865722656,-7.628525257110597,-1.2144588232040403
1526,81600.0,-2.1296424865722656,-7.628525257110597,-1.2144588232040403
1527,81700.0,-4.445434093475342,-14.554351806640625,2.5737667083740234
1528,81800.0,0.3417722880840301,-6.581061840057372,0.1238999366760254
1529,81900.0,0.3417722880840301,-6.581061840057372,0.1238999366760254
1530,82000.0,0.1472434103488922,-9.162610054016113,0.2801215946674347
1531,82100.0,0.1472434103488922,-9.162610054016113,0.2801215946674347
1532,82200.0,-1.843535304069519,-10.445303916931152,0.3663128614425659
1533,82300.0,-1.843535304069519,-10.445303916931152,0.3663128614425659
1534,82400.0,1.137245774269104,-7.339425086975098,-0.6368576288223267
1535,82500.0,1.137245774269104,-7.339425086975098,-0.6368576288223267
1536,82600.0,-0.9768342971801758,-6.973711013793945,2.537853717803955
1537,82700.0,0.518943190574646,-14.247295379638672,-3.268683910369873
1538,82800.0,0.518943190574646,-14.247295379638672,-3.268683910369873
1539,82900.0,-0.4417302012443543,-7.9637131690979,-1.9644424915313718
1540,82000.0,0.1472434103488922,-9.162610054016113,0.2801215946674347
1541,82100.0,0.1472434103488922,-9.162610054016113,0.2801215946674347
1542,82200.0,-1.843535304069519,-10.445303916931152,0.3663128614425659
1543,82300.0,-1.843535304069519,-10.445303916931152,0.3663128614425659
1544,82400.0,1.137245774269104,-7.339425086975098,-0.6368576288223267
1545,82500.0,1.137245774269104,-7.339425086975098,-0.6368576288223267
1546,82600.0,-0.9768342971801758,-6.973711013793945,2.537853717803955
1547,82700.0,0.518943190574646,-14.247295379638672,-3.268683910369873
1548,82800.0,0.518943190574646,-14.247295379638672,-3.268683910369873
1549,82900.0,-0.4417302012443543,-7.9637131690979,-1.9644424915313718
1550,83000.0,-0.4417302012443543,-7.9637131690979,-1.9644424915313718
1551,83100.0,-4.2532992362976065,-9.54628086090088,-1.8507179021835327
1552,83200.0,-4.2532992362976065,-9.54628086090088,-1.8507179021835327
1553,83300.0,-4.780023574829102,-8.179191589355469,-0.21667525172233584
1554,83400.0,-4.780023574829102,-8.179191589355469,-0.21667525172233584
1555,83500.0,-6.101623058319093,-7.4980411529541025,-0.8164227604866028
1556,83600.0,1.6579847335815432,-13.261483192443848,2.404376983642578
1557,83700.0,1.6579847335815432,-13.261483192443848,2.404376983642578
1558,83800.0,-0.22266076505184174,-6.370970726013184,0.942716896533966
1559,83900.0,-0.22266076505184174,-6.370970726013184,0.942716896533966
1560,83000.0,-0.4417302012443543,-7.9637131690979,-1.9644424915313718
1561,83100.0,-4.2532992362976065,-9.54628086090088,-1.8507179021835327
1562,83200.0,-4.2532992362976065,-9.54628086090088,-1.8507179021835327
1563,83300.0,-4.780023574829102,-8.179191589355469,-0.21667525172233584
1564,83400.0,-4.780023574829102,-8.179191589355469,-0.21667525172233584
1565,83500.0,-6.101623058319093,-7.4980411529541025,-0.8164227604866028
1566,83600.0,1.6579847335815432,-13.261483192443848,2.404376983642578
1567,83700.0,1.6579847335815432,-13.261483192443848,2.404376983642578
1568,83800.0,-0.22266076505184174,-6.370970726013184,0.942716896533966
1569,83900.0,-0.22266076505184174,-6.370970726013184,0.942716896533966
1570,84000.0,0.5201402902603149,-11.063606262207033,4.23773717880249
1571,84100.0,0.5201402902603149,-11.063606262207033,4.23773717880249
1572,84200.0,1.7345991134643557,-6.421847343444824,-0.9528923034667968
1573,84300.0,1.7345991134643557,-6.421847343444824,-0.9528923034667968
1574,84400.0,-2.2176294326782227,-7.996035099029541,3.422511339187622
1575,84500.0,-2.2176294326782227,-7.996035099029541,3.422511339187622
1576,84600.0,-0.8696937561035156,-6.848015308380128,3.6577415466308594
1577,84700.0,-5.301361083984375,-9.764751434326172,-2.7461493015289307
1578,84800.0,-5.301361083984375,-9.764751434326172,-2.7461493015289307
1579,84900.0,-3.964797973632813,-10.30404567718506,-1.6089035272598269
