,timestamp,ax,ay,az
0,5000.0,8.542377471923826,1.6127625703811646,-2.89052963256836
1,5100.0,8.542377471923826,1.6127625703811646,-2.89052963256836
2,5200.0,8.542377471923826,1.6127625703811646,-2.89052963256836
3,5300.0,8.542377471923826,1.6127625703811646,-2.89052963256836
4,5400.0,8.542377471923826,1.6127625703811646,-2.89052963256836
5,5500.0,9.040083885192873,1.739582061767578,-2.8594231605529785
6,5600.0,9.040083885192873,1.739582061767578,-2.8594231605529785
7,5700.0,8.791230201721191,1.6127625703811646,-2.0362920761108403
8,5800.0,8.791230201721191,1.6127625703811646,-2.0362920761108403
9,5900.0,7.719245910644531,1.5672988891601562,-1.9094725847244265
10,6000.0,7.719245910644531,1.5672988891601562,-1.9094725847244265
11,6100.0,7.719245910644531,1.5672988891601562,-1.9094725847244265
12,6200.0,8.226524353027344,2.218146562576294,-2.9551358222961426
13,6300.0,8.226524353027344,2.218146562576294,-2.9551358222961426
14,6400.0,10.475777626037598,2.321038007736206,-2.048256158828736
15,6500.0,10.475777626037598,2.321038007736206,-2.048256158828736
16,6600.0,9.221939086914062,0.9140582084655762,-2.5052852630615234
17,6700.0,9.221939086914062,0.9140582084655762,-2.5052852630615234
18,6800.0,9.221939086914062,0.9140582084655762,-2.5052852630615234
19,6900.0,8.71944522857666,1.641476273536682,-2.5292134284973145
20,6000.0,7.719245910644531,1.5672988891601562,-1.9094725847244265
21,6100.0,7.719245910644531,1.5672988891601562,-1.9094725847244265
22,6200.0,8.226524353027344,2.218146562576294,-2.9551358222961426
23,6300.0,8.226524353027344,2.218146562576294,-2.9551358222961426
24,6400.0,10.475777626037598,2.321038007736206,-2.048256158828736
25,6500.0,10.475777626037598,2.321038007736206,-2.048256158828736
26,6600.0,9.221939086914062,0.9140582084655762,-2.5052852630615234
27,6700.0,9.221939086914062,0.9140582084655762,-2.5052852630615234
28,6800.0,9.221939086914062,0.9140582084655762,-2.5052852630615234
29,6900.0,8.71944522857666,1.641476273536682,-2.5292134284973145
30,7000.0,8.71944522857666,1.641476273536682,-2.5292134284973145
31,7100.0,7.915457248687744,1.9334007501602173,-3.0987055301666264
32,7200.0,7.915457248687744,1.9334007501602173,-3.0987055301666264
33,7300.0,8.695517539978027,1.550549030303955,-3.460021495819092
34,7400.0,8.695517539978027,1.550549030303955,-3.460021495819092
35,7500.0,10.64806079864502,2.687139749526977,-2.462214469909668
36,7600.0,10.64806079864502,2.687139749526977,-2.462214469909668
37,7700.0,10.64806079864502,2.687139749526977,-2.462214469909668
38,7800.0,9.183652877807617,2.132004976272583,-2.5363922119140625
39,7900.0,9.183652877807617,2.132004976272583,-2.5363922119140625
40,7000.0,8.71944522857666,1.641476273536682,-2.5292134284973145
41,7100.0,7.915457248687744,1.9334007501602173,-3.0987055301666264
42,7200.0,7.915457248687744,1.9334007501602173,-3.0987055301666264
43,7300.0,8.695517539978027,1.550549030303955,-3.460021495819092
44,7400.0,8.695517539978027,1.550549030303955,-3.460021495819092
45,7500.0,10.64806079864502,2.687139749526977,-2.462214469909668
46,7600.0,10.64806079864502,2.687139749526977,-2.462214469909668
47,7700.0,10.64806079864502,2.687139749526977,-2.462214469909668
48,7800.0,9.183652877807617,2.132004976272583,-2.5363922119140625
49,7900.0,9.183652877807617,2.132004976272583,-2.5363922119140625
50,8000.0,9.044869422912598,2.117647886276245,-2.3090739250183105
51,8100.0,9.044869422912598,2.117647886276245,-2.3090739250183105
52,8200.0,8.073383331298826,1.7778673171997068,-1.6295121908187866
53,8300.0,8.073383331298826,1.7778673171997068,-1.6295121908187866
54,8400.0,8.073383331298826,1.7778673171997068,-1.6295121908187866
55,8500.0,13.12702465057373,3.81655216217041,-3.4169507026672363
56,8600.0,13.12702465057373,3.81655216217041,-3.4169507026672363
57,8700.0,11.562118530273438,2.524427890777588,-2.9862425327301025
58,8800.0,11.562118530273438,2.524427890777588,-2.9862425327301025
59,8900.0,8.193024635314941,1.529013752937317,-2.847458839416504
60,8000.0,9.044869422912598,2.117647886276245,-2.3090739250183105
61,8100.0,9.044869422912598,2.117647886276245,-2.3090739250183105
62,8200.0,8.073383331298826,1.7778673171997068,-1.6295121908187866
63,8300.0,8.073383331298826,1.7778673171997068,-1.6295121908187866
64,8400.0,8.073383331298826,1.7778673171997068,-1.6295121908187866
65,8500.0,13.12702465057373,3.81655216217041,-3.4169507026672363
66,8600.0,13.12702465057373,3.81655216217041,-3.4169507026672363
67,8700.0,11.562118530273438,2.524427890777588,-2.9862425327301025
68,8800.0,11.562118530273438,2.524427890777588,-2.9862425327301025
69,8900.0,8.193024635314941,1.529013752937317,-2.847458839416504
70,9000.0,8.193024635314941,1.529013752937317,-2.847458839416504
71,9100.0,8.193024635314941,1.529013752937317,-2.847458839416504
72,9200.0,8.523234367370605,2.187039852142334,-3.4025940895080566
73,9300.0,8.523234367370605,2.187039852142334,-3.4025940895080566
74,9400.0,8.523234367370605,1.6893328428268433,-3.802195072174072
75,9500.0,8.523234367370605,1.6893328428268433,-3.802195072174072
76,9600.0,12.514461517333984,2.9671001434326167,-3.7734813690185542
77,9700.0,12.514461517333984,2.9671001434326167,-3.7734813690185542
78,9800.0,8.805586814880371,1.6821542978286743,-2.280359983444214
79,9900.0,8.805586814880371,1.6821542978286743,-2.280359983444214
80,9000.0,8.193024635314941,1.529013752937317,-2.847458839416504
81,9100.0,8.193024635314941,1.529013752937317,-2.847458839416504
82,9200.0,8.523234367370605,2.187039852142334,-3.4025940895080566
83,9300.0,8.523234367370605,2.187039852142334,-3.4025940895080566
84,9400.0,8.523234367370605,1.6893328428268433,-3.802195072174072
85,9500.0,8.523234367370605,1.6893328428268433,-3.802195072174072
86,9600.0,12.514461517333984,2.9671001434326167,-3.7734813690185542
87,9700.0,12.514461517333984,2.9671001434326167,-3.7734813690185542
88,9800.0,8.805586814880371,1.6821542978286743,-2.280359983444214
89,9900.0,8.805586814880371,1.6821542978286743,-2.280359983444214
90,10000.0,8.805586814880371,1.6821542978286743,-2.280359983444214
91,10100.0,9.671788215637207,2.031506299972534,-2.2875385284423833
92,10200.0,9.671788215637207,2.031506299972534,-2.2875385284423833
93,10300.0,8.398807525634767,1.9932212829589844,-2.801995038986206
94,10400.0,8.398807525634767,1.9932212829589844,-2.801995038986206
95,10500.0,8.810372352600098,2.4574286937713623,-2.8378877639770512
96,10600.0,8.810372352600098,2.4574286937713623,-2.8378877639770512
97,10700.0,11.2366943359375,2.2995026111602783,-3.0963122844696045
98,10800.0,11.2366943359375,2.2995026111602783,-3.0963122844696045
99,10900.0,11.2366943359375,2.2995026111602783,-3.0963122844696045
100,10000.0,8.805586814880371,1.6821542978286743,-2.280359983444214
101,10100.0,9.671788215637207,2.031506299972534,-2.2875385284423833
102,10200.0,9.671788215637207,2.031506299972534,-2.2875385284423833
103,10300.0,8.398807525634767,1.9932212829589844,-2.801995038986206
104,10400.0,8.398807525634767,1.9932212829589844,-2.801995038986206
105,10500.0,8.810372352600098,2.4574286937713623,-2.8378877639770512
106,10600.0,8.810372352600098,2.4574286937713623,-2.8378877639770512
107,10700.0,11.2366943359375,2.2995026111602783,-3.0963122844696045
108,10800.0,11.2366943359375,2.2995026111602783,-3.0963122844696045
109,10900.0,11.2366943359375,2.2995026111602783,-3.0963122844696045
110,11000.0,9.28893756866455,1.0719845294952393,-2.3569302558898926
111,11100.0,9.28893756866455,1.0719845294952393,-2.3569302558898926
112,11200.0,8.47059154510498,1.6677974462509155,-2.746960401535034
113,11300.0,8.47059154510498,1.6677974462509155,-2.746960401535034
114,11400.0,6.671189785003662,1.4476575851440432,-4.132404804229736
115,11500.0,6.671189785003662,1.4476575851440432,-4.132404804229736
116,11600.0,7.5661048889160165,1.8951154947280884,-3.615554809570313
117,11700.0,7.5661048889160165,1.8951154947280884,-3.615554809570313
118,11800.0,11.432907104492188,1.6055840253829956,-3.2255251407623287
119,11900.0,11.432907104492188,1.6055840253829956,-3.2255251407623287
120,11000.0,9.28893756866455,1.0719845294952393,-2.3569302558898926
121,11100.0,9.28893756866455,1.0719845294952393,-2.3569302558898926
122,11200.0,8.47059154510498,1.6677974462509155,-2.746960401535034
123,11300.0,8.47059154510498,1.6677974462509155,-2.746960401535034
124,11400.0,6.671189785003662,1.4476575851440432,-4.132404804229736
125,11500.0,6.671189785003662,1.4476575851440432,-4.132404804229736
126,11600.0,7.5661048889160165,1.8951154947280884,-3.615554809570313
127,11700.0,7.5661048889160165,1.8951154947280884,-3.615554809570313
128,11800.0,11.432907104492188,1.6055840253829956,-3.2255251407623287
129,11900.0,11.432907104492188,1.6055840253829956,-3.2255251407623287
130,12000.0,11.432907104492188,1.6055840253829956,-3.2255251407623287
131,12100.0,10.188638687133787,3.1441688537597656,-2.414358139038086
132,12200.0,10.188638687133787,3.1441688537597656,-2.414358139038086
133,12300.0,8.685946464538574,1.8951154947280884,-2.5076780319213867
134,12400.0,8.685946464538574,1.8951154947280884,-2.5076780319213867
135,12500.0,7.518248558044434,2.230110645294189,-2.232503652572632
136,12600.0,7.518248558044434,2.230110645294189,-2.232503652572632
137,12700.0,7.518248558044434,2.230110645294189,-2.232503652572632
138,12800.0,7.135397434234619,1.6295121908187866,-2.861815929412842
139,12900.0,7.135397434234619,1.6295121908187866,-2.861815929412842
140,12000.0,11.432907104492188,1.6055840253829956,-3.2255251407623287
141,12100.0,10.188638687133787,3.1441688537597656,-2.414358139038086
142,12200.0,10.188638687133787,3.1441688537597656,-2.414358139038086
143,12300.0,8.685946464538574,1.8951154947280884,-2.5076780319213867
144,12400.0,8.685946464538574,1.8951154947280884,-2.5076780319213867
145,12500.0,7.518248558044434,2.230110645294189,-2.232503652572632
146,12600.0,7.518248558044434,2.230110645294189,-2.232503652572632
147,12700.0,7.518248558044434,2.230110645294189,-2.232503652572632
148,12800.0,7.135397434234619,1.6295121908187866,-2.861815929412842
149,12900.0,7.135397434234619,1.6295121908187866,-2.861815929412842
150,13000.0,6.953542709350586,0.23449662327766416,-3.294916868209839
151,13100.0,6.953542709350586,0.23449662327766416,-3.294916868209839
152,13200.0,8.772088050842285,2.2229323387146,-3.0747771263122563
153,13300.0,8.772088050842285,2.2229323387146,-3.0747771263122563
154,13400.0,7.628318786621094,2.263610363006592,-3.081955671310425
155,13500.0,7.628318786621094,2.263610363006592,-3.081955671310425
156,13600.0,7.628318786621094,2.263610363006592,-3.081955671310425
157,13700.0,7.456035614013673,2.337787628173828,-3.3092737197875977
158,13800.0,7.456035614013673,2.337787628173828,-3.3092737197875977
159,13900.0,17.4532470703125,3.981656789779663,-4.0175490379333505
160,13000.0,6.953542709350586,0.23449662327766416,-3.294916868209839
161,13100.0,6.953542709350586,0.23449662327766416,-3.294916868209839
162,13200.0,8.772088050842285,2.2229323387146,-3.0747771263122563
163,13300.0,8.772088050842285,2.2229323387146,-3.0747771263122563
164,13400.0,7.628318786621094,2.263610363006592,-3.081955671310425
165,13500.0,7.628318786621094,2.263610363006592,-3.081955671310425
166,13600.0,7.628318786621094,2.263610363006592,-3.081955671310425
167,13700.0,7.456035614013673,2.337787628173828,-3.3092737197875977
168,13800.0,7.456035614013673,2.337787628173828,-3.3092737197875977
169,13900.0,17.4532470703125,3.981656789779663,-4.0175490379333505
170,14000.0,17.4532470703125,3.981656789779663,-4.0175490379333505
171,14100.0,7.862814903259277,2.352144718170166,-2.1415762901306152
172,14200.0,7.862814903259277,2.352144718170166,-2.1415762901306152
173,14300.0,7.862814903259277,2.352144718170166,-2.1415762901306152
174,14400.0,9.571290969848633,2.517249345779419,-2.746960401535034
175,14500.0,9.571290969848633,2.517249345779419,-2.746960401535034
176,14600.0,8.374878883361816,1.8065810203552248,-2.029113531112671
177,14700.0,8.374878883361816,1.8065810203552248,-2.029113531112671
178,14800.0,9.020941734313963,2.100898265838623,-2.8594231605529785
179,14900.0,9.020941734313963,2.100898265838623,-2.8594231605529785
180,14000.0,17.4532470703125,3.981656789779663,-4.0175490379333505
181,14100.0,7.862814903259277,2.352144718170166,-2.1415762901306152
182,14200.0,7.862814903259277,2.352144718170166,-2.1415762901306152
183,14300.0,7.862814903259277,2.352144718170166,-2.1415762901306152
184,14400.0,9.571290969848633,2.517249345779419,-2.746960401535034
185,14500.0,9.571290969848633,2.517249345779419,-2.746960401535034
186,14600.0,8.374878883361816,1.8065810203552248,-2.029113531112671
187,14700.0,8.374878883361816,1.8065810203552248,-2.029113531112671
188,14800.0,9.020941734313963,2.100898265838623,-2.8594231605529785
189,14900.0,9.020941734313963,2.100898265838623,-2.8594231605529785
190,15000.0,9.020941734313963,2.100898265838623,-2.8594231605529785
191,15100.0,9.710074424743652,1.641476273536682,-2.792424201965332
192,15200.0,9.710074424743652,1.641476273536682,-2.792424201965332
193,15300.0,8.863015174865723,1.1724830865859983,-2.400001049041748
194,15400.0,8.863015174865723,1.1724830865859983,-2.400001049041748
195,15500.0,8.863015174865723,1.1724830865859983,-2.400001049041748
196,15600.0,8.997013092041016,1.835294842720032,-3.0747771263122563
197,15700.0,8.997013092041016,1.835294842720032,-3.0747771263122563
198,15800.0,7.767102241516112,1.5601203441619873,-3.0197420120239262
199,15900.0,7.767102241516112,1.5601203441619873,-3.0197420120239262
200,15000.0,9.020941734313963,2.100898265838623,-2.8594231605529785
201,15100.0,9.710074424743652,1.641476273536682,-2.792424201965332
202,15200.0,9.710074424743652,1.641476273536682,-2.792424201965332
203,15300.0,8.863015174865723,1.1724830865859983,-2.400001049041748
204,15400.0,8.863015174865723,1.1724830865859983,-2.400001049041748
205,15500.0,8.863015174865723,1.1724830865859983,-2.400001049041748
206,15600.0,8.997013092041016,1.835294842720032,-3.0747771263122563
207,15700.0,8.997013092041016,1.835294842720032,-3.0747771263122563
208,15800.0,7.767102241516112,1.5601203441619873,-3.0197420120239262
209,15900.0,7.767102241516112,1.5601203441619873,-3.0197420120239262
210,16000.0,6.685546875,2.115255117416382,-2.8378877639770512
211,16100.0,6.685546875,2.115255117416382,-2.8378877639770512
212,16200.0,9.399007797241213,1.6175479888916016,-2.234896183013916
213,16300.0,9.399007797241213,1.6175479888916016,-2.234896183013916
214,16400.0,9.399007797241213,1.6175479888916016,-2.234896183013916
215,16500.0,8.776873588562013,2.5842485427856445,-2.09850549697876
216,16600.0,8.776873588562013,2.5842485427856445,-2.09850549697876
217,16700.0,9.408578872680664,2.756531953811645,-2.258824586868286
218,16800.0,9.408578872680664,2.756531953811645,-2.258824586868286
219,16900.0,7.4703922271728525,2.218146562576294,-2.476571559906006
220,16000.0,6.685546875,2.115255117416382,-2.8378877639770512
221,16100.0,6.685546875,2.115255117416382,-2.8378877639770512
222,16200.0,9.399007797241213,1.6175479888916016,-2.234896183013916
223,16300.0,9.399007797241213,1.6175479888916016,-2.234896183013916
224,16400.0,9.399007797241213,1.6175479888916016,-2.234896183013916
225,16500.0,8.776873588562013,2.5842485427856445,-2.09850549697876
226,16600.0,8.776873588562013,2.5842485427856445,-2.09850549697876
227,16700.0,9.408578872680664,2.756531953811645,-2.258824586868286
228,16800.0,9.408578872680664,2.756531953811645,-2.258824586868286
229,16900.0,7.4703922271728525,2.218146562576294,-2.476571559906006
230,17000.0,7.4703922271728525,2.218146562576294,-2.476571559906006
231,17100.0,7.968099594116211,2.179861307144165,-2.715853452682495
232,17200.0,7.968099594116211,2.179861307144165,-2.715853452682495
233,17300.0,7.968099594116211,2.179861307144165,-2.715853452682495
234,17400.0,10.418350219726562,0.6029912829399109,-2.6009981632232666
235,17500.0,10.418350219726562,0.6029912829399109,-2.6009981632232666
236,17600.0,10.021141052246094,1.306481122970581,-2.935993194580078
237,17700.0,10.021141052246094,1.306481122970581,-2.935993194580078
238,17800.0,7.982456684112549,1.0719845294952393,-2.739781856536865
239,17900.0,7.982456684112549,1.0719845294952393,-2.739781856536865
240,17000.0,7.4703922271728525,2.218146562576294,-2.476571559906006
241,17100.0,7.968099594116211,2.179861307144165,-2.715853452682495
242,17200.0,7.968099594116211,2.179861307144165,-2.715853452682495
243,17300.0,7.968099594116211,2.179861307144165,-2.715853452682495
244,17400.0,10.418350219726562,0.6029912829399109,-2.6009981632232666
245,17500.0,10.418350219726562,0.6029912829399109,-2.6009981632232666
246,17600.0,10.021141052246094,1.306481122970581,-2.935993194580078
247,17700.0,10.021141052246094,1.306481122970581,-2.935993194580078
248,17800.0,7.982456684112549,1.0719845294952393,-2.739781856536865
249,17900.0,7.982456684112549,1.0719845294952393,-2.739781856536865
250,18000.0,8.695517539978027,1.5936198234558103,-2.3545374870300293
251,18100.0,8.695517539978027,1.5936198234558103,-2.3545374870300293
252,18200.0,8.695517539978027,1.5936198234558103,-2.3545374870300293
253,18300.0,9.28893756866455,1.4356936216354368,-3.0747771263122563
254,18400.0,9.28893756866455,1.4356936216354368,-3.0747771263122563
255,18500.0,8.408378601074219,1.411765456199646,-1.124626636505127
256,18600.0,8.408378601074219,1.411765456199646,-1.124626636505127
257,18700.0,8.743373870849611,1.6342979669570925,-2.4909284114837646
258,18800.0,8.743373870849611,1.6342979669570925,-2.4909284114837646
259,18900.0,8.743373870849611,1.6342979669570925,-2.4909284114837646
260,18000.0,8.695517539978027,1.5936198234558103,-2.3545374870300293
261,18100.0,8.695517539978027,1.5936198234558103,-2.3545374870300293
262,18200.0,8.695517539978027,1.5936198234558103,-2.3545374870300293
263,18300.0,9.28893756866455,1.4356936216354368,-3.0747771263122563
264,18400.0,9.28893756866455,1.4356936216354368,-3.0747771263122563
265,18500.0,8.408378601074219,1.411765456199646,-1.124626636505127
266,18600.0,8.408378601074219,1.411765456199646,-1.124626636505127
267,18700.0,8.743373870849611,1.6342979669570925,-2.4909284114837646
268,18800.0,8.743373870849611,1.6342979669570925,-2.4909284114837646
269,18900.0,8.743373870849611,1.6342979669570925,-2.4909284114837646
270,19000.0,7.637890338897705,2.9766712188720703,-3.273381233215332
271,19100.0,7.637890338897705,2.9766712188720703,-3.273381233215332
272,19200.0,13.1365966796875,3.9505498409271236,-2.538784980773926
273,19300.0,13.1365966796875,3.9505498409271236,-2.538784980773926
274,19400.0,8.461020469665527,0.9308080077171326,-2.493321180343628
275,19500.0,8.461020469665527,0.9308080077171326,-2.493321180343628
276,19600.0,8.461020469665527,0.9308080077171326,-2.493321180343628
277,19700.0,9.523433685302734,2.1726830005645748,-2.7038896083831787
278,19800.0,9.523433685302734,2.1726830005645748,-2.7038896083831787
279,19900.0,7.733603000640869,2.543570280075073,-2.548356056213379
280,19000.0,7.637890338897705,2.9766712188720703,-3.273381233215332
281,19100.0,7.637890338897705,2.9766712188720703,-3.273381233215332
282,19200.0,13.1365966796875,3.9505498409271236,-2.538784980773926
283,19300.0,13.1365966796875,3.9505498409271236,-2.538784980773926
284,19400.0,8.461020469665527,0.9308080077171326,-2.493321180343628
285,19500.0,8.461020469665527,0.9308080077171326,-2.493321180343628
286,19600.0,8.461020469665527,0.9308080077171326,-2.493321180343628
287,19700.0,9.523433685302734,2.1726830005645748,-2.7038896083831787
288,19800.0,9.523433685302734,2.1726830005645748,-2.7038896083831787
289,19900.0,7.733603000640869,2.543570280075073,-2.548356056213379
290,20000.0,7.733603000640869,2.543570280075073,-2.548356056213379
291,20100.0,8.169095993041992,1.9764715433120728,-2.1846470832824707
292,20200.0,8.169095993041992,1.9764715433120728,-2.1846470832824707
293,20300.0,8.169095993041992,1.9764715433120728,-2.1846470832824707
294,20400.0,10.782057762145996,1.6989041566848757,-1.5744771957397459
295,20500.0,10.782057762145996,1.6989041566848757,-1.5744771957397459
296,20600.0,9.891928672790527,2.2779672145843506,-1.919043779373169
297,20700.0,9.891928672790527,2.2779672145843506,-1.919043779373169
298,20800.0,7.322037220001222,2.562713146209717,-3.7232320308685294
299,20900.0,7.322037220001222,2.562713146209717,-3.7232320308685294
300,20000.0,7.733603000640869,2.543570280075073,-2.548356056213379
301,20100.0,8.169095993041992,1.9764715433120728,-2.1846470832824707
302,20200.0,8.169095993041992,1.9764715433120728,-2.1846470832824707
303,20300.0,8.169095993041992,1.9764715433120728,-2.1846470832824707
304,20400.0,10.782057762145996,1.6989041566848757,-1.5744771957397459
305,20500.0,10.782057762145996,1.6989041566848757,-1.5744771957397459
306,20600.0,9.891928672790527,2.2779672145843506,-1.919043779373169
307,20700.0,9.891928672790527,2.2779672145843506,-1.919043779373169
308,20800.0,7.322037220001222,2.562713146209717,-3.7232320308685294
309,20900.0,7.322037220001222,2.562713146209717,-3.7232320308685294
310,21000.0,5.182853698730469,2.909672498703003,-2.4335007667541504
311,21100.0,5.182853698730469,2.909672498703003,-2.4335007667541504
312,21200.0,9.93978500366211,3.811766624450684,-3.086741209030152
313,21300.0,9.93978500366211,3.811766624450684,-3.086741209030152
314,21400.0,9.34157943725586,2.763710021972656,-3.830909013748169
315,21500.0,9.34157943725586,2.763710021972656,-3.830909013748169
316,21600.0,9.34157943725586,2.763710021972656,-3.830909013748169
317,21700.0,8.86780071258545,1.8927226066589355,-1.9094725847244265
318,21800.0,8.86780071258545,1.8927226066589355,-1.9094725847244265
319,21900.0,7.503891944885254,1.5649060010910034,-2.2468602657318115
320,21000.0,5.182853698730469,2.909672498703003,-2.4335007667541504
321,21100.0,5.182853698730469,2.909672498703003,-2.4335007667541504
322,21200.0,9.93978500366211,3.811766624450684,-3.086741209030152
323,21300.0,9.93978500366211,3.811766624450684,-3.086741209030152
324,21400.0,9.34157943725586,2.763710021972656,-3.830909013748169
325,21500.0,9.34157943725586,2.763710021972656,-3.830909013748169
326,21600.0,9.34157943725586,2.763710021972656,-3.830909013748169
327,21700.0,8.86780071258545,1.8927226066589355,-1.9094725847244265
328,21800.0,8.86780071258545,1.8927226066589355,-1.9094725847244265
329,21900.0,7.503891944885254,1.5649060010910034,-2.2468602657318115
330,22000.0,7.503891944885254,1.5649060010910034,-2.2468602657318115
331,22100.0,12.562318801879885,2.833101987838745,-3.067598581314087
332,22200.0,12.562318801879885,2.833101987838745,-3.067598581314087
333,22300.0,12.562318801879885,2.833101987838745,-3.067598581314087
334,22400.0,8.154739379882812,1.0289137363433838,-1.6055840253829956
335,22500.0,8.154739379882812,1.0289137363433838,-1.6055840253829956
336,22600.0,7.020541667938232,2.502892255783081,-2.7326035499572754
337,22700.0,7.020541667938232,2.502892255783081,-2.7326035499572754
338,22800.0,6.747759819030763,5.302494525909424,-3.634697675704956
339,22900.0,6.747759819030763,5.302494525909424,-3.634697675704956
340,22000.0,7.503891944885254,1.5649060010910034,-2.2468602657318115
341,22100.0,12.562318801879885,2.833101987838745,-3.067598581314087
342,22200.0,12.562318801879885,2.833101987838745,-3.067598581314087
343,22300.0,12.562318801879885,2.833101987838745,-3.067598581314087
344,22400.0,8.154739379882812,1.0289137363433838,-1.6055840253829956
345,22500.0,8.154739379882812,1.0289137363433838,-1.6055840253829956
346,22600.0,7.020541667938232,2.502892255783081,-2.7326035499572754
347,22700.0,7.020541667938232,2.502892255783081,-2.7326035499572754
348,22800.0,6.747759819030763,5.302494525909424,-3.634697675704956
349,22900.0,6.747759819030763,5.302494525909424,-3.634697675704956
350,23000.0,6.747759819030763,5.302494525909424,-3.634697675704956
351,23100.0,9.796216011047363,3.086741209030152,-1.6821542978286743
352,23200.0,9.796216011047363,3.086741209030152,-1.6821542978286743
353,23300.0,10.174281120300293,2.366501569747925,-2.711068153381348
354,23400.0,10.174281120300293,2.366501569747925,-2.711068153381348
355,23500.0,9.442078590393066,1.6965112686157229,-2.8833510875701904
356,23600.0,9.442078590393066,1.6965112686157229,-2.8833510875701904
357,23700.0,8.331808090209961,1.3351951837539673,-2.68953275680542
358,23800.0,8.331808090209961,1.3351951837539673,-2.68953275680542
359,23900.0,7.7048888206481925,0.9475577473640442,-2.3736801147460938
360,23000.0,6.747759819030763,5.302494525909424,-3.634697675704956
361,23100.0,9.796216011047363,3.086741209030152,-1.6821542978286743
362,23200.0,9.796216011047363,3.086741209030152,-1.6821542978286743
363,23300.0,10.174281120300293,2.366501569747925,-2.711068153381348
364,23400.0,10.174281120300293,2.366501569747925,-2.711068153381348
365,23500.0,9.442078590393066,1.6965112686157229,-2.8833510875701904
366,23600.0,9.442078590393066,1.6965112686157229,-2.8833510875701904
367,23700.0,8.331808090209961,1.3351951837539673,-2.68953275680542
368,23800.0,8.331808090209961,1.3351951837539673,-2.68953275680542
369,23900.0,7.7048888206481925,0.9475577473640442,-2.3736801147460938
370,24000.0,7.7048888206481925,0.9475577473640442,-2.3736801147460938
371,24100.0,7.7048888206481925,0.9475577473640442,-2.3736801147460938
372,24200.0,10.86341381072998,0.6436693072319031,-1.4404792785644531
373,24300.0,10.86341381072998,0.6436693072319031,-1.4404792785644531
374,24400.0,8.599804878234862,2.1990041732788086,-2.3545374870300293
375,24500.0,8.599804878234862,2.1990041732788086,-2.3545374870300293
376,24600.0,9.087940216064453,2.3712873458862305,-2.6799612045288086
377,24700.0,9.087940216064453,2.3712873458862305,-2.6799612045288086
378,24800.0,9.044869422912598,2.423929214477539,-3.433700561523437
379,24900.0,9.044869422912598,2.423929214477539,-3.433700561523437
380,24000.0,7.7048888206481925,0.9475577473640442,-2.3736801147460938
381,24100.0,7.7048888206481925,0.9475577473640442,-2.3736801147460938
382,24200.0,10.86341381072998,0.6436693072319031,-1.4404792785644531
383,24300.0,10.86341381072998,0.6436693072319031,-1.4404792785644531
384,24400.0,8.599804878234862,2.1990041732788086,-2.3545374870300293
385,24500.0,8.599804878234862,2.1990041732788086,-2.3545374870300293
386,24600.0,9.087940216064453,2.3712873458862305,-2.6799612045288086
387,24700.0,9.087940216064453,2.3712873458862305,-2.6799612045288086
388,24800.0,9.044869422912598,2.423929214477539,-3.433700561523437
389,24900.0,9.044869422912598,2.423929214477539,-3.433700561523437
390,25000.0,9.044869422912598,2.423929214477539,-3.433700561523437
391,25100.0,6.192624568939209,3.0652055740356445,-2.770888566970825
392,25200.0,6.192624568939209,3.0652055740356445,-2.770888566970825
393,25300.0,8.858229637145996,6.128018856048584,-3.002992391586304
394,25400.0,8.858229637145996,6.128018856048584,-3.002992391586304
395,25500.0,9.753145217895508,4.144368648529054,-3.35713005065918
396,25600.0,9.753145217895508,4.144368648529054,-3.35713005065918
397,25700.0,9.753145217895508,4.144368648529054,-3.35713005065918
398,25800.0,7.99681282043457,4.177868366241455,-2.761317014694214
399,25900.0,7.99681282043457,4.177868366241455,-2.761317014694214
400,25000.0,9.044869422912598,2.423929214477539,-3.433700561523437
401,25100.0,6.192624568939209,3.0652055740356445,-2.770888566970825
402,25200.0,6.192624568939209,3.0652055740356445,-2.770888566970825
403,25300.0,8.858229637145996,6.128018856048584,-3.002992391586304
404,25400.0,8.858229637145996,6.128018856048584,-3.002992391586304
405,25500.0,9.753145217895508,4.144368648529054,-3.35713005065918
406,25600.0,9.753145217895508,4.144368648529054,-3.35713005065918
407,25700.0,9.753145217895508,4.144368648529054,-3.35713005065918
408,25800.0,7.99681282043457,4.177868366241455,-2.761317014694214
409,25900.0,7.99681282043457,4.177868366241455,-2.761317014694214
410,26000.0,8.949156761169434,3.768695831298828,-3.201596736907959
411,26100.0,8.949156761169434,3.768695831298828,-3.201596736907959
412,26200.0,8.949156761169434,3.768695831298828,-3.201596736907959
413,26300.0,9.250652313232422,2.5292134284973145,-3.1968109607696533
414,26400.0,9.250652313232422,2.5292134284973145,-3.1968109607696533
415,26500.0,13.074383735656738,0.6245267391204834,-2.603391170501709
416,26600.0,13.074383735656738,0.6245267391204834,-2.603391170501709
417,26700.0,10.083355903625488,1.3998013734817505,-2.00518536567688
418,26800.0,10.083355903625488,1.3998013734817505,-2.00518536567688
419,26900.0,10.188638687133787,0.8374879360198975,-2.364108800888061
420,26000.0,8.949156761169434,3.768695831298828,-3.201596736907959
421,26100.0,8.949156761169434,3.768695831298828,-3.201596736907959
422,26200.0,8.949156761169434,3.768695831298828,-3.201596736907959
423,26300.0,9.250652313232422,2.5292134284973145,-3.1968109607696533
424,26400.0,9.250652313232422,2.5292134284973145,-3.1968109607696533
425,26500.0,13.074383735656738,0.6245267391204834,-2.603391170501709
426,26600.0,13.074383735656738,0.6245267391204834,-2.603391170501709
427,26700.0,10.083355903625488,1.3998013734817505,-2.00518536567688
428,26800.0,10.083355903625488,1.3998013734817505,-2.00518536567688
429,26900.0,10.188638687133787,0.8374879360198975,-2.364108800888061
430,27000.0,10.188638687133787,0.8374879360198975,-2.364108800888061
431,27100.0,8.307880401611326,0.6987042427062988,-2.447857618331909
432,27200.0,8.307880401611326,0.6987042427062988,-2.447857618331909
433,27300.0,7.700103282928468,1.5457634925842283,-2.108076810836792
434,27400.0,7.700103282928468,1.5457634925842283,-2.108076810836792
435,27500.0,7.700103282928468,1.5457634925842283,-2.108076810836792
436,27600.0,11.983256340026855,0.02153540588915348,-3.493520975112915
437,27700.0,11.983256340026855,0.02153540588915348,-3.493520975112915
438,27800.0,9.796216011047363,1.7994027137756348,-2.6392831802368164
439,27900.0,9.796216011047363,1.7994027137756348,-2.6392831802368164
440,27000.0,10.188638687133787,0.8374879360198975,-2.364108800888061
441,27100.0,8.307880401611326,0.6987042427062988,-2.447857618331909
442,27200.0,8.307880401611326,0.6987042427062988,-2.447857618331909
443,27300.0,7.700103282928468,1.5457634925842283,-2.108076810836792
444,27400.0,7.700103282928468,1.5457634925842283,-2.108076810836792
445,27500.0,7.700103282928468,1.5457634925842283,-2.108076810836792
446,27600.0,11.983256340026855,0.02153540588915348,-3.493520975112915
447,27700.0,11.983256340026855,0.02153540588915348,-3.493520975112915
448,27800.0,9.796216011047363,1.7994027137756348,-2.6392831802368164
449,27900.0,9.796216011047363,1.7994027137756348,-2.6392831802368164
450,28000.0,9.796216011047363,1.7994027137756348,-2.6392831802368164
451,28100.0,8.523234367370605,1.7635102272033691,-3.5557346343994136
452,28200.0,8.523234367370605,1.7635102272033691,-3.5557346343994136
453,28300.0,8.748159408569336,1.741974949836731,-3.7663028240203857
454,28400.0,8.748159408569336,1.741974949836731,-3.7663028240203857
455,28500.0,8.748159408569336,1.741974949836731,-3.7663028240203857
456,28600.0,15.314064025878904,2.6703903675079346,-4.2687954902648935
457,28700.0,15.314064025878904,2.6703903675079346,-4.2687954902648935
458,28800.0,7.99681282043457,1.5744771957397459,-3.0939197540283203
459,28900.0,7.99681282043457,1.5744771957397459,-3.0939197540283203
460,28000.0,9.796216011047363,1.7994027137756348,-2.6392831802368164
461,28100.0,8.523234367370605,1.7635102272033691,-3.5557346343994136
462,28200.0,8.523234367370605,1.7635102272033691,-3.5557346343994136
463,28300.0,8.748159408569336,1.741974949836731,-3.7663028240203857
464,28400.0,8.748159408569336,1.741974949836731,-3.7663028240203857
465,28500.0,8.748159408569336,1.741974949836731,-3.7663028240203857
466,28600.0,15.314064025878904,2.6703903675079346,-4.2687954902648935
467,28700.0,15.314064025878904,2.6703903675079346,-4.2687954902648935
468,28800.0,7.99681282043457,1.5744771957397459,-3.0939197540283203
469,28900.0,7.99681282043457,1.5744771957397459,-3.0939197540283203
470,29000.0,8.082954406738281,1.9716858863830569,-3.268595933914185
471,29100.0,8.082954406738281,1.9716858863830569,-3.268595933914185
472,29200.0,8.082954406738281,1.9716858863830569,-3.268595933914185
473,29300.0,8.207381248474121,2.203789472579956,-3.5605196952819824
474,29400.0,8.207381248474121,2.203789472579956,-3.5605196952819824
475,29500.0,12.854243278503418,2.6703903675079346,-2.486142873764038
476,29600.0,12.854243278503418,2.6703903675079346,-2.486142873764038
477,29700.0,8.417949676513674,0.8709874749183655,-2.744567632675171
478,29800.0,8.417949676513674,0.8709874749183655,-2.744567632675171
479,29900.0,8.666803359985353,0.8087739944458008,-3.1537401676177983
480,29000.0,8.082954406738281,1.9716858863830569,-3.268595933914185
481,29100.0,8.082954406738281,1.9716858863830569,-3.268595933914185
482,29200.0,8.082954406738281,1.9716858863830569,-3.268595933914185
483,29300.0,8.207381248474121,2.203789472579956,-3.5605196952819824
484,29400.0,8.207381248474121,2.203789472579956,-3.5605196952819824
485,29500.0,12.854243278503418,2.6703903675079346,-2.486142873764038
486,29600.0,12.854243278503418,2.6703903675079346,-2.486142873764038
487,29700.0,8.417949676513674,0.8709874749183655,-2.744567632675171
488,29800.0,8.417949676513674,0.8709874749183655,-2.744567632675171
489,29900.0,8.666803359985353,0.8087739944458008,-3.1537401676177983
490,30000.0,8.666803359985353,0.8087739944458008,-3.1537401676177983
491,30100.0,8.666803359985353,0.8087739944458008,-3.1537401676177983
492,30200.0,8.389235496520996,0.1220339611172676,-4.120440483093262
493,30300.0,8.389235496520996,0.1220339611172676,-4.120440483093262
494,30400.0,10.25563907623291,0.5934200286865234,-0.17228324711322784
495,30500.0,10.25563907623291,0.5934200286865234,-0.17228324711322784
496,30600.0,9.547362327575684,0.9595218896865844,-0.1698903888463974
497,30700.0,9.547362327575684,0.9595218896865844,-0.1698903888463974
498,30800.0,8.484949111938478,0.3445664942264557,-1.1748759746551514
499,30900.0,8.484949111938478,0.3445664942264557,-1.1748759746551514
500,30000.0,8.666803359985353,0.8087739944458008,-3.1537401676177983
501,30100.0,8.666803359985353,0.8087739944458008,-3.1537401676177983
502,30200.0,8.389235496520996,0.1220339611172676,-4.120440483093262
503,30300.0,8.389235496520996,0.1220339611172676,-4.120440483093262
504,30400.0,10.25563907623291,0.5934200286865234,-0.17228324711322784
505,30500.0,10.25563907623291,0.5934200286865234,-0.17228324711322784
506,30600.0,9.547362327575684,0.9595218896865844,-0.1698903888463974
507,30700.0,9.547362327575684,0.9595218896865844,-0.1698903888463974
508,30800.0,8.484949111938478,0.3445664942264557,-1.1748759746551514
509,30900.0,8.484949111938478,0.3445664942264557,-1.1748759746551514
510,31000.0,8.484949111938478,0.3445664942264557,-1.1748759746551514
511,31100.0,8.877371788024902,1.2035897970199585,-2.048256158828736
512,31200.0,8.877371788024902,1.2035897970199585,-2.048256158828736
513,31300.0,9.135796546936037,0.4594219326972962,-2.2995026111602783
514,31400.0,9.135796546936037,0.4594219326972962,-2.2995026111602783
515,31500.0,8.48016357421875,1.7874385118484497,-2.557927370071411
516,31600.0,8.48016357421875,1.7874385118484497,-2.557927370071411
517,31700.0,8.48016357421875,1.7874385118484497,-2.557927370071411
518,31800.0,10.327423095703123,1.2562319040298462,-2.364108800888061
519,31900.0,10.327423095703123,1.2562319040298462,-2.364108800888061
520,31000.0,8.484949111938478,0.3445664942264557,-1.1748759746551514
521,31100.0,8.877371788024902,1.2035897970199585,-2.048256158828736
522,31200.0,8.877371788024902,1.2035897970199585,-2.048256158828736
523,31300.0,9.135796546936037,0.4594219326972962,-2.2995026111602783
524,31400.0,9.135796546936037,0.4594219326972962,-2.2995026111602783
525,31500.0,8.48016357421875,1.7874385118484497,-2.557927370071411
526,31600.0,8.48016357421875,1.7874385118484497,-2.557927370071411
527,31700.0,8.48016357421875,1.7874385118484497,-2.557927370071411
528,31800.0,10.327423095703123,1.2562319040298462,-2.364108800888061
529,31900.0,10.327423095703123,1.2562319040298462,-2.364108800888061
530,32000.0,9.992427825927734,2.589033842086792,-2.699103832244873
531,32100.0,9.992427825927734,2.589033842086792,-2.699103832244873
532,32200.0,9.10229778289795,1.8233308792114256,-2.1439690589904785
533,32300.0,9.10229778289795,1.8233308792114256,-2.1439690589904785
534,32400.0,9.10229778289795,1.8233308792114256,-2.1439690589904785
535,32500.0,8.365307807922362,1.7778673171997068,-2.665604591369629
536,32600.0,8.365307807922362,1.7778673171997068,-2.665604591369629
537,32700.0,9.633503913879396,2.1128623485565186,-2.9862425327301025
538,32800.0,9.633503913879396,2.1128623485565186,-2.9862425327301025
539,32900.0,7.47517728805542,-1.129412293434143,-1.2729815244674685
540,32000.0,9.992427825927734,2.589033842086792,-2.699103832244873
541,32100.0,9.992427825927734,2.589033842086792,-2.699103832244873
542,32200.0,9.10229778289795,1.8233308792114256,-2.1439690589904785
543,32300.0,9.10229778289795,1.8233308792114256,-2.1439690589904785
544,32400.0,9.10229778289795,1.8233308792114256,-2.1439690589904785
545,32500.0,8.365307807922362,1.7778673171997068,-2.665604591369629
546,32600.0,8.365307807922362,1.7778673171997068,-2.665604591369629
547,32700.0,9.633503913879396,2.1128623485565186,-2.9862425327301025
548,32800.0,9.633503913879396,2.1128623485565186,-2.9862425327301025
549,32900.0,7.47517728805542,-1.129412293434143,-1.2729815244674685
550,33000.0,7.47517728805542,-1.129412293434143,-1.2729815244674685
551,33100.0,7.47517728805542,-1.129412293434143,-1.2729815244674685
552,33200.0,8.944371223449707,0.09571290016174316,-1.66301167011261
553,33300.0,8.944371223449707,0.09571290016174316,-1.66301167011261
554,33400.0,8.647661209106445,1.2634103298187256,-2.577069997787476
555,33500.0,8.647661209106445,1.2634103298187256,-2.577069997787476
556,33600.0,8.647661209106445,1.2634103298187256,-2.577069997787476
557,33700.0,8.987441062927246,1.3280165195465088,-2.522034883499145
558,33800.0,8.987441062927246,1.3280165195465088,-2.522034883499145
559,33900.0,12.634103775024414,2.7972097396850586,-3.005385160446167
560,33000.0,7.47517728805542,-1.129412293434143,-1.2729815244674685
561,33100.0,7.47517728805542,-1.129412293434143,-1.2729815244674685
562,33200.0,8.944371223449707,0.09571290016174316,-1.66301167011261
563,33300.0,8.944371223449707,0.09571290016174316,-1.66301167011261
564,33400.0,8.647661209106445,1.2634103298187256,-2.577069997787476
565,33500.0,8.647661209106445,1.2634103298187256,-2.577069997787476
566,33600.0,8.647661209106445,1.2634103298187256,-2.577069997787476
567,33700.0,8.987441062927246,1.3280165195465088,-2.522034883499145
568,33800.0,8.987441062927246,1.3280165195465088,-2.522034883499145
569,33900.0,12.634103775024414,2.7972097396850586,-3.005385160446167
570,34000.0,12.634103775024414,2.7972097396850586,-3.005385160446167
571,34100.0,10.700701713562012,2.4287149906158447,-2.2085752487182617
572,34200.0,10.700701713562012,2.4287149906158447,-2.2085752487182617
573,34300.0,8.336593627929688,2.244467735290528,-3.1896328926086426
574,34400.0,8.336593627929688,2.244467735290528,-3.1896328926086426
575,34500.0,8.336593627929688,2.244467735290528,-3.1896328926086426
576,34600.0,8.054241180419924,3.0939197540283203,-2.943171739578247
577,34700.0,8.054241180419924,3.0939197540283203,-2.943171739578247
578,34800.0,9.269794464111328,3.1058835983276367,-3.366701364517212
579,34900.0,9.269794464111328,3.1058835983276367,-3.366701364517212
580,34000.0,12.634103775024414,2.7972097396850586,-3.005385160446167
581,34100.0,10.700701713562012,2.4287149906158447,-2.2085752487182617
582,34200.0,10.700701713562012,2.4287149906158447,-2.2085752487182617
583,34300.0,8.336593627929688,2.244467735290528,-3.1896328926086426
584,34400.0,8.336593627929688,2.244467735290528,-3.1896328926086426
585,34500.0,8.336593627929688,2.244467735290528,-3.1896328926086426
586,34600.0,8.054241180419924,3.0939197540283203,-2.943171739578247
587,34700.0,8.054241180419924,3.0939197540283203,-2.943171739578247
588,34800.0,9.269794464111328,3.1058835983276367,-3.366701364517212
589,34900.0,9.269794464111328,3.1058835983276367,-3.366701364517212
590,35000.0,11.46640682220459,3.9122648239135738,-3.3212375640869136
591,35100.0,11.46640682220459,3.9122648239135738,-3.3212375640869136
592,35200.0,11.46640682220459,3.9122648239135738,-3.3212375640869136
593,35300.0,9.078369140625,1.4261221885681152,-2.548356056213379
594,35400.0,9.078369140625,1.4261221885681152,-2.548356056213379
595,35500.0,9.28893756866455,2.029113531112671,-2.8666017055511475
596,35600.0,9.28893756866455,2.029113531112671,-2.8666017055511475
597,35700.0,8.427520751953125,2.00518536567688,-2.3306093215942383
598,35800.0,8.427520751953125,2.00518536567688,-2.3306093215942383
599,35900.0,10.925628662109377,2.761317014694214,-3.1728827953338623
600,35000.0,11.46640682220459,3.9122648239135738,-3.3212375640869136
601,35100.0,11.46640682220459,3.9122648239135738,-3.3212375640869136
602,35200.0,11.46640682220459,3.9122648239135738,-3.3212375640869136
603,35300.0,9.078369140625,1.4261221885681152,-2.548356056213379
604,35400.0,9.078369140625,1.4261221885681152,-2.548356056213379
605,35500.0,9.28893756866455,2.029113531112671,-2.8666017055511475
606,35600.0,9.28893756866455,2.029113531112671,-2.8666017055511475
607,35700.0,8.427520751953125,2.00518536567688,-2.3306093215942383
608,35800.0,8.427520751953125,2.00518536567688,-2.3306093215942383
609,35900.0,10.925628662109377,2.761317014694214,-3.1728827953338623
610,36000.0,10.925628662109377,2.761317014694214,-3.1728827953338623
611,36100.0,10.925628662109377,2.761317014694214,-3.1728827953338623
612,36200.0,13.079168319702148,2.031506299972534,-2.9862425327301025
613,36300.0,13.079168319702148,2.031506299972534,-2.9862425327301025
614,36400.0,9.437292098999023,1.0241280794143677,-2.6560330390930176
615,36500.0,9.437292098999023,1.0241280794143677,-2.6560330390930176
616,36600.0,8.633303642272951,2.258824586868286,-3.2039895057678223
617,36700.0,8.633303642272951,2.258824586868286,-3.2039895057678223
618,36800.0,8.98265552520752,2.4335007667541504,-3.383451223373413
619,36900.0,8.98265552520752,2.4335007667541504,-3.383451223373413
620,36000.0,10.925628662109377,2.761317014694214,-3.1728827953338623
621,36100.0,10.925628662109377,2.761317014694214,-3.1728827953338623
622,36200.0,13.079168319702148,2.031506299972534,-2.9862425327301025
623,36300.0,13.079168319702148,2.031506299972534,-2.9862425327301025
624,36400.0,9.437292098999023,1.0241280794143677,-2.6560330390930176
625,36500.0,9.437292098999023,1.0241280794143677,-2.6560330390930176
626,36600.0,8.633303642272951,2.258824586868286,-3.2039895057678223
627,36700.0,8.633303642272951,2.258824586868286,-3.2039895057678223
628,36800.0,8.98265552520752,2.4335007667541504,-3.383451223373413
629,36900.0,8.98265552520752,2.4335007667541504,-3.383451223373413
630,37000.0,8.98265552520752,2.4335007667541504,-3.383451223373413
631,37100.0,8.863015174865723,2.4335007667541504,-3.479164123535156
632,37200.0,8.863015174865723,2.4335007667541504,-3.479164123535156
633,37300.0,9.533005714416504,2.739781856536865,-3.1537401676177983
634,37400.0,9.533005714416504,2.739781856536865,-3.1537401676177983
635,37500.0,6.833901405334473,1.8831514120101929,-3.90987229347229
636,37600.0,6.833901405334473,1.8831514120101929,-3.90987229347229
637,37700.0,6.833901405334473,1.8831514120101929,-3.90987229347229
638,37800.0,9.896714210510254,0.9044869542121888,-2.4717857837677
639,37900.0,9.896714210510254,0.9044869542121888,-2.4717857837677
640,37000.0,8.98265552520752,2.4335007667541504,-3.383451223373413
641,37100.0,8.863015174865723,2.4335007667541504,-3.479164123535156
642,37200.0,8.863015174865723,2.4335007667541504,-3.479164123535156
643,37300.0,9.533005714416504,2.739781856536865,-3.1537401676177983
644,37400.0,9.533005714416504,2.739781856536865,-3.1537401676177983
645,37500.0,6.833901405334473,1.8831514120101929,-3.90987229347229
646,37600.0,6.833901405334473,1.8831514120101929,-3.90987229347229
647,37700.0,6.833901405334473,1.8831514120101929,-3.90987229347229
648,37800.0,9.896714210510254,0.9044869542121888,-2.4717857837677
649,37900.0,9.896714210510254,0.9044869542121888,-2.4717857837677
650,38000.0,9.480363845825195,1.7635102272033691,-3.5054850578308105
651,38100.0,9.480363845825195,1.7635102272033691,-3.5054850578308105
652,38200.0,9.480363845825195,1.7635102272033691,-3.5054850578308105
653,38300.0,8.212166786193848,1.7994027137756348,-3.091526985168457
654,38400.0,8.212166786193848,1.7994027137756348,-3.091526985168457
655,38500.0,8.025527954101562,1.6701902151107788,-2.7421746253967285
656,38600.0,8.025527954101562,1.6701902151107788,-2.7421746253967285
657,38700.0,9.844072341918944,2.091326951980591,-2.4430718421936035
658,38800.0,9.844072341918944,2.091326951980591,-2.4430718421936035
659,38900.0,7.503891944885254,0.3086740970611572,-2.2229323387146
660,38000.0,9.480363845825195,1.7635102272033691,-3.5054850578308105
661,38100.0,9.480363845825195,1.7635102272033691,-3.5054850578308105
662,38200.0,9.480363845825195,1.7635102272033691,-3.5054850578308105
663,38300.0,8.212166786193848,1.7994027137756348,-3.091526985168457
664,38400.0,8.212166786193848,1.7994027137756348,-3.091526985168457
665,38500.0,8.025527954101562,1.6701902151107788,-2.7421746253967285
666,38600.0,8.025527954101562,1.6701902151107788,-2.7421746253967285
667,38700.0,9.844072341918944,2.091326951980591,-2.4430718421936035
668,38800.0,9.844072341918944,2.091326951980591,-2.4430718421936035
669,38900.0,7.503891944885254,0.3086740970611572,-2.2229323387146
670,39000.0,7.503891944885254,0.3086740970611572,-2.2229323387146
671,39100.0,8.930014610290527,1.581655740737915,-2.548356056213379
672,39200.0,8.930014610290527,1.581655740737915,-2.548356056213379
673,39300.0,6.6281185150146475,2.0458633899688716,-3.3236305713653564
674,39400.0,6.6281185150146475,2.0458633899688716,-3.3236305713653564
675,39500.0,6.6281185150146475,2.0458633899688716,-3.3236305713653564
676,39600.0,15.792630195617676,2.4741785526275635,-2.8929224014282227
677,39700.0,15.792630195617676,2.4741785526275635,-2.8929224014282227
678,39800.0,9.571290969848633,1.0983055830001829,-3.335594892501831
679,39900.0,9.571290969848633,1.0983055830001829,-3.335594892501831
680,39000.0,7.503891944885254,0.3086740970611572,-2.2229323387146
681,39100.0,8.930014610290527,1.581655740737915,-2.548356056213379
682,39200.0,8.930014610290527,1.581655740737915,-2.548356056213379
683,39300.0,6.6281185150146475,2.0458633899688716,-3.3236305713653564
684,39400.0,6.6281185150146475,2.0458633899688716,-3.3236305713653564
685,39500.0,6.6281185150146475,2.0458633899688716,-3.3236305713653564
686,39600.0,15.792630195617676,2.4741785526275635,-2.8929224014282227
687,39700.0,15.792630195617676,2.4741785526275635,-2.8929224014282227
688,39800.0,9.571290969848633,1.0983055830001829,-3.335594892501831
689,39900.0,9.571290969848633,1.0983055830001829,-3.335594892501831
690,40000.0,9.571290969848633,1.0983055830001829,-3.335594892501831
691,40100.0,9.131011009216307,1.643869161605835,-3.062812805175781
692,40200.0,9.131011009216307,1.643869161605835,-3.062812805175781
693,40300.0,8.422735214233397,1.9621145725250244,-2.7421746253967285
694,40400.0,8.422735214233397,1.9621145725250244,-2.7421746253967285
695,40500.0,8.360522270202638,1.6223337650299072,-2.823530912399292
696,40600.0,8.360522270202638,1.6223337650299072,-2.823530912399292
697,40700.0,8.360522270202638,1.6223337650299072,-2.823530912399292
698,40800.0,8.154739379882812,0.8063812851905823,-2.1607186794281006
699,40900.0,8.154739379882812,0.8063812851905823,-2.1607186794281006
700,40000.0,9.571290969848633,1.0983055830001829,-3.335594892501831
701,40100.0,9.131011009216307,1.643869161605835,-3.062812805175781
702,40200.0,9.131011009216307,1.643869161605835,-3.062812805175781
703,40300.0,8.422735214233397,1.9621145725250244,-2.7421746253967285
704,40400.0,8.422735214233397,1.9621145725250244,-2.7421746253967285
705,40500.0,8.360522270202638,1.6223337650299072,-2.823530912399292
706,40600.0,8.360522270202638,1.6223337650299072,-2.823530912399292
707,40700.0,8.360522270202638,1.6223337650299072,-2.823530912399292
708,40800.0,8.154739379882812,0.8063812851905823,-2.1607186794281006
709,40900.0,8.154739379882812,0.8063812851905823,-2.1607186794281006
710,41000.0,8.590232849121094,1.3830513954162598,-2.8354949951171875
711,41100.0,8.590232849121094,1.3830513954162598,-2.8354949951171875
712,41200.0,8.843873023986816,1.325623631477356,-2.746960401535034
713,41300.0,8.843873023986816,1.325623631477356,-2.746960401535034
714,41400.0,7.168896198272705,1.9716858863830569,-3.69930362701416
715,41500.0,7.168896198272705,1.9716858863830569,-3.69930362701416
716,41600.0,7.168896198272705,1.9716858863830569,-3.69930362701416
717,41700.0,11.935399055480955,3.0987055301666264,-3.1585259437561035
718,41800.0,11.935399055480955,3.0987055301666264,-3.1585259437561035
719,41900.0,9.494720458984377,1.155733346939087,-3.0939197540283203
720,41000.0,8.590232849121094,1.3830513954162598,-2.8354949951171875
721,41100.0,8.590232849121094,1.3830513954162598,-2.8354949951171875
722,41200.0,8.843873023986816,1.325623631477356,-2.746960401535034
723,41300.0,8.843873023986816,1.325623631477356,-2.746960401535034
724,41400.0,7.168896198272705,1.9716858863830569,-3.69930362701416
725,41500.0,7.168896198272705,1.9716858863830569,-3.69930362701416
726,41600.0,7.168896198272705,1.9716858863830569,-3.69930362701416
727,41700.0,11.935399055480955,3.0987055301666264,-3.1585259437561035
728,41800.0,11.935399055480955,3.0987055301666264,-3.1585259437561035
729,41900.0,9.494720458984377,1.155733346939087,-3.0939197540283203
730,42000.0,9.494720458984377,1.155733346939087,-3.0939197540283203
731,42100.0,9.556933403015137,1.196411371231079,-3.232703685760498
732,42200.0,9.556933403015137,1.196411371231079,-3.232703685760498
733,42300.0,9.556933403015137,1.196411371231079,-3.232703685760498
734,42400.0,9.221939086914062,1.4380863904953003,-2.756531953811645
735,42500.0,9.221939086914062,1.4380863904953003,-2.756531953811645
736,42600.0,8.331808090209961,1.7515461444854736,-2.4023938179016118
737,42700.0,8.331808090209961,1.7515461444854736,-2.4023938179016118
738,42800.0,9.518648147583008,1.6247265338897705,-2.6799612045288086
739,42900.0,9.518648147583008,1.6247265338897705,-2.6799612045288086
740,42000.0,9.494720458984377,1.155733346939087,-3.0939197540283203
741,42100.0,9.556933403015137,1.196411371231079,-3.232703685760498
742,42200.0,9.556933403015137,1.196411371231079,-3.232703685760498
743,42300.0,9.556933403015137,1.196411371231079,-3.232703685760498
744,42400.0,9.221939086914062,1.4380863904953003,-2.756531953811645
745,42500.0,9.221939086914062,1.4380863904953003,-2.756531953811645
746,42600.0,8.331808090209961,1.7515461444854736,-2.4023938179016118
747,42700.0,8.331808090209961,1.7515461444854736,-2.4023938179016118
748,42800.0,9.518648147583008,1.6247265338897705,-2.6799612045288086
749,42900.0,9.518648147583008,1.6247265338897705,-2.6799612045288086
750,43000.0,9.518648147583008,1.6247265338897705,-2.6799612045288086
751,43100.0,9.595218658447266,2.053041696548462,-2.1990041732788086
752,43200.0,9.595218658447266,2.053041696548462,-2.1990041732788086
753,43300.0,8.432307243347168,2.57228422164917,-2.6081764698028564
754,43400.0,8.432307243347168,2.57228422164917,-2.6081764698028564
755,43500.0,6.082554817199707,2.383251428604126,-2.847458839416504
756,43600.0,6.082554817199707,2.383251428604126,-2.847458839416504
757,43700.0,11.385049819946287,3.084348201751709,-3.45045018196106
758,43800.0,11.385049819946287,3.084348201751709,-3.45045018196106
759,43900.0,11.385049819946287,3.084348201751709,-3.45045018196106
760,43000.0,9.518648147583008,1.6247265338897705,-2.6799612045288086
761,43100.0,9.595218658447266,2.053041696548462,-2.1990041732788086
762,43200.0,9.595218658447266,2.053041696548462,-2.1990041732788086
763,43300.0,8.432307243347168,2.57228422164917,-2.6081764698028564
764,43400.0,8.432307243347168,2.57228422164917,-2.6081764698028564
765,43500.0,6.082554817199707,2.383251428604126,-2.847458839416504
766,43600.0,6.082554817199707,2.383251428604126,-2.847458839416504
767,43700.0,11.385049819946287,3.084348201751709,-3.45045018196106
768,43800.0,11.385049819946287,3.084348201751709,-3.45045018196106
769,43900.0,11.385049819946287,3.084348201751709,-3.45045018196106
770,44000.0,7.915457248687744,1.34476637840271,-3.208775281906128
771,44100.0,7.915457248687744,1.34476637840271,-3.208775281906128
772,44200.0,9.059226989746094,0.8494520783424377,-2.244467735290528
773,44300.0,9.059226989746094,0.8494520783424377,-2.244467735290528
774,44400.0,8.12123966217041,1.739582061767578,-2.7086753845214844
775,44500.0,8.12123966217041,1.739582061767578,-2.7086753845214844
776,44600.0,8.236095428466799,1.442872166633606,-2.9264223575592037
777,44700.0,8.236095428466799,1.442872166633606,-2.9264223575592037
778,44800.0,8.236095428466799,1.442872166633606,-2.9264223575592037
779,44900.0,10.82034397125244,2.069791555404663,-2.5914268493652344
780,44000.0,7.915457248687744,1.34476637840271,-3.208775281906128
781,44100.0,7.915457248687744,1.34476637840271,-3.208775281906128
782,44200.0,9.059226989746094,0.8494520783424377,-2.244467735290528
783,44300.0,9.059226989746094,0.8494520783424377,-2.244467735290528
784,44400.0,8.12123966217041,1.739582061767578,-2.7086753845214844
785,44500.0,8.12123966217041,1.739582061767578,-2.7086753845214844
786,44600.0,8.236095428466799,1.442872166633606,-2.9264223575592037
787,44700.0,8.236095428466799,1.442872166633606,-2.9264223575592037
788,44800.0,8.236095428466799,1.442872166633606,-2.9264223575592037
789,44900.0,10.82034397125244,2.069791555404663,-2.5914268493652344
790,45000.0,10.82034397125244,2.069791555404663,-2.5914268493652344
791,45100.0,8.073383331298826,2.8187451362609863,-2.031506299972534
792,45200.0,8.073383331298826,2.8187451362609863,-2.031506299972534
793,45300.0,8.417949676513674,2.964707374572754,-3.005385160446167
794,45400.0,8.417949676513674,2.964707374572754,-3.005385160446167
795,45500.0,7.197610855102539,3.0484561920166016,-2.756531953811645
796,45600.0,7.197610855102539,3.0484561920166016,-2.756531953811645
797,45700.0,10.69113063812256,2.0889341831207275,-2.651247262954712
798,45800.0,10.69113063812256,2.0889341831207275,-2.651247262954712
799,45900.0,8.24566650390625,1.368694543838501,-2.900100946426392
800,45000.0,10.82034397125244,2.069791555404663,-2.5914268493652344
801,45100.0,8.073383331298826,2.8187451362609863,-2.031506299972534
802,45200.0,8.073383331298826,2.8187451362609863,-2.031506299972534
803,45300.0,8.417949676513674,2.964707374572754,-3.005385160446167
804,45400.0,8.417949676513674,2.964707374572754,-3.005385160446167
805,45500.0,7.197610855102539,3.0484561920166016,-2.756531953811645
806,45600.0,7.197610855102539,3.0484561920166016,-2.756531953811645
807,45700.0,10.69113063812256,2.0889341831207275,-2.651247262954712
808,45800.0,10.69113063812256,2.0889341831207275,-2.651247262954712
809,45900.0,8.24566650390625,1.368694543838501,-2.900100946426392
810,46000.0,8.24566650390625,1.368694543838501,-2.900100946426392
811,46100.0,9.824929237365724,1.2658032178878784,-2.09850549697876
812,46200.0,9.824929237365724,1.2658032178878784,-2.09850549697876
813,46300.0,9.824929237365724,1.2658032178878784,-2.09850549697876
814,46400.0,8.97787094116211,1.9238293170928955,-2.100898265838623
815,46500.0,8.97787094116211,1.9238293170928955,-2.100898265838623
816,46600.0,6.546762466430664,1.3495519161224363,-2.2923240661621094
817,46700.0,6.546762466430664,1.3495519161224363,-2.2923240661621094
818,46800.0,15.031710624694824,2.9671001434326167,-3.4169507026672363
819,46900.0,15.031710624694824,2.9671001434326167,-3.4169507026672363
820,46000.0,8.24566650390625,1.368694543838501,-2.900100946426392
821,46100.0,9.824929237365724,1.2658032178878784,-2.09850549697876
822,46200.0,9.824929237365724,1.2658032178878784,-2.09850549697876
823,46300.0,9.824929237365724,1.2658032178878784,-2.09850549697876
824,46400.0,8.97787094116211,1.9238293170928955,-2.100898265838623
825,46500.0,8.97787094116211,1.9238293170928955,-2.100898265838623
826,46600.0,6.546762466430664,1.3495519161224363,-2.2923240661621094
827,46700.0,6.546762466430664,1.3495519161224363,-2.2923240661621094
828,46800.0,15.031710624694824,2.9671001434326167,-3.4169507026672363
829,46900.0,15.031710624694824,2.9671001434326167,-3.4169507026672363
830,47000.0,8.135597229003906,1.9238293170928955,-2.311466693878174
831,47100.0,8.135597229003906,1.9238293170928955,-2.311466693878174
832,47200.0,8.135597229003906,1.9238293170928955,-2.311466693878174
833,47300.0,8.011170387268066,2.8139593601226807,-3.0077781677246094
834,47400.0,8.011170387268066,2.8139593601226807,-3.0077781677246094
835,47500.0,6.656832218170166,2.648854732513428,-3.5700912475585938
836,47600.0,6.656832218170166,2.648854732513428,-3.5700912475585938
837,47700.0,9.413363456726074,3.7878382205963135,-2.864208698272705
838,47800.0,9.413363456726074,3.7878382205963135,-2.864208698272705
839,47900.0,9.437292098999023,1.6797614097595217,-2.8043880462646484
840,47000.0,8.135597229003906,1.9238293170928955,-2.311466693878174
841,47100.0,8.135597229003906,1.9238293170928955,-2.311466693878174
842,47200.0,8.135597229003906,1.9238293170928955,-2.311466693878174
843,47300.0,8.011170387268066,2.8139593601226807,-3.0077781677246094
844,47400.0,8.011170387268066,2.8139593601226807,-3.0077781677246094
845,47500.0,6.656832218170166,2.648854732513428,-3.5700912475585938
846,47600.0,6.656832218170166,2.648854732513428,-3.5700912475585938
847,47700.0,9.413363456726074,3.7878382205963135,-2.864208698272705
848,47800.0,9.413363456726074,3.7878382205963135,-2.864208698272705
849,47900.0,9.437292098999023,1.6797614097595217,-2.8043880462646484
850,48000.0,9.437292098999023,1.6797614097595217,-2.8043880462646484
851,48100.0,9.437292098999023,1.6797614097595217,-2.8043880462646484
852,48200.0,8.599804878234862,2.4598214626312256,-2.8809585571289062
853,48300.0,8.599804878234862,2.4598214626312256,-2.8809585571289062
854,48400.0,7.23589563369751,1.4476575851440432,-1.8065810203552248
855,48500.0,7.23589563369751,1.4476575851440432,-1.8065810203552248
856,48600.0,7.23589563369751,1.4476575851440432,-1.8065810203552248
857,48700.0,9.657432556152344,1.2634103298187256,-4.460221290588379
858,48800.0,9.657432556152344,1.2634103298187256,-4.460221290588379
859,48900.0,9.657432556152344,1.2634103298187256,-4.460221290588379
860,48000.0,9.437292098999023,1.6797614097595217,-2.8043880462646484
861,48100.0,9.437292098999023,1.6797614097595217,-2.8043880462646484
862,48200.0,8.599804878234862,2.4598214626312256,-2.8809585571289062
863,48300.0,8.599804878234862,2.4598214626312256,-2.8809585571289062
864,48400.0,7.23589563369751,1.4476575851440432,-1.8065810203552248
865,48500.0,7.23589563369751,1.4476575851440432,-1.8065810203552248
866,48600.0,7.23589563369751,1.4476575851440432,-1.8065810203552248
867,48700.0,9.657432556152344,1.2634103298187256,-4.460221290588379
868,48800.0,9.657432556152344,1.2634103298187256,-4.460221290588379
869,48900.0,9.657432556152344,1.2634103298187256,-4.460221290588379
870,49000.0,12.193824768066404,1.2729815244674685,0.6484549045562744
871,49100.0,12.193824768066404,1.2729815244674685,0.6484549045562744
872,49200.0,8.958727836608887,0.729810893535614,-1.8448662757873533
873,49300.0,8.958727836608887,0.729810893535614,-1.8448662757873533
874,49400.0,9.523433685302734,1.9740787744522093,-2.749353408813477
875,49500.0,9.523433685302734,1.9740787744522093,-2.749353408813477
876,49600.0,9.523433685302734,1.9740787744522093,-2.749353408813477
877,49700.0,9.207581520080566,0.5934200286865234,-4.132404804229736
878,49800.0,9.207581520080566,0.5934200286865234,-4.132404804229736
879,49900.0,9.470791816711426,1.0528419017791748,-1.7898313999176023
880,49000.0,12.193824768066404,1.2729815244674685,0.6484549045562744
881,49100.0,12.193824768066404,1.2729815244674685,0.6484549045562744
882,49200.0,8.958727836608887,0.729810893535614,-1.8448662757873533
883,49300.0,8.958727836608887,0.729810893535614,-1.8448662757873533
884,49400.0,9.523433685302734,1.9740787744522093,-2.749353408813477
885,49500.0,9.523433685302734,1.9740787744522093,-2.749353408813477
886,49600.0,9.523433685302734,1.9740787744522093,-2.749353408813477
887,49700.0,9.207581520080566,0.5934200286865234,-4.132404804229736
888,49800.0,9.207581520080566,0.5934200286865234,-4.132404804229736
889,49900.0,9.470791816711426,1.0528419017791748,-1.7898313999176023
890,50000.0,9.470791816711426,1.0528419017791748,-1.7898313999176023
891,50100.0,10.14556884765625,1.1150553226470947,-2.4095723628997803
892,50200.0,10.14556884765625,1.1150553226470947,-2.4095723628997803
893,50300.0,8.365307807922362,1.3351951837539673,-2.7349963188171387
894,50400.0,8.365307807922362,1.3351951837539673,-2.7349963188171387
895,50500.0,8.633303642272951,0.9499505758285522,-2.603391170501709
896,50600.0,8.633303642272951,0.9499505758285522,-2.603391170501709
897,50700.0,8.633303642272951,0.9499505758285522,-2.603391170501709
898,50800.0,15.227923393249512,2.2013967037200928,-2.4885356426239014
899,50900.0,15.227923393249512,2.2013967037200928,-2.4885356426239014
900,50000.0,9.470791816711426,1.0528419017791748,-1.7898313999176023
901,50100.0,10.14556884765625,1.1150553226470947,-2.4095723628997803
902,50200.0,10.14556884765625,1.1150553226470947,-2.4095723628997803
903,50300.0,8.365307807922362,1.3351951837539673,-2.7349963188171387
904,50400.0,8.365307807922362,1.3351951837539673,-2.7349963188171387
905,50500.0,8.633303642272951,0.9499505758285522,-2.603391170501709
906,50600.0,8.633303642272951,0.9499505758285522,-2.603391170501709
907,50700.0,8.633303642272951,0.9499505758285522,-2.603391170501709
908,50800.0,15.227923393249512,2.2013967037200928,-2.4885356426239014
909,50900.0,15.227923393249512,2.2013967037200928,-2.4885356426239014
910,51000.0,9.346364974975586,0.8303093910217285,-3.0556347370147705
911,51100.0,9.346364974975586,0.8303093910217285,-3.0556347370147705
912,51200.0,9.260223388671877,1.7754744291305542,-2.368894338607788
913,51300.0,9.260223388671877,1.7754744291305542,-2.368894338607788
914,51400.0,9.370293617248537,1.7922240495681765,-2.3736801147460938
915,51500.0,9.370293617248537,1.7922240495681765,-2.3736801147460938
916,51600.0,9.370293617248537,1.7922240495681765,-2.3736801147460938
917,51700.0,8.906085968017578,1.6821542978286743,-2.390429735183716
918,51800.0,8.906085968017578,1.6821542978286743,-2.390429735183716
919,51900.0,9.193224906921387,1.983649969100952,-2.8211379051208496
920,51000.0,9.346364974975586,0.8303093910217285,-3.0556347370147705
921,51100.0,9.346364974975586,0.8303093910217285,-3.0556347370147705
922,51200.0,9.260223388671877,1.7754744291305542,-2.368894338607788
923,51300.0,9.260223388671877,1.7754744291305542,-2.368894338607788
924,51400.0,9.370293617248537,1.7922240495681765,-2.3736801147460938
925,51500.0,9.370293617248537,1.7922240495681765,-2.3736801147460938
926,51600.0,9.370293617248537,1.7922240495681765,-2.3736801147460938
927,51700.0,8.906085968017578,1.6821542978286743,-2.390429735183716
928,51800.0,8.906085968017578,1.6821542978286743,-2.390429735183716
929,51900.0,9.193224906921387,1.983649969100952,-2.8211379051208496
930,52000.0,9.193224906921387,1.983649969100952,-2.8211379051208496
931,52100.0,8.23130989074707,1.4644075632095337,-2.416750907897949
932,52200.0,8.23130989074707,1.4644075632095337,-2.416750907897949
933,52300.0,11.523834228515625,2.8354949951171875,-3.2470602989196777
934,52400.0,11.523834228515625,2.8354949951171875,-3.2470602989196777
935,52500.0,7.791030406951903,0.9571290016174316,-3.4576287269592285
936,52600.0,7.791030406951903,0.9571290016174316,-3.4576287269592285
937,52700.0,7.791030406951903,0.9571290016174316,-3.4576287269592285
938,52800.0,8.772088050842285,1.782652735710144,-3.208775281906128
939,52900.0,8.772088050842285,1.782652735710144,-3.208775281906128
940,52000.0,9.193224906921387,1.983649969100952,-2.8211379051208496
941,52100.0,8.23130989074707,1.4644075632095337,-2.416750907897949
942,52200.0,8.23130989074707,1.4644075632095337,-2.416750907897949
943,52300.0,11.523834228515625,2.8354949951171875,-3.2470602989196777
944,52400.0,11.523834228515625,2.8354949951171875,-3.2470602989196777
945,52500.0,7.791030406951903,0.9571290016174316,-3.4576287269592285
946,52600.0,7.791030406951903,0.9571290016174316,-3.4576287269592285
947,52700.0,7.791030406951903,0.9571290016174316,-3.4576287269592285
948,52800.0,8.772088050842285,1.782652735710144,-3.208775281906128
949,52900.0,8.772088050842285,1.782652735710144,-3.208775281906128
950,53000.0,8.250452041625978,1.4333008527755735,-3.156132936477661
951,53100.0,8.250452041625978,1.4333008527755735,-3.156132936477661
952,53200.0,8.441878318786621,1.794616937637329,-2.569891452789306
953,53300.0,8.441878318786621,1.794616937637329,-2.569891452789306
954,53400.0,8.441878318786621,1.794616937637329,-2.569891452789306
955,53500.0,10.29870891571045,1.6055840253829956,-3.005385160446167
956,53600.0,10.29870891571045,1.6055840253829956,-3.005385160446167
957,53700.0,8.82951545715332,0.07178468257188797,-2.038684844970703
958,53800.0,8.82951545715332,0.07178468257188797,-2.038684844970703
959,53900.0,9.968499183654783,1.2370892763137815,-1.5433706045150757
960,53000.0,8.250452041625978,1.4333008527755735,-3.156132936477661
961,53100.0,8.250452041625978,1.4333008527755735,-3.156132936477661
962,53200.0,8.441878318786621,1.794616937637329,-2.569891452789306
963,53300.0,8.441878318786621,1.794616937637329,-2.569891452789306
964,53400.0,8.441878318786621,1.794616937637329,-2.569891452789306
965,53500.0,10.29870891571045,1.6055840253829956,-3.005385160446167
966,53600.0,10.29870891571045,1.6055840253829956,-3.005385160446167
967,53700.0,8.82951545715332,0.07178468257188797,-2.038684844970703
968,53800.0,8.82951545715332,0.07178468257188797,-2.038684844970703
969,53900.0,9.968499183654783,1.2370892763137815,-1.5433706045150757
970,54000.0,9.968499183654783,1.2370892763137815,-1.5433706045150757
971,54100.0,9.968499183654783,1.2370892763137815,-1.5433706045150757
972,54200.0,8.173882484436035,1.9860427379608157,-2.65842604637146
973,54300.0,8.173882484436035,1.9860427379608157,-2.65842604637146
974,54400.0,7.025327682495117,2.0865414142608643,-2.258824586868286
975,54500.0,7.025327682495117,2.0865414142608643,-2.258824586868286
976,54600.0,10.461421012878418,1.4811571836471558,-2.964707374572754
977,54700.0,10.461421012878418,1.4811571836471558,-2.964707374572754
978,54800.0,8.614161491394043,1.7443678379058838,-3.0747771263122563
979,54900.0,8.614161491394043,1.7443678379058838,-3.0747771263122563
980,54000.0,9.968499183654783,1.2370892763137815,-1.5433706045150757
981,54100.0,9.968499183654783,1.2370892763137815,-1.5433706045150757
982,54200.0,8.173882484436035,1.9860427379608157,-2.65842604637146
983,54300.0,8.173882484436035,1.9860427379608157,-2.65842604637146
984,54400.0,7.025327682495117,2.0865414142608643,-2.258824586868286
985,54500.0,7.025327682495117,2.0865414142608643,-2.258824586868286
986,54600.0,10.461421012878418,1.4811571836471558,-2.964707374572754
987,54700.0,10.461421012878418,1.4811571836471558,-2.964707374572754
988,54800.0,8.614161491394043,1.7443678379058838,-3.0747771263122563
989,54900.0,8.614161491394043,1.7443678379058838,-3.0747771263122563
990,55000.0,8.614161491394043,1.7443678379058838,-3.0747771263122563
991,55100.0,8.059026718139647,2.4741785526275635,-3.3403804302215576
992,55200.0,8.059026718139647,2.4741785526275635,-3.3403804302215576
993,55300.0,7.724031925201416,2.366501569747925,-3.5509488582611084
994,55400.0,7.724031925201416,2.366501569747925,-3.5509488582611084
995,55500.0,14.58186149597168,2.9551358222961426,-3.5820553302764893
996,55600.0,14.58186149597168,2.9551358222961426,-3.5820553302764893
997,55700.0,8.915657043457031,1.7922240495681765,-2.4646072387695312
998,55800.0,8.915657043457031,1.7922240495681765,-2.4646072387695312
999,55900.0,8.915657043457031,1.7922240495681765,-2.4646072387695312
1000,55000.0,8.614161491394043,1.7443678379058838,-3.0747771263122563
1001,55100.0,8.059026718139647,2.4741785526275635,-3.3403804302215576
1002,55200.0,8.059026718139647,2.4741785526275635,-3.3403804302215576
1003,55300.0,7.724031925201416,2.366501569747925,-3.5509488582611084
1004,55400.0,7.724031925201416,2.366501569747925,-3.5509488582611084
1005,55500.0,14.58186149597168,2.9551358222961426,-3.5820553302764893
1006,55600.0,14.58186149597168,2.9551358222961426,-3.5820553302764893
1007,55700.0,8.915657043457031,1.7922240495681765,-2.4646072387695312
1008,55800.0,8.915657043457031,1.7922240495681765,-2.4646072387695312
1009,55900.0,8.915657043457031,1.7922240495681765,-2.4646072387695312
1010,56000.0,9.198010444641113,1.7491532564163208,-2.5052852630615234
1011,56100.0,9.198010444641113,1.7491532564163208,-2.5052852630615234
1012,56200.0,8.221738815307617,1.2777673006057741,-2.4957141876220703
1013,56300.0,8.221738815307617,1.2777673006057741,-2.4957141876220703
1014,56400.0,8.49452018737793,1.782652735710144,-2.5938196182250977
1015,56500.0,8.49452018737793,1.782652735710144,-2.5938196182250977
1016,56600.0,11.892329216003418,1.6127625703811646,-2.9168508052825928
1017,56700.0,11.892329216003418,1.6127625703811646,-2.9168508052825928
1018,56800.0,11.892329216003418,1.6127625703811646,-2.9168508052825928
1019,56900.0,9.269794464111328,1.7204395532608032,-2.414358139038086
1020,56000.0,9.198010444641113,1.7491532564163208,-2.5052852630615234
1021,56100.0,9.198010444641113,1.7491532564163208,-2.5052852630615234
1022,56200.0,8.221738815307617,1.2777673006057741,-2.4957141876220703
1023,56300.0,8.221738815307617,1.2777673006057741,-2.4957141876220703
1024,56400.0,8.49452018737793,1.782652735710144,-2.5938196182250977
1025,56500.0,8.49452018737793,1.782652735710144,-2.5938196182250977
1026,56600.0,11.892329216003418,1.6127625703811646,-2.9168508052825928
1027,56700.0,11.892329216003418,1.6127625703811646,-2.9168508052825928
1028,56800.0,11.892329216003418,1.6127625703811646,-2.9168508052825928
1029,56900.0,9.269794464111328,1.7204395532608032,-2.414358139038086
1030,57000.0,9.269794464111328,1.7204395532608032,-2.414358139038086
1031,57100.0,9.944571495056152,2.256431579589844,-3.7830524444580083
1032,57200.0,9.944571495056152,2.256431579589844,-3.7830524444580083
1033,57300.0,9.944571495056152,2.256431579589844,-3.7830524444580083
1034,57400.0,11.22233772277832,3.034099102020264,-3.948157548904419
1035,57500.0,11.22233772277832,3.034099102020264,-3.948157548904419
1036,57600.0,8.681159973144531,1.983649969100952,-2.423929214477539
1037,57700.0,8.681159973144531,1.983649969100952,-2.423929214477539
1038,57800.0,9.31765079498291,2.050648927688598,-2.627319574356079
1039,57900.0,9.31765079498291,2.050648927688598,-2.627319574356079
1040,57000.0,9.269794464111328,1.7204395532608032,-2.414358139038086
1041,57100.0,9.944571495056152,2.256431579589844,-3.7830524444580083
1042,57200.0,9.944571495056152,2.256431579589844,-3.7830524444580083
1043,57300.0,9.944571495056152,2.256431579589844,-3.7830524444580083
1044,57400.0,11.22233772277832,3.034099102020264,-3.948157548904419
1045,57500.0,11.22233772277832,3.034099102020264,-3.948157548904419
1046,57600.0,8.681159973144531,1.983649969100952,-2.423929214477539
1047,57700.0,8.681159973144531,1.983649969100952,-2.423929214477539
1048,57800.0,9.31765079498291,2.050648927688598,-2.627319574356079
1049,57900.0,9.31765079498291,2.050648927688598,-2.627319574356079
1050,58000.0,9.169296264648438,2.3497519493103027,-2.0889341831207275
1051,58100.0,9.169296264648438,2.3497519493103027,-2.0889341831207275
1052,58200.0,9.169296264648438,2.3497519493103027,-2.0889341831207275
1053,58300.0,8.102097511291504,2.091326951980591,-2.6608188152313232
1054,58400.0,8.102097511291504,2.091326951980591,-2.6608188152313232
1055,58500.0,8.178668022155763,1.9501504898071291,-2.5507488250732417
1056,58600.0,8.178668022155763,1.9501504898071291,-2.5507488250732417
1057,58700.0,9.18843936920166,2.1415762901306152,-2.809173583984375
1058,58800.0,9.18843936920166,2.1415762901306152,-2.809173583984375
1059,58900.0,9.159724235534668,1.4883356094360352,-2.785245418548584
1060,58000.0,9.169296264648438,2.3497519493103027,-2.0889341831207275
1061,58100.0,9.169296264648438,2.3497519493103027,-2.0889341831207275
1062,58200.0,9.169296264648438,2.3497519493103027,-2.0889341831207275
1063,58300.0,8.102097511291504,2.091326951980591,-2.6608188152313232
1064,58400.0,8.102097511291504,2.091326951980591,-2.6608188152313232
1065,58500.0,8.178668022155763,1.9501504898071291,-2.5507488250732417
1066,58600.0,8.178668022155763,1.9501504898071291,-2.5507488250732417
1067,58700.0,9.18843936920166,2.1415762901306152,-2.809173583984375
1068,58800.0,9.18843936920166,2.1415762901306152,-2.809173583984375
1069,58900.0,9.159724235534668,1.4883356094360352,-2.785245418548584
1070,59000.0,9.159724235534668,1.4883356094360352,-2.785245418548584
1071,59100.0,9.159724235534668,1.4883356094360352,-2.785245418548584
1072,59200.0,8.068597793579103,2.031506299972534,-3.806980848312378
1073,59300.0,8.068597793579103,2.031506299972534,-3.806980848312378
1074,59400.0,6.642475128173827,1.5170495510101318,-3.665804386138916
1075,59500.0,6.642475128173827,1.5170495510101318,-3.665804386138916
1076,59600.0,10.77727222442627,3.7878382205963135,-4.096512317657472
1077,59700.0,10.77727222442627,3.7878382205963135,-4.096512317657472
1078,59800.0,7.623533248901367,2.5459630489349365,-3.2518460750579834
1079,59900.0,7.623533248901367,2.5459630489349365,-3.2518460750579834
1080,59000.0,9.159724235534668,1.4883356094360352,-2.785245418548584
1081,59100.0,9.159724235534668,1.4883356094360352,-2.785245418548584
1082,59200.0,8.068597793579103,2.031506299972534,-3.806980848312378
1083,59300.0,8.068597793579103,2.031506299972534,-3.806980848312378
1084,59400.0,6.642475128173827,1.5170495510101318,-3.665804386138916
1085,59500.0,6.642475128173827,1.5170495510101318,-3.665804386138916
1086,59600.0,10.77727222442627,3.7878382205963135,-4.096512317657472
1087,59700.0,10.77727222442627,3.7878382205963135,-4.096512317657472
1088,59800.0,7.623533248901367,2.5459630489349365,-3.2518460750579834
1089,59900.0,7.623533248901367,2.5459630489349365,-3.2518460750579834
1090,60000.0,7.623533248901367,2.5459630489349365,-3.2518460750579834
1091,60100.0,9.207581520080566,1.8664016723632808,-3.1704900264739986
1092,60200.0,9.207581520080566,1.8664016723632808,-3.1704900264739986
1093,60300.0,7.867600917816162,2.3306093215942383,-2.4023938179016118
1094,60400.0,7.867600917816162,2.3306093215942383,-2.4023938179016118
1095,60500.0,8.145168304443361,1.37587308883667,-2.395215511322021
1096,60600.0,8.145168304443361,1.37587308883667,-2.395215511322021
1097,60700.0,9.920641899108887,-0.705882728099823,-2.53399920463562
1098,60800.0,9.920641899108887,-0.705882728099823,-2.53399920463562
1099,60900.0,9.920641899108887,-0.705882728099823,-2.53399920463562
1100,60000.0,7.623533248901367,2.5459630489349365,-3.2518460750579834
1101,60100.0,9.207581520080566,1.8664016723632808,-3.1704900264739986
1102,60200.0,9.207581520080566,1.8664016723632808,-3.1704900264739986
1103,60300.0,7.867600917816162,2.3306093215942383,-2.4023938179016118
1104,60400.0,7.867600917816162,2.3306093215942383,-2.4023938179016118
1105,60500.0,8.145168304443361,1.37587308883667,-2.395215511322021
1106,60600.0,8.145168304443361,1.37587308883667,-2.395215511322021
1107,60700.0,9.920641899108887,-0.705882728099823,-2.53399920463562
1108,60800.0,9.920641899108887,-0.705882728099823,-2.53399920463562
1109,60900.0,9.920641899108887,-0.705882728099823,-2.53399920463562
1110,61000.0,9.681360244750977,0.7417750358581543,-2.1272192001342773
1111,61100.0,9.681360244750977,0.7417750358581543,-2.1272192001342773
1112,61200.0,8.264809608459473,1.5529417991638184,-2.84506630897522
1113,61300.0,8.264809608459473,1.5529417991638184,-2.84506630897522
1114,61400.0,7.508677005767822,1.6965112686157229,-2.964707374572754
1115,61500.0,7.508677005767822,1.6965112686157229,-2.964707374572754
1116,61600.0,7.22153902053833,1.4787644147872925,-2.6321046352386475
1117,61700.0,7.22153902053833,1.4787644147872925,-2.6321046352386475
1118,61800.0,7.22153902053833,1.4787644147872925,-2.6321046352386475
1119,61900.0,10.293922424316406,2.89052963256836,-3.0388848781585693
1120,61000.0,9.681360244750977,0.7417750358581543,-2.1272192001342773
1121,61100.0,9.681360244750977,0.7417750358581543,-2.1272192001342773
1122,61200.0,8.264809608459473,1.5529417991638184,-2.84506630897522
1123,61300.0,8.264809608459473,1.5529417991638184,-2.84506630897522
1124,61400.0,7.508677005767822,1.6965112686157229,-2.964707374572754
1125,61500.0,7.508677005767822,1.6965112686157229,-2.964707374572754
1126,61600.0,7.22153902053833,1.4787644147872925,-2.6321046352386475
1127,61700.0,7.22153902053833,1.4787644147872925,-2.6321046352386475
1128,61800.0,7.22153902053833,1.4787644147872925,-2.6321046352386475
1129,61900.0,10.293922424316406,2.89052963256836,-3.0388848781585693
1130,62000.0,10.293922424316406,2.89052963256836,-3.0388848781585693
1131,62100.0,8.95394229888916,2.569891452789306,-2.4885356426239014
1132,62200.0,8.95394229888916,2.569891452789306,-2.4885356426239014
1133,62300.0,8.642874717712402,2.1200408935546875,-2.364108800888061
1134,62400.0,8.642874717712402,2.1200408935546875,-2.364108800888061
1135,62500.0,7.724031925201416,2.2133607864379883,-2.4598214626312256
1136,62600.0,7.724031925201416,2.2133607864379883,-2.4598214626312256
1137,62700.0,7.724031925201416,2.2133607864379883,-2.4598214626312256
1138,62800.0,9.523433685302734,1.6486548185348509,-2.3066811561584477
1139,62900.0,9.523433685302734,1.6486548185348509,-2.3066811561584477
1140,62000.0,10.293922424316406,2.89052963256836,-3.0388848781585693
1141,62100.0,8.95394229888916,2.569891452789306,-2.4885356426239014
1142,62200.0,8.95394229888916,2.569891452789306,-2.4885356426239014
1143,62300.0,8.642874717712402,2.1200408935546875,-2.364108800888061
1144,62400.0,8.642874717712402,2.1200408935546875,-2.364108800888061
1145,62500.0,7.724031925201416,2.2133607864379883,-2.4598214626312256
1146,62600.0,7.724031925201416,2.2133607864379883,-2.4598214626312256
1147,62700.0,7.724031925201416,2.2133607864379883,-2.4598214626312256
1148,62800.0,9.523433685302734,1.6486548185348509,-2.3066811561584477
1149,62900.0,9.523433685302734,1.6486548185348509,-2.3066811561584477
1150,63000.0,10.399208068847656,0.1866401582956314,-2.699103832244873
1151,63100.0,10.399208068847656,0.1866401582956314,-2.699103832244873
1152,63200.0,8.255237579345701,1.8185452222824097,-2.6392831802368164
1153,63300.0,8.255237579345701,1.8185452222824097,-2.6392831802368164
1154,63400.0,8.255237579345701,1.8185452222824097,-2.6392831802368164
1155,63500.0,8.446663856506348,1.56251323223114,-3.510270833969116
1156,63600.0,8.446663856506348,1.56251323223114,-3.510270833969116
1157,63700.0,8.011170387268066,0.6915256977081299,-4.666004180908203
1158,63800.0,8.011170387268066,0.6915256977081299,-4.666004180908203
1159,63900.0,9.657432556152344,2.5196423530578613,-1.191625714302063
1160,63000.0,10.399208068847656,0.1866401582956314,-2.699103832244873
1161,63100.0,10.399208068847656,0.1866401582956314,-2.699103832244873
1162,63200.0,8.255237579345701,1.8185452222824097,-2.6392831802368164
1163,63300.0,8.255237579345701,1.8185452222824097,-2.6392831802368164
1164,63400.0,8.255237579345701,1.8185452222824097,-2.6392831802368164
1165,63500.0,8.446663856506348,1.56251323223114,-3.510270833969116
1166,63600.0,8.446663856506348,1.56251323223114,-3.510270833969116
1167,63700.0,8.011170387268066,0.6915256977081299,-4.666004180908203
1168,63800.0,8.011170387268066,0.6915256977081299,-4.666004180908203
1169,63900.0,9.657432556152344,2.5196423530578613,-1.191625714302063
1170,64000.0,9.657432556152344,2.5196423530578613,-1.191625714302063
1171,64100.0,9.657432556152344,2.5196423530578613,-1.191625714302063
1172,64200.0,10.882556915283203,1.56251323223114,-2.007578134536743
1173,64300.0,10.882556915283203,1.56251323223114,-2.007578134536743
1174,64400.0,9.657432556152344,2.366501569747925,-4.977071285247803
1175,64500.0,9.657432556152344,2.366501569747925,-4.977071285247803
1176,64600.0,12.361321449279785,1.832902193069458,-2.155933380126953
1177,64700.0,12.361321449279785,1.832902193069458,-2.155933380126953
1178,64800.0,11.064411163330078,1.1222338676452637,-2.2947168350219727
1179,64900.0,11.064411163330078,1.1222338676452637,-2.2947168350219727
1180,64000.0,9.657432556152344,2.5196423530578613,-1.191625714302063
1181,64100.0,9.657432556152344,2.5196423530578613,-1.191625714302063
1182,64200.0,10.882556915283203,1.56251323223114,-2.007578134536743
1183,64300.0,10.882556915283203,1.56251323223114,-2.007578134536743
1184,64400.0,9.657432556152344,2.366501569747925,-4.977071285247803
1185,64500.0,9.657432556152344,2.366501569747925,-4.977071285247803
1186,64600.0,12.361321449279785,1.832902193069458,-2.155933380126953
1187,64700.0,12.361321449279785,1.832902193069458,-2.155933380126953
1188,64800.0,11.064411163330078,1.1222338676452637,-2.2947168350219727
1189,64900.0,11.064411163330078,1.1222338676452637,-2.2947168350219727
1190,65000.0,9.671788215637207,0.7130610942840576,-2.9814569950103764
1191,65100.0,9.671788215637207,0.7130610942840576,-2.9814569950103764
1192,65200.0,9.671788215637207,0.7130610942840576,-2.9814569950103764
1193,65300.0,8.968299865722656,1.105484127998352,-2.8761727809906006
1194,65400.0,8.968299865722656,1.105484127998352,-2.8761727809906006
1195,65500.0,7.982456684112549,2.0721843242645264,-2.6775684356689453
1196,65600.0,7.982456684112549,2.0721843242645264,-2.6775684356689453
1197,65700.0,7.982456684112549,2.0721843242645264,-2.6775684356689453
1198,65800.0,8.599804878234862,1.9262222051620483,-3.4025940895080566
1199,65900.0,8.599804878234862,1.9262222051620483,-3.4025940895080566
1200,65000.0,9.671788215637207,0.7130610942840576,-2.9814569950103764
1201,65100.0,9.671788215637207,0.7130610942840576,-2.9814569950103764
1202,65200.0,9.671788215637207,0.7130610942840576,-2.9814569950103764
1203,65300.0,8.968299865722656,1.105484127998352,-2.8761727809906006
1204,65400.0,8.968299865722656,1.105484127998352,-2.8761727809906006
1205,65500.0,7.982456684112549,2.0721843242645264,-2.6775684356689453
1206,65600.0,7.982456684112549,2.0721843242645264,-2.6775684356689453
1207,65700.0,7.982456684112549,2.0721843242645264,-2.6775684356689453
1208,65800.0,8.599804878234862,1.9262222051620483,-3.4025940895080566
1209,65900.0,8.599804878234862,1.9262222051620483,-3.4025940895080566
1210,66000.0,14.031512260437012,2.3784656524658203,-3.0652055740356445
1211,66100.0,14.031512260437012,2.3784656524658203,-3.0652055740356445
1212,66200.0,9.049654960632324,1.8113667964935305,-2.167897224426269
1213,66300.0,9.049654960632324,1.8113667964935305,-2.167897224426269
1214,66400.0,9.049654960632324,1.8113667964935305,-2.167897224426269
1215,66500.0,8.98265552520752,2.9718859195709233,-2.830709218978882
1216,66600.0,8.98265552520752,2.9718859195709233,-2.830709218978882
1217,66700.0,8.968299865722656,1.964507341384888,-2.1128623485565186
1218,66800.0,8.968299865722656,1.964507341384888,-2.1128623485565186
1219,66900.0,7.0923261642456055,1.34476637840271,-2.09850549697876
1220,66000.0,14.031512260437012,2.3784656524658203,-3.0652055740356445
1221,66100.0,14.031512260437012,2.3784656524658203,-3.0652055740356445
1222,66200.0,9.049654960632324,1.8113667964935305,-2.167897224426269
1223,66300.0,9.049654960632324,1.8113667964935305,-2.167897224426269
1224,66400.0,9.049654960632324,1.8113667964935305,-2.167897224426269
1225,66500.0,8.98265552520752,2.9718859195709233,-2.830709218978882
1226,66600.0,8.98265552520752,2.9718859195709233,-2.830709218978882
1227,66700.0,8.968299865722656,1.964507341384888,-2.1128623485565186
1228,66800.0,8.968299865722656,1.964507341384888,-2.1128623485565186
1229,66900.0,7.0923261642456055,1.34476637840271,-2.09850549697876
1230,67000.0,7.0923261642456055,1.34476637840271,-2.09850549697876
1231,67100.0,9.284152030944824,0.7657032012939453,-2.543570280075073
1232,67200.0,9.284152030944824,0.7657032012939453,-2.543570280075073
1233,67300.0,9.284152030944824,0.7657032012939453,-2.543570280075073
1234,67400.0,8.336593627929688,0.05982056260108948,-3.002992391586304
1235,67500.0,8.336593627929688,0.05982056260108948,-3.002992391586304
1236,67600.0,9.997212409973145,0.7178468108177185,-2.723031997680664
1237,67700.0,9.997212409973145,0.7178468108177185,-2.723031997680664
1238,67800.0,7.082754611968994,1.0169496536254885,-2.636890411376953
1239,67900.0,7.082754611968994,1.0169496536254885,-2.636890411376953
1240,67000.0,7.0923261642456055,1.34476637840271,-2.09850549697876
1241,67100.0,9.284152030944824,0.7657032012939453,-2.543570280075073
1242,67200.0,9.284152030944824,0.7657032012939453,-2.543570280075073
1243,67300.0,9.284152030944824,0.7657032012939453,-2.543570280075073
1244,67400.0,8.336593627929688,0.05982056260108948,-3.002992391586304
1245,67500.0,8.336593627929688,0.05982056260108948,-3.002992391586304
1246,67600.0,9.997212409973145,0.7178468108177185,-2.723031997680664
1247,67700.0,9.997212409973145,0.7178468108177185,-2.723031997680664
1248,67800.0,7.082754611968994,1.0169496536254885,-2.636890411376953
1249,67900.0,7.082754611968994,1.0169496536254885,-2.636890411376953
1250,68000.0,7.082754611968994,1.0169496536254885,-2.636890411376953
1251,68100.0,6.293124198913574,0.794417142868042,-3.6251261234283447
1252,68200.0,6.293124198913574,0.794417142868042,-3.6251261234283447
1253,68300.0,10.576275825500488,2.447857618331909,-2.8402805328369136
1254,68400.0,10.576275825500488,2.447857618331909,-2.8402805328369136
1255,68500.0,9.987641334533693,1.7132610082626345,-2.8283162117004395
1256,68600.0,9.987641334533693,1.7132610082626345,-2.8283162117004395
1257,68700.0,9.987641334533693,1.7132610082626345,-2.8283162117004395
1258,68800.0,8.614161491394043,1.782652735710144,-2.744567632675171
1259,68900.0,8.614161491394043,1.782652735710144,-2.744567632675171
1260,68000.0,7.082754611968994,1.0169496536254885,-2.636890411376953
1261,68100.0,6.293124198913574,0.794417142868042,-3.6251261234283447
1262,68200.0,6.293124198913574,0.794417142868042,-3.6251261234283447
1263,68300.0,10.576275825500488,2.447857618331909,-2.8402805328369136
1264,68400.0,10.576275825500488,2.447857618331909,-2.8402805328369136
1265,68500.0,9.987641334533693,1.7132610082626345,-2.8283162117004395
1266,68600.0,9.987641334533693,1.7132610082626345,-2.8283162117004395
1267,68700.0,9.987641334533693,1.7132610082626345,-2.8283162117004395
1268,68800.0,8.614161491394043,1.782652735710144,-2.744567632675171
1269,68900.0,8.614161491394043,1.782652735710144,-2.744567632675171
1270,69000.0,8.087740898132324,1.6654045581817627,-2.062613010406494
1271,69100.0,8.087740898132324,1.6654045581817627,-2.062613010406494
1272,69200.0,8.087740898132324,1.6654045581817627,-2.062613010406494
1273,69300.0,14.68714427947998,1.8065810203552248,-3.3619158267974854
1274,69400.0,14.68714427947998,1.8065810203552248,-3.3619158267974854
1275,69500.0,8.02074146270752,1.2346963882446291,-2.565105676651001
1276,69600.0,8.02074146270752,1.2346963882446291,-2.565105676651001
1277,69700.0,8.169095993041992,1.495514154434204,-2.8546373844146733
1278,69800.0,8.169095993041992,1.495514154434204,-2.8546373844146733
1279,69900.0,8.169095993041992,1.495514154434204,-2.8546373844146733
1280,69000.0,8.087740898132324,1.6654045581817627,-2.062613010406494
1281,69100.0,8.087740898132324,1.6654045581817627,-2.062613010406494
1282,69200.0,8.087740898132324,1.6654045581817627,-2.062613010406494
1283,69300.0,14.68714427947998,1.8065810203552248,-3.3619158267974854
1284,69400.0,14.68714427947998,1.8065810203552248,-3.3619158267974854
1285,69500.0,8.02074146270752,1.2346963882446291,-2.565105676651001
1286,69600.0,8.02074146270752,1.2346963882446291,-2.565105676651001
1287,69700.0,8.169095993041992,1.495514154434204,-2.8546373844146733
1288,69800.0,8.169095993041992,1.495514154434204,-2.8546373844146733
1289,69900.0,8.169095993041992,1.495514154434204,-2.8546373844146733
1290,70000.0,6.498906135559082,1.1437692642211914,-3.522234916687012
1291,70100.0,6.498906135559082,1.1437692642211914,-3.522234916687012
1292,70200.0,9.566505432128906,2.531606435775757,-2.6775684356689453
1293,70300.0,9.566505432128906,2.531606435775757,-2.6775684356689453
1294,70400.0,8.776873588562013,2.0769701004028316,-2.6153552532196045
1295,70500.0,8.776873588562013,2.0769701004028316,-2.6153552532196045
1296,70600.0,8.776873588562013,2.0769701004028316,-2.6153552532196045
1297,70700.0,8.992227554321289,2.1200408935546875,-2.651247262954712
1298,70800.0,8.992227554321289,2.1200408935546875,-2.651247262954712
1299,70900.0,8.49452018737793,2.093719720840454,-2.1367905139923096
1300,70000.0,6.498906135559082,1.1437692642211914,-3.522234916687012
1301,70100.0,6.498906135559082,1.1437692642211914,-3.522234916687012
1302,70200.0,9.566505432128906,2.531606435775757,-2.6775684356689453
1303,70300.0,9.566505432128906,2.531606435775757,-2.6775684356689453
1304,70400.0,8.776873588562013,2.0769701004028316,-2.6153552532196045
1305,70500.0,8.776873588562013,2.0769701004028316,-2.6153552532196045
1306,70600.0,8.776873588562013,2.0769701004028316,-2.6153552532196045
1307,70700.0,8.992227554321289,2.1200408935546875,-2.651247262954712
1308,70800.0,8.992227554321289,2.1200408935546875,-2.651247262954712
1309,70900.0,8.49452018737793,2.093719720840454,-2.1367905139923096
1310,71000.0,8.49452018737793,2.093719720840454,-2.1367905139923096
1311,71100.0,12.949954986572266,1.7491532564163208,-3.45045018196106
1312,71200.0,12.949954986572266,1.7491532564163208,-3.45045018196106
1313,71300.0,7.527820110321045,0.7465606331825256,-2.502892255783081
1314,71400.0,7.527820110321045,0.7465606331825256,-2.502892255783081
1315,71500.0,7.527820110321045,0.7465606331825256,-2.502892255783081
1316,71600.0,8.896513938903809,1.0121639966964722,-2.4023938179016118
1317,71700.0,8.896513938903809,1.0121639966964722,-2.4023938179016118
1318,71800.0,7.010970115661621,1.94297194480896,-2.266003131866455
1319,71900.0,7.010970115661621,1.94297194480896,-2.266003131866455
1320,71000.0,8.49452018737793,2.093719720840454,-2.1367905139923096
1321,71100.0,12.949954986572266,1.7491532564163208,-3.45045018196106
1322,71200.0,12.949954986572266,1.7491532564163208,-3.45045018196106
1323,71300.0,7.527820110321045,0.7465606331825256,-2.502892255783081
1324,71400.0,7.527820110321045,0.7465606331825256,-2.502892255783081
1325,71500.0,7.527820110321045,0.7465606331825256,-2.502892255783081
1326,71600.0,8.896513938903809,1.0121639966964722,-2.4023938179016118
1327,71700.0,8.896513938903809,1.0121639966964722,-2.4023938179016118
1328,71800.0,7.010970115661621,1.94297194480896,-2.266003131866455
1329,71900.0,7.010970115661621,1.94297194480896,-2.266003131866455
1330,72000.0,7.010970115661621,1.94297194480896,-2.266003131866455
1331,72100.0,15.036497116088867,3.400200843811035,-3.002992391586304
1332,72200.0,15.036497116088867,3.400200843811035,-3.002992391586304
1333,72300.0,7.5469627380371085,1.887937068939209,-2.031506299972534
1334,72400.0,7.5469627380371085,1.887937068939209,-2.031506299972534
1335,72500.0,9.38943576812744,2.1367905139923096,-2.5507488250732417
1336,72600.0,9.38943576812744,2.1367905139923096,-2.5507488250732417
1337,72700.0,9.38943576812744,2.1367905139923096,-2.5507488250732417
1338,72800.0,7.518248558044434,1.5744771957397459,-2.723031997680664
1339,72900.0,7.518248558044434,1.5744771957397459,-2.723031997680664
1340,72000.0,7.010970115661621,1.94297194480896,-2.266003131866455
1341,72100.0,15.036497116088867,3.400200843811035,-3.002992391586304
1342,72200.0,15.036497116088867,3.400200843811035,-3.002992391586304
1343,72300.0,7.5469627380371085,1.887937068939209,-2.031506299972534
1344,72400.0,7.5469627380371085,1.887937068939209,-2.031506299972534
1345,72500.0,9.38943576812744,2.1367905139923096,-2.5507488250732417
1346,72600.0,9.38943576812744,2.1367905139923096,-2.5507488250732417
1347,72700.0,9.38943576812744,2.1367905139923096,-2.5507488250732417
1348,72800.0,7.518248558044434,1.5744771957397459,-2.723031997680664
1349,72900.0,7.518248558044434,1.5744771957397459,-2.723031997680664
1350,73000.0,11.303693771362305,1.5409778356552124,-2.778067111968994
1351,73100.0,11.303693771362305,1.5409778356552124,-2.778067111968994
1352,73200.0,12.437891960144045,2.146361827850342,-3.4169507026672363
1353,73300.0,12.437891960144045,2.146361827850342,-3.4169507026672363
1354,73400.0,12.437891960144045,2.146361827850342,-3.4169507026672363
1355,73500.0,8.71466064453125,1.0719845294952393,-3.7016968727111816
1356,73600.0,8.71466064453125,1.0719845294952393,-3.7016968727111816
1357,73700.0,8.073383331298826,1.801795244216919,-2.931207656860352
1358,73800.0,8.073383331298826,1.801795244216919,-2.931207656860352
1359,73900.0,16.232908248901367,2.739781856536865,-3.0269205570220947
1360,73000.0,11.303693771362305,1.5409778356552124,-2.778067111968994
1361,73100.0,11.303693771362305,1.5409778356552124,-2.778067111968994
1362,73200.0,12.437891960144045,2.146361827850342,-3.4169507026672363
1363,73300.0,12.437891960144045,2.146361827850342,-3.4169507026672363
1364,73400.0,12.437891960144045,2.146361827850342,-3.4169507026672363
1365,73500.0,8.71466064453125,1.0719845294952393,-3.7016968727111816
1366,73600.0,8.71466064453125,1.0719845294952393,-3.7016968727111816
1367,73700.0,8.073383331298826,1.801795244216919,-2.931207656860352
1368,73800.0,8.073383331298826,1.801795244216919,-2.931207656860352
1369,73900.0,16.232908248901367,2.739781856536865,-3.0269205570220947
1370,74000.0,16.232908248901367,2.739781856536865,-3.0269205570220947
1371,74100.0,8.886943817138672,0.7561319470405579,-2.25403904914856
1372,74200.0,8.886943817138672,0.7561319470405579,-2.25403904914856
1373,74300.0,8.886943817138672,0.7561319470405579,-2.25403904914856
1374,74400.0,9.073582649230957,1.8903299570083616,-2.3473589420318604
1375,74500.0,9.073582649230957,1.8903299570083616,-2.3473589420318604
1376,74600.0,7.877171993255615,4.163511276245116,-0.8446664214134216
1377,74700.0,7.877171993255615,4.163511276245116,-0.8446664214134216
1378,74800.0,11.724830627441404,4.115654945373535,-0.7585247755050659
1379,74900.0,11.724830627441404,4.115654945373535,-0.7585247755050659
1380,74000.0,16.232908248901367,2.739781856536865,-3.0269205570220947
1381,74100.0,8.886943817138672,0.7561319470405579,-2.25403904914856
1382,74200.0,8.886943817138672,0.7561319470405579,-2.25403904914856
1383,74300.0,8.886943817138672,0.7561319470405579,-2.25403904914856
1384,74400.0,9.073582649230957,1.8903299570083616,-2.3473589420318604
1385,74500.0,9.073582649230957,1.8903299570083616,-2.3473589420318604
1386,74600.0,7.877171993255615,4.163511276245116,-0.8446664214134216
1387,74700.0,7.877171993255615,4.163511276245116,-0.8446664214134216
1388,74800.0,11.724830627441404,4.115654945373535,-0.7585247755050659
1389,74900.0,11.724830627441404,4.115654945373535,-0.7585247755050659
1390,75000.0,11.724830627441404,4.115654945373535,-0.7585247755050659
1391,75100.0,10.188638687133787,0.4905286431312561,-3.6634113788604736
1392,75200.0,10.188638687133787,0.4905286431312561,-3.6634113788604736
1393,75300.0,8.987441062927246,1.6917256116867063,-2.9623143672943115
1394,75400.0,8.987441062927246,1.6917256116867063,-2.9623143672943115
1395,75500.0,7.010970115661621,1.9262222051620483,-2.179861307144165
1396,75600.0,7.010970115661621,1.9262222051620483,-2.179861307144165
1397,75700.0,11.581260681152346,2.0673987865448002,-3.192025184631348
1398,75800.0,11.581260681152346,2.0673987865448002,-3.192025184631348
1399,75900.0,11.581260681152346,2.0673987865448002,-3.192025184631348
1400,75000.0,11.724830627441404,4.115654945373535,-0.7585247755050659
1401,75100.0,10.188638687133787,0.4905286431312561,-3.6634113788604736
1402,75200.0,10.188638687133787,0.4905286431312561,-3.6634113788604736
1403,75300.0,8.987441062927246,1.6917256116867063,-2.9623143672943115
1404,75400.0,8.987441062927246,1.6917256116867063,-2.9623143672943115
1405,75500.0,7.010970115661621,1.9262222051620483,-2.179861307144165
1406,75600.0,7.010970115661621,1.9262222051620483,-2.179861307144165
1407,75700.0,11.581260681152346,2.0673987865448002,-3.192025184631348
1408,75800.0,11.581260681152346,2.0673987865448002,-3.192025184631348
1409,75900.0,11.581260681152346,2.0673987865448002,-3.192025184631348
1410,76000.0,8.642874717712402,1.3016955852508545,-2.0721843242645264
1411,76100.0,8.642874717712402,1.3016955852508545,-2.0721843242645264
1412,76200.0,8.489734649658201,2.297109842300415,-3.5844480991363525
1413,76300.0,8.489734649658201,2.297109842300415,-3.5844480991363525
1414,76400.0,8.657232284545897,3.3236305713653564,-2.778067111968994
1415,76500.0,8.657232284545897,3.3236305713653564,-2.778067111968994
1416,76600.0,13.409377098083494,2.7278177738189697,-1.8592231273651123
1417,76700.0,13.409377098083494,2.7278177738189697,-1.8592231273651123
1418,76800.0,13.409377098083494,2.7278177738189697,-1.8592231273651123
1419,76900.0,12.705887794494627,1.4356936216354368,-3.553341627120972
1420,76000.0,8.642874717712402,1.3016955852508545,-2.0721843242645264
1421,76100.0,8.642874717712402,1.3016955852508545,-2.0721843242645264
1422,76200.0,8.489734649658201,2.297109842300415,-3.5844480991363525
1423,76300.0,8.489734649658201,2.297109842300415,-3.5844480991363525
1424,76400.0,8.657232284545897,3.3236305713653564,-2.778067111968994
1425,76500.0,8.657232284545897,3.3236305713653564,-2.778067111968994
1426,76600.0,13.409377098083494,2.7278177738189697,-1.8592231273651123
1427,76700.0,13.409377098083494,2.7278177738189697,-1.8592231273651123
1428,76800.0,13.409377098083494,2.7278177738189697,-1.8592231273651123
1429,76900.0,12.705887794494627,1.4356936216354368,-3.553341627120972
1430,77000.0,12.705887794494627,1.4356936216354368,-3.553341627120972
1431,77100.0,9.250652313232422,1.062413215637207,-2.682354211807251
1432,77200.0,9.250652313232422,1.062413215637207,-2.682354211807251
1433,77300.0,8.236095428466799,1.4021940231323242,-2.687139749526977
1434,77400.0,8.236095428466799,1.4021940231323242,-2.687139749526977
1435,77500.0,8.236095428466799,1.4021940231323242,-2.687139749526977
1436,77600.0,10.107282638549805,2.1583259105682373,-3.115455150604248
1437,77700.0,10.107282638549805,2.1583259105682373,-3.115455150604248
1438,77800.0,10.269994735717773,1.2346963882446291,-2.234896183013916
1439,77900.0,10.269994735717773,1.2346963882446291,-2.234896183013916
1440,77000.0,12.705887794494627,1.4356936216354368,-3.553341627120972
1441,77100.0,9.250652313232422,1.062413215637207,-2.682354211807251
1442,77200.0,9.250652313232422,1.062413215637207,-2.682354211807251
1443,77300.0,8.236095428466799,1.4021940231323242,-2.687139749526977
1444,77400.0,8.236095428466799,1.4021940231323242,-2.687139749526977
1445,77500.0,8.236095428466799,1.4021940231323242,-2.687139749526977
1446,77600.0,10.107282638549805,2.1583259105682373,-3.115455150604248
1447,77700.0,10.107282638549805,2.1583259105682373,-3.115455150604248
1448,77800.0,10.269994735717773,1.2346963882446291,-2.234896183013916
1449,77900.0,10.269994735717773,1.2346963882446291,-2.234896183013916
1450,78000.0,9.456435203552246,1.8640089035034182,-2.699103832244873
1451,78100.0,9.456435203552246,1.8640089035034182,-2.699103832244873
1452,78200.0,6.422336101531982,2.0362920761108403,-2.9838497638702397
1453,78300.0,6.422336101531982,2.0362920761108403,-2.9838497638702397
1454,78400.0,6.422336101531982,2.0362920761108403,-2.9838497638702397
1455,78500.0,12.04068374633789,2.6464619636535645,-2.1990041732788086
1456,78600.0,12.04068374633789,2.6464619636535645,-2.1990041732788086
1457,78700.0,7.786244869232178,0.9308080077171326,-2.5555346012115483
1458,78800.0,7.786244869232178,0.9308080077171326,-2.5555346012115483
1459,78900.0,9.7005033493042,2.146361827850342,-2.344966173171997
1460,78000.0,9.456435203552246,1.8640089035034182,-2.699103832244873
1461,78100.0,9.456435203552246,1.8640089035034182,-2.699103832244873
1462,78200.0,6.422336101531982,2.0362920761108403,-2.9838497638702397
1463,78300.0,6.422336101531982,2.0362920761108403,-2.9838497638702397
1464,78400.0,6.422336101531982,2.0362920761108403,-2.9838497638702397
1465,78500.0,12.04068374633789,2.6464619636535645,-2.1990041732788086
1466,78600.0,12.04068374633789,2.6464619636535645,-2.1990041732788086
1467,78700.0,7.786244869232178,0.9308080077171326,-2.5555346012115483
1468,78800.0,7.786244869232178,0.9308080077171326,-2.5555346012115483
1469,78900.0,9.7005033493042,2.146361827850342,-2.344966173171997
1470,79000.0,9.7005033493042,2.146361827850342,-2.344966173171997
1471,79100.0,9.7005033493042,2.146361827850342,-2.344966173171997
1472,79200.0,8.327022552490233,1.1437692642211914,-1.5984054803848269
1473,79300.0,8.327022552490233,1.1437692642211914,-1.5984054803848269
1474,79400.0,7.685746192932129,0.7872385978698729,-2.919243574142456
1475,79500.0,7.685746192932129,0.7872385978698729,-2.919243574142456
1476,79600.0,12.165109634399414,1.6342979669570925,-2.567498683929444
1477,79700.0,12.165109634399414,1.6342979669570925,-2.567498683929444
1478,79800.0,8.398807525634767,2.2061824798583984,-2.6416761875152592
1479,79900.0,8.398807525634767,2.2061824798583984,-2.6416761875152592
1480,79000.0,9.7005033493042,2.146361827850342,-2.344966173171997
1481,79100.0,9.7005033493042,2.146361827850342,-2.344966173171997
1482,79200.0,8.327022552490233,1.1437692642211914,-1.5984054803848269
1483,79300.0,8.327022552490233,1.1437692642211914,-1.5984054803848269
1484,79400.0,7.685746192932129,0.7872385978698729,-2.919243574142456
1485,79500.0,7.685746192932129,0.7872385978698729,-2.919243574142456
1486,79600.0,12.165109634399414,1.6342979669570925,-2.567498683929444
1487,79700.0,12.165109634399414,1.6342979669570925,-2.567498683929444
1488,79800.0,8.398807525634767,2.2061824798583984,-2.6416761875152592
1489,79900.0,8.398807525634767,2.2061824798583984,-2.6416761875152592
1490,80000.0,8.398807525634767,2.2061824798583984,-2.6416761875152592
1491,80100.0,5.800201892852782,2.4885356426239014,-3.6634113788604736
1492,80200.0,5.800201892852782,2.4885356426239014,-3.6634113788604736
1493,80300.0,11.528619766235352,3.1345977783203125,-2.1200408935546875
1494,80400.0,11.528619766235352,3.1345977783203125,-2.1200408935546875
1495,80500.0,8.451449394226074,3.058027505874634,-3.4672000408172607
1496,80600.0,8.451449394226074,3.058027505874634,-3.4672000408172607
1497,80700.0,8.451449394226074,3.058027505874634,-3.4672000408172607
1498,80800.0,9.719645500183104,0.3110669553279877,-3.902693748474121
1499,80900.0,9.719645500183104,0.3110669553279877,-3.902693748474121
1500,80000.0,8.398807525634767,2.2061824798583984,-2.6416761875152592
1501,80100.0,5.800201892852782,2.4885356426239014,-3.6634113788604736
1502,80200.0,5.800201892852782,2.4885356426239014,-3.6634113788604736
1503,80300.0,11.528619766235352,3.1345977783203125,-2.1200408935546875
1504,80400.0,11.528619766235352,3.1345977783203125,-2.1200408935546875
1505,80500.0,8.451449394226074,3.058027505874634,-3.4672000408172607
1506,80600.0,8.451449394226074,3.058027505874634,-3.4672000408172607
1507,80700.0,8.451449394226074,3.058027505874634,-3.4672000408172607
1508,80800.0,9.719645500183104,0.3110669553279877,-3.902693748474121
1509,80900.0,9.719645500183104,0.3110669553279877,-3.902693748474121
1510,81000.0,8.886943817138672,-0.35892340540885925,-2.4717857837677
1511,81100.0,8.886943817138672,-0.35892340540885925,-2.4717857837677
1512,81200.0,9.906286239624023,-0.19621144235134125,-0.6125625967979431
1513,81300.0,9.906286239624023,-0.19621144235134125,-0.6125625967979431
1514,81400.0,9.21715259552002,0.5312066078186035,-1.6175479888916016
1515,81500.0,9.21715259552002,0.5312066078186035,-1.6175479888916016
1516,81600.0,9.21715259552002,0.5312066078186035,-1.6175479888916016
1517,81700.0,9.87278652191162,0.6675975918769836,-2.1056838035583496
1518,81800.0,9.87278652191162,0.6675975918769836,-2.1056838035583496
1519,81900.0,8.944371223449707,-0.19621144235134125,-1.8185452222824097
1520,81000.0,8.886943817138672,-0.35892340540885925,-2.4717857837677
1521,81100.0,8.886943817138672,-0.35892340540885925,-2.4717857837677
1522,81200.0,9.906286239624023,-0.19621144235134125,-0.6125625967979431
1523,81300.0,9.906286239624023,-0.19621144235134125,-0.6125625967979431
1524,81400.0,9.21715259552002,0.5312066078186035,-1.6175479888916016
1525,81500.0,9.21715259552002,0.5312066078186035,-1.6175479888916016
1526,81600.0,9.21715259552002,0.5312066078186035,-1.6175479888916016
1527,81700.0,9.87278652191162,0.6675975918769836,-2.1056838035583496
1528,81800.0,9.87278652191162,0.6675975918769836,-2.1056838035583496
1529,81900.0,8.944371223449707,-0.19621144235134125,-1.8185452222824097
1530,82000.0,8.944371223449707,-0.19621144235134125,-1.8185452222824097
1531,82100.0,7.925028324127197,-0.05024927482008934,-2.5914268493652344
1532,82200.0,7.925028324127197,-0.05024927482008934,-2.5914268493652344
1533,82300.0,7.925028324127197,-0.05024927482008934,-2.5914268493652344
1534,82400.0,7.5326056480407715,1.1748759746551514,-3.1657044887542725
1535,82500.0,7.5326056480407715,1.1748759746551514,-3.1657044887542725
1536,82600.0,9.868000030517578,1.6821542978286743,-2.6967110633850098
1537,82700.0,9.868000030517578,1.6821542978286743,-2.6967110633850098
1538,82800.0,10.164710998535156,1.8520447015762331,-3.211168050765991
1539,82900.0,10.164710998535156,1.8520447015762331,-3.211168050765991
1540,82000.0,8.944371223449707,-0.19621144235134125,-1.8185452222824097
1541,82100.0,7.925028324127197,-0.05024927482008934,-2.5914268493652344
1542,82200.0,7.925028324127197,-0.05024927482008934,-2.5914268493652344
1543,82300.0,7.925028324127197,-0.05024927482008934,-2.5914268493652344
1544,82400.0,7.5326056480407715,1.1748759746551514,-3.1657044887542725
1545,82500.0,7.5326056480407715,1.1748759746551514,-3.1657044887542725
1546,82600.0,9.868000030517578,1.6821542978286743,-2.6967110633850098
1547,82700.0,9.868000030517578,1.6821542978286743,-2.6967110633850098
1548,82800.0,10.164710998535156,1.8520447015762331,-3.211168050765991
1549,82900.0,10.164710998535156,1.8520447015762331,-3.211168050765991
1550,83000.0,8.015955924987793,1.0671988725662231,-2.5292134284973145
1551,83100.0,8.015955924987793,1.0671988725662231,-2.5292134284973145
1552,83200.0,6.996613025665282,1.3232309818267822,-3.141776323318481
1553,83300.0,6.996613025665282,1.3232309818267822,-3.141776323318481
1554,83400.0,6.996613025665282,1.3232309818267822,-3.141776323318481
1555,83500.0,7.355536937713622,1.7156537771224976,-2.4598214626312256
1556,83600.0,7.355536937713622,1.7156537771224976,-2.4598214626312256
1557,83700.0,12.643674850463867,1.964507341384888,-3.5676987171173096
1558,83800.0,12.643674850463867,1.964507341384888,-3.5676987171173096
1559,83900.0,12.643674850463867,1.964507341384888,-3.5676987171173096
1560,83000.0,8.015955924987793,1.0671988725662231,-2.5292134284973145
1561,83100.0,8.015955924987793,1.0671988725662231,-2.5292134284973145
1562,83200.0,6.996613025665282,1.3232309818267822,-3.141776323318481
1563,83300.0,6.996613025665282,1.3232309818267822,-3.141776323318481
1564,83400.0,6.996613025665282,1.3232309818267822,-3.141776323318481
1565,83500.0,7.355536937713622,1.7156537771224976,-2.4598214626312256
1566,83600.0,7.355536937713622,1.7156537771224976,-2.4598214626312256
1567,83700.0,12.643674850463867,1.964507341384888,-3.5676987171173096
1568,83800.0,12.643674850463867,1.964507341384888,-3.5676987171173096
1569,83900.0,12.643674850463867,1.964507341384888,-3.5676987171173096
1570,84000.0,8.590232849121094,1.129412293434143,-3.2757742404937744
1571,84100.0,8.590232849121094,1.129412293434143,-3.2757742404937744
1572,84200.0,6.829115867614746,1.179661512374878,-2.392822742462158
1573,84300.0,6.829115867614746,1.179661512374878,-2.392822742462158
1574,84400.0,9.375079154968262,0.2105683833360672,-2.878565788269043
1575,84500.0,9.375079154968262,0.2105683833360672,-2.878565788269043
1576,84600.0,10.001997947692873,0.906879723072052,-2.577069997787476
1577,84700.0,10.001997947692873,0.906879723072052,-2.577069997787476
1578,84800.0,10.001997947692873,0.906879723072052,-2.577069997787476
1579,84900.0,8.250452041625978,1.7084753513336182,-3.862015962600708
1580,84000.0,8.590232849121094,1.129412293434143,-3.2757742404937744
1581,84100.0,8.590232849121094,1.129412293434143,-3.2757742404937744
1582,84200.0,6.829115867614746,1.179661512374878,-2.392822742462158
1583,84300.0,6.829115867614746,1.179661512374878,-2.392822742462158
1584,84400.0,9.375079154968262,0.2105683833360672,-2.878565788269043
1585,84500.0,9.375079154968262,0.2105683833360672,-2.878565788269043
1586,84600.0,10.001997947692873,0.906879723072052,-2.577069997787476
1587,84700.0,10.001997947692873,0.906879723072052,-2.577069997787476
1588,84800.0,10.001997947692873,0.906879723072052,-2.577069997787476
1589,84900.0,8.250452041625978,1.7084753513336182,-3.862015962600708
1590,85000.0,8.250452041625978,1.7084753513336182,-3.862015962600708
1591,85100.0,6.867401123046875,2.1702899932861333,-3.842873096466065
1592,85200.0,6.867401123046875,2.1702899932861333,-3.842873096466065
1593,85300.0,6.867401123046875,2.1702899932861333,-3.842873096466065
1594,85400.0,11.34197998046875,2.3234307765960693,-2.675175428390503
1595,85500.0,11.34197998046875,2.3234307765960693,-2.675175428390503
1596,85600.0,13.15095329284668,2.617748022079468,-2.8522443771362305
1597,85700.0,13.15095329284668,2.617748022079468,-2.8522443771362305
1598,85800.0,8.896513938903809,1.8424735069274905,-3.751945972442627
1599,85900.0,8.896513938903809,1.8424735069274905,-3.751945972442627
1600,85000.0,8.250452041625978,1.7084753513336182,-3.862015962600708
1601,85100.0,6.867401123046875,2.1702899932861333,-3.842873096466065
1602,85200.0,6.867401123046875,2.1702899932861333,-3.842873096466065
1603,85300.0,6.867401123046875,2.1702899932861333,-3.842873096466065
1604,85400.0,11.34197998046875,2.3234307765960693,-2.675175428390503
1605,85500.0,11.34197998046875,2.3234307765960693,-2.675175428390503
1606,85600.0,13.15095329284668,2.617748022079468,-2.8522443771362305
1607,85700.0,13.15095329284668,2.617748022079468,-2.8522443771362305
1608,85800.0,8.896513938903809,1.8424735069274905,-3.751945972442627
1609,85900.0,8.896513938903809,1.8424735069274905,-3.751945972442627
1610,86000.0,8.896513938903809,1.8424735069274905,-3.751945972442627
1611,86100.0,7.47517728805542,1.7802598476409912,-2.117647886276245
1612,86200.0,7.47517728805542,1.7802598476409912,-2.117647886276245
1613,86300.0,16.252050399780273,3.507878065109253,-3.2662029266357417
1614,86400.0,16.252050399780273,3.507878065109253,-3.2662029266357417
1615,86500.0,16.252050399780273,3.507878065109253,-3.2662029266357417
1616,86600.0,8.628519058227539,0.5479563474655151,-2.462214469909668
1617,86700.0,8.628519058227539,0.5479563474655151,-2.462214469909668
1618,86800.0,8.791230201721191,1.1581261157989502,-1.921436548233032
1619,86900.0,8.791230201721191,1.1581261157989502,-1.921436548233032
1620,86000.0,8.896513938903809,1.8424735069274905,-3.751945972442627
1621,86100.0,7.47517728805542,1.7802598476409912,-2.117647886276245
1622,86200.0,7.47517728805542,1.7802598476409912,-2.117647886276245
1623,86300.0,16.252050399780273,3.507878065109253,-3.2662029266357417
1624,86400.0,16.252050399780273,3.507878065109253,-3.2662029266357417
1625,86500.0,16.252050399780273,3.507878065109253,-3.2662029266357417
1626,86600.0,8.628519058227539,0.5479563474655151,-2.462214469909668
1627,86700.0,8.628519058227539,0.5479563474655151,-2.462214469909668
1628,86800.0,8.791230201721191,1.1581261157989502,-1.921436548233032
1629,86900.0,8.791230201721191,1.1581261157989502,-1.921436548233032
1630,87000.0,6.9918274879455575,2.297109842300415,-3.041277408599853
1631,87100.0,6.9918274879455575,2.297109842300415,-3.041277408599853
1632,87200.0,11.542977333068848,2.4598214626312256,-3.687339782714844
1633,87300.0,11.542977333068848,2.4598214626312256,-3.687339782714844
1634,87400.0,11.542977333068848,2.4598214626312256,-3.687339782714844
1635,87500.0,6.967899799346924,1.3974084854125977,-3.9122648239135738
1636,87600.0,6.967899799346924,1.3974084854125977,-3.9122648239135738
1637,87700.0,7.245467185974121,1.105484127998352,-3.122633695602417
1638,87800.0,7.245467185974121,1.105484127998352,-3.122633695602417
1639,87900.0,18.52523231506348,3.5820553302764893,-3.3427734375
1640,87000.0,6.9918274879455575,2.297109842300415,-3.041277408599853
1641,87100.0,6.9918274879455575,2.297109842300415,-3.041277408599853
1642,87200.0,11.542977333068848,2.4598214626312256,-3.687339782714844
1643,87300.0,11.542977333068848,2.4598214626312256,-3.687339782714844
1644,87400.0,11.542977333068848,2.4598214626312256,-3.687339782714844
1645,87500.0,6.967899799346924,1.3974084854125977,-3.9122648239135738
1646,87600.0,6.967899799346924,1.3974084854125977,-3.9122648239135738
1647,87700.0,7.245467185974121,1.105484127998352,-3.122633695602417
1648,87800.0,7.245467185974121,1.105484127998352,-3.122633695602417
1649,87900.0,18.52523231506348,3.5820553302764893,-3.3427734375
1650,88000.0,18.52523231506348,3.5820553302764893,-3.3427734375
1651,88100.0,18.52523231506348,3.5820553302764893,-3.3427734375
1652,88200.0,7.953742504119872,1.34476637840271,-2.313859462738037
1653,88300.0,7.953742504119872,1.34476637840271,-2.313859462738037
1654,88400.0,8.729016304016112,1.9860427379608157,-3.1106693744659424
1655,88500.0,8.729016304016112,1.9860427379608157,-3.1106693744659424
1656,88600.0,8.475377082824707,2.0099709033966064,-3.1537401676177983
1657,88700.0,8.475377082824707,2.0099709033966064,-3.1537401676177983
1658,88800.0,7.211967468261719,1.931007981300354,-2.6416761875152592
1659,88900.0,7.211967468261719,1.931007981300354,-2.6416761875152592
1660,88000.0,18.52523231506348,3.5820553302764893,-3.3427734375
1661,88100.0,18.52523231506348,3.5820553302764893,-3.3427734375
1662,88200.0,7.953742504119872,1.34476637840271,-2.313859462738037
1663,88300.0,7.953742504119872,1.34476637840271,-2.313859462738037
1664,88400.0,8.729016304016112,1.9860427379608157,-3.1106693744659424
1665,88500.0,8.729016304016112,1.9860427379608157,-3.1106693744659424
1666,88600.0,8.475377082824707,2.0099709033966064,-3.1537401676177983
1667,88700.0,8.475377082824707,2.0099709033966064,-3.1537401676177983
1668,88800.0,7.211967468261719,1.931007981300354,-2.6416761875152592
1669,88900.0,7.211967468261719,1.931007981300354,-2.6416761875152592
1670,89000.0,7.211967468261719,1.931007981300354,-2.6416761875152592
1671,89100.0,10.557132720947266,2.565105676651001,-3.1752755641937256
1672,89200.0,10.557132720947266,2.565105676651001,-3.1752755641937256
1673,89300.0,7.987241268157959,1.22033953666687,-4.2065820693969735
1674,89400.0,7.987241268157959,1.22033953666687,-4.2065820693969735
1675,89500.0,7.987241268157959,1.22033953666687,-4.2065820693969735
1676,89600.0,8.360522270202638,1.2634103298187256,-3.115455150604248
1677,89700.0,8.360522270202638,1.2634103298187256,-3.115455150604248
1678,89800.0,8.015955924987793,1.2586246728897097,-3.0556347370147705
1679,89900.0,8.015955924987793,1.2586246728897097,-3.0556347370147705
1680,89000.0,7.211967468261719,1.931007981300354,-2.6416761875152592
1681,89100.0,10.557132720947266,2.565105676651001,-3.1752755641937256
1682,89200.0,10.557132720947266,2.565105676651001,-3.1752755641937256
1683,89300.0,7.987241268157959,1.22033953666687,-4.2065820693969735
1684,89400.0,7.987241268157959,1.22033953666687,-4.2065820693969735
1685,89500.0,7.987241268157959,1.22033953666687,-4.2065820693969735
1686,89600.0,8.360522270202638,1.2634103298187256,-3.115455150604248
1687,89700.0,8.360522270202638,1.2634103298187256,-3.115455150604248
1688,89800.0,8.015955924987793,1.2586246728897097,-3.0556347370147705
1689,89900.0,8.015955924987793,1.2586246728897097,-3.0556347370147705
1690,90000.0,14.988640785217285,2.9718859195709233,-3.4959137439727783
1691,90100.0,14.988640785217285,2.9718859195709233,-3.4959137439727783
1692,90200.0,7.417750358581543,1.00259268283844,-1.8927226066589355
1693,90300.0,7.417750358581543,1.00259268283844,-1.8927226066589355
1694,90400.0,7.417750358581543,1.00259268283844,-1.8927226066589355
1695,90500.0,9.930214881896973,1.7635102272033691,-2.390429735183716
1696,90600.0,9.930214881896973,1.7635102272033691,-2.390429735183716
1697,90700.0,9.293723106384276,1.6677974462509155,-2.7972097396850586
1698,90800.0,9.293723106384276,1.6677974462509155,-2.7972097396850586
1699,90900.0,8.504091262817383,2.0171494483947754,-3.0173492431640625
1700,90000.0,14.988640785217285,2.9718859195709233,-3.4959137439727783
1701,90100.0,14.988640785217285,2.9718859195709233,-3.4959137439727783
1702,90200.0,7.417750358581543,1.00259268283844,-1.8927226066589355
1703,90300.0,7.417750358581543,1.00259268283844,-1.8927226066589355
1704,90400.0,7.417750358581543,1.00259268283844,-1.8927226066589355
1705,90500.0,9.930214881896973,1.7635102272033691,-2.390429735183716
1706,90600.0,9.930214881896973,1.7635102272033691,-2.390429735183716
1707,90700.0,9.293723106384276,1.6677974462509155,-2.7972097396850586
1708,90800.0,9.293723106384276,1.6677974462509155,-2.7972097396850586
1709,90900.0,8.504091262817383,2.0171494483947754,-3.0173492431640625
1710,91000.0,8.504091262817383,2.0171494483947754,-3.0173492431640625
1711,91100.0,8.504091262817383,2.0171494483947754,-3.0173492431640625
1712,91200.0,7.934599876403809,2.057827472686768,-2.218146562576294
1713,91300.0,7.934599876403809,2.057827472686768,-2.218146562576294
1714,91400.0,13.064811706542967,3.5772697925567627,-3.620340585708618
1715,91500.0,13.064811706542967,3.5772697925567627,-3.620340585708618
1716,91600.0,13.064811706542967,3.5772697925567627,-3.620340585708618
1717,91700.0,8.973085403442383,1.7802598476409912,-2.8929224014282227
1718,91800.0,8.973085403442383,1.7802598476409912,-2.8929224014282227
1719,91900.0,8.173882484436035,1.8233308792114256,-3.476771354675293
1720,91000.0,8.504091262817383,2.0171494483947754,-3.0173492431640625
1721,91100.0,8.504091262817383,2.0171494483947754,-3.0173492431640625
1722,91200.0,7.934599876403809,2.057827472686768,-2.218146562576294
1723,91300.0,7.934599876403809,2.057827472686768,-2.218146562576294
1724,91400.0,13.064811706542967,3.5772697925567627,-3.620340585708618
1725,91500.0,13.064811706542967,3.5772697925567627,-3.620340585708618
1726,91600.0,13.064811706542967,3.5772697925567627,-3.620340585708618
1727,91700.0,8.973085403442383,1.7802598476409912,-2.8929224014282227
1728,91800.0,8.973085403442383,1.7802598476409912,-2.8929224014282227
1729,91900.0,8.173882484436035,1.8233308792114256,-3.476771354675293
1730,92000.0,8.173882484436035,1.8233308792114256,-3.476771354675293
1731,92100.0,7.877171993255615,1.674975872039795,-3.2374887466430664
1732,92200.0,7.877171993255615,1.674975872039795,-3.2374887466430664
1733,92300.0,7.877171993255615,1.674975872039795,-3.2374887466430664
1734,92400.0,11.188838958740234,1.7371891736984253,-2.8211379051208496
1735,92500.0,11.188838958740234,1.7371891736984253,-2.8211379051208496
1736,92600.0,7.767102241516112,1.4500504732131958,-1.7371891736984253
1737,92700.0,7.767102241516112,1.4500504732131958,-1.7371891736984253
1738,92800.0,7.29810905456543,1.4715858697891235,-2.502892255783081
1739,92900.0,7.29810905456543,1.4715858697891235,-2.502892255783081
1740,92000.0,8.173882484436035,1.8233308792114256,-3.476771354675293
1741,92100.0,7.877171993255615,1.674975872039795,-3.2374887466430664
1742,92200.0,7.877171993255615,1.674975872039795,-3.2374887466430664
1743,92300.0,7.877171993255615,1.674975872039795,-3.2374887466430664
1744,92400.0,11.188838958740234,1.7371891736984253,-2.8211379051208496
1745,92500.0,11.188838958740234,1.7371891736984253,-2.8211379051208496
1746,92600.0,7.767102241516112,1.4500504732131958,-1.7371891736984253
1747,92700.0,7.767102241516112,1.4500504732131958,-1.7371891736984253
1748,92800.0,7.29810905456543,1.4715858697891235,-2.502892255783081
1749,92900.0,7.29810905456543,1.4715858697891235,-2.502892255783081
1750,93000.0,7.29810905456543,1.4715858697891235,-2.502892255783081
1751,93100.0,8.489734649658201,2.390429735183716,-4.3238306045532235
