,timestamp,ax,ay,az
0,5000.0,8.848658561706543,3.211168050765991,-2.648854732513428
1,5100.0,8.848658561706543,3.211168050765991,-2.648854732513428
2,5200.0,8.848658561706543,3.211168050765991,-2.648854732513428
3,5300.0,12.504892349243164,0.8087739944458008,-1.0839486122131348
4,5400.0,12.504892349243164,0.8087739944458008,-1.0839486122131348
5,5500.0,11.150553703308104,0.7680960297584534,-0.04546363279223442
6,5600.0,11.150553703308104,0.7680960297584534,-0.04546363279223442
7,5700.0,9.51386260986328,2.1032910346984863,-0.6843472719192505
8,5800.0,9.51386260986328,2.1032910346984863,-0.6843472719192505
9,5900.0,8.958727836608887,1.804188132286072,-0.8973084688186646
10,6000.0,8.958727836608887,1.804188132286072,-0.8973084688186646
11,6100.0,8.958727836608887,1.804188132286072,-0.8973084688186646
12,6200.0,9.116654396057127,1.710868239402771,-0.605384111404419
13,6300.0,9.116654396057127,1.710868239402771,-0.605384111404419
14,6400.0,15.759129524230955,3.2470602989196777,-1.4189438819885254
15,6500.0,15.759129524230955,3.2470602989196777,-1.4189438819885254
16,6600.0,9.06879711151123,2.203789472579956,-1.7682960033416748
17,6700.0,9.06879711151123,2.203789472579956,-1.7682960033416748
18,6800.0,9.06879711151123,2.203789472579956,-1.7682960033416748
19,6900.0,9.025726318359377,1.0001999139785769,-2.0123636722564697
20,6000.0,8.958727836608887,1.804188132286072,-0.8973084688186646
21,6100.0,8.958727836608887,1.804188132286072,-0.8973084688186646
22,6200.0,9.116654396057127,1.710868239402771,-0.605384111404419
23,6300.0,9.116654396057127,1.710868239402771,-0.605384111404419
24,6400.0,15.759129524230955,3.2470602989196777,-1.4189438819885254
25,6500.0,15.759129524230955,3.2470602989196777,-1.4189438819885254
26,6600.0,9.06879711151123,2.203789472579956,-1.7682960033416748
27,6700.0,9.06879711151123,2.203789472579956,-1.7682960033416748
28,6800.0,9.06879711151123,2.203789472579956,-1.7682960033416748
29,6900.0,9.025726318359377,1.0001999139785769,-2.0123636722564697
30,7000.0,9.025726318359377,1.0001999139785769,-2.0123636722564697
31,7100.0,7.484748840332031,1.3399806022644043,-3.830909013748169
32,7200.0,7.484748840332031,1.3399806022644043,-3.830909013748169
33,7300.0,8.116454124450684,1.813759446144104,-2.4885356426239014
34,7400.0,8.116454124450684,1.813759446144104,-2.4885356426239014
35,7500.0,8.116454124450684,1.813759446144104,-2.4885356426239014
36,7600.0,12.787243843078613,3.6753754615783687,1.6773687601089478
37,7700.0,12.787243843078613,3.6753754615783687,1.6773687601089478
38,7800.0,10.126425743103027,4.54636287689209,-1.8831514120101929
39,7900.0,10.126425743103027,4.54636287689209,-1.8831514120101929
40,7000.0,9.025726318359377,1.0001999139785769,-2.0123636722564697
41,7100.0,7.484748840332031,1.3399806022644043,-3.830909013748169
42,7200.0,7.484748840332031,1.3399806022644043,-3.830909013748169
43,7300.0,8.116454124450684,1.813759446144104,-2.4885356426239014
44,7400.0,8.116454124450684,1.813759446144104,-2.4885356426239014
45,7500.0,8.116454124450684,1.813759446144104,-2.4885356426239014
46,7600.0,12.787243843078613,3.6753754615783687,1.6773687601089478
47,7700.0,12.787243843078613,3.6753754615783687,1.6773687601089478
48,7800.0,10.126425743103027,4.54636287689209,-1.8831514120101929
49,7900.0,10.126425743103027,4.54636287689209,-1.8831514120101929
50,8000.0,9.126225471496582,3.2709887027740483,-1.289731502532959
51,8100.0,9.126225471496582,3.2709887027740483,-1.289731502532959
52,8200.0,7.877171993255615,2.6153552532196045,-0.5120640397071838
53,8300.0,7.877171993255615,2.6153552532196045,-0.5120640397071838
54,8400.0,7.877171993255615,2.6153552532196045,-0.5120640397071838
55,8500.0,13.036097526550293,3.067598581314087,-1.526620864868164
56,8600.0,13.036097526550293,3.067598581314087,-1.526620864868164
57,8700.0,9.67657470703125,1.3902300596237185,-1.56969153881073
58,8800.0,9.67657470703125,1.3902300596237185,-1.56969153881073
59,8900.0,8.958727836608887,0.6412764191627502,-1.6462620496749878
60,8000.0,9.126225471496582,3.2709887027740483,-1.289731502532959
61,8100.0,9.126225471496582,3.2709887027740483,-1.289731502532959
62,8200.0,7.877171993255615,2.6153552532196045,-0.5120640397071838
63,8300.0,7.877171993255615,2.6153552532196045,-0.5120640397071838
64,8400.0,7.877171993255615,2.6153552532196045,-0.5120640397071838
65,8500.0,13.036097526550293,3.067598581314087,-1.526620864868164
66,8600.0,13.036097526550293,3.067598581314087,-1.526620864868164
67,8700.0,9.67657470703125,1.3902300596237185,-1.56969153881073
68,8800.0,9.67657470703125,1.3902300596237185,-1.56969153881073
69,8900.0,8.958727836608887,0.6412764191627502,-1.6462620496749878
70,9000.0,8.958727836608887,0.6412764191627502,-1.6462620496749878
71,9100.0,8.35573673248291,1.7204395532608032,-2.47896409034729
72,9200.0,8.35573673248291,1.7204395532608032,-2.47896409034729
73,9300.0,8.35573673248291,1.7204395532608032,-2.47896409034729
74,9400.0,8.97787094116211,0.7872385978698729,-0.8446664214134216
75,9500.0,8.97787094116211,0.7872385978698729,-0.8446664214134216
76,9600.0,11.562118530273438,3.780659914016724,-1.1198409795761108
77,9700.0,11.562118530273438,3.780659914016724,-1.1198409795761108
78,9800.0,9.442078590393066,2.902493953704834,-1.5002998113632202
79,9900.0,9.442078590393066,2.902493953704834,-1.5002998113632202
80,9000.0,8.958727836608887,0.6412764191627502,-1.6462620496749878
81,9100.0,8.35573673248291,1.7204395532608032,-2.47896409034729
82,9200.0,8.35573673248291,1.7204395532608032,-2.47896409034729
83,9300.0,8.35573673248291,1.7204395532608032,-2.47896409034729
84,9400.0,8.97787094116211,0.7872385978698729,-0.8446664214134216
85,9500.0,8.97787094116211,0.7872385978698729,-0.8446664214134216
86,9600.0,11.562118530273438,3.780659914016724,-1.1198409795761108
87,9700.0,11.562118530273438,3.780659914016724,-1.1198409795761108
88,9800.0,9.442078590393066,2.902493953704834,-1.5002998113632202
89,9900.0,9.442078590393066,2.902493953704834,-1.5002998113632202
90,10000.0,9.442078590393066,2.902493953704834,-1.5002998113632202
91,10100.0,6.522834300994872,1.8855443000793457,-1.1126624345779421
92,10200.0,6.522834300994872,1.8855443000793457,-1.1126624345779421
93,10300.0,13.60080337524414,3.4743783473968506,-1.6175479888916016
94,10400.0,13.60080337524414,3.4743783473968506,-1.6175479888916016
95,10500.0,8.537590980529785,0.1339980661869049,-2.117647886276245
96,10600.0,8.537590980529785,0.1339980661869049,-2.117647886276245
97,10700.0,8.537590980529785,0.1339980661869049,-2.117647886276245
98,10800.0,8.738588333129883,0.6604190468788147,-2.8737800121307373
99,10900.0,8.738588333129883,0.6604190468788147,-2.8737800121307373
100,10000.0,9.442078590393066,2.902493953704834,-1.5002998113632202
101,10100.0,6.522834300994872,1.8855443000793457,-1.1126624345779421
102,10200.0,6.522834300994872,1.8855443000793457,-1.1126624345779421
103,10300.0,13.60080337524414,3.4743783473968506,-1.6175479888916016
104,10400.0,13.60080337524414,3.4743783473968506,-1.6175479888916016
105,10500.0,8.537590980529785,0.1339980661869049,-2.117647886276245
106,10600.0,8.537590980529785,0.1339980661869049,-2.117647886276245
107,10700.0,8.537590980529785,0.1339980661869049,-2.117647886276245
108,10800.0,8.738588333129883,0.6604190468788147,-2.8737800121307373
109,10900.0,8.738588333129883,0.6604190468788147,-2.8737800121307373
110,11000.0,8.039883613586426,0.3302095234394073,-3.744767427444458
111,11100.0,8.039883613586426,0.3302095234394073,-3.744767427444458
112,11200.0,7.666603565216064,0.5288137793540955,-2.483749866485596
113,11300.0,7.666603565216064,0.5288137793540955,-2.483749866485596
114,11400.0,8.48016357421875,1.1653046607971191,-2.6081764698028564
115,11500.0,8.48016357421875,1.1653046607971191,-2.6081764698028564
116,11600.0,11.633904457092285,2.12961220741272,-1.7252250909805298
117,11700.0,11.633904457092285,2.12961220741272,-1.7252250909805298
118,11800.0,11.633904457092285,2.12961220741272,-1.7252250909805298
119,11900.0,8.934800148010254,2.737389087677002,-1.584048628807068
120,11000.0,8.039883613586426,0.3302095234394073,-3.744767427444458
121,11100.0,8.039883613586426,0.3302095234394073,-3.744767427444458
122,11200.0,7.666603565216064,0.5288137793540955,-2.483749866485596
123,11300.0,7.666603565216064,0.5288137793540955,-2.483749866485596
124,11400.0,8.48016357421875,1.1653046607971191,-2.6081764698028564
125,11500.0,8.48016357421875,1.1653046607971191,-2.6081764698028564
126,11600.0,11.633904457092285,2.12961220741272,-1.7252250909805298
127,11700.0,11.633904457092285,2.12961220741272,-1.7252250909805298
128,11800.0,11.633904457092285,2.12961220741272,-1.7252250909805298
129,11900.0,8.934800148010254,2.737389087677002,-1.584048628807068
130,12000.0,8.934800148010254,2.737389087677002,-1.584048628807068
131,12100.0,9.987641334533693,2.8546373844146733,-1.5074783563613892
132,12200.0,9.987641334533693,2.8546373844146733,-1.5074783563613892
133,12300.0,9.523433685302734,2.483749866485596,-1.1724830865859983
134,12400.0,9.523433685302734,2.483749866485596,-1.1724830865859983
135,12500.0,9.523433685302734,2.483749866485596,-1.1724830865859983
136,12600.0,7.786244869232178,2.227717876434326,-2.1032910346984863
137,12700.0,7.786244869232178,2.227717876434326,-2.1032910346984863
138,12800.0,10.906485557556152,1.921436548233032,-3.3140592575073238
139,12900.0,10.906485557556152,1.921436548233032,-3.3140592575073238
140,12000.0,8.934800148010254,2.737389087677002,-1.584048628807068
141,12100.0,9.987641334533693,2.8546373844146733,-1.5074783563613892
142,12200.0,9.987641334533693,2.8546373844146733,-1.5074783563613892
143,12300.0,9.523433685302734,2.483749866485596,-1.1724830865859983
144,12400.0,9.523433685302734,2.483749866485596,-1.1724830865859983
145,12500.0,9.523433685302734,2.483749866485596,-1.1724830865859983
146,12600.0,7.786244869232178,2.227717876434326,-2.1032910346984863
147,12700.0,7.786244869232178,2.227717876434326,-2.1032910346984863
148,12800.0,10.906485557556152,1.921436548233032,-3.3140592575073238
149,12900.0,10.906485557556152,1.921436548233032,-3.3140592575073238
150,13000.0,7.4608211517333975,1.8161523342132568,-2.57228422164917
151,13100.0,7.4608211517333975,1.8161523342132568,-2.57228422164917
152,13200.0,7.5326056480407715,1.5720844268798828,-2.933600425720215
153,13300.0,7.5326056480407715,1.5720844268798828,-2.933600425720215
154,13400.0,7.5326056480407715,1.5720844268798828,-2.933600425720215
155,13500.0,7.0444698333740225,1.3639088869094849,-1.6127625703811646
156,13600.0,7.0444698333740225,1.3639088869094849,-1.6127625703811646
157,13700.0,9.906286239624023,2.244467735290528,-0.20578275620937347
158,13800.0,9.906286239624023,2.244467735290528,-0.20578275620937347
159,13900.0,10.107282638549805,3.292524099349976,-2.390429735183716
160,13000.0,7.4608211517333975,1.8161523342132568,-2.57228422164917
161,13100.0,7.4608211517333975,1.8161523342132568,-2.57228422164917
162,13200.0,7.5326056480407715,1.5720844268798828,-2.933600425720215
163,13300.0,7.5326056480407715,1.5720844268798828,-2.933600425720215
164,13400.0,7.5326056480407715,1.5720844268798828,-2.933600425720215
165,13500.0,7.0444698333740225,1.3639088869094849,-1.6127625703811646
166,13600.0,7.0444698333740225,1.3639088869094849,-1.6127625703811646
167,13700.0,9.906286239624023,2.244467735290528,-0.20578275620937347
168,13800.0,9.906286239624023,2.244467735290528,-0.20578275620937347
169,13900.0,10.107282638549805,3.292524099349976,-2.390429735183716
170,14000.0,10.107282638549805,3.292524099349976,-2.390429735183716
171,14100.0,9.346364974975586,1.9621145725250244,0.14835500717163086
172,14200.0,9.346364974975586,1.9621145725250244,0.14835500717163086
173,14300.0,9.346364974975586,1.9621145725250244,0.14835500717163086
174,14400.0,8.695517539978027,2.9934213161468506,-1.3639088869094849
175,14500.0,8.695517539978027,2.9934213161468506,-1.3639088869094849
176,14600.0,8.149953842163086,3.5246279239654537,-1.1676974296569824
177,14700.0,8.149953842163086,3.5246279239654537,-1.1676974296569824
178,14800.0,8.226524353027344,1.3375877141952517,-2.0099709033966064
179,14900.0,8.226524353027344,1.3375877141952517,-2.0099709033966064
180,14000.0,10.107282638549805,3.292524099349976,-2.390429735183716
181,14100.0,9.346364974975586,1.9621145725250244,0.14835500717163086
182,14200.0,9.346364974975586,1.9621145725250244,0.14835500717163086
183,14300.0,9.346364974975586,1.9621145725250244,0.14835500717163086
184,14400.0,8.695517539978027,2.9934213161468506,-1.3639088869094849
185,14500.0,8.695517539978027,2.9934213161468506,-1.3639088869094849
186,14600.0,8.149953842163086,3.5246279239654537,-1.1676974296569824
187,14700.0,8.149953842163086,3.5246279239654537,-1.1676974296569824
188,14800.0,8.226524353027344,1.3375877141952517,-2.0099709033966064
189,14900.0,8.226524353027344,1.3375877141952517,-2.0099709033966064
190,15000.0,8.226524353027344,1.3375877141952517,-2.0099709033966064
191,15100.0,7.8006019592285165,1.3471590280532837,-2.4598214626312256
192,15200.0,7.8006019592285165,1.3471590280532837,-2.4598214626312256
193,15300.0,7.168896198272705,1.6271194219589231,-4.0175490379333505
194,15400.0,7.168896198272705,1.6271194219589231,-4.0175490379333505
195,15500.0,8.451449394226074,3.5246279239654537,-3.4121649265289307
196,15600.0,8.451449394226074,3.5246279239654537,-3.4121649265289307
197,15700.0,8.451449394226074,3.5246279239654537,-3.4121649265289307
198,15800.0,8.925228118896484,3.493520975112915,-2.3258235454559326
199,15900.0,8.925228118896484,3.493520975112915,-2.3258235454559326
200,15000.0,8.226524353027344,1.3375877141952517,-2.0099709033966064
201,15100.0,7.8006019592285165,1.3471590280532837,-2.4598214626312256
202,15200.0,7.8006019592285165,1.3471590280532837,-2.4598214626312256
203,15300.0,7.168896198272705,1.6271194219589231,-4.0175490379333505
204,15400.0,7.168896198272705,1.6271194219589231,-4.0175490379333505
205,15500.0,8.451449394226074,3.5246279239654537,-3.4121649265289307
206,15600.0,8.451449394226074,3.5246279239654537,-3.4121649265289307
207,15700.0,8.451449394226074,3.5246279239654537,-3.4121649265289307
208,15800.0,8.925228118896484,3.493520975112915,-2.3258235454559326
209,15900.0,8.925228118896484,3.493520975112915,-2.3258235454559326
210,16000.0,7.925028324127197,4.5678982734680185,-1.6079767942428589
211,16100.0,7.925028324127197,4.5678982734680185,-1.6079767942428589
212,16200.0,9.30329418182373,2.179861307144165,-2.1128623485565186
213,16300.0,9.30329418182373,2.179861307144165,-2.1128623485565186
214,16400.0,9.30329418182373,2.179861307144165,-2.1128623485565186
215,16500.0,10.432705879211426,4.4961137771606445,-2.09850549697876
216,16600.0,10.432705879211426,4.4961137771606445,-2.09850549697876
217,16700.0,8.791230201721191,3.806980848312378,-2.861815929412842
218,16800.0,8.791230201721191,3.806980848312378,-2.861815929412842
219,16900.0,9.006584167480469,2.7804601192474365,-1.2993026971817017
220,16000.0,7.925028324127197,4.5678982734680185,-1.6079767942428589
221,16100.0,7.925028324127197,4.5678982734680185,-1.6079767942428589
222,16200.0,9.30329418182373,2.179861307144165,-2.1128623485565186
223,16300.0,9.30329418182373,2.179861307144165,-2.1128623485565186
224,16400.0,9.30329418182373,2.179861307144165,-2.1128623485565186
225,16500.0,10.432705879211426,4.4961137771606445,-2.09850549697876
226,16600.0,10.432705879211426,4.4961137771606445,-2.09850549697876
227,16700.0,8.791230201721191,3.806980848312378,-2.861815929412842
228,16800.0,8.791230201721191,3.806980848312378,-2.861815929412842
229,16900.0,9.006584167480469,2.7804601192474365,-1.2993026971817017
230,17000.0,9.006584167480469,2.7804601192474365,-1.2993026971817017
231,17100.0,10.604989051818848,2.2851457595825195,-0.5934200286865234
232,17200.0,10.604989051818848,2.2851457595825195,-0.5934200286865234
233,17300.0,9.073582649230957,0.882951557636261,-0.4618147313594818
234,17400.0,9.073582649230957,0.882951557636261,-0.4618147313594818
235,17500.0,9.073582649230957,0.882951557636261,-0.4618147313594818
236,17600.0,9.547362327575684,2.00518536567688,-1.184447169303894
237,17700.0,9.547362327575684,2.00518536567688,-1.184447169303894
238,17800.0,11.045268058776855,1.057627558708191,-1.5720844268798828
239,17900.0,11.045268058776855,1.057627558708191,-1.5720844268798828
240,17000.0,9.006584167480469,2.7804601192474365,-1.2993026971817017
241,17100.0,10.604989051818848,2.2851457595825195,-0.5934200286865234
242,17200.0,10.604989051818848,2.2851457595825195,-0.5934200286865234
243,17300.0,9.073582649230957,0.882951557636261,-0.4618147313594818
244,17400.0,9.073582649230957,0.882951557636261,-0.4618147313594818
245,17500.0,9.073582649230957,0.882951557636261,-0.4618147313594818
246,17600.0,9.547362327575684,2.00518536567688,-1.184447169303894
247,17700.0,9.547362327575684,2.00518536567688,-1.184447169303894
248,17800.0,11.045268058776855,1.057627558708191,-1.5720844268798828
249,17900.0,11.045268058776855,1.057627558708191,-1.5720844268798828
250,18000.0,7.9728851318359375,1.6677974462509155,-1.3136597871780396
251,18100.0,7.9728851318359375,1.6677974462509155,-1.3136597871780396
252,18200.0,10.231709480285645,3.1537401676177983,-2.8139593601226807
253,18300.0,10.231709480285645,3.1537401676177983,-2.8139593601226807
254,18400.0,10.231709480285645,3.1537401676177983,-2.8139593601226807
255,18500.0,14.170295715332033,1.5601203441619873,-0.9643075466156006
256,18600.0,14.170295715332033,1.5601203441619873,-0.9643075466156006
257,18700.0,6.977471351623535,0.3924228847026825,-1.1150553226470947
258,18800.0,6.977471351623535,0.3924228847026825,-1.1150553226470947
259,18900.0,9.09272575378418,2.423929214477539,-0.6197410225868225
260,18000.0,7.9728851318359375,1.6677974462509155,-1.3136597871780396
261,18100.0,7.9728851318359375,1.6677974462509155,-1.3136597871780396
262,18200.0,10.231709480285645,3.1537401676177983,-2.8139593601226807
263,18300.0,10.231709480285645,3.1537401676177983,-2.8139593601226807
264,18400.0,10.231709480285645,3.1537401676177983,-2.8139593601226807
265,18500.0,14.170295715332033,1.5601203441619873,-0.9643075466156006
266,18600.0,14.170295715332033,1.5601203441619873,-0.9643075466156006
267,18700.0,6.977471351623535,0.3924228847026825,-1.1150553226470947
268,18800.0,6.977471351623535,0.3924228847026825,-1.1150553226470947
269,18900.0,9.09272575378418,2.423929214477539,-0.6197410225868225
270,19000.0,9.09272575378418,2.423929214477539,-0.6197410225868225
271,19100.0,11.633904457092285,3.5964124202728267,-1.4859429597854614
272,19200.0,11.633904457092285,3.5964124202728267,-1.4859429597854614
273,19300.0,9.174081802368164,-0.8709874749183655,-3.5676987171173096
274,19400.0,9.174081802368164,-0.8709874749183655,-3.5676987171173096
275,19500.0,9.174081802368164,-0.8709874749183655,-3.5676987171173096
276,19600.0,8.647661209106445,1.4045867919921875,-1.3495519161224363
277,19700.0,8.647661209106445,1.4045867919921875,-1.3495519161224363
278,19800.0,8.475377082824707,0.3110669553279877,-3.687339782714844
279,19900.0,8.475377082824707,0.3110669553279877,-3.687339782714844
280,19000.0,9.09272575378418,2.423929214477539,-0.6197410225868225
281,19100.0,11.633904457092285,3.5964124202728267,-1.4859429597854614
282,19200.0,11.633904457092285,3.5964124202728267,-1.4859429597854614
283,19300.0,9.174081802368164,-0.8709874749183655,-3.5676987171173096
284,19400.0,9.174081802368164,-0.8709874749183655,-3.5676987171173096
285,19500.0,9.174081802368164,-0.8709874749183655,-3.5676987171173096
286,19600.0,8.647661209106445,1.4045867919921875,-1.3495519161224363
287,19700.0,8.647661209106445,1.4045867919921875,-1.3495519161224363
288,19800.0,8.475377082824707,0.3110669553279877,-3.687339782714844
289,19900.0,8.475377082824707,0.3110669553279877,-3.687339782714844
290,20000.0,8.475377082824707,0.3110669553279877,-3.687339782714844
291,20100.0,6.695117950439452,1.3591231107711792,-3.053241729736328
292,20200.0,6.695117950439452,1.3591231107711792,-3.053241729736328
293,20300.0,14.548361778259276,2.7732813358306885,-3.268595933914185
294,20400.0,14.548361778259276,2.7732813358306885,-3.268595933914185
295,20500.0,14.548361778259276,2.7732813358306885,-3.268595933914185
296,20600.0,8.98265552520752,2.620140790939331,-2.675175428390503
297,20700.0,8.98265552520752,2.620140790939331,-2.675175428390503
298,20800.0,8.815157890319824,2.3018953800201416,-2.1343977451324463
299,20900.0,8.815157890319824,2.3018953800201416,-2.1343977451324463
300,20000.0,8.475377082824707,0.3110669553279877,-3.687339782714844
301,20100.0,6.695117950439452,1.3591231107711792,-3.053241729736328
302,20200.0,6.695117950439452,1.3591231107711792,-3.053241729736328
303,20300.0,14.548361778259276,2.7732813358306885,-3.268595933914185
304,20400.0,14.548361778259276,2.7732813358306885,-3.268595933914185
305,20500.0,14.548361778259276,2.7732813358306885,-3.268595933914185
306,20600.0,8.98265552520752,2.620140790939331,-2.675175428390503
307,20700.0,8.98265552520752,2.620140790939331,-2.675175428390503
308,20800.0,8.815157890319824,2.3018953800201416,-2.1343977451324463
309,20900.0,8.815157890319824,2.3018953800201416,-2.1343977451324463
310,21000.0,8.303093910217285,2.756531953811645,-2.6153552532196045
311,21100.0,8.303093910217285,2.756531953811645,-2.6153552532196045
312,21200.0,15.443277359008787,4.319044589996338,-3.687339782714844
313,21300.0,15.443277359008787,4.319044589996338,-3.687339782714844
314,21400.0,15.443277359008787,4.319044589996338,-3.687339782714844
315,21500.0,8.102097511291504,1.0959126949310305,-1.7347965240478516
316,21600.0,8.102097511291504,1.0959126949310305,-1.7347965240478516
317,21700.0,8.992227554321289,0.13160523772239685,-2.763710021972656
318,21800.0,8.992227554321289,0.13160523772239685,-2.763710021972656
319,21900.0,8.451449394226074,2.648854732513428,-3.1369905471801762
320,21000.0,8.303093910217285,2.756531953811645,-2.6153552532196045
321,21100.0,8.303093910217285,2.756531953811645,-2.6153552532196045
322,21200.0,15.443277359008787,4.319044589996338,-3.687339782714844
323,21300.0,15.443277359008787,4.319044589996338,-3.687339782714844
324,21400.0,15.443277359008787,4.319044589996338,-3.687339782714844
325,21500.0,8.102097511291504,1.0959126949310305,-1.7347965240478516
326,21600.0,8.102097511291504,1.0959126949310305,-1.7347965240478516
327,21700.0,8.992227554321289,0.13160523772239685,-2.763710021972656
328,21800.0,8.992227554321289,0.13160523772239685,-2.763710021972656
329,21900.0,8.451449394226074,2.648854732513428,-3.1369905471801762
330,22000.0,8.451449394226074,2.648854732513428,-3.1369905471801762
331,22100.0,7.47517728805542,-0.4689932465553284,-3.4576287269592285
332,22200.0,7.47517728805542,-0.4689932465553284,-3.4576287269592285
333,22300.0,8.733802795410156,-0.5623133182525635,-1.5649060010910034
334,22400.0,8.733802795410156,-0.5623133182525635,-1.5649060010910034
335,22500.0,10.533205032348633,2.6321046352386475,-0.2943171858787537
336,22600.0,10.533205032348633,2.6321046352386475,-0.2943171858787537
337,22700.0,10.533205032348633,2.6321046352386475,-0.2943171858787537
338,22800.0,8.202595710754395,1.9812570810317995,-1.6390833854675293
339,22900.0,8.202595710754395,1.9812570810317995,-1.6390833854675293
340,22000.0,8.451449394226074,2.648854732513428,-3.1369905471801762
341,22100.0,7.47517728805542,-0.4689932465553284,-3.4576287269592285
342,22200.0,7.47517728805542,-0.4689932465553284,-3.4576287269592285
343,22300.0,8.733802795410156,-0.5623133182525635,-1.5649060010910034
344,22400.0,8.733802795410156,-0.5623133182525635,-1.5649060010910034
345,22500.0,10.533205032348633,2.6321046352386475,-0.2943171858787537
346,22600.0,10.533205032348633,2.6321046352386475,-0.2943171858787537
347,22700.0,10.533205032348633,2.6321046352386475,-0.2943171858787537
348,22800.0,8.202595710754395,1.9812570810317995,-1.6390833854675293
349,22900.0,8.202595710754395,1.9812570810317995,-1.6390833854675293
350,23000.0,8.159524917602539,2.2516460418701167,-2.964707374572754
351,23100.0,8.159524917602539,2.2516460418701167,-2.964707374572754
352,23200.0,12.595817565917967,-0.12681959569454193,-2.12961220741272
353,23300.0,12.595817565917967,-0.12681959569454193,-2.12961220741272
354,23400.0,12.595817565917967,-0.12681959569454193,-2.12961220741272
355,23500.0,7.317252159118652,0.0047856452874839315,-1.5170495510101318
356,23600.0,7.317252159118652,0.0047856452874839315,-1.5170495510101318
357,23700.0,8.805586814880371,0.1866401582956314,-3.3762726783752437
358,23800.0,8.805586814880371,0.1866401582956314,-3.3762726783752437
359,23900.0,8.236095428466799,2.1128623485565186,-2.416750907897949
360,23000.0,8.159524917602539,2.2516460418701167,-2.964707374572754
361,23100.0,8.159524917602539,2.2516460418701167,-2.964707374572754
362,23200.0,12.595817565917967,-0.12681959569454193,-2.12961220741272
363,23300.0,12.595817565917967,-0.12681959569454193,-2.12961220741272
364,23400.0,12.595817565917967,-0.12681959569454193,-2.12961220741272
365,23500.0,7.317252159118652,0.0047856452874839315,-1.5170495510101318
366,23600.0,7.317252159118652,0.0047856452874839315,-1.5170495510101318
367,23700.0,8.805586814880371,0.1866401582956314,-3.3762726783752437
368,23800.0,8.805586814880371,0.1866401582956314,-3.3762726783752437
369,23900.0,8.236095428466799,2.1128623485565186,-2.416750907897949
370,24000.0,8.236095428466799,2.1128623485565186,-2.416750907897949
371,24100.0,11.595619201660154,2.706282377243042,-0.4929214715957642
372,24200.0,11.595619201660154,2.706282377243042,-0.4929214715957642
373,24300.0,7.494320392608643,5.2905311584472665,-0.935593605041504
374,24400.0,7.494320392608643,5.2905311584472665,-0.935593605041504
375,24500.0,7.494320392608643,5.2905311584472665,-0.935593605041504
376,24600.0,11.102697372436523,3.2853453159332275,-1.4069796800613403
377,24700.0,11.102697372436523,3.2853453159332275,-1.4069796800613403
378,24800.0,8.025527954101562,1.581655740737915,-1.6773687601089478
379,24900.0,8.025527954101562,1.581655740737915,-1.6773687601089478
380,24000.0,8.236095428466799,2.1128623485565186,-2.416750907897949
381,24100.0,11.595619201660154,2.706282377243042,-0.4929214715957642
382,24200.0,11.595619201660154,2.706282377243042,-0.4929214715957642
383,24300.0,7.494320392608643,5.2905311584472665,-0.935593605041504
384,24400.0,7.494320392608643,5.2905311584472665,-0.935593605041504
385,24500.0,7.494320392608643,5.2905311584472665,-0.935593605041504
386,24600.0,11.102697372436523,3.2853453159332275,-1.4069796800613403
387,24700.0,11.102697372436523,3.2853453159332275,-1.4069796800613403
388,24800.0,8.025527954101562,1.581655740737915,-1.6773687601089478
389,24900.0,8.025527954101562,1.581655740737915,-1.6773687601089478
390,25000.0,8.025527954101562,1.581655740737915,-1.6773687601089478
391,25100.0,6.675975322723389,2.431107759475708,-1.8951154947280884
392,25200.0,6.675975322723389,2.431107759475708,-1.8951154947280884
393,25300.0,10.671989440917967,-3.187239646911621,-0.6843472719192505
394,25400.0,10.671989440917967,-3.187239646911621,-0.6843472719192505
395,25500.0,6.87697172164917,-1.6510475873947144,-1.2346963882446291
396,25600.0,6.87697172164917,-1.6510475873947144,-1.2346963882446291
397,25700.0,7.786244869232178,-0.3326023519039154,-2.7948169708251958
398,25800.0,7.786244869232178,-0.3326023519039154,-2.7948169708251958
399,25900.0,7.786244869232178,-0.3326023519039154,-2.7948169708251958
400,25000.0,8.025527954101562,1.581655740737915,-1.6773687601089478
401,25100.0,6.675975322723389,2.431107759475708,-1.8951154947280884
402,25200.0,6.675975322723389,2.431107759475708,-1.8951154947280884
403,25300.0,10.671989440917967,-3.187239646911621,-0.6843472719192505
404,25400.0,10.671989440917967,-3.187239646911621,-0.6843472719192505
405,25500.0,6.87697172164917,-1.6510475873947144,-1.2346963882446291
406,25600.0,6.87697172164917,-1.6510475873947144,-1.2346963882446291
407,25700.0,7.786244869232178,-0.3326023519039154,-2.7948169708251958
408,25800.0,7.786244869232178,-0.3326023519039154,-2.7948169708251958
409,25900.0,7.786244869232178,-0.3326023519039154,-2.7948169708251958
410,26000.0,12.514461517333984,3.168097257614136,0.11246266961097716
411,26100.0,12.514461517333984,3.168097257614136,0.11246266961097716
412,26200.0,8.901299476623535,2.3569302558898926,-1.1389836072921753
413,26300.0,8.901299476623535,2.3569302558898926,-1.1389836072921753
414,26400.0,8.901299476623535,2.3569302558898926,-1.1389836072921753
415,26500.0,9.710074424743652,3.1250264644622803,-0.2512463629245758
416,26600.0,9.710074424743652,3.1250264644622803,-0.2512463629245758
417,26700.0,7.2263240814208975,1.2323036193847656,-2.1391832828521733
418,26800.0,7.2263240814208975,1.2323036193847656,-2.1391832828521733
419,26900.0,17.486747741699222,3.809373617172241,-1.392622709274292
420,26000.0,12.514461517333984,3.168097257614136,0.11246266961097716
421,26100.0,12.514461517333984,3.168097257614136,0.11246266961097716
422,26200.0,8.901299476623535,2.3569302558898926,-1.1389836072921753
423,26300.0,8.901299476623535,2.3569302558898926,-1.1389836072921753
424,26400.0,8.901299476623535,2.3569302558898926,-1.1389836072921753
425,26500.0,9.710074424743652,3.1250264644622803,-0.2512463629245758
426,26600.0,9.710074424743652,3.1250264644622803,-0.2512463629245758
427,26700.0,7.2263240814208975,1.2323036193847656,-2.1391832828521733
428,26800.0,7.2263240814208975,1.2323036193847656,-2.1391832828521733
429,26900.0,17.486747741699222,3.809373617172241,-1.392622709274292
430,27000.0,17.486747741699222,3.809373617172241,-1.392622709274292
431,27100.0,17.486747741699222,3.809373617172241,-1.392622709274292
432,27200.0,6.230910301208496,1.4021940231323242,-1.710868239402771
433,27300.0,6.230910301208496,1.4021940231323242,-1.710868239402771
434,27400.0,7.28375244140625,0.11724831163883208,-1.8616160154342647
435,27500.0,7.28375244140625,0.11724831163883208,-1.8616160154342647
436,27600.0,15.850056648254395,4.3142595291137695,-2.486142873764038
437,27700.0,15.850056648254395,4.3142595291137695,-2.486142873764038
438,27800.0,15.850056648254395,4.3142595291137695,-2.486142873764038
439,27900.0,8.733802795410156,3.711267709732056,-1.1724830865859983
440,27000.0,17.486747741699222,3.809373617172241,-1.392622709274292
441,27100.0,17.486747741699222,3.809373617172241,-1.392622709274292
442,27200.0,6.230910301208496,1.4021940231323242,-1.710868239402771
443,27300.0,6.230910301208496,1.4021940231323242,-1.710868239402771
444,27400.0,7.28375244140625,0.11724831163883208,-1.8616160154342647
445,27500.0,7.28375244140625,0.11724831163883208,-1.8616160154342647
446,27600.0,15.850056648254395,4.3142595291137695,-2.486142873764038
447,27700.0,15.850056648254395,4.3142595291137695,-2.486142873764038
448,27800.0,15.850056648254395,4.3142595291137695,-2.486142873764038
449,27900.0,8.733802795410156,3.711267709732056,-1.1724830865859983
450,28000.0,8.733802795410156,3.711267709732056,-1.1724830865859983
451,28100.0,10.092925071716307,3.3236305713653564,-1.56969153881073
452,28200.0,10.092925071716307,3.3236305713653564,-1.56969153881073
453,28300.0,7.216752529144287,1.0791629552841189,-4.220939159393311
454,28400.0,7.216752529144287,1.0791629552841189,-4.220939159393311
455,28500.0,7.216752529144287,1.0791629552841189,-4.220939159393311
456,28600.0,5.422136306762695,2.9216365814208984,-0.8207381367683411
457,28700.0,5.422136306762695,2.9216365814208984,-0.8207381367683411
458,28800.0,8.374878883361816,-0.916451096534729,-4.4027934074401855
459,28900.0,8.374878883361816,-0.916451096534729,-4.4027934074401855
460,28000.0,8.733802795410156,3.711267709732056,-1.1724830865859983
461,28100.0,10.092925071716307,3.3236305713653564,-1.56969153881073
462,28200.0,10.092925071716307,3.3236305713653564,-1.56969153881073
463,28300.0,7.216752529144287,1.0791629552841189,-4.220939159393311
464,28400.0,7.216752529144287,1.0791629552841189,-4.220939159393311
465,28500.0,7.216752529144287,1.0791629552841189,-4.220939159393311
466,28600.0,5.422136306762695,2.9216365814208984,-0.8207381367683411
467,28700.0,5.422136306762695,2.9216365814208984,-0.8207381367683411
468,28800.0,8.374878883361816,-0.916451096534729,-4.4027934074401855
469,28900.0,8.374878883361816,-0.916451096534729,-4.4027934074401855
470,29000.0,8.685946464538574,1.1940184831619265,-1.3208380937576294
471,29100.0,8.685946464538574,1.1940184831619265,-1.3208380937576294
472,29200.0,8.685946464538574,1.1940184831619265,-1.3208380937576294
473,29300.0,8.575876235961914,1.0073783397674558,-2.4646072387695312
474,29400.0,8.575876235961914,1.0073783397674558,-2.4646072387695312
475,29500.0,6.900900363922119,1.6175479888916016,-1.7778673171997068
476,29600.0,6.900900363922119,1.6175479888916016,-1.7778673171997068
477,29700.0,9.96371364593506,2.6536402702331543,-1.4811571836471558
478,29800.0,9.96371364593506,2.6536402702331543,-1.4811571836471558
479,29900.0,9.96371364593506,2.6536402702331543,-1.4811571836471558
480,29000.0,8.685946464538574,1.1940184831619265,-1.3208380937576294
481,29100.0,8.685946464538574,1.1940184831619265,-1.3208380937576294
482,29200.0,8.685946464538574,1.1940184831619265,-1.3208380937576294
483,29300.0,8.575876235961914,1.0073783397674558,-2.4646072387695312
484,29400.0,8.575876235961914,1.0073783397674558,-2.4646072387695312
485,29500.0,6.900900363922119,1.6175479888916016,-1.7778673171997068
486,29600.0,6.900900363922119,1.6175479888916016,-1.7778673171997068
487,29700.0,9.96371364593506,2.6536402702331543,-1.4811571836471558
488,29800.0,9.96371364593506,2.6536402702331543,-1.4811571836471558
489,29900.0,9.96371364593506,2.6536402702331543,-1.4811571836471558
490,30000.0,10.183852195739746,2.431107759475708,-1.954936146736145
491,30100.0,10.183852195739746,2.431107759475708,-1.954936146736145
492,30200.0,9.4660062789917,2.3162522315979004,-1.1676974296569824
493,30300.0,9.4660062789917,2.3162522315979004,-1.1676974296569824
494,30400.0,8.896513938903809,1.4524433612823486,-1.1102697849273682
495,30500.0,8.896513938903809,1.4524433612823486,-1.1102697849273682
496,30600.0,9.77707290649414,2.0745770931243896,-1.6797614097595217
497,30700.0,9.77707290649414,2.0745770931243896,-1.6797614097595217
498,30800.0,9.77707290649414,2.0745770931243896,-1.6797614097595217
499,30900.0,10.480563163757324,1.6223337650299072,-0.2560320198535919
500,30000.0,10.183852195739746,2.431107759475708,-1.954936146736145
501,30100.0,10.183852195739746,2.431107759475708,-1.954936146736145
502,30200.0,9.4660062789917,2.3162522315979004,-1.1676974296569824
503,30300.0,9.4660062789917,2.3162522315979004,-1.1676974296569824
504,30400.0,8.896513938903809,1.4524433612823486,-1.1102697849273682
505,30500.0,8.896513938903809,1.4524433612823486,-1.1102697849273682
506,30600.0,9.77707290649414,2.0745770931243896,-1.6797614097595217
507,30700.0,9.77707290649414,2.0745770931243896,-1.6797614097595217
508,30800.0,9.77707290649414,2.0745770931243896,-1.6797614097595217
509,30900.0,10.480563163757324,1.6223337650299072,-0.2560320198535919
510,31000.0,10.480563163757324,1.6223337650299072,-0.2560320198535919
511,31100.0,9.480363845825195,3.184847116470337,-0.11006984114646913
512,31200.0,9.480363845825195,3.184847116470337,-0.11006984114646913
513,31300.0,11.12662410736084,2.031506299972534,-0.8925228118896484
514,31400.0,11.12662410736084,2.031506299972534,-0.8925228118896484
515,31500.0,11.12662410736084,2.031506299972534,-0.8925228118896484
516,31600.0,9.67657470703125,0.1339980661869049,-1.2993026971817017
517,31700.0,9.67657470703125,0.1339980661869049,-1.2993026971817017
518,31800.0,9.38943576812744,2.4095723628997803,-1.7324036359786987
519,31900.0,9.38943576812744,2.4095723628997803,-1.7324036359786987
520,31000.0,10.480563163757324,1.6223337650299072,-0.2560320198535919
521,31100.0,9.480363845825195,3.184847116470337,-0.11006984114646913
522,31200.0,9.480363845825195,3.184847116470337,-0.11006984114646913
523,31300.0,11.12662410736084,2.031506299972534,-0.8925228118896484
524,31400.0,11.12662410736084,2.031506299972534,-0.8925228118896484
525,31500.0,11.12662410736084,2.031506299972534,-0.8925228118896484
526,31600.0,9.67657470703125,0.1339980661869049,-1.2993026971817017
527,31700.0,9.67657470703125,0.1339980661869049,-1.2993026971817017
528,31800.0,9.38943576812744,2.4095723628997803,-1.7324036359786987
529,31900.0,9.38943576812744,2.4095723628997803,-1.7324036359786987
530,32000.0,10.423135757446287,0.9619146585464478,0.13160523772239685
531,32100.0,10.423135757446287,0.9619146585464478,0.13160523772239685
532,32200.0,10.360921859741213,-0.9978070855140686,1.184447169303894
533,32300.0,10.360921859741213,-0.9978070855140686,1.184447169303894
534,32400.0,10.360921859741213,-0.9978070855140686,1.184447169303894
535,32500.0,10.451848983764648,-0.1698903888463974,-2.988635540008545
536,32600.0,10.451848983764648,-0.1698903888463974,-2.988635540008545
537,32700.0,7.412964344024657,1.5601203441619873,-1.9716858863830569
538,32800.0,7.412964344024657,1.5601203441619873,-1.9716858863830569
539,32900.0,8.95394229888916,1.2011969089508057,-3.156132936477661
540,32000.0,10.423135757446287,0.9619146585464478,0.13160523772239685
541,32100.0,10.423135757446287,0.9619146585464478,0.13160523772239685
542,32200.0,10.360921859741213,-0.9978070855140686,1.184447169303894
543,32300.0,10.360921859741213,-0.9978070855140686,1.184447169303894
544,32400.0,10.360921859741213,-0.9978070855140686,1.184447169303894
545,32500.0,10.451848983764648,-0.1698903888463974,-2.988635540008545
546,32600.0,10.451848983764648,-0.1698903888463974,-2.988635540008545
547,32700.0,7.412964344024657,1.5601203441619873,-1.9716858863830569
548,32800.0,7.412964344024657,1.5601203441619873,-1.9716858863830569
549,32900.0,8.95394229888916,1.2011969089508057,-3.156132936477661
550,33000.0,8.95394229888916,1.2011969089508057,-3.156132936477661
551,33100.0,14.189438819885256,2.665604591369629,-1.129412293434143
552,33200.0,14.189438819885256,2.665604591369629,-1.129412293434143
553,33300.0,6.317051887512207,1.4835500717163086,-3.4815566539764404
554,33400.0,6.317051887512207,1.4835500717163086,-3.4815566539764404
555,33500.0,9.63828945159912,1.062413215637207,-1.227518081665039
556,33600.0,9.63828945159912,1.062413215637207,-1.227518081665039
557,33700.0,9.63828945159912,1.062413215637207,-1.227518081665039
558,33800.0,6.939186096191406,1.306481122970581,-2.2755744457244877
559,33900.0,6.939186096191406,1.306481122970581,-2.2755744457244877
560,33000.0,8.95394229888916,1.2011969089508057,-3.156132936477661
561,33100.0,14.189438819885256,2.665604591369629,-1.129412293434143
562,33200.0,14.189438819885256,2.665604591369629,-1.129412293434143
563,33300.0,6.317051887512207,1.4835500717163086,-3.4815566539764404
564,33400.0,6.317051887512207,1.4835500717163086,-3.4815566539764404
565,33500.0,9.63828945159912,1.062413215637207,-1.227518081665039
566,33600.0,9.63828945159912,1.062413215637207,-1.227518081665039
567,33700.0,9.63828945159912,1.062413215637207,-1.227518081665039
568,33800.0,6.939186096191406,1.306481122970581,-2.2755744457244877
569,33900.0,6.939186096191406,1.306481122970581,-2.2755744457244877
570,34000.0,7.968099594116211,-1.7994027137756348,-2.2755744457244877
571,34100.0,7.968099594116211,-1.7994027137756348,-2.2755744457244877
572,34200.0,10.02592658996582,1.4548362493515017,-1.1820544004440308
573,34300.0,10.02592658996582,1.4548362493515017,-1.1820544004440308
574,34400.0,10.02592658996582,1.4548362493515017,-1.1820544004440308
575,34500.0,9.183652877807617,-0.0813559740781784,-1.2035897970199585
576,34600.0,9.183652877807617,-0.0813559740781784,-1.2035897970199585
577,34700.0,7.188039302825928,-0.011964112520217896,-2.438286304473877
578,34800.0,7.188039302825928,-0.011964112520217896,-2.438286304473877
579,34900.0,15.467206001281738,2.7972097396850586,-0.6843472719192505
580,34000.0,7.968099594116211,-1.7994027137756348,-2.2755744457244877
581,34100.0,7.968099594116211,-1.7994027137756348,-2.2755744457244877
582,34200.0,10.02592658996582,1.4548362493515017,-1.1820544004440308
583,34300.0,10.02592658996582,1.4548362493515017,-1.1820544004440308
584,34400.0,10.02592658996582,1.4548362493515017,-1.1820544004440308
585,34500.0,9.183652877807617,-0.0813559740781784,-1.2035897970199585
586,34600.0,9.183652877807617,-0.0813559740781784,-1.2035897970199585
587,34700.0,7.188039302825928,-0.011964112520217896,-2.438286304473877
588,34800.0,7.188039302825928,-0.011964112520217896,-2.438286304473877
589,34900.0,15.467206001281738,2.7972097396850586,-0.6843472719192505
590,35000.0,15.467206001281738,2.7972097396850586,-0.6843472719192505
591,35100.0,8.073383331298826,1.9621145725250244,-1.3184452056884766
592,35200.0,8.073383331298826,1.9621145725250244,-1.3184452056884766
593,35300.0,9.609575271606444,3.086741209030152,-1.8065810203552248
594,35400.0,9.609575271606444,3.086741209030152,-1.8065810203552248
595,35500.0,9.609575271606444,3.086741209030152,-1.8065810203552248
596,35600.0,9.695716857910156,1.3782659769058228,-1.0097711086273191
597,35700.0,9.695716857910156,1.3782659769058228,-1.0097711086273191
598,35800.0,8.863015174865723,2.8522443771362305,-1.2251251935958862
599,35900.0,8.863015174865723,2.8522443771362305,-1.2251251935958862
600,35000.0,15.467206001281738,2.7972097396850586,-0.6843472719192505
601,35100.0,8.073383331298826,1.9621145725250244,-1.3184452056884766
602,35200.0,8.073383331298826,1.9621145725250244,-1.3184452056884766
603,35300.0,9.609575271606444,3.086741209030152,-1.8065810203552248
604,35400.0,9.609575271606444,3.086741209030152,-1.8065810203552248
605,35500.0,9.609575271606444,3.086741209030152,-1.8065810203552248
606,35600.0,9.695716857910156,1.3782659769058228,-1.0097711086273191
607,35700.0,9.695716857910156,1.3782659769058228,-1.0097711086273191
608,35800.0,8.863015174865723,2.8522443771362305,-1.2251251935958862
609,35900.0,8.863015174865723,2.8522443771362305,-1.2251251935958862
610,36000.0,6.422336101531982,1.9908283948898315,-1.7012970447540283
611,36100.0,6.422336101531982,1.9908283948898315,-1.7012970447540283
612,36200.0,6.422336101531982,1.9908283948898315,-1.7012970447540283
613,36300.0,11.308479309082033,0.2943171858787537,-3.818945169448853
614,36400.0,11.308479309082033,0.2943171858787537,-3.818945169448853
615,36500.0,8.504091262817383,0.6197410225868225,-1.7252250909805298
616,36600.0,8.504091262817383,0.6197410225868225,-1.7252250909805298
617,36700.0,7.422535419464111,0.9906285405158995,-2.3545374870300293
618,36800.0,7.422535419464111,0.9906285405158995,-2.3545374870300293
619,36900.0,7.791030406951903,1.8376877307891848,-2.5866410732269287
620,36000.0,6.422336101531982,1.9908283948898315,-1.7012970447540283
621,36100.0,6.422336101531982,1.9908283948898315,-1.7012970447540283
622,36200.0,6.422336101531982,1.9908283948898315,-1.7012970447540283
623,36300.0,11.308479309082033,0.2943171858787537,-3.818945169448853
624,36400.0,11.308479309082033,0.2943171858787537,-3.818945169448853
625,36500.0,8.504091262817383,0.6197410225868225,-1.7252250909805298
626,36600.0,8.504091262817383,0.6197410225868225,-1.7252250909805298
627,36700.0,7.422535419464111,0.9906285405158995,-2.3545374870300293
628,36800.0,7.422535419464111,0.9906285405158995,-2.3545374870300293
629,36900.0,7.791030406951903,1.8376877307891848,-2.5866410732269287
630,37000.0,7.791030406951903,1.8376877307891848,-2.5866410732269287
631,37100.0,7.791030406951903,1.8376877307891848,-2.5866410732269287
632,37200.0,8.59501838684082,2.167897224426269,-2.304288148880005
633,37300.0,8.59501838684082,2.167897224426269,-2.304288148880005
634,37400.0,8.59501838684082,2.167897224426269,-2.304288148880005
635,37500.0,9.040083885192873,1.8305093050003047,-1.6821542978286743
636,37600.0,9.040083885192873,1.8305093050003047,-1.6821542978286743
637,37700.0,9.67657470703125,2.4885356426239014,-1.5098710060119631
638,37800.0,9.67657470703125,2.4885356426239014,-1.5098710060119631
639,37900.0,9.542576789855957,1.6223337650299072,-1.246660590171814
640,37000.0,7.791030406951903,1.8376877307891848,-2.5866410732269287
641,37100.0,7.791030406951903,1.8376877307891848,-2.5866410732269287
642,37200.0,8.59501838684082,2.167897224426269,-2.304288148880005
643,37300.0,8.59501838684082,2.167897224426269,-2.304288148880005
644,37400.0,8.59501838684082,2.167897224426269,-2.304288148880005
645,37500.0,9.040083885192873,1.8305093050003047,-1.6821542978286743
646,37600.0,9.040083885192873,1.8305093050003047,-1.6821542978286743
647,37700.0,9.67657470703125,2.4885356426239014,-1.5098710060119631
648,37800.0,9.67657470703125,2.4885356426239014,-1.5098710060119631
649,37900.0,9.542576789855957,1.6223337650299072,-1.246660590171814
650,38000.0,9.542576789855957,1.6223337650299072,-1.246660590171814
651,38100.0,9.542576789855957,1.6223337650299072,-1.246660590171814
652,38200.0,9.57607650756836,2.376072883605957,-0.30149564146995544
653,38300.0,9.57607650756836,2.376072883605957,-0.30149564146995544
654,38400.0,7.963313579559326,2.395215511322021,-1.7347965240478516
655,38500.0,7.963313579559326,2.395215511322021,-1.7347965240478516
656,38600.0,8.346165657043457,2.053041696548462,-2.057827472686768
657,38700.0,8.346165657043457,2.053041696548462,-2.057827472686768
658,38800.0,8.346165657043457,2.053041696548462,-2.057827472686768
659,38900.0,15.103496551513672,1.1988041400909424,-1.0121639966964722
660,38000.0,9.542576789855957,1.6223337650299072,-1.246660590171814
661,38100.0,9.542576789855957,1.6223337650299072,-1.246660590171814
662,38200.0,9.57607650756836,2.376072883605957,-0.30149564146995544
663,38300.0,9.57607650756836,2.376072883605957,-0.30149564146995544
664,38400.0,7.963313579559326,2.395215511322021,-1.7347965240478516
665,38500.0,7.963313579559326,2.395215511322021,-1.7347965240478516
666,38600.0,8.346165657043457,2.053041696548462,-2.057827472686768
667,38700.0,8.346165657043457,2.053041696548462,-2.057827472686768
668,38800.0,8.346165657043457,2.053041696548462,-2.057827472686768
669,38900.0,15.103496551513672,1.1988041400909424,-1.0121639966964722
670,39000.0,15.103496551513672,1.1988041400909424,-1.0121639966964722
671,39100.0,7.518248558044434,0.2967100143432617,-0.6221339106559753
672,39200.0,7.518248558044434,0.2967100143432617,-0.6221339106559753
673,39300.0,9.384650230407717,0.8207381367683411,-1.9501504898071291
674,39400.0,9.384650230407717,0.8207381367683411,-1.9501504898071291
675,39500.0,8.676375389099121,0.15074782073497772,-2.304288148880005
676,39600.0,8.676375389099121,0.15074782073497772,-2.304288148880005
677,39700.0,8.676375389099121,0.15074782073497772,-2.304288148880005
678,39800.0,8.063812255859375,2.1415762901306152,-1.0336993932724001
679,39900.0,8.063812255859375,2.1415762901306152,-1.0336993932724001
680,39000.0,15.103496551513672,1.1988041400909424,-1.0121639966964722
681,39100.0,7.518248558044434,0.2967100143432617,-0.6221339106559753
682,39200.0,7.518248558044434,0.2967100143432617,-0.6221339106559753
683,39300.0,9.384650230407717,0.8207381367683411,-1.9501504898071291
684,39400.0,9.384650230407717,0.8207381367683411,-1.9501504898071291
685,39500.0,8.676375389099121,0.15074782073497772,-2.304288148880005
686,39600.0,8.676375389099121,0.15074782073497772,-2.304288148880005
687,39700.0,8.676375389099121,0.15074782073497772,-2.304288148880005
688,39800.0,8.063812255859375,2.1415762901306152,-1.0336993932724001
689,39900.0,8.063812255859375,2.1415762901306152,-1.0336993932724001
690,40000.0,10.40877914428711,0.4737788736820221,-0.902094066143036
691,40100.0,10.40877914428711,0.4737788736820221,-0.902094066143036
692,40200.0,8.346165657043457,1.7084753513336182,-0.5647061467170715
693,40300.0,8.346165657043457,1.7084753513336182,-0.5647061467170715
694,40400.0,8.417949676513674,2.51007080078125,-1.06480610370636
695,40500.0,8.417949676513674,2.51007080078125,-1.06480610370636
696,40600.0,8.417949676513674,2.51007080078125,-1.06480610370636
697,40700.0,8.360522270202638,2.431107759475708,-1.6941183805465698
698,40800.0,8.360522270202638,2.431107759475708,-1.6941183805465698
699,40900.0,7.101897716522218,2.0458633899688716,-1.4668002128601074
700,40000.0,10.40877914428711,0.4737788736820221,-0.902094066143036
701,40100.0,10.40877914428711,0.4737788736820221,-0.902094066143036
702,40200.0,8.346165657043457,1.7084753513336182,-0.5647061467170715
703,40300.0,8.346165657043457,1.7084753513336182,-0.5647061467170715
704,40400.0,8.417949676513674,2.51007080078125,-1.06480610370636
705,40500.0,8.417949676513674,2.51007080078125,-1.06480610370636
706,40600.0,8.417949676513674,2.51007080078125,-1.06480610370636
707,40700.0,8.360522270202638,2.431107759475708,-1.6941183805465698
708,40800.0,8.360522270202638,2.431107759475708,-1.6941183805465698
709,40900.0,7.101897716522218,2.0458633899688716,-1.4668002128601074
710,41000.0,7.101897716522218,2.0458633899688716,-1.4668002128601074
711,41100.0,11.33240795135498,0.9212367534637452,-3.517449140548706
712,41200.0,11.33240795135498,0.9212367534637452,-3.517449140548706
713,41300.0,8.264809608459473,1.5170495510101318,-1.356730580329895
714,41400.0,8.264809608459473,1.5170495510101318,-1.356730580329895
715,41500.0,8.264809608459473,1.5170495510101318,-1.356730580329895
716,41600.0,8.49452018737793,2.5124638080596924,-3.28773832321167
717,41700.0,8.49452018737793,2.5124638080596924,-3.28773832321167
718,41800.0,7.728816509246826,1.797009825706482,-3.268595933914185
719,41900.0,7.728816509246826,1.797009825706482,-3.268595933914185
720,41000.0,7.101897716522218,2.0458633899688716,-1.4668002128601074
721,41100.0,11.33240795135498,0.9212367534637452,-3.517449140548706
722,41200.0,11.33240795135498,0.9212367534637452,-3.517449140548706
723,41300.0,8.264809608459473,1.5170495510101318,-1.356730580329895
724,41400.0,8.264809608459473,1.5170495510101318,-1.356730580329895
725,41500.0,8.264809608459473,1.5170495510101318,-1.356730580329895
726,41600.0,8.49452018737793,2.5124638080596924,-3.28773832321167
727,41700.0,8.49452018737793,2.5124638080596924,-3.28773832321167
728,41800.0,7.728816509246826,1.797009825706482,-3.268595933914185
729,41900.0,7.728816509246826,1.797009825706482,-3.268595933914185
730,42000.0,11.499905586242676,1.411765456199646,-1.1700903177261353
731,42100.0,11.499905586242676,1.411765456199646,-1.1700903177261353
732,42200.0,8.575876235961914,2.612962245941162,-1.9118653535842896
733,42300.0,8.575876235961914,2.612962245941162,-1.9118653535842896
734,42400.0,8.575876235961914,2.612962245941162,-1.9118653535842896
735,42500.0,9.40379238128662,2.739781856536865,-0.8781659603118896
736,42600.0,9.40379238128662,2.739781856536865,-0.8781659603118896
737,42700.0,9.126225471496582,1.8735800981521609,-1.155733346939087
738,42800.0,9.126225471496582,1.8735800981521609,-1.155733346939087
739,42900.0,11.102697372436523,1.2658032178878784,-1.6797614097595217
740,42000.0,11.499905586242676,1.411765456199646,-1.1700903177261353
741,42100.0,11.499905586242676,1.411765456199646,-1.1700903177261353
742,42200.0,8.575876235961914,2.612962245941162,-1.9118653535842896
743,42300.0,8.575876235961914,2.612962245941162,-1.9118653535842896
744,42400.0,8.575876235961914,2.612962245941162,-1.9118653535842896
745,42500.0,9.40379238128662,2.739781856536865,-0.8781659603118896
746,42600.0,9.40379238128662,2.739781856536865,-0.8781659603118896
747,42700.0,9.126225471496582,1.8735800981521609,-1.155733346939087
748,42800.0,9.126225471496582,1.8735800981521609,-1.155733346939087
749,42900.0,11.102697372436523,1.2658032178878784,-1.6797614097595217
750,43000.0,11.102697372436523,1.2658032178878784,-1.6797614097595217
751,43100.0,11.102697372436523,1.2658032178878784,-1.6797614097595217
752,43200.0,9.518648147583008,1.2993026971817017,-1.88075852394104
753,43300.0,9.518648147583008,1.2993026971817017,-1.88075852394104
754,43400.0,9.346364974975586,2.8426735401153564,-1.8759729862213133
755,43500.0,9.346364974975586,2.8426735401153564,-1.8759729862213133
756,43600.0,8.350951194763184,1.361515998840332,-0.3517449200153351
757,43700.0,8.350951194763184,1.361515998840332,-0.3517449200153351
758,43800.0,8.561518669128418,2.711068153381348,1.3184452056884766
759,43900.0,8.561518669128418,2.711068153381348,1.3184452056884766
760,43000.0,11.102697372436523,1.2658032178878784,-1.6797614097595217
761,43100.0,11.102697372436523,1.2658032178878784,-1.6797614097595217
762,43200.0,9.518648147583008,1.2993026971817017,-1.88075852394104
763,43300.0,9.518648147583008,1.2993026971817017,-1.88075852394104
764,43400.0,9.346364974975586,2.8426735401153564,-1.8759729862213133
765,43500.0,9.346364974975586,2.8426735401153564,-1.8759729862213133
766,43600.0,8.350951194763184,1.361515998840332,-0.3517449200153351
767,43700.0,8.350951194763184,1.361515998840332,-0.3517449200153351
768,43800.0,8.561518669128418,2.711068153381348,1.3184452056884766
769,43900.0,8.561518669128418,2.711068153381348,1.3184452056884766
770,44000.0,8.561518669128418,2.711068153381348,1.3184452056884766
771,44100.0,9.580862045288086,2.483749866485596,-0.5551348924636841
772,44200.0,9.580862045288086,2.483749866485596,-0.5551348924636841
773,44300.0,6.742973804473878,0.5886343717575073,-1.7850456237792969
774,44400.0,6.742973804473878,0.5886343717575073,-1.7850456237792969
775,44500.0,7.8819580078125,-0.21296121180057528,-2.560320377349853
776,44600.0,7.8819580078125,-0.21296121180057528,-2.560320377349853
777,44700.0,7.8819580078125,-0.21296121180057528,-2.560320377349853
778,44800.0,5.536991596221924,2.3018953800201416,-2.577069997787476
779,44900.0,5.536991596221924,2.3018953800201416,-2.577069997787476
780,44000.0,8.561518669128418,2.711068153381348,1.3184452056884766
781,44100.0,9.580862045288086,2.483749866485596,-0.5551348924636841
782,44200.0,9.580862045288086,2.483749866485596,-0.5551348924636841
783,44300.0,6.742973804473878,0.5886343717575073,-1.7850456237792969
784,44400.0,6.742973804473878,0.5886343717575073,-1.7850456237792969
785,44500.0,7.8819580078125,-0.21296121180057528,-2.560320377349853
786,44600.0,7.8819580078125,-0.21296121180057528,-2.560320377349853
787,44700.0,7.8819580078125,-0.21296121180057528,-2.560320377349853
788,44800.0,5.536991596221924,2.3018953800201416,-2.577069997787476
789,44900.0,5.536991596221924,2.3018953800201416,-2.577069997787476
790,45000.0,8.336593627929688,-1.2083754539489746,-2.1894328594207764
791,45100.0,8.336593627929688,-1.2083754539489746,-2.1894328594207764
792,45200.0,9.805787086486816,-0.906879723072052,1.938186287879944
793,45300.0,9.805787086486816,-0.906879723072052,1.938186287879944
794,45400.0,9.992427825927734,2.761317014694214,-2.522034883499145
795,45500.0,9.992427825927734,2.761317014694214,-2.522034883499145
796,45600.0,9.992427825927734,2.761317014694214,-2.522034883499145
797,45700.0,10.413564682006836,1.5098710060119631,1.8999011516571045
798,45800.0,10.413564682006836,1.5098710060119631,1.8999011516571045
799,45900.0,8.279166221618652,1.2370892763137815,-0.430708110332489
800,45000.0,8.336593627929688,-1.2083754539489746,-2.1894328594207764
801,45100.0,8.336593627929688,-1.2083754539489746,-2.1894328594207764
802,45200.0,9.805787086486816,-0.906879723072052,1.938186287879944
803,45300.0,9.805787086486816,-0.906879723072052,1.938186287879944
804,45400.0,9.992427825927734,2.761317014694214,-2.522034883499145
805,45500.0,9.992427825927734,2.761317014694214,-2.522034883499145
806,45600.0,9.992427825927734,2.761317014694214,-2.522034883499145
807,45700.0,10.413564682006836,1.5098710060119631,1.8999011516571045
808,45800.0,10.413564682006836,1.5098710060119631,1.8999011516571045
809,45900.0,8.279166221618652,1.2370892763137815,-0.430708110332489
810,46000.0,8.279166221618652,1.2370892763137815,-0.430708110332489
811,46100.0,8.279166221618652,1.2370892763137815,-0.430708110332489
812,46200.0,7.604390144348144,1.160519003868103,-1.2514461278915403
813,46300.0,7.604390144348144,1.160519003868103,-1.2514461278915403
814,46400.0,12.399606704711914,1.1150553226470947,-2.0554347038269043
815,46500.0,12.399606704711914,1.1150553226470947,-2.0554347038269043
816,46600.0,9.38943576812744,2.2995026111602783,-2.5076780319213867
817,46700.0,9.38943576812744,2.2995026111602783,-2.5076780319213867
818,46800.0,9.38943576812744,2.2995026111602783,-2.5076780319213867
819,46900.0,8.743373870849611,1.2035897970199585,-2.3736801147460938
820,46000.0,8.279166221618652,1.2370892763137815,-0.430708110332489
821,46100.0,8.279166221618652,1.2370892763137815,-0.430708110332489
822,46200.0,7.604390144348144,1.160519003868103,-1.2514461278915403
823,46300.0,7.604390144348144,1.160519003868103,-1.2514461278915403
824,46400.0,12.399606704711914,1.1150553226470947,-2.0554347038269043
825,46500.0,12.399606704711914,1.1150553226470947,-2.0554347038269043
826,46600.0,9.38943576812744,2.2995026111602783,-2.5076780319213867
827,46700.0,9.38943576812744,2.2995026111602783,-2.5076780319213867
828,46800.0,9.38943576812744,2.2995026111602783,-2.5076780319213867
829,46900.0,8.743373870849611,1.2035897970199585,-2.3736801147460938
830,47000.0,8.743373870849611,1.2035897970199585,-2.3736801147460938
831,47100.0,9.470791816711426,2.179861307144165,-2.1726830005645748
832,47200.0,9.470791816711426,2.179861307144165,-2.1726830005645748
833,47300.0,9.470791816711426,2.179861307144165,-2.1726830005645748
834,47400.0,7.604390144348144,2.155933380126953,-1.1102697849273682
835,47500.0,7.604390144348144,2.155933380126953,-1.1102697849273682
836,47600.0,12.787243843078613,0.9834501147270204,-0.7561319470405579
837,47700.0,12.787243843078613,0.9834501147270204,-0.7561319470405579
838,47800.0,10.021141052246094,3.072384119033813,-0.4450649619102478
839,47900.0,10.021141052246094,3.072384119033813,-0.4450649619102478
840,47000.0,8.743373870849611,1.2035897970199585,-2.3736801147460938
841,47100.0,9.470791816711426,2.179861307144165,-2.1726830005645748
842,47200.0,9.470791816711426,2.179861307144165,-2.1726830005645748
843,47300.0,9.470791816711426,2.179861307144165,-2.1726830005645748
844,47400.0,7.604390144348144,2.155933380126953,-1.1102697849273682
845,47500.0,7.604390144348144,2.155933380126953,-1.1102697849273682
846,47600.0,12.787243843078613,0.9834501147270204,-0.7561319470405579
847,47700.0,12.787243843078613,0.9834501147270204,-0.7561319470405579
848,47800.0,10.021141052246094,3.072384119033813,-0.4450649619102478
849,47900.0,10.021141052246094,3.072384119033813,-0.4450649619102478
850,48000.0,9.135796546936037,1.529013752937317,-0.7082754969596863
851,48100.0,9.135796546936037,1.529013752937317,-0.7082754969596863
852,48200.0,9.135796546936037,1.529013752937317,-0.7082754969596863
853,48300.0,9.456435203552246,1.0743772983551023,0.6388836503028871
854,48400.0,9.456435203552246,1.0743772983551023,0.6388836503028871
855,48500.0,9.308080673217773,2.749353408813477,-1.8783657550811768
856,48600.0,9.308080673217773,2.749353408813477,-1.8783657550811768
857,48700.0,9.308080673217773,2.749353408813477,-1.8783657550811768
858,48800.0,8.202595710754395,2.6703903675079346,-0.9212367534637452
859,48900.0,8.202595710754395,2.6703903675079346,-0.9212367534637452
860,48000.0,9.135796546936037,1.529013752937317,-0.7082754969596863
861,48100.0,9.135796546936037,1.529013752937317,-0.7082754969596863
862,48200.0,9.135796546936037,1.529013752937317,-0.7082754969596863
863,48300.0,9.456435203552246,1.0743772983551023,0.6388836503028871
864,48400.0,9.456435203552246,1.0743772983551023,0.6388836503028871
865,48500.0,9.308080673217773,2.749353408813477,-1.8783657550811768
866,48600.0,9.308080673217773,2.749353408813477,-1.8783657550811768
867,48700.0,9.308080673217773,2.749353408813477,-1.8783657550811768
868,48800.0,8.202595710754395,2.6703903675079346,-0.9212367534637452
869,48900.0,8.202595710754395,2.6703903675079346,-0.9212367534637452
870,49000.0,15.189637184143065,3.5676987171173096,-1.65583336353302
871,49100.0,15.189637184143065,3.5676987171173096,-1.65583336353302
872,49200.0,8.547162055969237,0.8039883971214294,-2.9527432918548584
873,49300.0,8.547162055969237,0.8039883971214294,-2.9527432918548584
874,49400.0,8.647661209106445,1.5314064025878906,-2.8522443771362305
875,49500.0,8.647661209106445,1.5314064025878906,-2.8522443771362305
876,49600.0,8.216952323913574,2.029113531112671,-2.493321180343628
877,49700.0,8.216952323913574,2.029113531112671,-2.493321180343628
878,49800.0,8.216952323913574,2.029113531112671,-2.493321180343628
879,49900.0,9.375079154968262,2.060220241546631,-1.5074783563613892
880,49000.0,15.189637184143065,3.5676987171173096,-1.65583336353302
881,49100.0,15.189637184143065,3.5676987171173096,-1.65583336353302
882,49200.0,8.547162055969237,0.8039883971214294,-2.9527432918548584
883,49300.0,8.547162055969237,0.8039883971214294,-2.9527432918548584
884,49400.0,8.647661209106445,1.5314064025878906,-2.8522443771362305
885,49500.0,8.647661209106445,1.5314064025878906,-2.8522443771362305
886,49600.0,8.216952323913574,2.029113531112671,-2.493321180343628
887,49700.0,8.216952323913574,2.029113531112671,-2.493321180343628
888,49800.0,8.216952323913574,2.029113531112671,-2.493321180343628
889,49900.0,9.375079154968262,2.060220241546631,-1.5074783563613892
890,50000.0,9.375079154968262,2.060220241546631,-1.5074783563613892
891,50100.0,7.83410120010376,2.258824586868286,-1.1150553226470947
892,50200.0,7.83410120010376,2.258824586868286,-1.1150553226470947
893,50300.0,9.77707290649414,1.741974949836731,-0.906879723072052
894,50400.0,9.77707290649414,1.741974949836731,-0.906879723072052
895,50500.0,9.77707290649414,1.741974949836731,-0.906879723072052
896,50600.0,9.954142570495604,2.7278177738189697,-1.4452648162841797
897,50700.0,9.954142570495604,2.7278177738189697,-1.4452648162841797
898,50800.0,8.997013092041016,2.0434706211090092,0.00957129057496786
899,50900.0,8.997013092041016,2.0434706211090092,0.00957129057496786
900,50000.0,9.375079154968262,2.060220241546631,-1.5074783563613892
901,50100.0,7.83410120010376,2.258824586868286,-1.1150553226470947
902,50200.0,7.83410120010376,2.258824586868286,-1.1150553226470947
903,50300.0,9.77707290649414,1.741974949836731,-0.906879723072052
904,50400.0,9.77707290649414,1.741974949836731,-0.906879723072052
905,50500.0,9.77707290649414,1.741974949836731,-0.906879723072052
906,50600.0,9.954142570495604,2.7278177738189697,-1.4452648162841797
907,50700.0,9.954142570495604,2.7278177738189697,-1.4452648162841797
908,50800.0,8.997013092041016,2.0434706211090092,0.00957129057496786
909,50900.0,8.997013092041016,2.0434706211090092,0.00957129057496786
910,51000.0,8.126025199890138,2.289931058883667,-1.160519003868103
911,51100.0,8.126025199890138,2.289931058883667,-1.160519003868103
912,51200.0,14.821144104003904,3.565305471420288,-1.2035897970199585
913,51300.0,14.821144104003904,3.565305471420288,-1.2035897970199585
914,51400.0,14.821144104003904,3.565305471420288,-1.2035897970199585
915,51500.0,8.910871505737305,-0.14356936514377594,-3.653840303421021
916,51600.0,8.910871505737305,-0.14356936514377594,-3.653840303421021
917,51700.0,8.738588333129883,2.1056838035583496,-3.012563943862915
918,51800.0,8.738588333129883,2.1056838035583496,-3.012563943862915
919,51900.0,8.145168304443361,2.483749866485596,-3.328416109085083
920,51000.0,8.126025199890138,2.289931058883667,-1.160519003868103
921,51100.0,8.126025199890138,2.289931058883667,-1.160519003868103
922,51200.0,14.821144104003904,3.565305471420288,-1.2035897970199585
923,51300.0,14.821144104003904,3.565305471420288,-1.2035897970199585
924,51400.0,14.821144104003904,3.565305471420288,-1.2035897970199585
925,51500.0,8.910871505737305,-0.14356936514377594,-3.653840303421021
926,51600.0,8.910871505737305,-0.14356936514377594,-3.653840303421021
927,51700.0,8.738588333129883,2.1056838035583496,-3.012563943862915
928,51800.0,8.738588333129883,2.1056838035583496,-3.012563943862915
929,51900.0,8.145168304443361,2.483749866485596,-3.328416109085083
930,52000.0,8.145168304443361,2.483749866485596,-3.328416109085083
931,52100.0,8.145168304443361,2.483749866485596,-3.328416109085083
932,52200.0,8.532805442810059,2.048256158828736,-1.5026925802230835
933,52300.0,8.532805442810059,2.048256158828736,-1.5026925802230835
934,52400.0,15.773487091064453,4.122833251953125,-0.7513462901115417
935,52500.0,15.773487091064453,4.122833251953125,-0.7513462901115417
936,52600.0,7.676175117492676,1.3471590280532837,-1.2658032178878784
937,52700.0,7.676175117492676,1.3471590280532837,-1.2658032178878784
938,52800.0,8.834300994873047,2.266003131866455,-1.4165509939193726
939,52900.0,8.834300994873047,2.266003131866455,-1.4165509939193726
940,52000.0,8.145168304443361,2.483749866485596,-3.328416109085083
941,52100.0,8.145168304443361,2.483749866485596,-3.328416109085083
942,52200.0,8.532805442810059,2.048256158828736,-1.5026925802230835
943,52300.0,8.532805442810059,2.048256158828736,-1.5026925802230835
944,52400.0,15.773487091064453,4.122833251953125,-0.7513462901115417
945,52500.0,15.773487091064453,4.122833251953125,-0.7513462901115417
946,52600.0,7.676175117492676,1.3471590280532837,-1.2658032178878784
947,52700.0,7.676175117492676,1.3471590280532837,-1.2658032178878784
948,52800.0,8.834300994873047,2.266003131866455,-1.4165509939193726
949,52900.0,8.834300994873047,2.266003131866455,-1.4165509939193726
950,53000.0,8.169095993041992,3.053241729736328,-1.4524433612823486
951,53100.0,8.169095993041992,3.053241729736328,-1.4524433612823486
952,53200.0,8.169095993041992,3.053241729736328,-1.4524433612823486
953,53300.0,7.8006019592285165,3.28773832321167,-1.6510475873947144
954,53400.0,7.8006019592285165,3.28773832321167,-1.6510475873947144
955,53500.0,9.667003631591797,0.4689932465553284,-2.699103832244873
956,53600.0,9.667003631591797,0.4689932465553284,-2.699103832244873
957,53700.0,9.667003631591797,0.4689932465553284,-2.699103832244873
958,53800.0,7.948956489562987,1.1150553226470947,-2.801995038986206
959,53900.0,7.948956489562987,1.1150553226470947,-2.801995038986206
960,53000.0,8.169095993041992,3.053241729736328,-1.4524433612823486
961,53100.0,8.169095993041992,3.053241729736328,-1.4524433612823486
962,53200.0,8.169095993041992,3.053241729736328,-1.4524433612823486
963,53300.0,7.8006019592285165,3.28773832321167,-1.6510475873947144
964,53400.0,7.8006019592285165,3.28773832321167,-1.6510475873947144
965,53500.0,9.667003631591797,0.4689932465553284,-2.699103832244873
966,53600.0,9.667003631591797,0.4689932465553284,-2.699103832244873
967,53700.0,9.667003631591797,0.4689932465553284,-2.699103832244873
968,53800.0,7.948956489562987,1.1150553226470947,-2.801995038986206
969,53900.0,7.948956489562987,1.1150553226470947,-2.801995038986206
970,54000.0,8.958727836608887,1.6151552200317385,-3.610769510269165
971,54100.0,8.958727836608887,1.6151552200317385,-3.610769510269165
972,54200.0,7.240681171417236,2.589033842086792,-2.720639228820801
973,54300.0,7.240681171417236,2.589033842086792,-2.720639228820801
974,54400.0,7.58524751663208,2.7086753845214844,-2.25403904914856
975,54500.0,7.58524751663208,2.7086753845214844,-2.25403904914856
976,54600.0,11.901899337768555,2.761317014694214,-1.3304094076156616
977,54700.0,11.901899337768555,2.761317014694214,-1.3304094076156616
978,54800.0,9.69093132019043,3.548555850982666,-2.3736801147460938
979,54900.0,9.69093132019043,3.548555850982666,-2.3736801147460938
980,54000.0,8.958727836608887,1.6151552200317385,-3.610769510269165
981,54100.0,8.958727836608887,1.6151552200317385,-3.610769510269165
982,54200.0,7.240681171417236,2.589033842086792,-2.720639228820801
983,54300.0,7.240681171417236,2.589033842086792,-2.720639228820801
984,54400.0,7.58524751663208,2.7086753845214844,-2.25403904914856
985,54500.0,7.58524751663208,2.7086753845214844,-2.25403904914856
986,54600.0,11.901899337768555,2.761317014694214,-1.3304094076156616
987,54700.0,11.901899337768555,2.761317014694214,-1.3304094076156616
988,54800.0,9.69093132019043,3.548555850982666,-2.3736801147460938
989,54900.0,9.69093132019043,3.548555850982666,-2.3736801147460938
990,55000.0,9.69093132019043,3.548555850982666,-2.3736801147460938
991,55100.0,9.485149383544922,2.4287149906158447,-1.9669002294540403
992,55200.0,9.485149383544922,2.4287149906158447,-1.9669002294540403
993,55300.0,7.240681171417236,1.7324036359786987,-0.969093143939972
994,55400.0,7.240681171417236,1.7324036359786987,-0.969093143939972
995,55500.0,7.240681171417236,1.7324036359786987,-0.969093143939972
996,55600.0,7.671389579772949,2.093719720840454,-3.1274189949035645
997,55700.0,7.671389579772949,2.093719720840454,-3.1274189949035645
998,55800.0,11.035696983337402,1.2586246728897097,-2.9766712188720703
999,55900.0,11.035696983337402,1.2586246728897097,-2.9766712188720703
1000,55000.0,9.69093132019043,3.548555850982666,-2.3736801147460938
1001,55100.0,9.485149383544922,2.4287149906158447,-1.9669002294540403
1002,55200.0,9.485149383544922,2.4287149906158447,-1.9669002294540403
1003,55300.0,7.240681171417236,1.7324036359786987,-0.969093143939972
1004,55400.0,7.240681171417236,1.7324036359786987,-0.969093143939972
1005,55500.0,7.240681171417236,1.7324036359786987,-0.969093143939972
1006,55600.0,7.671389579772949,2.093719720840454,-3.1274189949035645
1007,55700.0,7.671389579772949,2.093719720840454,-3.1274189949035645
1008,55800.0,11.035696983337402,1.2586246728897097,-2.9766712188720703
1009,55900.0,11.035696983337402,1.2586246728897097,-2.9766712188720703
1010,56000.0,7.537391662597656,1.643869161605835,-2.411965131759644
1011,56100.0,7.537391662597656,1.643869161605835,-2.411965131759644
1012,56200.0,7.661818027496338,2.132004976272583,-3.493520975112915
1013,56300.0,7.661818027496338,2.132004976272583,-3.493520975112915
1014,56400.0,7.049255847930907,1.3423734903335571,-2.9383859634399414
1015,56500.0,7.049255847930907,1.3423734903335571,-2.9383859634399414
1016,56600.0,7.049255847930907,1.3423734903335571,-2.9383859634399414
1017,56700.0,10.351350784301758,2.426322221755981,-1.6462620496749878
1018,56800.0,10.351350784301758,2.426322221755981,-1.6462620496749878
1019,56900.0,9.69093132019043,3.804587841033936,-0.5479563474655151
1020,56000.0,7.537391662597656,1.643869161605835,-2.411965131759644
1021,56100.0,7.537391662597656,1.643869161605835,-2.411965131759644
1022,56200.0,7.661818027496338,2.132004976272583,-3.493520975112915
1023,56300.0,7.661818027496338,2.132004976272583,-3.493520975112915
1024,56400.0,7.049255847930907,1.3423734903335571,-2.9383859634399414
1025,56500.0,7.049255847930907,1.3423734903335571,-2.9383859634399414
1026,56600.0,7.049255847930907,1.3423734903335571,-2.9383859634399414
1027,56700.0,10.351350784301758,2.426322221755981,-1.6462620496749878
1028,56800.0,10.351350784301758,2.426322221755981,-1.6462620496749878
1029,56900.0,9.69093132019043,3.804587841033936,-0.5479563474655151
1030,57000.0,9.69093132019043,3.804587841033936,-0.5479563474655151
1031,57100.0,9.69093132019043,3.804587841033936,-0.5479563474655151
1032,57200.0,8.98265552520752,3.862015962600708,-0.9834501147270204
1033,57300.0,8.98265552520752,3.862015962600708,-0.9834501147270204
1034,57400.0,9.839285850524902,2.553141593933105,-1.5433706045150757
1035,57500.0,9.839285850524902,2.553141593933105,-1.5433706045150757
1036,57600.0,10.676774978637695,4.421936511993408,-1.529013752937317
1037,57700.0,10.676774978637695,4.421936511993408,-1.529013752937317
1038,57800.0,6.436692714691162,4.247260093688965,-0.2679961323738098
1039,57900.0,6.436692714691162,4.247260093688965,-0.2679961323738098
1040,57000.0,9.69093132019043,3.804587841033936,-0.5479563474655151
1041,57100.0,9.69093132019043,3.804587841033936,-0.5479563474655151
1042,57200.0,8.98265552520752,3.862015962600708,-0.9834501147270204
1043,57300.0,8.98265552520752,3.862015962600708,-0.9834501147270204
1044,57400.0,9.839285850524902,2.553141593933105,-1.5433706045150757
1045,57500.0,9.839285850524902,2.553141593933105,-1.5433706045150757
1046,57600.0,10.676774978637695,4.421936511993408,-1.529013752937317
1047,57700.0,10.676774978637695,4.421936511993408,-1.529013752937317
1048,57800.0,6.436692714691162,4.247260093688965,-0.2679961323738098
1049,57900.0,6.436692714691162,4.247260093688965,-0.2679961323738098
1050,58000.0,11.877972602844238,1.8113667964935305,-3.218346357345581
1051,58100.0,11.877972602844238,1.8113667964935305,-3.218346357345581
1052,58200.0,7.685746192932129,1.797009825706482,-2.1272192001342773
1053,58300.0,7.685746192932129,1.797009825706482,-2.1272192001342773
1054,58400.0,7.685746192932129,1.797009825706482,-2.1272192001342773
1055,58500.0,8.858229637145996,1.7802598476409912,-3.062812805175781
1056,58600.0,8.858229637145996,1.7802598476409912,-3.062812805175781
1057,58700.0,9.164510726928713,1.9764715433120728,-3.029313325881958
1058,58800.0,9.164510726928713,1.9764715433120728,-3.029313325881958
1059,58900.0,9.580862045288086,3.122633695602417,-1.6342979669570925
1060,58000.0,11.877972602844238,1.8113667964935305,-3.218346357345581
1061,58100.0,11.877972602844238,1.8113667964935305,-3.218346357345581
1062,58200.0,7.685746192932129,1.797009825706482,-2.1272192001342773
1063,58300.0,7.685746192932129,1.797009825706482,-2.1272192001342773
1064,58400.0,7.685746192932129,1.797009825706482,-2.1272192001342773
1065,58500.0,8.858229637145996,1.7802598476409912,-3.062812805175781
1066,58600.0,8.858229637145996,1.7802598476409912,-3.062812805175781
1067,58700.0,9.164510726928713,1.9764715433120728,-3.029313325881958
1068,58800.0,9.164510726928713,1.9764715433120728,-3.029313325881958
1069,58900.0,9.580862045288086,3.122633695602417,-1.6342979669570925
1070,59000.0,9.580862045288086,3.122633695602417,-1.6342979669570925
1071,59100.0,9.580862045288086,3.122633695602417,-1.6342979669570925
1072,59200.0,8.537590980529785,3.2662029266357417,0.11964112520217896
1073,59300.0,8.537590980529785,3.2662029266357417,0.11964112520217896
1074,59400.0,10.504491806030273,3.842873096466065,-0.3349951505661011
1075,59500.0,10.504491806030273,3.842873096466065,-0.3349951505661011
1076,59600.0,10.504491806030273,3.842873096466065,-0.3349951505661011
1077,59700.0,10.595418930053713,1.368694543838501,-1.0695916414260864
1078,59800.0,10.595418930053713,1.368694543838501,-1.0695916414260864
1079,59900.0,10.499706268310547,1.7252250909805298,0.28953152894973755
1080,59000.0,9.580862045288086,3.122633695602417,-1.6342979669570925
1081,59100.0,9.580862045288086,3.122633695602417,-1.6342979669570925
1082,59200.0,8.537590980529785,3.2662029266357417,0.11964112520217896
1083,59300.0,8.537590980529785,3.2662029266357417,0.11964112520217896
1084,59400.0,10.504491806030273,3.842873096466065,-0.3349951505661011
1085,59500.0,10.504491806030273,3.842873096466065,-0.3349951505661011
1086,59600.0,10.504491806030273,3.842873096466065,-0.3349951505661011
1087,59700.0,10.595418930053713,1.368694543838501,-1.0695916414260864
1088,59800.0,10.595418930053713,1.368694543838501,-1.0695916414260864
1089,59900.0,10.499706268310547,1.7252250909805298,0.28953152894973755
1090,60000.0,10.499706268310547,1.7252250909805298,0.28953152894973755
1091,60100.0,8.628519058227539,1.6893328428268433,-1.6390833854675293
1092,60200.0,8.628519058227539,1.6893328428268433,-1.6390833854675293
1093,60300.0,8.915657043457031,2.230110645294189,-2.0362920761108403
1094,60400.0,8.915657043457031,2.230110645294189,-2.0362920761108403
1095,60500.0,9.212367057800293,2.2923240661621094,-2.273181438446045
1096,60600.0,9.212367057800293,2.2923240661621094,-2.273181438446045
1097,60700.0,9.212367057800293,2.2923240661621094,-2.273181438446045
1098,60800.0,8.102097511291504,1.5218352079391482,-1.758724570274353
1099,60900.0,8.102097511291504,1.5218352079391482,-1.758724570274353
1100,60000.0,10.499706268310547,1.7252250909805298,0.28953152894973755
1101,60100.0,8.628519058227539,1.6893328428268433,-1.6390833854675293
1102,60200.0,8.628519058227539,1.6893328428268433,-1.6390833854675293
1103,60300.0,8.915657043457031,2.230110645294189,-2.0362920761108403
1104,60400.0,8.915657043457031,2.230110645294189,-2.0362920761108403
1105,60500.0,9.212367057800293,2.2923240661621094,-2.273181438446045
1106,60600.0,9.212367057800293,2.2923240661621094,-2.273181438446045
1107,60700.0,9.212367057800293,2.2923240661621094,-2.273181438446045
1108,60800.0,8.102097511291504,1.5218352079391482,-1.758724570274353
1109,60900.0,8.102097511291504,1.5218352079391482,-1.758724570274353
1110,61000.0,9.906286239624023,2.754138946533203,-0.5024927258491516
1111,61100.0,9.906286239624023,2.754138946533203,-0.5024927258491516
1112,61200.0,9.906286239624023,2.754138946533203,-0.5024927258491516
1113,61300.0,9.370293617248537,5.9342002868652335,-0.7968099117279053
1114,61400.0,9.370293617248537,5.9342002868652335,-0.7968099117279053
1115,61500.0,9.245866775512695,1.9453648328781128,-0.16510476171970367
1116,61600.0,9.245866775512695,1.9453648328781128,-0.16510476171970367
1117,61700.0,7.75753116607666,1.8783657550811768,-3.16331148147583
1118,61800.0,7.75753116607666,1.8783657550811768,-3.16331148147583
1119,61900.0,7.5326056480407715,1.7347965240478516,-1.146162033081055
1120,61000.0,9.906286239624023,2.754138946533203,-0.5024927258491516
1121,61100.0,9.906286239624023,2.754138946533203,-0.5024927258491516
1122,61200.0,9.906286239624023,2.754138946533203,-0.5024927258491516
1123,61300.0,9.370293617248537,5.9342002868652335,-0.7968099117279053
1124,61400.0,9.370293617248537,5.9342002868652335,-0.7968099117279053
1125,61500.0,9.245866775512695,1.9453648328781128,-0.16510476171970367
1126,61600.0,9.245866775512695,1.9453648328781128,-0.16510476171970367
1127,61700.0,7.75753116607666,1.8783657550811768,-3.16331148147583
1128,61800.0,7.75753116607666,1.8783657550811768,-3.16331148147583
1129,61900.0,7.5326056480407715,1.7347965240478516,-1.146162033081055
1130,62000.0,7.5326056480407715,1.7347965240478516,-1.146162033081055
1131,62100.0,7.5326056480407715,1.7347965240478516,-1.146162033081055
1132,62200.0,8.657232284545897,-1.2035897970199585,-2.2875385284423833
1133,62300.0,8.657232284545897,-1.2035897970199585,-2.2875385284423833
1134,62400.0,10.815558433532717,0.5623133182525635,-2.179861307144165
1135,62500.0,10.815558433532717,0.5623133182525635,-2.179861307144165
1136,62600.0,9.413363456726074,2.785245418548584,-3.646661758422852
1137,62700.0,9.413363456726074,2.785245418548584,-3.646661758422852
1138,62800.0,11.054840087890623,1.710868239402771,-1.9238293170928955
1139,62900.0,11.054840087890623,1.710868239402771,-1.9238293170928955
1140,62000.0,7.5326056480407715,1.7347965240478516,-1.146162033081055
1141,62100.0,7.5326056480407715,1.7347965240478516,-1.146162033081055
1142,62200.0,8.657232284545897,-1.2035897970199585,-2.2875385284423833
1143,62300.0,8.657232284545897,-1.2035897970199585,-2.2875385284423833
1144,62400.0,10.815558433532717,0.5623133182525635,-2.179861307144165
1145,62500.0,10.815558433532717,0.5623133182525635,-2.179861307144165
1146,62600.0,9.413363456726074,2.785245418548584,-3.646661758422852
1147,62700.0,9.413363456726074,2.785245418548584,-3.646661758422852
1148,62800.0,11.054840087890623,1.710868239402771,-1.9238293170928955
1149,62900.0,11.054840087890623,1.710868239402771,-1.9238293170928955
1150,63000.0,5.862415313720702,0.014356935396790503,-2.2923240661621094
1151,63100.0,5.862415313720702,0.014356935396790503,-2.2923240661621094
1152,63200.0,5.862415313720702,0.014356935396790503,-2.2923240661621094
1153,63300.0,13.78744411468506,3.060420036315918,-3.1657044887542725
1154,63400.0,13.78744411468506,3.060420036315918,-3.1657044887542725
1155,63500.0,8.772088050842285,4.663610935211182,-1.00259268283844
1156,63600.0,8.772088050842285,4.663610935211182,-1.00259268283844
1157,63700.0,8.772088050842285,4.663610935211182,-1.00259268283844
1158,63800.0,9.30329418182373,3.4480574131011963,-1.9118653535842896
1159,63900.0,9.30329418182373,3.4480574131011963,-1.9118653535842896
1160,63000.0,5.862415313720702,0.014356935396790503,-2.2923240661621094
1161,63100.0,5.862415313720702,0.014356935396790503,-2.2923240661621094
1162,63200.0,5.862415313720702,0.014356935396790503,-2.2923240661621094
1163,63300.0,13.78744411468506,3.060420036315918,-3.1657044887542725
1164,63400.0,13.78744411468506,3.060420036315918,-3.1657044887542725
1165,63500.0,8.772088050842285,4.663610935211182,-1.00259268283844
1166,63600.0,8.772088050842285,4.663610935211182,-1.00259268283844
1167,63700.0,8.772088050842285,4.663610935211182,-1.00259268283844
1168,63800.0,9.30329418182373,3.4480574131011963,-1.9118653535842896
1169,63900.0,9.30329418182373,3.4480574131011963,-1.9118653535842896
1170,64000.0,8.38444995880127,1.758724570274353,-2.3306093215942383
1171,64100.0,8.38444995880127,1.758724570274353,-2.3306093215942383
1172,64200.0,11.767902374267578,3.292524099349976,-1.6797614097595217
1173,64300.0,11.767902374267578,3.292524099349976,-1.6797614097595217
1174,64400.0,9.710074424743652,2.0147566795349117,-2.1607186794281006
1175,64500.0,9.710074424743652,2.0147566795349117,-2.1607186794281006
1176,64600.0,9.710074424743652,2.0147566795349117,-2.1607186794281006
1177,64700.0,9.245866775512695,0.7034898400306702,-3.328416109085083
1178,64800.0,9.245866775512695,0.7034898400306702,-3.328416109085083
1179,64900.0,8.10688304901123,0.6508477926254272,-2.050648927688598
1180,64000.0,8.38444995880127,1.758724570274353,-2.3306093215942383
1181,64100.0,8.38444995880127,1.758724570274353,-2.3306093215942383
1182,64200.0,11.767902374267578,3.292524099349976,-1.6797614097595217
1183,64300.0,11.767902374267578,3.292524099349976,-1.6797614097595217
1184,64400.0,9.710074424743652,2.0147566795349117,-2.1607186794281006
1185,64500.0,9.710074424743652,2.0147566795349117,-2.1607186794281006
1186,64600.0,9.710074424743652,2.0147566795349117,-2.1607186794281006
1187,64700.0,9.245866775512695,0.7034898400306702,-3.328416109085083
1188,64800.0,9.245866775512695,0.7034898400306702,-3.328416109085083
1189,64900.0,8.10688304901123,0.6508477926254272,-2.050648927688598
1190,65000.0,8.10688304901123,0.6508477926254272,-2.050648927688598
1191,65100.0,7.743173599243164,0.7561319470405579,-3.208775281906128
1192,65200.0,7.743173599243164,0.7561319470405579,-3.208775281906128
1193,65300.0,7.743173599243164,0.7561319470405579,-3.208775281906128
1194,65400.0,12.624531745910645,3.845265865325928,-1.411765456199646
1195,65500.0,12.624531745910645,3.845265865325928,-1.411765456199646
1196,65600.0,10.006784439086914,4.481756687164307,-0.13639087975025174
1197,65700.0,10.006784439086914,4.481756687164307,-0.13639087975025174
1198,65800.0,8.968299865722656,3.2255251407623287,-1.4261221885681152
1199,65900.0,8.968299865722656,3.2255251407623287,-1.4261221885681152
1200,65000.0,8.10688304901123,0.6508477926254272,-2.050648927688598
1201,65100.0,7.743173599243164,0.7561319470405579,-3.208775281906128
1202,65200.0,7.743173599243164,0.7561319470405579,-3.208775281906128
1203,65300.0,7.743173599243164,0.7561319470405579,-3.208775281906128
1204,65400.0,12.624531745910645,3.845265865325928,-1.411765456199646
1205,65500.0,12.624531745910645,3.845265865325928,-1.411765456199646
1206,65600.0,10.006784439086914,4.481756687164307,-0.13639087975025174
1207,65700.0,10.006784439086914,4.481756687164307,-0.13639087975025174
1208,65800.0,8.968299865722656,3.2255251407623287,-1.4261221885681152
1209,65900.0,8.968299865722656,3.2255251407623287,-1.4261221885681152
1210,66000.0,8.71944522857666,2.8737800121307373,-1.581655740737915
1211,66100.0,8.71944522857666,2.8737800121307373,-1.581655740737915
1212,66200.0,8.432307243347168,2.7732813358306885,-0.5312066078186035
1213,66300.0,8.432307243347168,2.7732813358306885,-0.5312066078186035
1214,66400.0,8.432307243347168,2.7732813358306885,-0.5312066078186035
1215,66500.0,11.131410598754883,2.629711866378784,-1.8520447015762331
1216,66600.0,11.131410598754883,2.629711866378784,-1.8520447015762331
1217,66700.0,8.202595710754395,-0.2560320198535919,-2.146361827850342
1218,66800.0,8.202595710754395,-0.2560320198535919,-2.146361827850342
1219,66900.0,9.681360244750977,1.7778673171997068,-3.103491306304932
1220,66000.0,8.71944522857666,2.8737800121307373,-1.581655740737915
1221,66100.0,8.71944522857666,2.8737800121307373,-1.581655740737915
1222,66200.0,8.432307243347168,2.7732813358306885,-0.5312066078186035
1223,66300.0,8.432307243347168,2.7732813358306885,-0.5312066078186035
1224,66400.0,8.432307243347168,2.7732813358306885,-0.5312066078186035
1225,66500.0,11.131410598754883,2.629711866378784,-1.8520447015762331
1226,66600.0,11.131410598754883,2.629711866378784,-1.8520447015762331
1227,66700.0,8.202595710754395,-0.2560320198535919,-2.146361827850342
1228,66800.0,8.202595710754395,-0.2560320198535919,-2.146361827850342
1229,66900.0,9.681360244750977,1.7778673171997068,-3.103491306304932
1230,67000.0,9.681360244750977,1.7778673171997068,-3.103491306304932
1231,67100.0,9.681360244750977,1.7778673171997068,-3.103491306304932
1232,67200.0,8.197811126708983,0.7489535212516785,-2.1343977451324463
1233,67300.0,8.197811126708983,0.7489535212516785,-2.1343977451324463
1234,67400.0,9.710074424743652,1.2681961059570312,-1.392622709274292
1235,67500.0,9.710074424743652,1.2681961059570312,-1.392622709274292
1236,67600.0,13.24666690826416,3.5246279239654537,-0.15074782073497772
1237,67700.0,13.24666690826416,3.5246279239654537,-0.15074782073497772
1238,67800.0,9.28893756866455,3.76151704788208,-1.4668002128601074
1239,67900.0,9.28893756866455,3.76151704788208,-1.4668002128601074
1240,67000.0,9.681360244750977,1.7778673171997068,-3.103491306304932
1241,67100.0,9.681360244750977,1.7778673171997068,-3.103491306304932
1242,67200.0,8.197811126708983,0.7489535212516785,-2.1343977451324463
1243,67300.0,8.197811126708983,0.7489535212516785,-2.1343977451324463
1244,67400.0,9.710074424743652,1.2681961059570312,-1.392622709274292
1245,67500.0,9.710074424743652,1.2681961059570312,-1.392622709274292
1246,67600.0,13.24666690826416,3.5246279239654537,-0.15074782073497772
1247,67700.0,13.24666690826416,3.5246279239654537,-0.15074782073497772
1248,67800.0,9.28893756866455,3.76151704788208,-1.4668002128601074
1249,67900.0,9.28893756866455,3.76151704788208,-1.4668002128601074
1250,68000.0,9.28893756866455,3.76151704788208,-1.4668002128601074
1251,68100.0,9.198010444641113,1.7252250909805298,-1.641476273536682
1252,68200.0,9.198010444641113,1.7252250909805298,-1.641476273536682
1253,68300.0,7.4081788063049325,2.51007080078125,-1.0504491329193115
1254,68400.0,7.4081788063049325,2.51007080078125,-1.0504491329193115
1255,68500.0,14.897713661193848,5.453242778778076,-3.062812805175781
1256,68600.0,14.897713661193848,5.453242778778076,-3.062812805175781
1257,68700.0,14.897713661193848,5.453242778778076,-3.062812805175781
1258,68800.0,10.169495582580566,1.8113667964935305,-0.7130610942840576
1259,68900.0,10.169495582580566,1.8113667964935305,-0.7130610942840576
1260,68000.0,9.28893756866455,3.76151704788208,-1.4668002128601074
1261,68100.0,9.198010444641113,1.7252250909805298,-1.641476273536682
1262,68200.0,9.198010444641113,1.7252250909805298,-1.641476273536682
1263,68300.0,7.4081788063049325,2.51007080078125,-1.0504491329193115
1264,68400.0,7.4081788063049325,2.51007080078125,-1.0504491329193115
1265,68500.0,14.897713661193848,5.453242778778076,-3.062812805175781
1266,68600.0,14.897713661193848,5.453242778778076,-3.062812805175781
1267,68700.0,14.897713661193848,5.453242778778076,-3.062812805175781
1268,68800.0,10.169495582580566,1.8113667964935305,-0.7130610942840576
1269,68900.0,10.169495582580566,1.8113667964935305,-0.7130610942840576
1270,69000.0,9.078369140625,1.1150553226470947,-2.9527432918548584
1271,69100.0,9.078369140625,1.1150553226470947,-2.9527432918548584
1272,69200.0,8.102097511291504,2.4574286937713623,-3.4576287269592285
1273,69300.0,8.102097511291504,2.4574286937713623,-3.4576287269592285
1274,69400.0,8.102097511291504,2.4574286937713623,-3.4576287269592285
1275,69500.0,7.322037220001222,2.744567632675171,-2.392822742462158
1276,69600.0,7.322037220001222,2.744567632675171,-2.392822742462158
1277,69700.0,12.361321449279785,2.847458839416504,-0.9260223507881165
1278,69800.0,12.361321449279785,2.847458839416504,-0.9260223507881165
1279,69900.0,9.422935485839844,4.1180477142333975,-1.9453648328781128
1280,69000.0,9.078369140625,1.1150553226470947,-2.9527432918548584
1281,69100.0,9.078369140625,1.1150553226470947,-2.9527432918548584
1282,69200.0,8.102097511291504,2.4574286937713623,-3.4576287269592285
1283,69300.0,8.102097511291504,2.4574286937713623,-3.4576287269592285
1284,69400.0,8.102097511291504,2.4574286937713623,-3.4576287269592285
1285,69500.0,7.322037220001222,2.744567632675171,-2.392822742462158
1286,69600.0,7.322037220001222,2.744567632675171,-2.392822742462158
1287,69700.0,12.361321449279785,2.847458839416504,-0.9260223507881165
1288,69800.0,12.361321449279785,2.847458839416504,-0.9260223507881165
1289,69900.0,9.422935485839844,4.1180477142333975,-1.9453648328781128
1290,70000.0,9.422935485839844,4.1180477142333975,-1.9453648328781128
1291,70100.0,9.595218658447266,3.438485860824585,-1.588834285736084
1292,70200.0,9.595218658447266,3.438485860824585,-1.588834285736084
1293,70300.0,9.595218658447266,3.438485860824585,-1.588834285736084
1294,70400.0,8.164310455322267,2.366501569747925,-1.105484127998352
1295,70500.0,8.164310455322267,2.366501569747925,-1.105484127998352
1296,70600.0,6.838686943054199,2.1056838035583496,-1.1413763761520386
1297,70700.0,6.838686943054199,2.1056838035583496,-1.1413763761520386
1298,70800.0,13.423734664916992,1.6534404754638672,-3.7734813690185542
1299,70900.0,13.423734664916992,1.6534404754638672,-3.7734813690185542
1300,70000.0,9.422935485839844,4.1180477142333975,-1.9453648328781128
1301,70100.0,9.595218658447266,3.438485860824585,-1.588834285736084
1302,70200.0,9.595218658447266,3.438485860824585,-1.588834285736084
1303,70300.0,9.595218658447266,3.438485860824585,-1.588834285736084
1304,70400.0,8.164310455322267,2.366501569747925,-1.105484127998352
1305,70500.0,8.164310455322267,2.366501569747925,-1.105484127998352
1306,70600.0,6.838686943054199,2.1056838035583496,-1.1413763761520386
1307,70700.0,6.838686943054199,2.1056838035583496,-1.1413763761520386
1308,70800.0,13.423734664916992,1.6534404754638672,-3.7734813690185542
1309,70900.0,13.423734664916992,1.6534404754638672,-3.7734813690185542
1310,71000.0,8.427520751953125,1.6582260131835938,-2.132004976272583
1311,71100.0,8.427520751953125,1.6582260131835938,-2.132004976272583
1312,71200.0,8.427520751953125,1.6582260131835938,-2.132004976272583
1313,71300.0,7.934599876403809,1.9764715433120728,-3.206382274627685
1314,71400.0,7.934599876403809,1.9764715433120728,-3.206382274627685
1315,71500.0,10.983055114746094,2.1128623485565186,-0.882951557636261
1316,71600.0,10.983055114746094,2.1128623485565186,-0.882951557636261
1317,71700.0,10.983055114746094,2.1128623485565186,-0.882951557636261
1318,71800.0,9.504291534423828,3.4025940895080566,-1.0552347898483276
1319,71900.0,9.504291534423828,3.4025940895080566,-1.0552347898483276
1320,71000.0,8.427520751953125,1.6582260131835938,-2.132004976272583
1321,71100.0,8.427520751953125,1.6582260131835938,-2.132004976272583
1322,71200.0,8.427520751953125,1.6582260131835938,-2.132004976272583
1323,71300.0,7.934599876403809,1.9764715433120728,-3.206382274627685
1324,71400.0,7.934599876403809,1.9764715433120728,-3.206382274627685
1325,71500.0,10.983055114746094,2.1128623485565186,-0.882951557636261
1326,71600.0,10.983055114746094,2.1128623485565186,-0.882951557636261
1327,71700.0,10.983055114746094,2.1128623485565186,-0.882951557636261
1328,71800.0,9.504291534423828,3.4025940895080566,-1.0552347898483276
1329,71900.0,9.504291534423828,3.4025940895080566,-1.0552347898483276
1330,72000.0,9.652647018432617,3.6370904445648193,-1.8257235288619995
1331,72100.0,9.652647018432617,3.6370904445648193,-1.8257235288619995
1332,72200.0,9.221939086914062,2.988635540008545,-1.1006983518600464
1333,72300.0,9.221939086914062,2.988635540008545,-1.1006983518600464
1334,72400.0,7.762316703796388,2.665604591369629,-1.6845470666885376
1335,72500.0,7.762316703796388,2.665604591369629,-1.6845470666885376
1336,72600.0,10.418350219726562,5.048855781555176,-2.1104695796966557
1337,72700.0,10.418350219726562,5.048855781555176,-2.1104695796966557
1338,72800.0,10.418350219726562,5.048855781555176,-2.1104695796966557
1339,72900.0,10.183852195739746,2.9264223575592037,-1.7754744291305542
1340,72000.0,9.652647018432617,3.6370904445648193,-1.8257235288619995
1341,72100.0,9.652647018432617,3.6370904445648193,-1.8257235288619995
1342,72200.0,9.221939086914062,2.988635540008545,-1.1006983518600464
1343,72300.0,9.221939086914062,2.988635540008545,-1.1006983518600464
1344,72400.0,7.762316703796388,2.665604591369629,-1.6845470666885376
1345,72500.0,7.762316703796388,2.665604591369629,-1.6845470666885376
1346,72600.0,10.418350219726562,5.048855781555176,-2.1104695796966557
1347,72700.0,10.418350219726562,5.048855781555176,-2.1104695796966557
1348,72800.0,10.418350219726562,5.048855781555176,-2.1104695796966557
1349,72900.0,10.183852195739746,2.9264223575592037,-1.7754744291305542
1350,73000.0,10.183852195739746,2.9264223575592037,-1.7754744291305542
1351,73100.0,9.145368576049805,1.4165509939193726,-3.634697675704956
1352,73200.0,9.145368576049805,1.4165509939193726,-3.634697675704956
1353,73300.0,5.417350769042969,1.3232309818267822,-3.35713005065918
1354,73400.0,5.417350769042969,1.3232309818267822,-3.35713005065918
1355,73500.0,5.417350769042969,1.3232309818267822,-3.35713005065918
1356,73600.0,12.44267749786377,3.2518460750579834,-0.672383189201355
1357,73700.0,12.44267749786377,3.2518460750579834,-0.672383189201355
1358,73800.0,10.772488594055176,4.161118507385254,-4.2759737968444815
1359,73900.0,10.772488594055176,4.161118507385254,-4.2759737968444815
1360,73000.0,10.183852195739746,2.9264223575592037,-1.7754744291305542
1361,73100.0,9.145368576049805,1.4165509939193726,-3.634697675704956
1362,73200.0,9.145368576049805,1.4165509939193726,-3.634697675704956
1363,73300.0,5.417350769042969,1.3232309818267822,-3.35713005065918
1364,73400.0,5.417350769042969,1.3232309818267822,-3.35713005065918
1365,73500.0,5.417350769042969,1.3232309818267822,-3.35713005065918
1366,73600.0,12.44267749786377,3.2518460750579834,-0.672383189201355
1367,73700.0,12.44267749786377,3.2518460750579834,-0.672383189201355
1368,73800.0,10.772488594055176,4.161118507385254,-4.2759737968444815
1369,73900.0,10.772488594055176,4.161118507385254,-4.2759737968444815
1370,74000.0,9.896714210510254,3.091526985168457,-0.2871387302875519
1371,74100.0,9.896714210510254,3.091526985168457,-0.2871387302875519
1372,74200.0,8.547162055969237,3.1130621433258057,-0.3254238963127136
1373,74300.0,8.547162055969237,3.1130621433258057,-0.3254238963127136
1374,74400.0,8.547162055969237,3.1130621433258057,-0.3254238963127136
1375,74500.0,9.67657470703125,2.931207656860352,-0.8566305041313171
1376,74600.0,9.67657470703125,2.931207656860352,-0.8566305041313171
1377,74700.0,7.073184013366699,2.8546373844146733,-2.502892255783081
1378,74800.0,7.073184013366699,2.8546373844146733,-2.502892255783081
1379,74900.0,8.078168869018555,5.242674350738525,-0.5982056856155396
1380,74000.0,9.896714210510254,3.091526985168457,-0.2871387302875519
1381,74100.0,9.896714210510254,3.091526985168457,-0.2871387302875519
1382,74200.0,8.547162055969237,3.1130621433258057,-0.3254238963127136
1383,74300.0,8.547162055969237,3.1130621433258057,-0.3254238963127136
1384,74400.0,8.547162055969237,3.1130621433258057,-0.3254238963127136
1385,74500.0,9.67657470703125,2.931207656860352,-0.8566305041313171
1386,74600.0,9.67657470703125,2.931207656860352,-0.8566305041313171
1387,74700.0,7.073184013366699,2.8546373844146733,-2.502892255783081
1388,74800.0,7.073184013366699,2.8546373844146733,-2.502892255783081
1389,74900.0,8.078168869018555,5.242674350738525,-0.5982056856155396
1390,75000.0,8.078168869018555,5.242674350738525,-0.5982056856155396
1391,75100.0,9.485149383544922,3.493520975112915,-0.4067798554897308
1392,75200.0,9.485149383544922,3.493520975112915,-0.4067798554897308
1393,75300.0,9.485149383544922,3.493520975112915,-0.4067798554897308
1394,75400.0,8.585447311401367,1.3423734903335571,-0.3517449200153351
1395,75500.0,8.585447311401367,1.3423734903335571,-0.3517449200153351
1396,75600.0,8.901299476623535,-0.42831525206565857,-0.9236294627189636
1397,75700.0,8.901299476623535,-0.42831525206565857,-0.9236294627189636
1398,75800.0,10.356135368347168,2.2013967037200928,-2.675175428390503
1399,75900.0,10.356135368347168,2.2013967037200928,-2.675175428390503
1400,75000.0,8.078168869018555,5.242674350738525,-0.5982056856155396
1401,75100.0,9.485149383544922,3.493520975112915,-0.4067798554897308
1402,75200.0,9.485149383544922,3.493520975112915,-0.4067798554897308
1403,75300.0,9.485149383544922,3.493520975112915,-0.4067798554897308
1404,75400.0,8.585447311401367,1.3423734903335571,-0.3517449200153351
1405,75500.0,8.585447311401367,1.3423734903335571,-0.3517449200153351
1406,75600.0,8.901299476623535,-0.42831525206565857,-0.9236294627189636
1407,75700.0,8.901299476623535,-0.42831525206565857,-0.9236294627189636
1408,75800.0,10.356135368347168,2.2013967037200928,-2.675175428390503
1409,75900.0,10.356135368347168,2.2013967037200928,-2.675175428390503
1410,76000.0,10.356135368347168,2.2013967037200928,-2.675175428390503
1411,76100.0,7.503891944885254,1.8065810203552248,-0.6699903011322021
1412,76200.0,7.503891944885254,1.8065810203552248,-0.6699903011322021
1413,76300.0,15.189637184143065,3.192025184631348,-2.1918253898620605
1414,76400.0,15.189637184143065,3.192025184631348,-2.1918253898620605
1415,76500.0,8.126025199890138,1.7635102272033691,-1.06480610370636
1416,76600.0,8.126025199890138,1.7635102272033691,-1.06480610370636
1417,76700.0,7.901099681854247,2.7254250049591064,-1.7635102272033691
1418,76800.0,7.901099681854247,2.7254250049591064,-1.7635102272033691
1419,76900.0,7.901099681854247,2.7254250049591064,-1.7635102272033691
1420,76000.0,10.356135368347168,2.2013967037200928,-2.675175428390503
1421,76100.0,7.503891944885254,1.8065810203552248,-0.6699903011322021
1422,76200.0,7.503891944885254,1.8065810203552248,-0.6699903011322021
1423,76300.0,15.189637184143065,3.192025184631348,-2.1918253898620605
1424,76400.0,15.189637184143065,3.192025184631348,-2.1918253898620605
1425,76500.0,8.126025199890138,1.7635102272033691,-1.06480610370636
1426,76600.0,8.126025199890138,1.7635102272033691,-1.06480610370636
1427,76700.0,7.901099681854247,2.7254250049591064,-1.7635102272033691
1428,76800.0,7.901099681854247,2.7254250049591064,-1.7635102272033691
1429,76900.0,7.901099681854247,2.7254250049591064,-1.7635102272033691
1430,77000.0,13.103096961975098,0.7369893789291382,-2.203789472579956
1431,77100.0,13.103096961975098,0.7369893789291382,-2.203789472579956
1432,77200.0,7.1641106605529785,1.37587308883667,-1.4333008527755735
1433,77300.0,7.1641106605529785,1.37587308883667,-1.4333008527755735
1434,77400.0,10.423135757446287,1.8424735069274905,-3.0077781677246094
1435,77500.0,10.423135757446287,1.8424735069274905,-3.0077781677246094
1436,77600.0,10.423135757446287,1.8424735069274905,-3.0077781677246094
1437,77700.0,8.566305160522461,1.6055840253829956,-1.442872166633606
1438,77800.0,8.566305160522461,1.6055840253829956,-1.442872166633606
1439,77900.0,7.403393745422362,2.280359983444214,-1.5529417991638184
1440,77000.0,13.103096961975098,0.7369893789291382,-2.203789472579956
1441,77100.0,13.103096961975098,0.7369893789291382,-2.203789472579956
1442,77200.0,7.1641106605529785,1.37587308883667,-1.4333008527755735
1443,77300.0,7.1641106605529785,1.37587308883667,-1.4333008527755735
1444,77400.0,10.423135757446287,1.8424735069274905,-3.0077781677246094
1445,77500.0,10.423135757446287,1.8424735069274905,-3.0077781677246094
1446,77600.0,10.423135757446287,1.8424735069274905,-3.0077781677246094
1447,77700.0,8.566305160522461,1.6055840253829956,-1.442872166633606
1448,77800.0,8.566305160522461,1.6055840253829956,-1.442872166633606
1449,77900.0,7.403393745422362,2.280359983444214,-1.5529417991638184
1450,78000.0,7.403393745422362,2.280359983444214,-1.5529417991638184
1451,78100.0,10.514062881469727,1.978864312171936,-0.8853443264961243
1452,78200.0,10.514062881469727,1.978864312171936,-0.8853443264961243
1453,78300.0,8.274380683898926,2.6464619636535645,-1.9812570810317995
1454,78400.0,8.274380683898926,2.6464619636535645,-1.9812570810317995
1455,78500.0,9.365508079528807,3.012563943862915,-1.4093725681304932
1456,78600.0,9.365508079528807,3.012563943862915,-1.4093725681304932
1457,78700.0,9.365508079528807,3.012563943862915,-1.4093725681304932
1458,78800.0,7.331608772277832,2.4502503871917725,-2.1966111660003658
1459,78900.0,7.331608772277832,2.4502503871917725,-2.1966111660003658
1460,78000.0,7.403393745422362,2.280359983444214,-1.5529417991638184
1461,78100.0,10.514062881469727,1.978864312171936,-0.8853443264961243
1462,78200.0,10.514062881469727,1.978864312171936,-0.8853443264961243
1463,78300.0,8.274380683898926,2.6464619636535645,-1.9812570810317995
1464,78400.0,8.274380683898926,2.6464619636535645,-1.9812570810317995
1465,78500.0,9.365508079528807,3.012563943862915,-1.4093725681304932
1466,78600.0,9.365508079528807,3.012563943862915,-1.4093725681304932
1467,78700.0,9.365508079528807,3.012563943862915,-1.4093725681304932
1468,78800.0,7.331608772277832,2.4502503871917725,-2.1966111660003658
1469,78900.0,7.331608772277832,2.4502503871917725,-2.1966111660003658
1470,79000.0,12.997812271118164,2.242074966430664,-4.362115383148193
1471,79100.0,12.997812271118164,2.242074966430664,-4.362115383148193
1472,79200.0,6.98704195022583,-0.3517449200153351,-3.3738799095153813
1473,79300.0,6.98704195022583,-0.3517449200153351,-3.3738799095153813
1474,79400.0,8.35573673248291,0.3206382095813751,-1.0815558433532717
1475,79500.0,8.35573673248291,0.3206382095813751,-1.0815558433532717
1476,79600.0,8.35573673248291,0.3206382095813751,-1.0815558433532717
1477,79700.0,7.451249599456787,-0.028713870793581012,-2.2779672145843506
1478,79800.0,7.451249599456787,-0.028713870793581012,-2.2779672145843506
1479,79900.0,16.165908813476562,2.0889341831207275,-0.6580261588096619
1480,79000.0,12.997812271118164,2.242074966430664,-4.362115383148193
1481,79100.0,12.997812271118164,2.242074966430664,-4.362115383148193
1482,79200.0,6.98704195022583,-0.3517449200153351,-3.3738799095153813
1483,79300.0,6.98704195022583,-0.3517449200153351,-3.3738799095153813
1484,79400.0,8.35573673248291,0.3206382095813751,-1.0815558433532717
1485,79500.0,8.35573673248291,0.3206382095813751,-1.0815558433532717
1486,79600.0,8.35573673248291,0.3206382095813751,-1.0815558433532717
1487,79700.0,7.451249599456787,-0.028713870793581012,-2.2779672145843506
1488,79800.0,7.451249599456787,-0.028713870793581012,-2.2779672145843506
1489,79900.0,16.165908813476562,2.0889341831207275,-0.6580261588096619
1490,80000.0,16.165908813476562,2.0889341831207275,-0.6580261588096619
1491,80100.0,8.159524917602539,1.1892328262329102,-0.9547362923622132
1492,80200.0,8.159524917602539,1.1892328262329102,-0.9547362923622132
1493,80300.0,9.226724624633787,3.1968109607696533,-2.1104695796966557
1494,80400.0,9.226724624633787,3.1968109607696533,-2.1104695796966557
1495,80500.0,9.226724624633787,3.1968109607696533,-2.1104695796966557
1496,80600.0,6.312265872955322,2.644068956375122,-2.0362920761108403
1497,80700.0,6.312265872955322,2.644068956375122,-2.0362920761108403
1498,80800.0,13.945369720458984,2.1990041732788086,-1.4883356094360352
1499,80900.0,13.945369720458984,2.1990041732788086,-1.4883356094360352
1500,80000.0,16.165908813476562,2.0889341831207275,-0.6580261588096619
1501,80100.0,8.159524917602539,1.1892328262329102,-0.9547362923622132
1502,80200.0,8.159524917602539,1.1892328262329102,-0.9547362923622132
1503,80300.0,9.226724624633787,3.1968109607696533,-2.1104695796966557
1504,80400.0,9.226724624633787,3.1968109607696533,-2.1104695796966557
1505,80500.0,9.226724624633787,3.1968109607696533,-2.1104695796966557
1506,80600.0,6.312265872955322,2.644068956375122,-2.0362920761108403
1507,80700.0,6.312265872955322,2.644068956375122,-2.0362920761108403
1508,80800.0,13.945369720458984,2.1990041732788086,-1.4883356094360352
1509,80900.0,13.945369720458984,2.1990041732788086,-1.4883356094360352
1510,81000.0,13.945369720458984,2.1990041732788086,-1.4883356094360352
1511,81100.0,7.709674835205077,1.6606187820434568,-2.8043880462646484
1512,81200.0,7.709674835205077,1.6606187820434568,-2.8043880462646484
1513,81300.0,8.647661209106445,2.1032910346984863,-3.4672000408172607
1514,81400.0,8.647661209106445,2.1032910346984863,-3.4672000408172607
1515,81500.0,7.015756130218506,2.148754596710205,-1.921436548233032
1516,81600.0,7.015756130218506,2.148754596710205,-1.921436548233032
1517,81700.0,7.015756130218506,2.148754596710205,-1.921436548233032
1518,81800.0,16.261621475219727,3.515056610107422,0.4187439680099487
1519,81900.0,16.261621475219727,3.515056610107422,0.4187439680099487
1520,81000.0,13.945369720458984,2.1990041732788086,-1.4883356094360352
1521,81100.0,7.709674835205077,1.6606187820434568,-2.8043880462646484
1522,81200.0,7.709674835205077,1.6606187820434568,-2.8043880462646484
1523,81300.0,8.647661209106445,2.1032910346984863,-3.4672000408172607
1524,81400.0,8.647661209106445,2.1032910346984863,-3.4672000408172607
1525,81500.0,7.015756130218506,2.148754596710205,-1.921436548233032
1526,81600.0,7.015756130218506,2.148754596710205,-1.921436548233032
1527,81700.0,7.015756130218506,2.148754596710205,-1.921436548233032
1528,81800.0,16.261621475219727,3.515056610107422,0.4187439680099487
1529,81900.0,16.261621475219727,3.515056610107422,0.4187439680099487
1530,82000.0,8.063812255859375,3.6251261234283447,-1.0289137363433838
1531,82100.0,8.063812255859375,3.6251261234283447,-1.0289137363433838
1532,82200.0,8.441878318786621,4.170689582824707,-1.4668002128601074
1533,82300.0,8.441878318786621,4.170689582824707,-1.4668002128601074
1534,82400.0,8.441878318786621,4.170689582824707,-1.4668002128601074
1535,82500.0,7.049255847930907,2.763710021972656,-0.7465606331825256
1536,82600.0,7.049255847930907,2.763710021972656,-0.7465606331825256
1537,82700.0,17.22353744506836,1.392622709274292,-3.400200843811035
1538,82800.0,17.22353744506836,1.392622709274292,-3.400200843811035
1539,82900.0,17.22353744506836,1.392622709274292,-3.400200843811035
1540,82000.0,8.063812255859375,3.6251261234283447,-1.0289137363433838
1541,82100.0,8.063812255859375,3.6251261234283447,-1.0289137363433838
1542,82200.0,8.441878318786621,4.170689582824707,-1.4668002128601074
1543,82300.0,8.441878318786621,4.170689582824707,-1.4668002128601074
1544,82400.0,8.441878318786621,4.170689582824707,-1.4668002128601074
1545,82500.0,7.049255847930907,2.763710021972656,-0.7465606331825256
1546,82600.0,7.049255847930907,2.763710021972656,-0.7465606331825256
1547,82700.0,17.22353744506836,1.392622709274292,-3.400200843811035
1548,82800.0,17.22353744506836,1.392622709274292,-3.400200843811035
1549,82900.0,17.22353744506836,1.392622709274292,-3.400200843811035
1550,83000.0,6.647261142730713,-0.09092726558446884,-1.88075852394104
1551,83100.0,6.647261142730713,-0.09092726558446884,-1.88075852394104
1552,83200.0,8.24566650390625,1.6582260131835938,-1.8209381103515625
1553,83300.0,8.24566650390625,1.6582260131835938,-1.8209381103515625
1554,83400.0,7.499105930328369,2.0434706211090092,-1.921436548233032
1555,83500.0,7.499105930328369,2.0434706211090092,-1.921436548233032
1556,83600.0,8.331808090209961,2.6416761875152592,-0.6245267391204834
1557,83700.0,8.331808090209961,2.6416761875152592,-0.6245267391204834
1558,83800.0,8.331808090209961,2.6416761875152592,-0.6245267391204834
1559,83900.0,8.035098075866701,4.0941195487976065,-1.4500504732131958
1560,83000.0,6.647261142730713,-0.09092726558446884,-1.88075852394104
1561,83100.0,6.647261142730713,-0.09092726558446884,-1.88075852394104
1562,83200.0,8.24566650390625,1.6582260131835938,-1.8209381103515625
1563,83300.0,8.24566650390625,1.6582260131835938,-1.8209381103515625
1564,83400.0,7.499105930328369,2.0434706211090092,-1.921436548233032
1565,83500.0,7.499105930328369,2.0434706211090092,-1.921436548233032
1566,83600.0,8.331808090209961,2.6416761875152592,-0.6245267391204834
1567,83700.0,8.331808090209961,2.6416761875152592,-0.6245267391204834
1568,83800.0,8.331808090209961,2.6416761875152592,-0.6245267391204834
1569,83900.0,8.035098075866701,4.0941195487976065,-1.4500504732131958
1570,84000.0,8.035098075866701,4.0941195487976065,-1.4500504732131958
1571,84100.0,8.800802230834961,4.2041893005371085,-1.4141581058502195
1572,84200.0,8.800802230834961,4.2041893005371085,-1.4141581058502195
1573,84300.0,9.226724624633787,3.5437703132629395,-0.8590233325958252
1574,84400.0,9.226724624633787,3.5437703132629395,-0.8590233325958252
1575,84500.0,8.283952713012695,-1.2634103298187256,-1.2801601886749268
1576,84600.0,8.283952713012695,-1.2634103298187256,-1.2801601886749268
1577,84700.0,8.561518669128418,0.5551348924636841,-1.584048628807068
1578,84800.0,8.561518669128418,0.5551348924636841,-1.584048628807068
1579,84900.0,8.561518669128418,0.5551348924636841,-1.584048628807068
