,timestamp,ax,ay,az
0,7000.0,7.513463020324707,0.4737788736820221,-3.905086755752564
1,7100.0,7.513463020324707,0.4737788736820221,-3.905086755752564
2,7200.0,7.513463020324707,0.4737788736820221,-3.905086755752564
3,7300.0,7.513463020324707,0.4737788736820221,-3.905086755752564
4,7400.0,8.288737297058105,0.9499505758285522,-3.4241292476654053
5,7500.0,8.288737297058105,0.9499505758285522,-3.4241292476654053
6,7600.0,7.331608772277832,1.5912269353866575,-2.8833510875701904
7,7700.0,7.331608772277832,1.5912269353866575,-2.8833510875701904
8,7800.0,13.385449409484865,2.5052852630615234,-1.519442439079285
9,7900.0,13.385449409484865,2.5052852630615234,-1.519442439079285
10,8000.0,7.39860725402832,1.9334007501602173,-2.5914268493652344
11,8100.0,7.39860725402832,1.9334007501602173,-2.5914268493652344
12,8200.0,9.097511291503906,1.8305093050003047,-2.0410776138305664
13,8300.0,9.097511291503906,1.8305093050003047,-2.0410776138305664
14,8400.0,9.097511291503906,1.8305093050003047,-2.0410776138305664
15,8500.0,5.828916072845459,1.7682960033416748,-1.8544375896453855
16,8600.0,5.828916072845459,1.7682960033416748,-1.8544375896453855
17,8700.0,15.802199363708494,0.8925228118896484,-3.7232320308685294
18,8800.0,15.802199363708494,0.8925228118896484,-3.7232320308685294
19,8900.0,9.332008361816406,0.8542376756668091,-2.935993194580078
20,8000.0,7.39860725402832,1.9334007501602173,-2.5914268493652344
21,8100.0,7.39860725402832,1.9334007501602173,-2.5914268493652344
22,8200.0,9.097511291503906,1.8305093050003047,-2.0410776138305664
23,8300.0,9.097511291503906,1.8305093050003047,-2.0410776138305664
24,8400.0,9.097511291503906,1.8305093050003047,-2.0410776138305664
25,8500.0,5.828916072845459,1.7682960033416748,-1.8544375896453855
26,8600.0,5.828916072845459,1.7682960033416748,-1.8544375896453855
27,8700.0,15.802199363708494,0.8925228118896484,-3.7232320308685294
28,8800.0,15.802199363708494,0.8925228118896484,-3.7232320308685294
29,8900.0,9.332008361816406,0.8542376756668091,-2.935993194580078
30,9000.0,9.332008361816406,0.8542376756668091,-2.935993194580078
31,9100.0,8.413164138793945,1.0767701864242554,-2.636890411376953
32,9200.0,8.413164138793945,1.0767701864242554,-2.636890411376953
33,9300.0,7.326822757720947,1.8735800981521609,-2.313859462738037
34,9400.0,7.326822757720947,1.8735800981521609,-2.313859462738037
35,9500.0,7.326822757720947,1.8735800981521609,-2.313859462738037
36,9600.0,9.379864692687988,2.9240293502807617,-1.3016955852508545
37,9700.0,9.379864692687988,2.9240293502807617,-1.3016955852508545
38,9800.0,9.614361763000488,1.411765456199646,-2.1966111660003658
39,9900.0,9.614361763000488,1.411765456199646,-2.1966111660003658
40,9000.0,9.332008361816406,0.8542376756668091,-2.935993194580078
41,9100.0,8.413164138793945,1.0767701864242554,-2.636890411376953
42,9200.0,8.413164138793945,1.0767701864242554,-2.636890411376953
43,9300.0,7.326822757720947,1.8735800981521609,-2.313859462738037
44,9400.0,7.326822757720947,1.8735800981521609,-2.313859462738037
45,9500.0,7.326822757720947,1.8735800981521609,-2.313859462738037
46,9600.0,9.379864692687988,2.9240293502807617,-1.3016955852508545
47,9700.0,9.379864692687988,2.9240293502807617,-1.3016955852508545
48,9800.0,9.614361763000488,1.411765456199646,-2.1966111660003658
49,9900.0,9.614361763000488,1.411765456199646,-2.1966111660003658
50,10000.0,6.4079790115356445,1.5672988891601562,-1.8951154947280884
51,10100.0,6.4079790115356445,1.5672988891601562,-1.8951154947280884
52,10200.0,6.4079790115356445,1.5672988891601562,-1.8951154947280884
53,10300.0,15.663416862487793,2.4813570976257324,-2.868994235992432
54,10400.0,15.663416862487793,2.4813570976257324,-2.868994235992432
55,10500.0,6.977471351623535,0.5024927258491516,-3.0149567127227783
56,10600.0,6.977471351623535,0.5024927258491516,-3.0149567127227783
57,10700.0,6.977471351623535,0.5024927258491516,-3.0149567127227783
58,10800.0,9.542576789855957,2.8354949951171875,-2.84506630897522
59,10900.0,9.542576789855957,2.8354949951171875,-2.84506630897522
60,10000.0,6.4079790115356445,1.5672988891601562,-1.8951154947280884
61,10100.0,6.4079790115356445,1.5672988891601562,-1.8951154947280884
62,10200.0,6.4079790115356445,1.5672988891601562,-1.8951154947280884
63,10300.0,15.663416862487793,2.4813570976257324,-2.868994235992432
64,10400.0,15.663416862487793,2.4813570976257324,-2.868994235992432
65,10500.0,6.977471351623535,0.5024927258491516,-3.0149567127227783
66,10600.0,6.977471351623535,0.5024927258491516,-3.0149567127227783
67,10700.0,6.977471351623535,0.5024927258491516,-3.0149567127227783
68,10800.0,9.542576789855957,2.8354949951171875,-2.84506630897522
69,10900.0,9.542576789855957,2.8354949951171875,-2.84506630897522
70,11000.0,10.140782356262207,2.4047868251800537,-2.366501569747925
71,11100.0,10.140782356262207,2.4047868251800537,-2.366501569747925
72,11200.0,10.202995300292967,2.0123636722564697,-2.4023938179016118
73,11300.0,10.202995300292967,2.0123636722564697,-2.4023938179016118
74,11400.0,10.202995300292967,2.0123636722564697,-2.4023938179016118
75,11500.0,6.723831653594972,3.711267709732056,-2.9383859634399414
76,11600.0,6.723831653594972,3.711267709732056,-2.9383859634399414
77,11700.0,10.77727222442627,3.304487943649292,-3.156132936477661
78,11800.0,10.77727222442627,3.304487943649292,-3.156132936477661
79,11900.0,9.274580955505373,0.6771688461303711,-3.230310440063477
80,11000.0,10.140782356262207,2.4047868251800537,-2.366501569747925
81,11100.0,10.140782356262207,2.4047868251800537,-2.366501569747925
82,11200.0,10.202995300292967,2.0123636722564697,-2.4023938179016118
83,11300.0,10.202995300292967,2.0123636722564697,-2.4023938179016118
84,11400.0,10.202995300292967,2.0123636722564697,-2.4023938179016118
85,11500.0,6.723831653594972,3.711267709732056,-2.9383859634399414
86,11600.0,6.723831653594972,3.711267709732056,-2.9383859634399414
87,11700.0,10.77727222442627,3.304487943649292,-3.156132936477661
88,11800.0,10.77727222442627,3.304487943649292,-3.156132936477661
89,11900.0,9.274580955505373,0.6771688461303711,-3.230310440063477
90,12000.0,9.274580955505373,0.6771688461303711,-3.230310440063477
91,12100.0,7.604390144348144,0.9523434042930604,-3.146562099456787
92,12200.0,7.604390144348144,0.9523434042930604,-3.146562099456787
93,12300.0,7.604390144348144,0.9523434042930604,-3.146562099456787
94,12400.0,7.278966426849365,1.6271194219589231,-2.9527432918548584
95,12500.0,7.278966426849365,1.6271194219589231,-2.9527432918548584
96,12600.0,12.0933256149292,2.4885356426239014,-2.610569477081299
97,12700.0,12.0933256149292,2.4885356426239014,-2.610569477081299
98,12800.0,9.284152030944824,2.155933380126953,-2.2253248691558842
99,12900.0,9.284152030944824,2.155933380126953,-2.2253248691558842
100,12000.0,9.274580955505373,0.6771688461303711,-3.230310440063477
101,12100.0,7.604390144348144,0.9523434042930604,-3.146562099456787
102,12200.0,7.604390144348144,0.9523434042930604,-3.146562099456787
103,12300.0,7.604390144348144,0.9523434042930604,-3.146562099456787
104,12400.0,7.278966426849365,1.6271194219589231,-2.9527432918548584
105,12500.0,7.278966426849365,1.6271194219589231,-2.9527432918548584
106,12600.0,12.0933256149292,2.4885356426239014,-2.610569477081299
107,12700.0,12.0933256149292,2.4885356426239014,-2.610569477081299
108,12800.0,9.284152030944824,2.155933380126953,-2.2253248691558842
109,12900.0,9.284152030944824,2.155933380126953,-2.2253248691558842
110,13000.0,9.284152030944824,2.155933380126953,-2.2253248691558842
111,13100.0,9.121439933776855,2.4909284114837646,-1.3471590280532837
112,13200.0,9.121439933776855,2.4909284114837646,-1.3471590280532837
113,13300.0,5.905486583709718,1.8161523342132568,-1.6869399547576904
114,13400.0,5.905486583709718,1.8161523342132568,-1.6869399547576904
115,13500.0,5.905486583709718,1.8161523342132568,-1.6869399547576904
116,13600.0,11.34676456451416,1.9956141710281368,-3.3092737197875977
117,13700.0,11.34676456451416,1.9956141710281368,-3.3092737197875977
118,13800.0,9.207581520080566,1.6869399547576904,-2.455036163330078
119,13900.0,9.207581520080566,1.6869399547576904,-2.455036163330078
120,13000.0,9.284152030944824,2.155933380126953,-2.2253248691558842
121,13100.0,9.121439933776855,2.4909284114837646,-1.3471590280532837
122,13200.0,9.121439933776855,2.4909284114837646,-1.3471590280532837
123,13300.0,5.905486583709718,1.8161523342132568,-1.6869399547576904
124,13400.0,5.905486583709718,1.8161523342132568,-1.6869399547576904
125,13500.0,5.905486583709718,1.8161523342132568,-1.6869399547576904
126,13600.0,11.34676456451416,1.9956141710281368,-3.3092737197875977
127,13700.0,11.34676456451416,1.9956141710281368,-3.3092737197875977
128,13800.0,9.207581520080566,1.6869399547576904,-2.455036163330078
129,13900.0,9.207581520080566,1.6869399547576904,-2.455036163330078
130,14000.0,8.709875106811522,1.741974949836731,-3.4241292476654053
131,14100.0,8.709875106811522,1.741974949836731,-3.4241292476654053
132,14200.0,6.632904052734375,1.8376877307891848,-2.5914268493652344
133,14300.0,6.632904052734375,1.8376877307891848,-2.5914268493652344
134,14400.0,6.632904052734375,1.8376877307891848,-2.5914268493652344
135,14500.0,17.582460403442386,2.4430718421936035,-2.746960401535034
136,14600.0,17.582460403442386,2.4430718421936035,-2.746960401535034
137,14700.0,7.135397434234619,3.1537401676177983,-2.007578134536743
138,14800.0,7.135397434234619,3.1537401676177983,-2.007578134536743
139,14900.0,9.762716293334961,2.4981069564819336,-1.6677974462509155
140,14000.0,8.709875106811522,1.741974949836731,-3.4241292476654053
141,14100.0,8.709875106811522,1.741974949836731,-3.4241292476654053
142,14200.0,6.632904052734375,1.8376877307891848,-2.5914268493652344
143,14300.0,6.632904052734375,1.8376877307891848,-2.5914268493652344
144,14400.0,6.632904052734375,1.8376877307891848,-2.5914268493652344
145,14500.0,17.582460403442386,2.4430718421936035,-2.746960401535034
146,14600.0,17.582460403442386,2.4430718421936035,-2.746960401535034
147,14700.0,7.135397434234619,3.1537401676177983,-2.007578134536743
148,14800.0,7.135397434234619,3.1537401676177983,-2.007578134536743
149,14900.0,9.762716293334961,2.4981069564819336,-1.6677974462509155
150,15000.0,9.762716293334961,2.4981069564819336,-1.6677974462509155
151,15100.0,9.762716293334961,2.4981069564819336,-1.6677974462509155
152,15200.0,7.4703922271728525,1.5337992906570437,-2.026720762252808
153,15300.0,7.4703922271728525,1.5337992906570437,-2.026720762252808
154,15400.0,14.495719909667967,3.1657044887542725,-3.840480089187622
155,15500.0,14.495719909667967,3.1657044887542725,-3.840480089187622
156,15600.0,7.613961696624756,0.5096712112426758,-3.0269205570220947
157,15700.0,7.613961696624756,0.5096712112426758,-3.0269205570220947
158,15800.0,7.613961696624756,0.5096712112426758,-3.0269205570220947
159,15900.0,8.044669151306152,1.1676974296569824,-2.280359983444214
160,15000.0,9.762716293334961,2.4981069564819336,-1.6677974462509155
161,15100.0,9.762716293334961,2.4981069564819336,-1.6677974462509155
162,15200.0,7.4703922271728525,1.5337992906570437,-2.026720762252808
163,15300.0,7.4703922271728525,1.5337992906570437,-2.026720762252808
164,15400.0,14.495719909667967,3.1657044887542725,-3.840480089187622
165,15500.0,14.495719909667967,3.1657044887542725,-3.840480089187622
166,15600.0,7.613961696624756,0.5096712112426758,-3.0269205570220947
167,15700.0,7.613961696624756,0.5096712112426758,-3.0269205570220947
168,15800.0,7.613961696624756,0.5096712112426758,-3.0269205570220947
169,15900.0,8.044669151306152,1.1676974296569824,-2.280359983444214
170,16000.0,8.044669151306152,1.1676974296569824,-2.280359983444214
171,16100.0,5.1637115478515625,1.37587308883667,-2.2683956623077397
172,16200.0,5.1637115478515625,1.37587308883667,-2.2683956623077397
173,16300.0,14.543575286865234,2.830709218978882,-2.8737800121307373
174,16400.0,14.543575286865234,2.830709218978882,-2.8737800121307373
175,16500.0,14.543575286865234,2.830709218978882,-2.8737800121307373
176,16600.0,9.710074424743652,3.7232320308685294,-1.4404792785644531
177,16700.0,9.710074424743652,3.7232320308685294,-1.4404792785644531
178,16800.0,8.379664421081543,2.4981069564819336,-1.8951154947280884
179,16900.0,8.379664421081543,2.4981069564819336,-1.8951154947280884
180,16000.0,8.044669151306152,1.1676974296569824,-2.280359983444214
181,16100.0,5.1637115478515625,1.37587308883667,-2.2683956623077397
182,16200.0,5.1637115478515625,1.37587308883667,-2.2683956623077397
183,16300.0,14.543575286865234,2.830709218978882,-2.8737800121307373
184,16400.0,14.543575286865234,2.830709218978882,-2.8737800121307373
185,16500.0,14.543575286865234,2.830709218978882,-2.8737800121307373
186,16600.0,9.710074424743652,3.7232320308685294,-1.4404792785644531
187,16700.0,9.710074424743652,3.7232320308685294,-1.4404792785644531
188,16800.0,8.379664421081543,2.4981069564819336,-1.8951154947280884
189,16900.0,8.379664421081543,2.4981069564819336,-1.8951154947280884
190,17000.0,6.0921263694763175,2.0889341831207275,-2.636890411376953
191,17100.0,6.0921263694763175,2.0889341831207275,-2.636890411376953
192,17200.0,6.0921263694763175,2.0889341831207275,-2.636890411376953
193,17300.0,10.968698501586914,3.0245277881622314,-2.538784980773926
194,17400.0,10.968698501586914,3.0245277881622314,-2.538784980773926
195,17500.0,8.35573673248291,1.1892328262329102,-2.6703903675079346
196,17600.0,8.35573673248291,1.1892328262329102,-2.6703903675079346
197,17700.0,8.35573673248291,1.1892328262329102,-2.6703903675079346
198,17800.0,6.695117950439452,1.529013752937317,-3.294916868209839
199,17900.0,6.695117950439452,1.529013752937317,-3.294916868209839
200,17000.0,6.0921263694763175,2.0889341831207275,-2.636890411376953
201,17100.0,6.0921263694763175,2.0889341831207275,-2.636890411376953
202,17200.0,6.0921263694763175,2.0889341831207275,-2.636890411376953
203,17300.0,10.968698501586914,3.0245277881622314,-2.538784980773926
204,17400.0,10.968698501586914,3.0245277881622314,-2.538784980773926
205,17500.0,8.35573673248291,1.1892328262329102,-2.6703903675079346
206,17600.0,8.35573673248291,1.1892328262329102,-2.6703903675079346
207,17700.0,8.35573673248291,1.1892328262329102,-2.6703903675079346
208,17800.0,6.695117950439452,1.529013752937317,-3.294916868209839
209,17900.0,6.695117950439452,1.529013752937317,-3.294916868209839
210,18000.0,16.510475158691403,2.313859462738037,-3.981656789779663
211,18100.0,16.510475158691403,2.313859462738037,-3.981656789779663
212,18200.0,7.848458290100098,2.6057839393615723,-2.321038007736206
213,18300.0,7.848458290100098,2.6057839393615723,-2.321038007736206
214,18400.0,7.848458290100098,2.6057839393615723,-2.321038007736206
215,18500.0,9.533005714416504,2.5507488250732417,-1.7802598476409912
216,18600.0,9.533005714416504,2.5507488250732417,-1.7802598476409912
217,18700.0,9.073582649230957,1.9094725847244265,-1.84965181350708
218,18800.0,9.073582649230957,1.9094725847244265,-1.84965181350708
219,18900.0,5.881557941436768,1.3950155973434448,-2.0171494483947754
220,18000.0,16.510475158691403,2.313859462738037,-3.981656789779663
221,18100.0,16.510475158691403,2.313859462738037,-3.981656789779663
222,18200.0,7.848458290100098,2.6057839393615723,-2.321038007736206
223,18300.0,7.848458290100098,2.6057839393615723,-2.321038007736206
224,18400.0,7.848458290100098,2.6057839393615723,-2.321038007736206
225,18500.0,9.533005714416504,2.5507488250732417,-1.7802598476409912
226,18600.0,9.533005714416504,2.5507488250732417,-1.7802598476409912
227,18700.0,9.073582649230957,1.9094725847244265,-1.84965181350708
228,18800.0,9.073582649230957,1.9094725847244265,-1.84965181350708
229,18900.0,5.881557941436768,1.3950155973434448,-2.0171494483947754
230,19000.0,5.881557941436768,1.3950155973434448,-2.0171494483947754
231,19100.0,15.481562614440918,1.7563319206237793,-3.2709887027740483
232,19200.0,15.481562614440918,1.7563319206237793,-3.2709887027740483
233,19300.0,15.481562614440918,1.7563319206237793,-3.2709887027740483
234,19400.0,10.006784439086914,1.0145567655563354,-3.7710886001586914
235,19500.0,10.006784439086914,1.0145567655563354,-3.7710886001586914
236,19600.0,8.025527954101562,0.902094066143036,-3.3786656856536865
237,19700.0,8.025527954101562,0.902094066143036,-3.3786656856536865
238,19800.0,6.192624568939209,2.115255117416382,-2.25403904914856
239,19900.0,6.192624568939209,2.115255117416382,-2.25403904914856
240,19000.0,5.881557941436768,1.3950155973434448,-2.0171494483947754
241,19100.0,15.481562614440918,1.7563319206237793,-3.2709887027740483
242,19200.0,15.481562614440918,1.7563319206237793,-3.2709887027740483
243,19300.0,15.481562614440918,1.7563319206237793,-3.2709887027740483
244,19400.0,10.006784439086914,1.0145567655563354,-3.7710886001586914
245,19500.0,10.006784439086914,1.0145567655563354,-3.7710886001586914
246,19600.0,8.025527954101562,0.902094066143036,-3.3786656856536865
247,19700.0,8.025527954101562,0.902094066143036,-3.3786656856536865
248,19800.0,6.192624568939209,2.115255117416382,-2.25403904914856
249,19900.0,6.192624568939209,2.115255117416382,-2.25403904914856
250,20000.0,14.902499198913574,0.3708875179290772,-2.6153552532196045
251,20100.0,14.902499198913574,0.3708875179290772,-2.6153552532196045
252,20200.0,14.902499198913574,0.3708875179290772,-2.6153552532196045
253,20300.0,8.872586250305176,2.715853452682495,-1.9932212829589844
254,20400.0,8.872586250305176,2.715853452682495,-1.9932212829589844
255,20500.0,8.327022552490233,2.3473589420318604,-1.9334007501602173
256,20600.0,8.327022552490233,2.3473589420318604,-1.9334007501602173
257,20700.0,6.522834300994872,1.117448091506958,-2.2827527523040767
258,20800.0,6.522834300994872,1.117448091506958,-2.2827527523040767
259,20900.0,6.522834300994872,1.117448091506958,-2.2827527523040767
260,20000.0,14.902499198913574,0.3708875179290772,-2.6153552532196045
261,20100.0,14.902499198913574,0.3708875179290772,-2.6153552532196045
262,20200.0,14.902499198913574,0.3708875179290772,-2.6153552532196045
263,20300.0,8.872586250305176,2.715853452682495,-1.9932212829589844
264,20400.0,8.872586250305176,2.715853452682495,-1.9932212829589844
265,20500.0,8.327022552490233,2.3473589420318604,-1.9334007501602173
266,20600.0,8.327022552490233,2.3473589420318604,-1.9334007501602173
267,20700.0,6.522834300994872,1.117448091506958,-2.2827527523040767
268,20800.0,6.522834300994872,1.117448091506958,-2.2827527523040767
269,20900.0,6.522834300994872,1.117448091506958,-2.2827527523040767
270,21000.0,14.601003646850586,0.10289137810468674,-5.37906551361084
271,21100.0,14.601003646850586,0.10289137810468674,-5.37906551361084
272,21200.0,10.140782356262207,1.6175479888916016,-3.25663161277771
273,21300.0,10.140782356262207,1.6175479888916016,-3.25663161277771
274,21400.0,8.819944381713867,1.5337992906570437,-1.6989041566848757
275,21500.0,8.819944381713867,1.5337992906570437,-1.6989041566848757
276,21600.0,6.766902446746826,1.9525433778762815,-2.1056838035583496
277,21700.0,6.766902446746826,1.9525433778762815,-2.1056838035583496
278,21800.0,9.025726318359377,1.9118653535842896,-2.1056838035583496
279,21900.0,9.025726318359377,1.9118653535842896,-2.1056838035583496
280,21000.0,14.601003646850586,0.10289137810468674,-5.37906551361084
281,21100.0,14.601003646850586,0.10289137810468674,-5.37906551361084
282,21200.0,10.140782356262207,1.6175479888916016,-3.25663161277771
283,21300.0,10.140782356262207,1.6175479888916016,-3.25663161277771
284,21400.0,8.819944381713867,1.5337992906570437,-1.6989041566848757
285,21500.0,8.819944381713867,1.5337992906570437,-1.6989041566848757
286,21600.0,6.766902446746826,1.9525433778762815,-2.1056838035583496
287,21700.0,6.766902446746826,1.9525433778762815,-2.1056838035583496
288,21800.0,9.025726318359377,1.9118653535842896,-2.1056838035583496
289,21900.0,9.025726318359377,1.9118653535842896,-2.1056838035583496
290,22000.0,8.441878318786621,2.8139593601226807,-1.674975872039795
291,22100.0,8.441878318786621,2.8139593601226807,-1.674975872039795
292,22200.0,8.441878318786621,2.8139593601226807,-1.674975872039795
293,22300.0,8.427520751953125,1.9812570810317995,-2.177468776702881
294,22400.0,8.427520751953125,1.9812570810317995,-2.177468776702881
295,22500.0,5.575276851654053,2.1750757694244385,-2.4813570976257324
296,22600.0,5.575276851654053,2.1750757694244385,-2.4813570976257324
297,22700.0,12.35653591156006,1.7204395532608032,-6.161518096923827
298,22800.0,12.35653591156006,1.7204395532608032,-6.161518096923827
299,22900.0,12.35653591156006,1.7204395532608032,-6.161518096923827
300,22000.0,8.441878318786621,2.8139593601226807,-1.674975872039795
301,22100.0,8.441878318786621,2.8139593601226807,-1.674975872039795
302,22200.0,8.441878318786621,2.8139593601226807,-1.674975872039795
303,22300.0,8.427520751953125,1.9812570810317995,-2.177468776702881
304,22400.0,8.427520751953125,1.9812570810317995,-2.177468776702881
305,22500.0,5.575276851654053,2.1750757694244385,-2.4813570976257324
306,22600.0,5.575276851654053,2.1750757694244385,-2.4813570976257324
307,22700.0,12.35653591156006,1.7204395532608032,-6.161518096923827
308,22800.0,12.35653591156006,1.7204395532608032,-6.161518096923827
309,22900.0,12.35653591156006,1.7204395532608032,-6.161518096923827
310,23000.0,6.661618232727051,2.218146562576294,-3.433700561523437
311,23100.0,6.661618232727051,2.218146562576294,-3.433700561523437
312,23200.0,9.384650230407717,2.687139749526977,-2.124826431274414
313,23300.0,9.384650230407717,2.687139749526977,-2.124826431274414
314,23400.0,11.203195571899414,4.350151538848877,-1.4333008527755735
315,23500.0,11.203195571899414,4.350151538848877,-1.4333008527755735
316,23600.0,9.21715259552002,2.84506630897522,-0.11485548317432405
317,23700.0,9.21715259552002,2.84506630897522,-0.11485548317432405
318,23800.0,9.21715259552002,2.84506630897522,-0.11485548317432405
319,23900.0,9.781858444213867,4.137190341949463,-2.4335007667541504
320,23000.0,6.661618232727051,2.218146562576294,-3.433700561523437
321,23100.0,6.661618232727051,2.218146562576294,-3.433700561523437
322,23200.0,9.384650230407717,2.687139749526977,-2.124826431274414
323,23300.0,9.384650230407717,2.687139749526977,-2.124826431274414
324,23400.0,11.203195571899414,4.350151538848877,-1.4333008527755735
325,23500.0,11.203195571899414,4.350151538848877,-1.4333008527755735
326,23600.0,9.21715259552002,2.84506630897522,-0.11485548317432405
327,23700.0,9.21715259552002,2.84506630897522,-0.11485548317432405
328,23800.0,9.21715259552002,2.84506630897522,-0.11485548317432405
329,23900.0,9.781858444213867,4.137190341949463,-2.4335007667541504
330,24000.0,9.781858444213867,4.137190341949463,-2.4335007667541504
331,24100.0,7.934599876403809,1.9956141710281368,-2.720639228820801
332,24200.0,7.934599876403809,1.9956141710281368,-2.720639228820801
333,24300.0,6.5324058532714835,0.82791668176651,-3.2279179096221924
334,24400.0,6.5324058532714835,0.82791668176651,-3.2279179096221924
335,24500.0,8.427520751953125,1.7778673171997068,-2.9623143672943115
336,24600.0,8.427520751953125,1.7778673171997068,-2.9623143672943115
337,24700.0,8.427520751953125,1.7778673171997068,-2.9623143672943115
338,24800.0,12.42832088470459,1.8951154947280884,-2.1056838035583496
339,24900.0,12.42832088470459,1.8951154947280884,-2.1056838035583496
340,24000.0,9.781858444213867,4.137190341949463,-2.4335007667541504
341,24100.0,7.934599876403809,1.9956141710281368,-2.720639228820801
342,24200.0,7.934599876403809,1.9956141710281368,-2.720639228820801
343,24300.0,6.5324058532714835,0.82791668176651,-3.2279179096221924
344,24400.0,6.5324058532714835,0.82791668176651,-3.2279179096221924
345,24500.0,8.427520751953125,1.7778673171997068,-2.9623143672943115
346,24600.0,8.427520751953125,1.7778673171997068,-2.9623143672943115
347,24700.0,8.427520751953125,1.7778673171997068,-2.9623143672943115
348,24800.0,12.42832088470459,1.8951154947280884,-2.1056838035583496
349,24900.0,12.42832088470459,1.8951154947280884,-2.1056838035583496
350,25000.0,9.743573188781738,2.7421746253967285,-0.9643075466156006
351,25100.0,9.743573188781738,2.7421746253967285,-0.9643075466156006
352,25200.0,9.016156196594238,2.4095723628997803,-0.9858429431915284
353,25300.0,9.016156196594238,2.4095723628997803,-0.9858429431915284
354,25400.0,5.924628734588622,2.0003998279571533,-1.9740787744522093
355,25500.0,5.924628734588622,2.0003998279571533,-1.9740787744522093
356,25600.0,5.924628734588622,2.0003998279571533,-1.9740787744522093
357,25700.0,11.050054550170898,2.933600425720215,-3.1274189949035645
358,25800.0,11.050054550170898,2.933600425720215,-3.1274189949035645
359,25900.0,8.264809608459473,1.5672988891601562,-3.31884503364563
360,25000.0,9.743573188781738,2.7421746253967285,-0.9643075466156006
361,25100.0,9.743573188781738,2.7421746253967285,-0.9643075466156006
362,25200.0,9.016156196594238,2.4095723628997803,-0.9858429431915284
363,25300.0,9.016156196594238,2.4095723628997803,-0.9858429431915284
364,25400.0,5.924628734588622,2.0003998279571533,-1.9740787744522093
365,25500.0,5.924628734588622,2.0003998279571533,-1.9740787744522093
366,25600.0,5.924628734588622,2.0003998279571533,-1.9740787744522093
367,25700.0,11.050054550170898,2.933600425720215,-3.1274189949035645
368,25800.0,11.050054550170898,2.933600425720215,-3.1274189949035645
369,25900.0,8.264809608459473,1.5672988891601562,-3.31884503364563
370,26000.0,8.264809608459473,1.5672988891601562,-3.31884503364563
371,26100.0,8.264809608459473,1.5672988891601562,-3.31884503364563
372,26200.0,8.786444664001465,1.7898313999176023,-3.156132936477661
373,26300.0,8.786444664001465,1.7898313999176023,-3.156132936477661
374,26400.0,6.082554817199707,1.3519448041915894,-2.5986053943634038
375,26500.0,6.082554817199707,1.3519448041915894,-2.5986053943634038
376,26600.0,12.830314636230467,2.2157537937164307,-2.6392831802368164
377,26700.0,12.830314636230467,2.2157537937164307,-2.6392831802368164
378,26800.0,12.830314636230467,2.2157537937164307,-2.6392831802368164
379,26900.0,8.614161491394043,1.727617859840393,-2.3306093215942383
380,26000.0,8.264809608459473,1.5672988891601562,-3.31884503364563
381,26100.0,8.264809608459473,1.5672988891601562,-3.31884503364563
382,26200.0,8.786444664001465,1.7898313999176023,-3.156132936477661
383,26300.0,8.786444664001465,1.7898313999176023,-3.156132936477661
384,26400.0,6.082554817199707,1.3519448041915894,-2.5986053943634038
385,26500.0,6.082554817199707,1.3519448041915894,-2.5986053943634038
386,26600.0,12.830314636230467,2.2157537937164307,-2.6392831802368164
387,26700.0,12.830314636230467,2.2157537937164307,-2.6392831802368164
388,26800.0,12.830314636230467,2.2157537937164307,-2.6392831802368164
389,26900.0,8.614161491394043,1.727617859840393,-2.3306093215942383
390,27000.0,8.614161491394043,1.727617859840393,-2.3306093215942383
391,27100.0,9.06401252746582,2.3569302558898926,-2.562713146209717
392,27200.0,9.06401252746582,2.3569302558898926,-2.562713146209717
393,27300.0,9.06401252746582,2.3569302558898926,-2.562713146209717
394,27400.0,6.216552734375,2.51007080078125,-3.294916868209839
395,27500.0,6.216552734375,2.51007080078125,-3.294916868209839
396,27600.0,6.977471351623535,3.041277408599853,-3.553341627120972
397,27700.0,6.977471351623535,3.041277408599853,-3.553341627120972
398,27800.0,9.652647018432617,0.9308080077171326,-3.3643085956573486
399,27900.0,9.652647018432617,0.9308080077171326,-3.3643085956573486
400,27000.0,8.614161491394043,1.727617859840393,-2.3306093215942383
401,27100.0,9.06401252746582,2.3569302558898926,-2.562713146209717
402,27200.0,9.06401252746582,2.3569302558898926,-2.562713146209717
403,27300.0,9.06401252746582,2.3569302558898926,-2.562713146209717
404,27400.0,6.216552734375,2.51007080078125,-3.294916868209839
405,27500.0,6.216552734375,2.51007080078125,-3.294916868209839
406,27600.0,6.977471351623535,3.041277408599853,-3.553341627120972
407,27700.0,6.977471351623535,3.041277408599853,-3.553341627120972
408,27800.0,9.652647018432617,0.9308080077171326,-3.3643085956573486
409,27900.0,9.652647018432617,0.9308080077171326,-3.3643085956573486
410,28000.0,8.685946464538574,1.6462620496749878,-3.268595933914185
411,28100.0,8.685946464538574,1.6462620496749878,-3.268595933914185
412,28200.0,8.685946464538574,1.6462620496749878,-3.268595933914185
413,28300.0,7.058826446533202,1.519442439079285,-2.847458839416504
414,28400.0,7.058826446533202,1.519442439079285,-2.847458839416504
415,28500.0,13.093524932861328,2.0865414142608643,-1.998006820678711
416,28600.0,13.093524932861328,2.0865414142608643,-1.998006820678711
417,28700.0,8.030312538146973,1.3591231107711792,-2.2947168350219727
418,28800.0,8.030312538146973,1.3591231107711792,-2.2947168350219727
419,28900.0,8.293522834777832,2.124826431274414,-1.7874385118484497
420,28000.0,8.685946464538574,1.6462620496749878,-3.268595933914185
421,28100.0,8.685946464538574,1.6462620496749878,-3.268595933914185
422,28200.0,8.685946464538574,1.6462620496749878,-3.268595933914185
423,28300.0,7.058826446533202,1.519442439079285,-2.847458839416504
424,28400.0,7.058826446533202,1.519442439079285,-2.847458839416504
425,28500.0,13.093524932861328,2.0865414142608643,-1.998006820678711
426,28600.0,13.093524932861328,2.0865414142608643,-1.998006820678711
427,28700.0,8.030312538146973,1.3591231107711792,-2.2947168350219727
428,28800.0,8.030312538146973,1.3591231107711792,-2.2947168350219727
429,28900.0,8.293522834777832,2.124826431274414,-1.7874385118484497
430,29000.0,8.293522834777832,2.124826431274414,-1.7874385118484497
431,29100.0,8.293522834777832,2.124826431274414,-1.7874385118484497
432,29200.0,6.561119556427003,1.856830358505249,-1.4380863904953003
433,29300.0,6.561119556427003,1.856830358505249,-1.4380863904953003
434,29400.0,15.739986419677734,0.7776673436164856,-3.646661758422852
435,29500.0,15.739986419677734,0.7776673436164856,-3.646661758422852
436,29600.0,6.293124198913574,0.7704889178276062,-2.756531953811645
437,29700.0,6.293124198913574,0.7704889178276062,-2.756531953811645
438,29800.0,9.131011009216307,1.0791629552841189,-3.3714869022369385
439,29900.0,9.131011009216307,1.0791629552841189,-3.3714869022369385
440,29000.0,8.293522834777832,2.124826431274414,-1.7874385118484497
441,29100.0,8.293522834777832,2.124826431274414,-1.7874385118484497
442,29200.0,6.561119556427003,1.856830358505249,-1.4380863904953003
443,29300.0,6.561119556427003,1.856830358505249,-1.4380863904953003
444,29400.0,15.739986419677734,0.7776673436164856,-3.646661758422852
445,29500.0,15.739986419677734,0.7776673436164856,-3.646661758422852
446,29600.0,6.293124198913574,0.7704889178276062,-2.756531953811645
447,29700.0,6.293124198913574,0.7704889178276062,-2.756531953811645
448,29800.0,9.131011009216307,1.0791629552841189,-3.3714869022369385
449,29900.0,9.131011009216307,1.0791629552841189,-3.3714869022369385
450,30000.0,8.71944522857666,1.6510475873947144,-3.1944179534912114
451,30100.0,8.71944522857666,1.6510475873947144,-3.1944179534912114
452,30200.0,8.71944522857666,1.6510475873947144,-3.1944179534912114
453,30300.0,7.590033531188965,1.1988041400909424,-3.146562099456787
454,30400.0,7.590033531188965,1.1988041400909424,-3.146562099456787
455,30500.0,10.217352867126463,1.6342979669570925,-3.8356947898864746
456,30600.0,10.217352867126463,1.6342979669570925,-3.8356947898864746
457,30700.0,8.848658561706543,2.617748022079468,-1.84965181350708
458,30800.0,8.848658561706543,2.617748022079468,-1.84965181350708
459,30900.0,9.116654396057127,2.8833510875701904,-1.935793399810791
460,30000.0,8.71944522857666,1.6510475873947144,-3.1944179534912114
461,30100.0,8.71944522857666,1.6510475873947144,-3.1944179534912114
462,30200.0,8.71944522857666,1.6510475873947144,-3.1944179534912114
463,30300.0,7.590033531188965,1.1988041400909424,-3.146562099456787
464,30400.0,7.590033531188965,1.1988041400909424,-3.146562099456787
465,30500.0,10.217352867126463,1.6342979669570925,-3.8356947898864746
466,30600.0,10.217352867126463,1.6342979669570925,-3.8356947898864746
467,30700.0,8.848658561706543,2.617748022079468,-1.84965181350708
468,30800.0,8.848658561706543,2.617748022079468,-1.84965181350708
469,30900.0,9.116654396057127,2.8833510875701904,-1.935793399810791
470,31000.0,9.116654396057127,2.8833510875701904,-1.935793399810791
471,31100.0,9.116654396057127,2.8833510875701904,-1.935793399810791
472,31200.0,6.790830135345459,2.560320377349853,-1.6079767942428589
473,31300.0,6.790830135345459,2.560320377349853,-1.6079767942428589
474,31400.0,16.218551635742188,0.4594219326972962,-3.754338502883911
475,31500.0,16.218551635742188,0.4594219326972962,-3.754338502883911
476,31600.0,8.078168869018555,-0.8805587291717529,-2.847458839416504
477,31700.0,8.078168869018555,-0.8805587291717529,-2.847458839416504
478,31800.0,8.078168869018555,-0.8805587291717529,-2.847458839416504
479,31900.0,7.805387496948242,0.6987042427062988,-3.1728827953338623
480,31000.0,9.116654396057127,2.8833510875701904,-1.935793399810791
481,31100.0,9.116654396057127,2.8833510875701904,-1.935793399810791
482,31200.0,6.790830135345459,2.560320377349853,-1.6079767942428589
483,31300.0,6.790830135345459,2.560320377349853,-1.6079767942428589
484,31400.0,16.218551635742188,0.4594219326972962,-3.754338502883911
485,31500.0,16.218551635742188,0.4594219326972962,-3.754338502883911
486,31600.0,8.078168869018555,-0.8805587291717529,-2.847458839416504
487,31700.0,8.078168869018555,-0.8805587291717529,-2.847458839416504
488,31800.0,8.078168869018555,-0.8805587291717529,-2.847458839416504
489,31900.0,7.805387496948242,0.6987042427062988,-3.1728827953338623
490,32000.0,7.805387496948242,0.6987042427062988,-3.1728827953338623
491,32100.0,8.365307807922362,1.6151552200317385,-2.553141593933105
492,32200.0,8.365307807922362,1.6151552200317385,-2.553141593933105
493,32300.0,16.24247932434082,2.8498516082763667,-2.8402805328369136
494,32400.0,16.24247932434082,2.8498516082763667,-2.8402805328369136
495,32500.0,16.24247932434082,2.8498516082763667,-2.8402805328369136
496,32600.0,7.551748275756836,1.5744771957397459,-2.057827472686768
497,32700.0,7.551748275756836,1.5744771957397459,-2.057827472686768
498,32800.0,9.087940216064453,0.0047856452874839315,-1.56251323223114
499,32900.0,9.087940216064453,0.0047856452874839315,-1.56251323223114
500,32000.0,7.805387496948242,0.6987042427062988,-3.1728827953338623
501,32100.0,8.365307807922362,1.6151552200317385,-2.553141593933105
502,32200.0,8.365307807922362,1.6151552200317385,-2.553141593933105
503,32300.0,16.24247932434082,2.8498516082763667,-2.8402805328369136
504,32400.0,16.24247932434082,2.8498516082763667,-2.8402805328369136
505,32500.0,16.24247932434082,2.8498516082763667,-2.8402805328369136
506,32600.0,7.551748275756836,1.5744771957397459,-2.057827472686768
507,32700.0,7.551748275756836,1.5744771957397459,-2.057827472686768
508,32800.0,9.087940216064453,0.0047856452874839315,-1.56251323223114
509,32900.0,9.087940216064453,0.0047856452874839315,-1.56251323223114
510,33000.0,8.647661209106445,1.9669002294540403,-1.4715858697891235
511,33100.0,8.647661209106445,1.9669002294540403,-1.4715858697891235
512,33200.0,8.647661209106445,1.9669002294540403,-1.4715858697891235
513,33300.0,6.661618232727051,1.8855443000793457,-2.380858421325684
514,33400.0,6.661618232727051,1.8855443000793457,-2.380858421325684
515,33500.0,9.370293617248537,2.5052852630615234,-2.8833510875701904
516,33600.0,9.370293617248537,2.5052852630615234,-2.8833510875701904
517,33700.0,7.52303409576416,1.4763716459274292,-1.722832441329956
518,33800.0,7.52303409576416,1.4763716459274292,-1.722832441329956
519,33900.0,7.465606689453125,1.4045867919921875,-2.400001049041748
520,33000.0,8.647661209106445,1.9669002294540403,-1.4715858697891235
521,33100.0,8.647661209106445,1.9669002294540403,-1.4715858697891235
522,33200.0,8.647661209106445,1.9669002294540403,-1.4715858697891235
523,33300.0,6.661618232727051,1.8855443000793457,-2.380858421325684
524,33400.0,6.661618232727051,1.8855443000793457,-2.380858421325684
525,33500.0,9.370293617248537,2.5052852630615234,-2.8833510875701904
526,33600.0,9.370293617248537,2.5052852630615234,-2.8833510875701904
527,33700.0,7.52303409576416,1.4763716459274292,-1.722832441329956
528,33800.0,7.52303409576416,1.4763716459274292,-1.722832441329956
529,33900.0,7.465606689453125,1.4045867919921875,-2.400001049041748
530,34000.0,7.465606689453125,1.4045867919921875,-2.400001049041748
531,34100.0,7.465606689453125,1.4045867919921875,-2.400001049041748
532,34200.0,12.337392807006836,1.8113667964935305,-2.359323024749756
533,34300.0,12.337392807006836,1.8113667964935305,-2.359323024749756
534,34400.0,7.685746192932129,2.0195422172546387,-1.8640089035034182
535,34500.0,7.685746192932129,2.0195422172546387,-1.8640089035034182
536,34600.0,6.580262184143066,1.6821542978286743,-2.09850549697876
537,34700.0,6.580262184143066,1.6821542978286743,-2.09850549697876
538,34800.0,6.580262184143066,1.6821542978286743,-2.09850549697876
539,34900.0,20.71705818176269,0.9523434042930604,-6.355337142944336
540,34000.0,7.465606689453125,1.4045867919921875,-2.400001049041748
541,34100.0,7.465606689453125,1.4045867919921875,-2.400001049041748
542,34200.0,12.337392807006836,1.8113667964935305,-2.359323024749756
543,34300.0,12.337392807006836,1.8113667964935305,-2.359323024749756
544,34400.0,7.685746192932129,2.0195422172546387,-1.8640089035034182
545,34500.0,7.685746192932129,2.0195422172546387,-1.8640089035034182
546,34600.0,6.580262184143066,1.6821542978286743,-2.09850549697876
547,34700.0,6.580262184143066,1.6821542978286743,-2.09850549697876
548,34800.0,6.580262184143066,1.6821542978286743,-2.09850549697876
549,34900.0,20.71705818176269,0.9523434042930604,-6.355337142944336
550,35000.0,20.71705818176269,0.9523434042930604,-6.355337142944336
551,35100.0,6.455835819244385,-0.6149553656578064,-3.6921253204345694
552,35200.0,6.455835819244385,-0.6149553656578064,-3.6921253204345694
553,35300.0,7.537391662597656,2.2516460418701167,-3.25663161277771
554,35400.0,7.537391662597656,2.2516460418701167,-3.25663161277771
555,35500.0,7.537391662597656,2.2516460418701167,-3.25663161277771
556,35600.0,10.954340934753418,2.1918253898620605,-2.612962245941162
557,35700.0,10.954340934753418,2.1918253898620605,-2.612962245941162
558,35800.0,9.432506561279297,1.9573287963867188,-1.5050854682922363
559,35900.0,9.432506561279297,1.9573287963867188,-1.5050854682922363
560,35000.0,20.71705818176269,0.9523434042930604,-6.355337142944336
561,35100.0,6.455835819244385,-0.6149553656578064,-3.6921253204345694
562,35200.0,6.455835819244385,-0.6149553656578064,-3.6921253204345694
563,35300.0,7.537391662597656,2.2516460418701167,-3.25663161277771
564,35400.0,7.537391662597656,2.2516460418701167,-3.25663161277771
565,35500.0,7.537391662597656,2.2516460418701167,-3.25663161277771
566,35600.0,10.954340934753418,2.1918253898620605,-2.612962245941162
567,35700.0,10.954340934753418,2.1918253898620605,-2.612962245941162
568,35800.0,9.432506561279297,1.9573287963867188,-1.5050854682922363
569,35900.0,9.432506561279297,1.9573287963867188,-1.5050854682922363
570,36000.0,10.451848983764648,1.7706886529922483,-1.239482045173645
571,36100.0,10.451848983764648,1.7706886529922483,-1.239482045173645
572,36200.0,8.523234367370605,1.4763716459274292,-3.13220477104187
573,36300.0,8.523234367370605,1.4763716459274292,-3.13220477104187
574,36400.0,9.011369705200195,2.311466693878174,-4.591826438903809
575,36500.0,9.011369705200195,2.311466693878174,-4.591826438903809
576,36600.0,9.011369705200195,2.311466693878174,-4.591826438903809
577,36700.0,8.523234367370605,2.0147566795349117,-1.954936146736145
578,36800.0,8.523234367370605,2.0147566795349117,-1.954936146736145
579,36900.0,8.346165657043457,1.5242280960083008,-0.9930213689804076
580,36000.0,10.451848983764648,1.7706886529922483,-1.239482045173645
581,36100.0,10.451848983764648,1.7706886529922483,-1.239482045173645
582,36200.0,8.523234367370605,1.4763716459274292,-3.13220477104187
583,36300.0,8.523234367370605,1.4763716459274292,-3.13220477104187
584,36400.0,9.011369705200195,2.311466693878174,-4.591826438903809
585,36500.0,9.011369705200195,2.311466693878174,-4.591826438903809
586,36600.0,9.011369705200195,2.311466693878174,-4.591826438903809
587,36700.0,8.523234367370605,2.0147566795349117,-1.954936146736145
588,36800.0,8.523234367370605,2.0147566795349117,-1.954936146736145
589,36900.0,8.346165657043457,1.5242280960083008,-0.9930213689804076
590,37000.0,8.346165657043457,1.5242280960083008,-0.9930213689804076
591,37100.0,8.346165657043457,1.5242280960083008,-0.9930213689804076
592,37200.0,6.130411148071289,1.794616937637329,-1.588834285736084
593,37300.0,6.130411148071289,1.794616937637329,-1.588834285736084
594,37400.0,15.352350234985352,2.7349963188171387,-3.2614171504974365
595,37500.0,15.352350234985352,2.7349963188171387,-3.2614171504974365
596,37600.0,15.352350234985352,2.7349963188171387,-3.2614171504974365
597,37700.0,9.69093132019043,1.241874933242798,-3.929014682769776
598,37800.0,9.69093132019043,1.241874933242798,-3.929014682769776
599,37900.0,7.987241268157959,1.581655740737915,-3.103491306304932
600,37000.0,8.346165657043457,1.5242280960083008,-0.9930213689804076
601,37100.0,8.346165657043457,1.5242280960083008,-0.9930213689804076
602,37200.0,6.130411148071289,1.794616937637329,-1.588834285736084
603,37300.0,6.130411148071289,1.794616937637329,-1.588834285736084
604,37400.0,15.352350234985352,2.7349963188171387,-3.2614171504974365
605,37500.0,15.352350234985352,2.7349963188171387,-3.2614171504974365
606,37600.0,15.352350234985352,2.7349963188171387,-3.2614171504974365
607,37700.0,9.69093132019043,1.241874933242798,-3.929014682769776
608,37800.0,9.69093132019043,1.241874933242798,-3.929014682769776
609,37900.0,7.987241268157959,1.581655740737915,-3.103491306304932
610,38000.0,7.987241268157959,1.581655740737915,-3.103491306304932
611,38100.0,8.925228118896484,2.5292134284973145,-1.8089739084243772
612,38200.0,8.925228118896484,2.5292134284973145,-1.8089739084243772
613,38300.0,8.925228118896484,2.5292134284973145,-1.8089739084243772
614,38400.0,9.193224906921387,2.51007080078125,-1.0552347898483276
615,38500.0,9.193224906921387,2.51007080078125,-1.0552347898483276
616,38600.0,8.149953842163086,2.902493953704834,-1.2681961059570312
617,38700.0,8.149953842163086,2.902493953704834,-1.2681961059570312
618,38800.0,8.441878318786621,2.75174617767334,-2.0889341831207275
619,38900.0,8.441878318786621,2.75174617767334,-2.0889341831207275
620,38000.0,7.987241268157959,1.581655740737915,-3.103491306304932
621,38100.0,8.925228118896484,2.5292134284973145,-1.8089739084243772
622,38200.0,8.925228118896484,2.5292134284973145,-1.8089739084243772
623,38300.0,8.925228118896484,2.5292134284973145,-1.8089739084243772
624,38400.0,9.193224906921387,2.51007080078125,-1.0552347898483276
625,38500.0,9.193224906921387,2.51007080078125,-1.0552347898483276
626,38600.0,8.149953842163086,2.902493953704834,-1.2681961059570312
627,38700.0,8.149953842163086,2.902493953704834,-1.2681961059570312
628,38800.0,8.441878318786621,2.75174617767334,-2.0889341831207275
629,38900.0,8.441878318786621,2.75174617767334,-2.0889341831207275
630,39000.0,8.441878318786621,2.75174617767334,-2.0889341831207275
631,39100.0,16.338191986083984,1.7132610082626345,-3.969692707061768
632,39200.0,16.338191986083984,1.7132610082626345,-3.969692707061768
633,39300.0,8.556733131408691,0.8877372145652771,-3.0460631847381587
634,39400.0,8.556733131408691,0.8877372145652771,-3.0460631847381587
635,39500.0,8.556733131408691,0.8877372145652771,-3.0460631847381587
636,39600.0,7.786244869232178,1.430907964706421,-2.964707374572754
637,39700.0,7.786244869232178,1.430907964706421,-2.964707374572754
638,39800.0,6.896114826202393,1.325623631477356,-2.1631116867065434
639,39900.0,6.896114826202393,1.325623631477356,-2.1631116867065434
640,39000.0,8.441878318786621,2.75174617767334,-2.0889341831207275
641,39100.0,16.338191986083984,1.7132610082626345,-3.969692707061768
642,39200.0,16.338191986083984,1.7132610082626345,-3.969692707061768
643,39300.0,8.556733131408691,0.8877372145652771,-3.0460631847381587
644,39400.0,8.556733131408691,0.8877372145652771,-3.0460631847381587
645,39500.0,8.556733131408691,0.8877372145652771,-3.0460631847381587
646,39600.0,7.786244869232178,1.430907964706421,-2.964707374572754
647,39700.0,7.786244869232178,1.430907964706421,-2.964707374572754
648,39800.0,6.896114826202393,1.325623631477356,-2.1631116867065434
649,39900.0,6.896114826202393,1.325623631477356,-2.1631116867065434
650,40000.0,14.380865097045898,1.2921242713928225,-2.4574286937713623
651,40100.0,14.380865097045898,1.2921242713928225,-2.4574286937713623
652,40200.0,10.236495971679688,2.68953275680542,-1.9118653535842896
653,40300.0,10.236495971679688,2.68953275680542,-1.9118653535842896
654,40400.0,10.236495971679688,2.68953275680542,-1.9118653535842896
655,40500.0,8.925228118896484,2.699103832244873,-1.6917256116867063
656,40600.0,8.925228118896484,2.699103832244873,-1.6917256116867063
657,40700.0,12.959527015686035,1.7754744291305542,-2.711068153381348
658,40800.0,12.959527015686035,1.7754744291305542,-2.711068153381348
659,40900.0,12.959527015686035,1.7754744291305542,-2.711068153381348
660,40000.0,14.380865097045898,1.2921242713928225,-2.4574286937713623
661,40100.0,14.380865097045898,1.2921242713928225,-2.4574286937713623
662,40200.0,10.236495971679688,2.68953275680542,-1.9118653535842896
663,40300.0,10.236495971679688,2.68953275680542,-1.9118653535842896
664,40400.0,10.236495971679688,2.68953275680542,-1.9118653535842896
665,40500.0,8.925228118896484,2.699103832244873,-1.6917256116867063
666,40600.0,8.925228118896484,2.699103832244873,-1.6917256116867063
667,40700.0,12.959527015686035,1.7754744291305542,-2.711068153381348
668,40800.0,12.959527015686035,1.7754744291305542,-2.711068153381348
669,40900.0,12.959527015686035,1.7754744291305542,-2.711068153381348
670,41000.0,7.83410120010376,0.8685945868492126,-2.5986053943634038
671,41100.0,7.83410120010376,0.8685945868492126,-2.5986053943634038
672,41200.0,7.331608772277832,1.2705888748168943,-3.072384119033813
673,41300.0,7.331608772277832,1.2705888748168943,-3.072384119033813
674,41400.0,6.154339790344237,1.210768222808838,-2.411965131759644
675,41500.0,6.154339790344237,1.210768222808838,-2.411965131759644
676,41600.0,13.7108736038208,2.5555346012115483,-2.352144718170166
677,41700.0,13.7108736038208,2.5555346012115483,-2.352144718170166
678,41800.0,7.216752529144287,2.691925525665283,-1.9070796966552732
679,41900.0,7.216752529144287,2.691925525665283,-1.9070796966552732
680,41000.0,7.83410120010376,0.8685945868492126,-2.5986053943634038
681,41100.0,7.83410120010376,0.8685945868492126,-2.5986053943634038
682,41200.0,7.331608772277832,1.2705888748168943,-3.072384119033813
683,41300.0,7.331608772277832,1.2705888748168943,-3.072384119033813
684,41400.0,6.154339790344237,1.210768222808838,-2.411965131759644
685,41500.0,6.154339790344237,1.210768222808838,-2.411965131759644
686,41600.0,13.7108736038208,2.5555346012115483,-2.352144718170166
687,41700.0,13.7108736038208,2.5555346012115483,-2.352144718170166
688,41800.0,7.216752529144287,2.691925525665283,-1.9070796966552732
689,41900.0,7.216752529144287,2.691925525665283,-1.9070796966552732
690,42000.0,7.216752529144287,2.691925525665283,-1.9070796966552732
691,42100.0,8.02074146270752,2.0195422172546387,-1.6007983684539795
692,42200.0,8.02074146270752,2.0195422172546387,-1.6007983684539795
693,42300.0,13.543376922607422,2.0865414142608643,-1.998006820678711
694,42400.0,13.543376922607422,2.0865414142608643,-1.998006820678711
695,42500.0,13.543376922607422,2.0865414142608643,-1.998006820678711
696,42600.0,7.795816421508789,-0.12681959569454193,-2.682354211807251
697,42700.0,7.795816421508789,-0.12681959569454193,-2.682354211807251
698,42800.0,7.762316703796388,0.7465606331825256,-2.7349963188171387
699,42900.0,7.762316703796388,0.7465606331825256,-2.7349963188171387
700,42000.0,7.216752529144287,2.691925525665283,-1.9070796966552732
701,42100.0,8.02074146270752,2.0195422172546387,-1.6007983684539795
702,42200.0,8.02074146270752,2.0195422172546387,-1.6007983684539795
703,42300.0,13.543376922607422,2.0865414142608643,-1.998006820678711
704,42400.0,13.543376922607422,2.0865414142608643,-1.998006820678711
705,42500.0,13.543376922607422,2.0865414142608643,-1.998006820678711
706,42600.0,7.795816421508789,-0.12681959569454193,-2.682354211807251
707,42700.0,7.795816421508789,-0.12681959569454193,-2.682354211807251
708,42800.0,7.762316703796388,0.7465606331825256,-2.7349963188171387
709,42900.0,7.762316703796388,0.7465606331825256,-2.7349963188171387
710,43000.0,7.858029365539551,2.407179594039917,-3.0101709365844727
711,43100.0,7.858029365539551,2.407179594039917,-3.0101709365844727
712,43200.0,7.264609336853027,2.665604591369629,-3.122633695602417
713,43300.0,7.264609336853027,2.665604591369629,-3.122633695602417
714,43400.0,7.264609336853027,2.665604591369629,-3.122633695602417
715,43500.0,10.17906665802002,3.6323046684265137,-1.5649060010910034
716,43600.0,10.17906665802002,3.6323046684265137,-1.5649060010910034
717,43700.0,9.384650230407717,1.5218352079391482,-2.3617160320281982
718,43800.0,9.384650230407717,1.5218352079391482,-2.3617160320281982
719,43900.0,9.384650230407717,1.5218352079391482,-2.3617160320281982
720,43000.0,7.858029365539551,2.407179594039917,-3.0101709365844727
721,43100.0,7.858029365539551,2.407179594039917,-3.0101709365844727
722,43200.0,7.264609336853027,2.665604591369629,-3.122633695602417
723,43300.0,7.264609336853027,2.665604591369629,-3.122633695602417
724,43400.0,7.264609336853027,2.665604591369629,-3.122633695602417
725,43500.0,10.17906665802002,3.6323046684265137,-1.5649060010910034
726,43600.0,10.17906665802002,3.6323046684265137,-1.5649060010910034
727,43700.0,9.384650230407717,1.5218352079391482,-2.3617160320281982
728,43800.0,9.384650230407717,1.5218352079391482,-2.3617160320281982
729,43900.0,9.384650230407717,1.5218352079391482,-2.3617160320281982
730,44000.0,6.781259536743164,1.8233308792114256,-2.2085752487182617
731,44100.0,6.781259536743164,1.8233308792114256,-2.2085752487182617
732,44200.0,13.03131103515625,0.9858429431915284,-4.981856822967528
733,44300.0,13.03131103515625,0.9858429431915284,-4.981856822967528
734,44400.0,13.03131103515625,0.9858429431915284,-4.981856822967528
735,44500.0,8.159524917602539,-0.26081767678260803,-4.3310089111328125
736,44600.0,8.159524917602539,-0.26081767678260803,-4.3310089111328125
737,44700.0,8.403593063354492,0.8662018179893494,-3.1441688537597656
738,44800.0,8.403593063354492,0.8662018179893494,-3.1441688537597656
739,44900.0,7.8819580078125,1.3878371715545654,-2.3497519493103027
740,44000.0,6.781259536743164,1.8233308792114256,-2.2085752487182617
741,44100.0,6.781259536743164,1.8233308792114256,-2.2085752487182617
742,44200.0,13.03131103515625,0.9858429431915284,-4.981856822967528
743,44300.0,13.03131103515625,0.9858429431915284,-4.981856822967528
744,44400.0,13.03131103515625,0.9858429431915284,-4.981856822967528
745,44500.0,8.159524917602539,-0.26081767678260803,-4.3310089111328125
746,44600.0,8.159524917602539,-0.26081767678260803,-4.3310089111328125
747,44700.0,8.403593063354492,0.8662018179893494,-3.1441688537597656
748,44800.0,8.403593063354492,0.8662018179893494,-3.1441688537597656
749,44900.0,7.8819580078125,1.3878371715545654,-2.3497519493103027
750,45000.0,7.8819580078125,1.3878371715545654,-2.3497519493103027
751,45100.0,9.652647018432617,1.5050854682922363,-2.5746772289276123
752,45200.0,9.652647018432617,1.5050854682922363,-2.5746772289276123
753,45300.0,9.652647018432617,1.5050854682922363,-2.5746772289276123
754,45400.0,8.087740898132324,2.2612173557281494,-1.3208380937576294
755,45500.0,8.087740898132324,2.2612173557281494,-1.3208380937576294
756,45600.0,9.485149383544922,1.758724570274353,-1.3543376922607422
757,45700.0,9.485149383544922,1.758724570274353,-1.3543376922607422
758,45800.0,7.9106712341308585,1.3375877141952517,-2.2707886695861816
759,45900.0,7.9106712341308585,1.3375877141952517,-2.2707886695861816
760,45000.0,7.8819580078125,1.3878371715545654,-2.3497519493103027
761,45100.0,9.652647018432617,1.5050854682922363,-2.5746772289276123
762,45200.0,9.652647018432617,1.5050854682922363,-2.5746772289276123
763,45300.0,9.652647018432617,1.5050854682922363,-2.5746772289276123
764,45400.0,8.087740898132324,2.2612173557281494,-1.3208380937576294
765,45500.0,8.087740898132324,2.2612173557281494,-1.3208380937576294
766,45600.0,9.485149383544922,1.758724570274353,-1.3543376922607422
767,45700.0,9.485149383544922,1.758724570274353,-1.3543376922607422
768,45800.0,7.9106712341308585,1.3375877141952517,-2.2707886695861816
769,45900.0,7.9106712341308585,1.3375877141952517,-2.2707886695861816
770,46000.0,7.9106712341308585,1.3375877141952517,-2.2707886695861816
771,46100.0,14.098511695861815,1.5529417991638184,-3.8979082107543945
772,46200.0,14.098511695861815,1.5529417991638184,-3.8979082107543945
773,46300.0,6.608975887298584,-0.5599204897880554,-4.031906127929688
774,46400.0,6.608975887298584,-0.5599204897880554,-4.031906127929688
775,46500.0,6.221338748931885,1.5912269353866575,-3.2757742404937744
776,46600.0,6.221338748931885,1.5912269353866575,-3.2757742404937744
777,46700.0,6.221338748931885,1.5912269353866575,-3.2757742404937744
778,46800.0,7.020541667938232,4.524827480316162,-1.7371891736984253
779,46900.0,7.020541667938232,4.524827480316162,-1.7371891736984253
780,46000.0,7.9106712341308585,1.3375877141952517,-2.2707886695861816
781,46100.0,14.098511695861815,1.5529417991638184,-3.8979082107543945
782,46200.0,14.098511695861815,1.5529417991638184,-3.8979082107543945
783,46300.0,6.608975887298584,-0.5599204897880554,-4.031906127929688
784,46400.0,6.608975887298584,-0.5599204897880554,-4.031906127929688
785,46500.0,6.221338748931885,1.5912269353866575,-3.2757742404937744
786,46600.0,6.221338748931885,1.5912269353866575,-3.2757742404937744
787,46700.0,6.221338748931885,1.5912269353866575,-3.2757742404937744
788,46800.0,7.020541667938232,4.524827480316162,-1.7371891736984253
789,46900.0,7.020541667938232,4.524827480316162,-1.7371891736984253
790,47000.0,9.958927154541016,3.610769510269165,-2.1918253898620605
791,47100.0,9.958927154541016,3.610769510269165,-2.1918253898620605
792,47200.0,8.48016357421875,3.838087558746338,-1.3280165195465088
793,47300.0,8.48016357421875,3.838087558746338,-1.3280165195465088
794,47400.0,8.48016357421875,3.838087558746338,-1.3280165195465088
795,47500.0,11.337193489074707,2.0721843242645264,-4.704289436340332
796,47600.0,11.337193489074707,2.0721843242645264,-4.704289436340332
797,47700.0,8.00638484954834,0.5024927258491516,-5.61834716796875
798,47800.0,8.00638484954834,0.5024927258491516,-5.61834716796875
799,47900.0,6.551548480987549,2.6847469806671143,-3.9122648239135738
800,47000.0,9.958927154541016,3.610769510269165,-2.1918253898620605
801,47100.0,9.958927154541016,3.610769510269165,-2.1918253898620605
802,47200.0,8.48016357421875,3.838087558746338,-1.3280165195465088
803,47300.0,8.48016357421875,3.838087558746338,-1.3280165195465088
804,47400.0,8.48016357421875,3.838087558746338,-1.3280165195465088
805,47500.0,11.337193489074707,2.0721843242645264,-4.704289436340332
806,47600.0,11.337193489074707,2.0721843242645264,-4.704289436340332
807,47700.0,8.00638484954834,0.5024927258491516,-5.61834716796875
808,47800.0,8.00638484954834,0.5024927258491516,-5.61834716796875
809,47900.0,6.551548480987549,2.6847469806671143,-3.9122648239135738
810,48000.0,6.551548480987549,2.6847469806671143,-3.9122648239135738
811,48100.0,6.551548480987549,2.6847469806671143,-3.9122648239135738
812,48200.0,8.98265552520752,3.842873096466065,-3.3379876613616943
813,48300.0,8.98265552520752,3.842873096466065,-3.3379876613616943
814,48400.0,10.604989051818848,3.208775281906128,-1.727617859840393
815,48500.0,10.604989051818848,3.208775281906128,-1.727617859840393
816,48600.0,9.193224906921387,1.9716858863830569,-2.1343977451324463
817,48700.0,9.193224906921387,1.9716858863830569,-2.1343977451324463
818,48800.0,9.193224906921387,1.9716858863830569,-2.1343977451324463
819,48900.0,7.010970115661621,1.9453648328781128,-1.3232309818267822
820,48000.0,6.551548480987549,2.6847469806671143,-3.9122648239135738
821,48100.0,6.551548480987549,2.6847469806671143,-3.9122648239135738
822,48200.0,8.98265552520752,3.842873096466065,-3.3379876613616943
823,48300.0,8.98265552520752,3.842873096466065,-3.3379876613616943
824,48400.0,10.604989051818848,3.208775281906128,-1.727617859840393
825,48500.0,10.604989051818848,3.208775281906128,-1.727617859840393
826,48600.0,9.193224906921387,1.9716858863830569,-2.1343977451324463
827,48700.0,9.193224906921387,1.9716858863830569,-2.1343977451324463
828,48800.0,9.193224906921387,1.9716858863830569,-2.1343977451324463
829,48900.0,7.010970115661621,1.9453648328781128,-1.3232309818267822
830,49000.0,7.010970115661621,1.9453648328781128,-1.3232309818267822
831,49100.0,13.098311424255373,2.0745770931243896,-3.290131092071533
832,49200.0,13.098311424255373,2.0745770931243896,-3.290131092071533
833,49300.0,8.12123966217041,0.7824530005455017,-3.201596736907959
834,49400.0,8.12123966217041,0.7824530005455017,-3.201596736907959
835,49500.0,8.12123966217041,0.7824530005455017,-3.201596736907959
836,49600.0,7.556533336639403,1.3854442834854126,-2.5914268493652344
837,49700.0,7.556533336639403,1.3854442834854126,-2.5914268493652344
838,49800.0,14.514862060546875,3.708875179290772,-2.0745770931243896
839,49900.0,14.514862060546875,3.708875179290772,-2.0745770931243896
840,49000.0,7.010970115661621,1.9453648328781128,-1.3232309818267822
841,49100.0,13.098311424255373,2.0745770931243896,-3.290131092071533
842,49200.0,13.098311424255373,2.0745770931243896,-3.290131092071533
843,49300.0,8.12123966217041,0.7824530005455017,-3.201596736907959
844,49400.0,8.12123966217041,0.7824530005455017,-3.201596736907959
845,49500.0,8.12123966217041,0.7824530005455017,-3.201596736907959
846,49600.0,7.556533336639403,1.3854442834854126,-2.5914268493652344
847,49700.0,7.556533336639403,1.3854442834854126,-2.5914268493652344
848,49800.0,14.514862060546875,3.708875179290772,-2.0745770931243896
849,49900.0,14.514862060546875,3.708875179290772,-2.0745770931243896
850,50000.0,7.948956489562987,1.8855443000793457,-1.8520447015762331
851,50100.0,7.948956489562987,1.8855443000793457,-1.8520447015762331
852,50200.0,7.948956489562987,1.8855443000793457,-1.8520447015762331
853,50300.0,9.422935485839844,2.1415762901306152,-2.1607186794281006
854,50400.0,9.422935485839844,2.1415762901306152,-2.1607186794281006
855,50500.0,6.86261510848999,2.234896183013916,-1.969292998313904
856,50600.0,6.86261510848999,2.234896183013916,-1.969292998313904
857,50700.0,13.490734100341795,0.9930213689804076,-3.811766624450684
858,50800.0,13.490734100341795,0.9930213689804076,-3.811766624450684
859,50900.0,13.490734100341795,0.9930213689804076,-3.811766624450684
860,50000.0,7.948956489562987,1.8855443000793457,-1.8520447015762331
861,50100.0,7.948956489562987,1.8855443000793457,-1.8520447015762331
862,50200.0,7.948956489562987,1.8855443000793457,-1.8520447015762331
863,50300.0,9.422935485839844,2.1415762901306152,-2.1607186794281006
864,50400.0,9.422935485839844,2.1415762901306152,-2.1607186794281006
865,50500.0,6.86261510848999,2.234896183013916,-1.969292998313904
866,50600.0,6.86261510848999,2.234896183013916,-1.969292998313904
867,50700.0,13.490734100341795,0.9930213689804076,-3.811766624450684
868,50800.0,13.490734100341795,0.9930213689804076,-3.811766624450684
869,50900.0,13.490734100341795,0.9930213689804076,-3.811766624450684
870,51000.0,8.834300994873047,0.1459621787071228,-3.0652055740356445
871,51100.0,8.834300994873047,0.1459621787071228,-3.0652055740356445
872,51200.0,6.9344000816345215,1.0336993932724001,-2.823530912399292
873,51300.0,6.9344000816345215,1.0336993932724001,-2.823530912399292
874,51400.0,7.135397434234619,1.8185452222824097,-2.778067111968994
875,51500.0,7.135397434234619,1.8185452222824097,-2.778067111968994
876,51600.0,16.371692657470707,1.8999011516571045,-2.9383859634399414
877,51700.0,16.371692657470707,1.8999011516571045,-2.9383859634399414
878,51800.0,8.484949111938478,2.9072794914245605,-1.6390833854675293
879,51900.0,8.484949111938478,2.9072794914245605,-1.6390833854675293
880,51000.0,8.834300994873047,0.1459621787071228,-3.0652055740356445
881,51100.0,8.834300994873047,0.1459621787071228,-3.0652055740356445
882,51200.0,6.9344000816345215,1.0336993932724001,-2.823530912399292
883,51300.0,6.9344000816345215,1.0336993932724001,-2.823530912399292
884,51400.0,7.135397434234619,1.8185452222824097,-2.778067111968994
885,51500.0,7.135397434234619,1.8185452222824097,-2.778067111968994
886,51600.0,16.371692657470707,1.8999011516571045,-2.9383859634399414
887,51700.0,16.371692657470707,1.8999011516571045,-2.9383859634399414
888,51800.0,8.484949111938478,2.9072794914245605,-1.6390833854675293
889,51900.0,8.484949111938478,2.9072794914245605,-1.6390833854675293
890,52000.0,8.484949111938478,2.9072794914245605,-1.6390833854675293
891,52100.0,9.327221870422363,2.6799612045288086,-1.9142580032348635
892,52200.0,9.327221870422363,2.6799612045288086,-1.9142580032348635
893,52300.0,7.0444698333740225,1.7324036359786987,-2.888136863708496
894,52400.0,7.0444698333740225,1.7324036359786987,-2.888136863708496
895,52500.0,9.896714210510254,3.3308091163635254,-3.455235719680786
896,52600.0,9.896714210510254,3.3308091163635254,-3.455235719680786
897,52700.0,8.781659126281737,1.0193424224853516,-3.2805597782135014
898,52800.0,8.781659126281737,1.0193424224853516,-3.2805597782135014
899,52900.0,8.781659126281737,1.0193424224853516,-3.2805597782135014
900,52000.0,8.484949111938478,2.9072794914245605,-1.6390833854675293
901,52100.0,9.327221870422363,2.6799612045288086,-1.9142580032348635
902,52200.0,9.327221870422363,2.6799612045288086,-1.9142580032348635
903,52300.0,7.0444698333740225,1.7324036359786987,-2.888136863708496
904,52400.0,7.0444698333740225,1.7324036359786987,-2.888136863708496
905,52500.0,9.896714210510254,3.3308091163635254,-3.455235719680786
906,52600.0,9.896714210510254,3.3308091163635254,-3.455235719680786
907,52700.0,8.781659126281737,1.0193424224853516,-3.2805597782135014
908,52800.0,8.781659126281737,1.0193424224853516,-3.2805597782135014
909,52900.0,8.781659126281737,1.0193424224853516,-3.2805597782135014
910,53000.0,9.250652313232422,1.1437692642211914,-3.0747771263122563
911,53100.0,9.250652313232422,1.1437692642211914,-3.0747771263122563
912,53200.0,6.8099732398986825,1.56969153881073,-2.5124638080596924
913,53300.0,6.8099732398986825,1.56969153881073,-2.5124638080596924
914,53400.0,18.03709602355957,1.8544375896453855,-3.3714869022369385
915,53500.0,18.03709602355957,1.8544375896453855,-3.3714869022369385
916,53600.0,7.3363938331604,1.3375877141952517,-1.8089739084243772
917,53700.0,7.3363938331604,1.3375877141952517,-1.8089739084243772
918,53800.0,7.3363938331604,1.3375877141952517,-1.8089739084243772
919,53900.0,8.341379165649414,2.100898265838623,-1.4045867919921875
920,53000.0,9.250652313232422,1.1437692642211914,-3.0747771263122563
921,53100.0,9.250652313232422,1.1437692642211914,-3.0747771263122563
922,53200.0,6.8099732398986825,1.56969153881073,-2.5124638080596924
923,53300.0,6.8099732398986825,1.56969153881073,-2.5124638080596924
924,53400.0,18.03709602355957,1.8544375896453855,-3.3714869022369385
925,53500.0,18.03709602355957,1.8544375896453855,-3.3714869022369385
926,53600.0,7.3363938331604,1.3375877141952517,-1.8089739084243772
927,53700.0,7.3363938331604,1.3375877141952517,-1.8089739084243772
928,53800.0,7.3363938331604,1.3375877141952517,-1.8089739084243772
929,53900.0,8.341379165649414,2.100898265838623,-1.4045867919921875
930,54000.0,8.341379165649414,2.100898265838623,-1.4045867919921875
931,54100.0,6.331408977508545,1.832902193069458,-2.0793628692626958
932,54200.0,6.331408977508545,1.832902193069458,-2.0793628692626958
933,54300.0,8.499305725097656,3.1752755641937256,-2.543570280075073
934,54400.0,8.499305725097656,3.1752755641937256,-2.543570280075073
935,54500.0,9.269794464111328,1.459621787071228,-3.1585259437561035
936,54600.0,9.269794464111328,1.459621787071228,-3.1585259437561035
937,54700.0,9.269794464111328,1.459621787071228,-3.1585259437561035
938,54800.0,7.891529560089111,1.4045867919921875,-2.746960401535034
939,54900.0,7.891529560089111,1.4045867919921875,-2.746960401535034
940,54000.0,8.341379165649414,2.100898265838623,-1.4045867919921875
941,54100.0,6.331408977508545,1.832902193069458,-2.0793628692626958
942,54200.0,6.331408977508545,1.832902193069458,-2.0793628692626958
943,54300.0,8.499305725097656,3.1752755641937256,-2.543570280075073
944,54400.0,8.499305725097656,3.1752755641937256,-2.543570280075073
945,54500.0,9.269794464111328,1.459621787071228,-3.1585259437561035
946,54600.0,9.269794464111328,1.459621787071228,-3.1585259437561035
947,54700.0,9.269794464111328,1.459621787071228,-3.1585259437561035
948,54800.0,7.891529560089111,1.4045867919921875,-2.746960401535034
949,54900.0,7.891529560089111,1.4045867919921875,-2.746960401535034
950,55000.0,7.125825881958008,2.1942183971405034,-2.577069997787476
951,55100.0,7.125825881958008,2.1942183971405034,-2.577069997787476
952,55200.0,16.56790542602539,1.7371891736984253,-3.842873096466065
953,55300.0,16.56790542602539,1.7371891736984253,-3.842873096466065
954,55400.0,7.695317268371582,0.6460621356964111,-1.8664016723632808
955,55500.0,7.695317268371582,0.6460621356964111,-1.8664016723632808
956,55600.0,9.734003067016602,1.6247265338897705,-2.232503652572632
957,55700.0,9.734003067016602,1.6247265338897705,-2.232503652572632
958,55800.0,9.734003067016602,1.6247265338897705,-2.232503652572632
959,55900.0,5.340780735015869,1.8520447015762331,-1.832902193069458
960,55000.0,7.125825881958008,2.1942183971405034,-2.577069997787476
961,55100.0,7.125825881958008,2.1942183971405034,-2.577069997787476
962,55200.0,16.56790542602539,1.7371891736984253,-3.842873096466065
963,55300.0,16.56790542602539,1.7371891736984253,-3.842873096466065
964,55400.0,7.695317268371582,0.6460621356964111,-1.8664016723632808
965,55500.0,7.695317268371582,0.6460621356964111,-1.8664016723632808
966,55600.0,9.734003067016602,1.6247265338897705,-2.232503652572632
967,55700.0,9.734003067016602,1.6247265338897705,-2.232503652572632
968,55800.0,9.734003067016602,1.6247265338897705,-2.232503652572632
969,55900.0,5.340780735015869,1.8520447015762331,-1.832902193069458
970,56000.0,5.340780735015869,1.8520447015762331,-1.832902193069458
971,56100.0,16.185052871704098,1.00259268283844,-3.864408254623413
972,56200.0,16.185052871704098,1.00259268283844,-3.864408254623413
973,56300.0,7.843672752380371,0.7537391781806946,-2.7278177738189697
974,56400.0,7.843672752380371,0.7537391781806946,-2.7278177738189697
975,56500.0,7.843672752380371,0.7537391781806946,-2.7278177738189697
976,56600.0,8.547162055969237,1.0384850502014158,-2.1918253898620605
977,56700.0,8.547162055969237,1.0384850502014158,-2.1918253898620605
978,56800.0,6.65204668045044,1.4189438819885254,-2.6464619636535645
979,56900.0,6.65204668045044,1.4189438819885254,-2.6464619636535645
980,56000.0,5.340780735015869,1.8520447015762331,-1.832902193069458
981,56100.0,16.185052871704098,1.00259268283844,-3.864408254623413
982,56200.0,16.185052871704098,1.00259268283844,-3.864408254623413
983,56300.0,7.843672752380371,0.7537391781806946,-2.7278177738189697
984,56400.0,7.843672752380371,0.7537391781806946,-2.7278177738189697
985,56500.0,7.843672752380371,0.7537391781806946,-2.7278177738189697
986,56600.0,8.547162055969237,1.0384850502014158,-2.1918253898620605
987,56700.0,8.547162055969237,1.0384850502014158,-2.1918253898620605
988,56800.0,6.65204668045044,1.4189438819885254,-2.6464619636535645
989,56900.0,6.65204668045044,1.4189438819885254,-2.6464619636535645
990,57000.0,14.763714790344238,2.749353408813477,-3.041277408599853
991,57100.0,14.763714790344238,2.749353408813477,-3.041277408599853
992,57200.0,7.331608772277832,2.0817556381225586,-1.3591231107711792
993,57300.0,7.331608772277832,2.0817556381225586,-1.3591231107711792
994,57400.0,7.331608772277832,2.0817556381225586,-1.3591231107711792
995,57500.0,9.461220741271973,2.031506299972534,-1.22033953666687
996,57600.0,9.461220741271973,2.031506299972534,-1.22033953666687
997,57700.0,5.493920803070068,1.043270707130432,-1.9286150932312007
998,57800.0,5.493920803070068,1.043270707130432,-1.9286150932312007
999,57900.0,15.223136901855467,2.2468602657318115,-2.0410776138305664
1000,57000.0,14.763714790344238,2.749353408813477,-3.041277408599853
1001,57100.0,14.763714790344238,2.749353408813477,-3.041277408599853
1002,57200.0,7.331608772277832,2.0817556381225586,-1.3591231107711792
1003,57300.0,7.331608772277832,2.0817556381225586,-1.3591231107711792
1004,57400.0,7.331608772277832,2.0817556381225586,-1.3591231107711792
1005,57500.0,9.461220741271973,2.031506299972534,-1.22033953666687
1006,57600.0,9.461220741271973,2.031506299972534,-1.22033953666687
1007,57700.0,5.493920803070068,1.043270707130432,-1.9286150932312007
1008,57800.0,5.493920803070068,1.043270707130432,-1.9286150932312007
1009,57900.0,15.223136901855467,2.2468602657318115,-2.0410776138305664
1010,58000.0,15.223136901855467,2.2468602657318115,-2.0410776138305664
1011,58100.0,7.944170951843263,1.1509476900100708,-2.9551358222961426
1012,58200.0,7.944170951843263,1.1509476900100708,-2.9551358222961426
1013,58300.0,7.944170951843263,1.1509476900100708,-2.9551358222961426
1014,58400.0,6.675975322723389,1.7635102272033691,-2.0865414142608643
1015,58500.0,6.675975322723389,1.7635102272033691,-2.0865414142608643
1016,58600.0,12.796814918518065,-0.2703889608383179,-3.141776323318481
1017,58700.0,12.796814918518065,-0.2703889608383179,-3.141776323318481
1018,58800.0,8.824729919433594,-0.1459621787071228,-4.00319242477417
1019,58900.0,8.824729919433594,-0.1459621787071228,-4.00319242477417
1020,58000.0,15.223136901855467,2.2468602657318115,-2.0410776138305664
1021,58100.0,7.944170951843263,1.1509476900100708,-2.9551358222961426
1022,58200.0,7.944170951843263,1.1509476900100708,-2.9551358222961426
1023,58300.0,7.944170951843263,1.1509476900100708,-2.9551358222961426
1024,58400.0,6.675975322723389,1.7635102272033691,-2.0865414142608643
1025,58500.0,6.675975322723389,1.7635102272033691,-2.0865414142608643
1026,58600.0,12.796814918518065,-0.2703889608383179,-3.141776323318481
1027,58700.0,12.796814918518065,-0.2703889608383179,-3.141776323318481
1028,58800.0,8.824729919433594,-0.1459621787071228,-4.00319242477417
1029,58900.0,8.824729919433594,-0.1459621787071228,-4.00319242477417
1030,59000.0,7.3124656677246085,2.3234307765960693,-2.998206615447998
1031,59100.0,7.3124656677246085,2.3234307765960693,-2.998206615447998
1032,59200.0,7.3124656677246085,2.3234307765960693,-2.998206615447998
1033,59300.0,9.62393283843994,1.8472589254379272,-1.2131611108779907
1034,59400.0,9.62393283843994,1.8472589254379272,-1.2131611108779907
1035,59500.0,8.484949111938478,3.084348201751709,-1.8233308792114256
1036,59600.0,8.484949111938478,3.084348201751709,-1.8233308792114256
1037,59700.0,10.461421012878418,2.1511476039886475,-3.6634113788604736
1038,59800.0,10.461421012878418,2.1511476039886475,-3.6634113788604736
1039,59900.0,10.461421012878418,2.1511476039886475,-3.6634113788604736
1040,59000.0,7.3124656677246085,2.3234307765960693,-2.998206615447998
1041,59100.0,7.3124656677246085,2.3234307765960693,-2.998206615447998
1042,59200.0,7.3124656677246085,2.3234307765960693,-2.998206615447998
1043,59300.0,9.62393283843994,1.8472589254379272,-1.2131611108779907
1044,59400.0,9.62393283843994,1.8472589254379272,-1.2131611108779907
1045,59500.0,8.484949111938478,3.084348201751709,-1.8233308792114256
1046,59600.0,8.484949111938478,3.084348201751709,-1.8233308792114256
1047,59700.0,10.461421012878418,2.1511476039886475,-3.6634113788604736
1048,59800.0,10.461421012878418,2.1511476039886475,-3.6634113788604736
1049,59900.0,10.461421012878418,2.1511476039886475,-3.6634113788604736
1050,60000.0,10.207781791687012,1.8664016723632808,-1.887937068939209
1051,60100.0,10.207781791687012,1.8664016723632808,-1.887937068939209
1052,60200.0,8.695517539978027,1.5553346872329712,-1.430907964706421
1053,60300.0,8.695517539978027,1.5553346872329712,-1.430907964706421
1054,60400.0,5.876771926879883,2.2755744457244877,-1.739582061767578
1055,60500.0,5.876771926879883,2.2755744457244877,-1.739582061767578
1056,60600.0,13.490734100341795,2.179861307144165,-3.0987055301666264
1057,60700.0,13.490734100341795,2.179861307144165,-3.0987055301666264
1058,60800.0,13.490734100341795,2.179861307144165,-3.0987055301666264
1059,60900.0,9.413363456726074,1.2610174417495728,-3.433700561523437
1060,60000.0,10.207781791687012,1.8664016723632808,-1.887937068939209
1061,60100.0,10.207781791687012,1.8664016723632808,-1.887937068939209
1062,60200.0,8.695517539978027,1.5553346872329712,-1.430907964706421
1063,60300.0,8.695517539978027,1.5553346872329712,-1.430907964706421
1064,60400.0,5.876771926879883,2.2755744457244877,-1.739582061767578
1065,60500.0,5.876771926879883,2.2755744457244877,-1.739582061767578
1066,60600.0,13.490734100341795,2.179861307144165,-3.0987055301666264
1067,60700.0,13.490734100341795,2.179861307144165,-3.0987055301666264
1068,60800.0,13.490734100341795,2.179861307144165,-3.0987055301666264
1069,60900.0,9.413363456726074,1.2610174417495728,-3.433700561523437
1070,61000.0,9.413363456726074,1.2610174417495728,-3.433700561523437
1071,61100.0,7.676175117492676,1.519442439079285,-3.455235719680786
1072,61200.0,7.676175117492676,1.519442439079285,-3.455235719680786
1073,61300.0,10.882556915283203,1.3184452056884766,-1.7491532564163208
1074,61400.0,10.882556915283203,1.3184452056884766,-1.7491532564163208
1075,61500.0,9.265008926391602,3.589233875274658,0.41156551241874695
1076,61600.0,9.265008926391602,3.589233875274658,0.41156551241874695
1077,61700.0,8.98265552520752,2.455036163330078,-1.0983055830001829
1078,61800.0,8.98265552520752,2.455036163330078,-1.0983055830001829
1079,61900.0,8.98265552520752,2.455036163330078,-1.0983055830001829
1080,61000.0,9.413363456726074,1.2610174417495728,-3.433700561523437
1081,61100.0,7.676175117492676,1.519442439079285,-3.455235719680786
1082,61200.0,7.676175117492676,1.519442439079285,-3.455235719680786
1083,61300.0,10.882556915283203,1.3184452056884766,-1.7491532564163208
1084,61400.0,10.882556915283203,1.3184452056884766,-1.7491532564163208
1085,61500.0,9.265008926391602,3.589233875274658,0.41156551241874695
1086,61600.0,9.265008926391602,3.589233875274658,0.41156551241874695
1087,61700.0,8.98265552520752,2.455036163330078,-1.0983055830001829
1088,61800.0,8.98265552520752,2.455036163330078,-1.0983055830001829
1089,61900.0,8.98265552520752,2.455036163330078,-1.0983055830001829
1090,62000.0,8.346165657043457,1.8544375896453855,-1.7443678379058838
1091,62100.0,8.346165657043457,1.8544375896453855,-1.7443678379058838
1092,62200.0,6.589833736419678,1.794616937637329,-2.445464611053467
1093,62300.0,6.589833736419678,1.794616937637329,-2.445464611053467
1094,62400.0,10.719844818115234,2.823530912399292,-3.7304105758666988
1095,62500.0,10.719844818115234,2.823530912399292,-3.7304105758666988
1096,62600.0,9.355937004089355,2.2205395698547363,-4.012763977050781
1097,62700.0,9.355937004089355,2.2205395698547363,-4.012763977050781
1098,62800.0,9.355937004089355,2.2205395698547363,-4.012763977050781
1099,62900.0,7.403393745422362,1.2801601886749268,-2.902493953704834
1100,62000.0,8.346165657043457,1.8544375896453855,-1.7443678379058838
1101,62100.0,8.346165657043457,1.8544375896453855,-1.7443678379058838
1102,62200.0,6.589833736419678,1.794616937637329,-2.445464611053467
1103,62300.0,6.589833736419678,1.794616937637329,-2.445464611053467
1104,62400.0,10.719844818115234,2.823530912399292,-3.7304105758666988
1105,62500.0,10.719844818115234,2.823530912399292,-3.7304105758666988
1106,62600.0,9.355937004089355,2.2205395698547363,-4.012763977050781
1107,62700.0,9.355937004089355,2.2205395698547363,-4.012763977050781
1108,62800.0,9.355937004089355,2.2205395698547363,-4.012763977050781
1109,62900.0,7.403393745422362,1.2801601886749268,-2.902493953704834
1110,63000.0,7.403393745422362,1.2801601886749268,-2.902493953704834
1111,63100.0,18.05623817443848,2.47896409034729,-3.232703685760498
1112,63200.0,18.05623817443848,2.47896409034729,-3.232703685760498
1113,63300.0,18.05623817443848,2.47896409034729,-3.232703685760498
1114,63400.0,7.527820110321045,1.84965181350708,-1.6965112686157229
1115,63500.0,7.527820110321045,1.84965181350708,-1.6965112686157229
1116,63600.0,9.906286239624023,1.7802598476409912,-2.629711866378784
1117,63700.0,9.906286239624023,1.7802598476409912,-2.629711866378784
1118,63800.0,6.704688549041747,3.2662029266357417,-1.5385849475860596
1119,63900.0,6.704688549041747,3.2662029266357417,-1.5385849475860596
1120,63000.0,7.403393745422362,1.2801601886749268,-2.902493953704834
1121,63100.0,18.05623817443848,2.47896409034729,-3.232703685760498
1122,63200.0,18.05623817443848,2.47896409034729,-3.232703685760498
1123,63300.0,18.05623817443848,2.47896409034729,-3.232703685760498
1124,63400.0,7.527820110321045,1.84965181350708,-1.6965112686157229
1125,63500.0,7.527820110321045,1.84965181350708,-1.6965112686157229
1126,63600.0,9.906286239624023,1.7802598476409912,-2.629711866378784
1127,63700.0,9.906286239624023,1.7802598476409912,-2.629711866378784
1128,63800.0,6.704688549041747,3.2662029266357417,-1.5385849475860596
1129,63900.0,6.704688549041747,3.2662029266357417,-1.5385849475860596
1130,64000.0,6.704688549041747,3.2662029266357417,-1.5385849475860596
1131,64100.0,13.605589866638185,1.6677974462509155,-3.38105845451355
1132,64200.0,13.605589866638185,1.6677974462509155,-3.38105845451355
1133,64300.0,8.939584732055664,1.550549030303955,-2.931207656860352
1134,64400.0,8.939584732055664,1.550549030303955,-2.931207656860352
1135,64500.0,8.834300994873047,0.9260223507881165,-2.9790639877319336
1136,64600.0,8.834300994873047,0.9260223507881165,-2.9790639877319336
1137,64700.0,8.590232849121094,1.1772687435150146,-1.5936198234558103
1138,64800.0,8.590232849121094,1.1772687435150146,-1.5936198234558103
1139,64900.0,7.944170951843263,1.9932212829589844,-2.4191436767578125
1140,64000.0,6.704688549041747,3.2662029266357417,-1.5385849475860596
1141,64100.0,13.605589866638185,1.6677974462509155,-3.38105845451355
1142,64200.0,13.605589866638185,1.6677974462509155,-3.38105845451355
1143,64300.0,8.939584732055664,1.550549030303955,-2.931207656860352
1144,64400.0,8.939584732055664,1.550549030303955,-2.931207656860352
1145,64500.0,8.834300994873047,0.9260223507881165,-2.9790639877319336
1146,64600.0,8.834300994873047,0.9260223507881165,-2.9790639877319336
1147,64700.0,8.590232849121094,1.1772687435150146,-1.5936198234558103
1148,64800.0,8.590232849121094,1.1772687435150146,-1.5936198234558103
1149,64900.0,7.944170951843263,1.9932212829589844,-2.4191436767578125
1150,65000.0,7.944170951843263,1.9932212829589844,-2.4191436767578125
1151,65100.0,7.944170951843263,1.9932212829589844,-2.4191436767578125
1152,65200.0,7.944170951843263,1.9932212829589844,-2.4191436767578125
1153,65300.0,7.944170951843263,1.9932212829589844,-2.4191436767578125
1154,65400.0,7.944170951843263,1.9932212829589844,-2.4191436767578125
1155,65500.0,9.198010444641113,1.34476637840271,-2.390429735183716
1156,65600.0,9.198010444641113,1.34476637840271,-2.390429735183716
1157,65700.0,6.92482852935791,2.227717876434326,-1.529013752937317
1158,65800.0,6.92482852935791,2.227717876434326,-1.529013752937317
1159,65900.0,15.127424240112305,0.4091726541519165,-4.716253280639648
1160,65000.0,7.944170951843263,1.9932212829589844,-2.4191436767578125
1161,65100.0,7.944170951843263,1.9932212829589844,-2.4191436767578125
1162,65200.0,7.944170951843263,1.9932212829589844,-2.4191436767578125
1163,65300.0,7.944170951843263,1.9932212829589844,-2.4191436767578125
1164,65400.0,7.944170951843263,1.9932212829589844,-2.4191436767578125
1165,65500.0,9.198010444641113,1.34476637840271,-2.390429735183716
1166,65600.0,9.198010444641113,1.34476637840271,-2.390429735183716
1167,65700.0,6.92482852935791,2.227717876434326,-1.529013752937317
1168,65800.0,6.92482852935791,2.227717876434326,-1.529013752937317
1169,65900.0,15.127424240112305,0.4091726541519165,-4.716253280639648
1170,66000.0,15.127424240112305,0.4091726541519165,-4.716253280639648
1171,66100.0,7.561319828033447,0.4594219326972962,-2.8737800121307373
1172,66200.0,7.561319828033447,0.4594219326972962,-2.8737800121307373
1173,66300.0,8.068597793579103,0.8781659603118896,-3.1058835983276367
1174,66400.0,8.068597793579103,0.8781659603118896,-3.1058835983276367
1175,66500.0,8.068597793579103,0.8781659603118896,-3.1058835983276367
1176,66600.0,7.484748840332031,1.4668002128601074,-2.038684844970703
1177,66700.0,7.484748840332031,1.4668002128601074,-2.038684844970703
1178,66800.0,13.519447326660154,0.935593605041504,-3.438485860824585
1179,66900.0,13.519447326660154,0.935593605041504,-3.438485860824585
1180,66000.0,15.127424240112305,0.4091726541519165,-4.716253280639648
1181,66100.0,7.561319828033447,0.4594219326972962,-2.8737800121307373
1182,66200.0,7.561319828033447,0.4594219326972962,-2.8737800121307373
1183,66300.0,8.068597793579103,0.8781659603118896,-3.1058835983276367
1184,66400.0,8.068597793579103,0.8781659603118896,-3.1058835983276367
1185,66500.0,8.068597793579103,0.8781659603118896,-3.1058835983276367
1186,66600.0,7.484748840332031,1.4668002128601074,-2.038684844970703
1187,66700.0,7.484748840332031,1.4668002128601074,-2.038684844970703
1188,66800.0,13.519447326660154,0.935593605041504,-3.438485860824585
1189,66900.0,13.519447326660154,0.935593605041504,-3.438485860824585
1190,67000.0,9.049654960632324,1.7467604875564575,-2.2779672145843506
1191,67100.0,9.049654960632324,1.7467604875564575,-2.2779672145843506
1192,67200.0,7.240681171417236,2.2516460418701167,-1.244267821311951
1193,67300.0,7.240681171417236,2.2516460418701167,-1.244267821311951
1194,67400.0,7.240681171417236,2.2516460418701167,-1.244267821311951
1195,67500.0,14.586647033691404,-1.442872166633606,-4.256831645965576
1196,67600.0,14.586647033691404,-1.442872166633606,-4.256831645965576
1197,67700.0,6.910471439361572,0.6915256977081299,-2.7014968395233154
1198,67800.0,6.910471439361572,0.6915256977081299,-2.7014968395233154
1199,67900.0,7.685746192932129,0.9475577473640442,-3.3379876613616943
1200,67000.0,9.049654960632324,1.7467604875564575,-2.2779672145843506
1201,67100.0,9.049654960632324,1.7467604875564575,-2.2779672145843506
1202,67200.0,7.240681171417236,2.2516460418701167,-1.244267821311951
1203,67300.0,7.240681171417236,2.2516460418701167,-1.244267821311951
1204,67400.0,7.240681171417236,2.2516460418701167,-1.244267821311951
1205,67500.0,14.586647033691404,-1.442872166633606,-4.256831645965576
1206,67600.0,14.586647033691404,-1.442872166633606,-4.256831645965576
1207,67700.0,6.910471439361572,0.6915256977081299,-2.7014968395233154
1208,67800.0,6.910471439361572,0.6915256977081299,-2.7014968395233154
1209,67900.0,7.685746192932129,0.9475577473640442,-3.3379876613616943
1210,68000.0,7.685746192932129,0.9475577473640442,-3.3379876613616943
1211,68100.0,7.216752529144287,1.2777673006057741,-2.280359983444214
1212,68200.0,7.216752529144287,1.2777673006057741,-2.280359983444214
1213,68300.0,7.216752529144287,1.2777673006057741,-2.280359983444214
1214,68400.0,8.35573673248291,2.313859462738037,-1.284945726394653
1215,68500.0,8.35573673248291,2.313859462738037,-1.284945726394653
1216,68600.0,9.446864128112793,1.5337992906570437,-1.931007981300354
1217,68700.0,9.446864128112793,1.5337992906570437,-1.931007981300354
1218,68800.0,6.948756694793701,1.7204395532608032,-2.0769701004028316
1219,68900.0,6.948756694793701,1.7204395532608032,-2.0769701004028316
1220,68000.0,7.685746192932129,0.9475577473640442,-3.3379876613616943
1221,68100.0,7.216752529144287,1.2777673006057741,-2.280359983444214
1222,68200.0,7.216752529144287,1.2777673006057741,-2.280359983444214
1223,68300.0,7.216752529144287,1.2777673006057741,-2.280359983444214
1224,68400.0,8.35573673248291,2.313859462738037,-1.284945726394653
1225,68500.0,8.35573673248291,2.313859462738037,-1.284945726394653
1226,68600.0,9.446864128112793,1.5337992906570437,-1.931007981300354
1227,68700.0,9.446864128112793,1.5337992906570437,-1.931007981300354
1228,68800.0,6.948756694793701,1.7204395532608032,-2.0769701004028316
1229,68900.0,6.948756694793701,1.7204395532608032,-2.0769701004028316
1230,69000.0,6.948756694793701,1.7204395532608032,-2.0769701004028316
1231,69100.0,17.55853271484375,-0.4187439680099487,-5.328815937042236
1232,69200.0,17.55853271484375,-0.4187439680099487,-5.328815937042236
1233,69300.0,7.436892509460449,0.07417750358581543,-3.6370904445648193
1234,69400.0,7.436892509460449,0.07417750358581543,-3.6370904445648193
1235,69500.0,6.757331371307372,0.9667003750801086,-2.577069997787476
1236,69600.0,6.757331371307372,0.9667003750801086,-2.577069997787476
1237,69700.0,16.539190292358402,4.074976921081543,-3.091526985168457
1238,69800.0,16.539190292358402,4.074976921081543,-3.091526985168457
1239,69900.0,16.539190292358402,4.074976921081543,-3.091526985168457
1240,69000.0,6.948756694793701,1.7204395532608032,-2.0769701004028316
1241,69100.0,17.55853271484375,-0.4187439680099487,-5.328815937042236
1242,69200.0,17.55853271484375,-0.4187439680099487,-5.328815937042236
1243,69300.0,7.436892509460449,0.07417750358581543,-3.6370904445648193
1244,69400.0,7.436892509460449,0.07417750358581543,-3.6370904445648193
1245,69500.0,6.757331371307372,0.9667003750801086,-2.577069997787476
1246,69600.0,6.757331371307372,0.9667003750801086,-2.577069997787476
1247,69700.0,16.539190292358402,4.074976921081543,-3.091526985168457
1248,69800.0,16.539190292358402,4.074976921081543,-3.091526985168457
1249,69900.0,16.539190292358402,4.074976921081543,-3.091526985168457
1250,70000.0,7.853243827819824,2.75174617767334,-0.8997013568878174
1251,70100.0,7.853243827819824,2.75174617767334,-0.8997013568878174
1252,70200.0,9.77707290649414,3.945764780044556,-1.392622709274292
1253,70300.0,9.77707290649414,3.945764780044556,-1.392622709274292
1254,70400.0,9.77707290649414,3.945764780044556,-1.392622709274292
1255,70500.0,8.178668022155763,-1.2634103298187256,-4.914857387542725
1256,70600.0,8.178668022155763,-1.2634103298187256,-4.914857387542725
1257,70700.0,8.202595710754395,0.8446664214134216,-3.749552965164185
1258,70800.0,8.202595710754395,0.8446664214134216,-3.749552965164185
1259,70900.0,8.154739379882812,4.388436794281007,-3.242274522781372
1260,70000.0,7.853243827819824,2.75174617767334,-0.8997013568878174
1261,70100.0,7.853243827819824,2.75174617767334,-0.8997013568878174
1262,70200.0,9.77707290649414,3.945764780044556,-1.392622709274292
1263,70300.0,9.77707290649414,3.945764780044556,-1.392622709274292
1264,70400.0,9.77707290649414,3.945764780044556,-1.392622709274292
1265,70500.0,8.178668022155763,-1.2634103298187256,-4.914857387542725
1266,70600.0,8.178668022155763,-1.2634103298187256,-4.914857387542725
1267,70700.0,8.202595710754395,0.8446664214134216,-3.749552965164185
1268,70800.0,8.202595710754395,0.8446664214134216,-3.749552965164185
1269,70900.0,8.154739379882812,4.388436794281007,-3.242274522781372
1270,71000.0,8.154739379882812,4.388436794281007,-3.242274522781372
1271,71100.0,10.260422706604004,2.8115665912628174,-1.1772687435150146
1272,71200.0,10.260422706604004,2.8115665912628174,-1.1772687435150146
1273,71300.0,10.260422706604004,2.8115665912628174,-1.1772687435150146
1274,71400.0,9.600004196166992,2.644068956375122,-0.9810572862625122
1275,71500.0,9.600004196166992,2.644068956375122,-0.9810572862625122
1276,71600.0,7.709674835205077,2.0865414142608643,-1.0169496536254885
1277,71700.0,7.709674835205077,2.0865414142608643,-1.0169496536254885
1278,71800.0,14.55793285369873,1.428515076637268,-4.862215518951416
1279,71900.0,14.55793285369873,1.428515076637268,-4.862215518951416
1280,71000.0,8.154739379882812,4.388436794281007,-3.242274522781372
1281,71100.0,10.260422706604004,2.8115665912628174,-1.1772687435150146
1282,71200.0,10.260422706604004,2.8115665912628174,-1.1772687435150146
1283,71300.0,10.260422706604004,2.8115665912628174,-1.1772687435150146
1284,71400.0,9.600004196166992,2.644068956375122,-0.9810572862625122
1285,71500.0,9.600004196166992,2.644068956375122,-0.9810572862625122
1286,71600.0,7.709674835205077,2.0865414142608643,-1.0169496536254885
1287,71700.0,7.709674835205077,2.0865414142608643,-1.0169496536254885
1288,71800.0,14.55793285369873,1.428515076637268,-4.862215518951416
1289,71900.0,14.55793285369873,1.428515076637268,-4.862215518951416
1290,72000.0,14.55793285369873,1.428515076637268,-4.862215518951416
1291,72100.0,11.188838958740234,1.227518081665039,-3.3427734375
1292,72200.0,11.188838958740234,1.227518081665039,-3.3427734375
1293,72300.0,7.508677005767822,1.0791629552841189,-3.1704900264739986
1294,72400.0,7.508677005767822,1.0791629552841189,-3.1704900264739986
1295,72500.0,11.423335075378418,3.8500516414642334,-1.5960125923156738
1296,72600.0,11.423335075378418,3.8500516414642334,-1.5960125923156738
1297,72700.0,11.423335075378418,3.8500516414642334,-1.5960125923156738
1298,72800.0,7.929814338684082,2.900100946426392,-1.3710873126983645
1299,72900.0,7.929814338684082,2.900100946426392,-1.3710873126983645
1300,72000.0,14.55793285369873,1.428515076637268,-4.862215518951416
1301,72100.0,11.188838958740234,1.227518081665039,-3.3427734375
1302,72200.0,11.188838958740234,1.227518081665039,-3.3427734375
1303,72300.0,7.508677005767822,1.0791629552841189,-3.1704900264739986
1304,72400.0,7.508677005767822,1.0791629552841189,-3.1704900264739986
1305,72500.0,11.423335075378418,3.8500516414642334,-1.5960125923156738
1306,72600.0,11.423335075378418,3.8500516414642334,-1.5960125923156738
1307,72700.0,11.423335075378418,3.8500516414642334,-1.5960125923156738
1308,72800.0,7.929814338684082,2.900100946426392,-1.3710873126983645
1309,72900.0,7.929814338684082,2.900100946426392,-1.3710873126983645
1310,73000.0,9.74835968017578,2.6560330390930176,-1.514656662940979
1311,73100.0,9.74835968017578,2.6560330390930176,-1.514656662940979
1312,73200.0,9.74835968017578,2.6560330390930176,-1.514656662940979
1313,73300.0,5.838487148284912,2.179861307144165,-1.6797614097595217
1314,73400.0,5.838487148284912,2.179861307144165,-1.6797614097595217
1315,73500.0,13.907085418701172,0.2297109663486481,-4.484149932861328
1316,73600.0,13.907085418701172,0.2297109663486481,-4.484149932861328
1317,73700.0,9.260223388671877,0.5503491759300232,0.6101697683334351
1318,73800.0,9.260223388671877,0.5503491759300232,0.6101697683334351
1319,73900.0,6.766902446746826,2.737389087677002,-0.8853443264961243
1320,73000.0,9.74835968017578,2.6560330390930176,-1.514656662940979
1321,73100.0,9.74835968017578,2.6560330390930176,-1.514656662940979
1322,73200.0,9.74835968017578,2.6560330390930176,-1.514656662940979
1323,73300.0,5.838487148284912,2.179861307144165,-1.6797614097595217
1324,73400.0,5.838487148284912,2.179861307144165,-1.6797614097595217
1325,73500.0,13.907085418701172,0.2297109663486481,-4.484149932861328
1326,73600.0,13.907085418701172,0.2297109663486481,-4.484149932861328
1327,73700.0,9.260223388671877,0.5503491759300232,0.6101697683334351
1328,73800.0,9.260223388671877,0.5503491759300232,0.6101697683334351
1329,73900.0,6.766902446746826,2.737389087677002,-0.8853443264961243
1330,74000.0,6.766902446746826,2.737389087677002,-0.8853443264961243
1331,74100.0,6.900900363922119,2.75174617767334,-0.6652047038078308
1332,74200.0,6.900900363922119,2.75174617767334,-0.6652047038078308
1333,74300.0,13.490734100341795,0.916451096534729,-2.6847469806671143
1334,74400.0,13.490734100341795,0.916451096534729,-2.6847469806671143
1335,74500.0,13.490734100341795,0.916451096534729,-2.6847469806671143
1336,74600.0,9.55214786529541,2.1391832828521733,-2.1367905139923096
1337,74700.0,9.55214786529541,2.1391832828521733,-2.1367905139923096
1338,74800.0,7.594818592071532,2.5986053943634038,-1.3974084854125977
1339,74900.0,7.594818592071532,2.5986053943634038,-1.3974084854125977
1340,74000.0,6.766902446746826,2.737389087677002,-0.8853443264961243
1341,74100.0,6.900900363922119,2.75174617767334,-0.6652047038078308
1342,74200.0,6.900900363922119,2.75174617767334,-0.6652047038078308
1343,74300.0,13.490734100341795,0.916451096534729,-2.6847469806671143
1344,74400.0,13.490734100341795,0.916451096534729,-2.6847469806671143
1345,74500.0,13.490734100341795,0.916451096534729,-2.6847469806671143
1346,74600.0,9.55214786529541,2.1391832828521733,-2.1367905139923096
1347,74700.0,9.55214786529541,2.1391832828521733,-2.1367905139923096
1348,74800.0,7.594818592071532,2.5986053943634038,-1.3974084854125977
1349,74900.0,7.594818592071532,2.5986053943634038,-1.3974084854125977
1350,75000.0,7.594818592071532,2.5986053943634038,-1.3974084854125977
1351,75100.0,12.973884582519533,1.0289137363433838,-2.995814085006714
1352,75200.0,12.973884582519533,1.0289137363433838,-2.995814085006714
1353,75300.0,7.0540409088134775,1.0073783397674558,-2.4693927764892583
1354,75400.0,7.0540409088134775,1.0073783397674558,-2.4693927764892583
1355,75500.0,8.298308372497559,1.306481122970581,-1.902293920516968
1356,75600.0,8.298308372497559,1.306481122970581,-1.902293920516968
1357,75700.0,5.862415313720702,1.7682960033416748,-1.5122638940811155
1358,75800.0,5.862415313720702,1.7682960033416748,-1.5122638940811155
1359,75900.0,14.782857894897461,2.629711866378784,-1.3112668991088867
1360,75000.0,7.594818592071532,2.5986053943634038,-1.3974084854125977
1361,75100.0,12.973884582519533,1.0289137363433838,-2.995814085006714
1362,75200.0,12.973884582519533,1.0289137363433838,-2.995814085006714
1363,75300.0,7.0540409088134775,1.0073783397674558,-2.4693927764892583
1364,75400.0,7.0540409088134775,1.0073783397674558,-2.4693927764892583
1365,75500.0,8.298308372497559,1.306481122970581,-1.902293920516968
1366,75600.0,8.298308372497559,1.306481122970581,-1.902293920516968
1367,75700.0,5.862415313720702,1.7682960033416748,-1.5122638940811155
1368,75800.0,5.862415313720702,1.7682960033416748,-1.5122638940811155
1369,75900.0,14.782857894897461,2.629711866378784,-1.3112668991088867
1370,76000.0,14.782857894897461,2.629711866378784,-1.3112668991088867
1371,76100.0,14.782857894897461,2.629711866378784,-1.3112668991088867
1372,76200.0,7.953742504119872,2.524427890777588,-0.7082754969596863
1373,76300.0,7.953742504119872,2.524427890777588,-0.7082754969596863
1374,76400.0,8.810372352600098,2.210968255996704,-1.356730580329895
1375,76500.0,8.810372352600098,2.210968255996704,-1.356730580329895
1376,76600.0,8.810372352600098,2.210968255996704,-1.356730580329895
1377,76700.0,8.159524917602539,2.132004976272583,-1.856830358505249
1378,76800.0,8.159524917602539,2.132004976272583,-1.856830358505249
1379,76900.0,5.871986389160156,2.029113531112671,-2.359323024749756
1380,76000.0,14.782857894897461,2.629711866378784,-1.3112668991088867
1381,76100.0,14.782857894897461,2.629711866378784,-1.3112668991088867
1382,76200.0,7.953742504119872,2.524427890777588,-0.7082754969596863
1383,76300.0,7.953742504119872,2.524427890777588,-0.7082754969596863
1384,76400.0,8.810372352600098,2.210968255996704,-1.356730580329895
1385,76500.0,8.810372352600098,2.210968255996704,-1.356730580329895
1386,76600.0,8.810372352600098,2.210968255996704,-1.356730580329895
1387,76700.0,8.159524917602539,2.132004976272583,-1.856830358505249
1388,76800.0,8.159524917602539,2.132004976272583,-1.856830358505249
1389,76900.0,5.871986389160156,2.029113531112671,-2.359323024749756
1390,77000.0,5.871986389160156,2.029113531112671,-2.359323024749756
1391,77100.0,8.580661773681639,1.3950155973434448,-3.445664882659912
1392,77200.0,8.580661773681639,1.3950155973434448,-3.445664882659912
1393,77300.0,8.518448829650879,1.1724830865859983,-2.7732813358306885
1394,77400.0,8.518448829650879,1.1724830865859983,-2.7732813358306885
1395,77500.0,6.7621169090271,1.6079767942428589,-2.4598214626312256
1396,77600.0,6.7621169090271,1.6079767942428589,-2.4598214626312256
1397,77700.0,15.610774993896484,1.9118653535842896,-3.2207393646240234
1398,77800.0,15.610774993896484,1.9118653535842896,-3.2207393646240234
1399,77900.0,15.610774993896484,1.9118653535842896,-3.2207393646240234
1400,77000.0,5.871986389160156,2.029113531112671,-2.359323024749756
1401,77100.0,8.580661773681639,1.3950155973434448,-3.445664882659912
1402,77200.0,8.580661773681639,1.3950155973434448,-3.445664882659912
1403,77300.0,8.518448829650879,1.1724830865859983,-2.7732813358306885
1404,77400.0,8.518448829650879,1.1724830865859983,-2.7732813358306885
1405,77500.0,6.7621169090271,1.6079767942428589,-2.4598214626312256
1406,77600.0,6.7621169090271,1.6079767942428589,-2.4598214626312256
1407,77700.0,15.610774993896484,1.9118653535842896,-3.2207393646240234
1408,77800.0,15.610774993896484,1.9118653535842896,-3.2207393646240234
1409,77900.0,15.610774993896484,1.9118653535842896,-3.2207393646240234
1410,78000.0,7.83410120010376,2.476571559906006,-1.3830513954162598
1411,78100.0,7.83410120010376,2.476571559906006,-1.3830513954162598
1412,78200.0,7.872386455535889,1.856830358505249,-1.5026925802230835
1413,78300.0,7.872386455535889,1.856830358505249,-1.5026925802230835
1414,78400.0,7.872386455535889,1.856830358505249,-1.5026925802230835
1415,78500.0,17.505889892578125,3.476771354675293,-3.141776323318481
1416,78600.0,17.505889892578125,3.476771354675293,-3.141776323318481
1417,78700.0,7.034898281097412,0.5934200286865234,-2.476571559906006
1418,78800.0,7.034898281097412,0.5934200286865234,-2.476571559906006
1419,78900.0,7.905886173248291,1.5672988891601562,-3.6514470577239986
1420,78000.0,7.83410120010376,2.476571559906006,-1.3830513954162598
1421,78100.0,7.83410120010376,2.476571559906006,-1.3830513954162598
1422,78200.0,7.872386455535889,1.856830358505249,-1.5026925802230835
1423,78300.0,7.872386455535889,1.856830358505249,-1.5026925802230835
1424,78400.0,7.872386455535889,1.856830358505249,-1.5026925802230835
1425,78500.0,17.505889892578125,3.476771354675293,-3.141776323318481
1426,78600.0,17.505889892578125,3.476771354675293,-3.141776323318481
1427,78700.0,7.034898281097412,0.5934200286865234,-2.476571559906006
1428,78800.0,7.034898281097412,0.5934200286865234,-2.476571559906006
1429,78900.0,7.905886173248291,1.5672988891601562,-3.6514470577239986
1430,79000.0,7.905886173248291,1.5672988891601562,-3.6514470577239986
1431,79100.0,8.724230766296388,1.557727575302124,-2.933600425720215
1432,79200.0,8.724230766296388,1.557727575302124,-2.933600425720215
1433,79300.0,8.417949676513674,1.9142580032348635,-1.1413763761520386
1434,79400.0,8.417949676513674,1.9142580032348635,-1.1413763761520386
1435,79500.0,8.417949676513674,1.9142580032348635,-1.1413763761520386
1436,79600.0,9.518648147583008,2.3712873458862305,-1.356730580329895
1437,79700.0,9.518648147583008,2.3712873458862305,-1.356730580329895
1438,79800.0,9.327221870422363,1.8735800981521609,-2.3736801147460938
1439,79900.0,9.327221870422363,1.8735800981521609,-2.3736801147460938
1440,79000.0,7.905886173248291,1.5672988891601562,-3.6514470577239986
1441,79100.0,8.724230766296388,1.557727575302124,-2.933600425720215
1442,79200.0,8.724230766296388,1.557727575302124,-2.933600425720215
1443,79300.0,8.417949676513674,1.9142580032348635,-1.1413763761520386
1444,79400.0,8.417949676513674,1.9142580032348635,-1.1413763761520386
1445,79500.0,8.417949676513674,1.9142580032348635,-1.1413763761520386
1446,79600.0,9.518648147583008,2.3712873458862305,-1.356730580329895
1447,79700.0,9.518648147583008,2.3712873458862305,-1.356730580329895
1448,79800.0,9.327221870422363,1.8735800981521609,-2.3736801147460938
1449,79900.0,9.327221870422363,1.8735800981521609,-2.3736801147460938
1450,80000.0,7.331608772277832,2.289931058883667,-1.519442439079285
1451,80100.0,7.331608772277832,2.289931058883667,-1.519442439079285
1452,80200.0,16.328620910644528,1.730010747909546,-4.950750350952148
1453,80300.0,16.328620910644528,1.730010747909546,-4.950750350952148
1454,80400.0,7.1641106605529785,0.9930213689804076,-2.548356056213379
1455,80500.0,7.1641106605529785,0.9930213689804076,-2.548356056213379
1456,80600.0,7.1641106605529785,0.9930213689804076,-2.548356056213379
1457,80700.0,8.97787094116211,0.2679961323738098,-2.2157537937164307
1458,80800.0,8.97787094116211,0.2679961323738098,-2.2157537937164307
1459,80900.0,7.207180976867676,2.75174617767334,-1.5002998113632202
1460,80000.0,7.331608772277832,2.289931058883667,-1.519442439079285
1461,80100.0,7.331608772277832,2.289931058883667,-1.519442439079285
1462,80200.0,16.328620910644528,1.730010747909546,-4.950750350952148
1463,80300.0,16.328620910644528,1.730010747909546,-4.950750350952148
1464,80400.0,7.1641106605529785,0.9930213689804076,-2.548356056213379
1465,80500.0,7.1641106605529785,0.9930213689804076,-2.548356056213379
1466,80600.0,7.1641106605529785,0.9930213689804076,-2.548356056213379
1467,80700.0,8.97787094116211,0.2679961323738098,-2.2157537937164307
1468,80800.0,8.97787094116211,0.2679961323738098,-2.2157537937164307
1469,80900.0,7.207180976867676,2.75174617767334,-1.5002998113632202
1470,81000.0,7.207180976867676,2.75174617767334,-1.5002998113632202
1471,81100.0,12.452248573303224,1.84965181350708,-1.2490534782409668
1472,81200.0,12.452248573303224,1.84965181350708,-1.2490534782409668
1473,81300.0,12.452248573303224,1.84965181350708,-1.2490534782409668
1474,81400.0,8.86780071258545,1.998006820678711,-2.1056838035583496
1475,81500.0,8.86780071258545,1.998006820678711,-2.1056838035583496
1476,81600.0,6.7142601013183585,4.869394302368164,-2.878565788269043
1477,81700.0,6.7142601013183585,4.869394302368164,-2.878565788269043
1478,81800.0,10.437491416931152,2.462214469909668,-1.1820544004440308
1479,81900.0,10.437491416931152,2.462214469909668,-1.1820544004440308
1480,81000.0,7.207180976867676,2.75174617767334,-1.5002998113632202
1481,81100.0,12.452248573303224,1.84965181350708,-1.2490534782409668
1482,81200.0,12.452248573303224,1.84965181350708,-1.2490534782409668
1483,81300.0,12.452248573303224,1.84965181350708,-1.2490534782409668
1484,81400.0,8.86780071258545,1.998006820678711,-2.1056838035583496
1485,81500.0,8.86780071258545,1.998006820678711,-2.1056838035583496
1486,81600.0,6.7142601013183585,4.869394302368164,-2.878565788269043
1487,81700.0,6.7142601013183585,4.869394302368164,-2.878565788269043
1488,81800.0,10.437491416931152,2.462214469909668,-1.1820544004440308
1489,81900.0,10.437491416931152,2.462214469909668,-1.1820544004440308
1490,82000.0,10.437491416931152,2.462214469909668,-1.1820544004440308
1491,82100.0,8.973085403442383,4.462614059448242,0.3278167247772217
1492,82200.0,8.973085403442383,4.462614059448242,0.3278167247772217
1493,82300.0,9.3128662109375,3.7328033447265625,-1.5936198234558103
1494,82400.0,9.3128662109375,3.7328033447265625,-1.5936198234558103
1495,82500.0,8.47059154510498,2.2516460418701167,-0.6556334495544434
1496,82600.0,8.47059154510498,2.2516460418701167,-0.6556334495544434
1497,82700.0,9.719645500183104,2.3090739250183105,-0.5910272002220154
1498,82800.0,9.719645500183104,2.3090739250183105,-0.5910272002220154
1499,82900.0,9.719645500183104,2.3090739250183105,-0.5910272002220154
1500,82000.0,10.437491416931152,2.462214469909668,-1.1820544004440308
1501,82100.0,8.973085403442383,4.462614059448242,0.3278167247772217
1502,82200.0,8.973085403442383,4.462614059448242,0.3278167247772217
1503,82300.0,9.3128662109375,3.7328033447265625,-1.5936198234558103
1504,82400.0,9.3128662109375,3.7328033447265625,-1.5936198234558103
1505,82500.0,8.47059154510498,2.2516460418701167,-0.6556334495544434
1506,82600.0,8.47059154510498,2.2516460418701167,-0.6556334495544434
1507,82700.0,9.719645500183104,2.3090739250183105,-0.5910272002220154
1508,82800.0,9.719645500183104,2.3090739250183105,-0.5910272002220154
1509,82900.0,9.719645500183104,2.3090739250183105,-0.5910272002220154
1510,83000.0,9.461220741271973,1.7371891736984253,-1.1198409795761108
1511,83100.0,9.461220741271973,1.7371891736984253,-1.1198409795761108
1512,83200.0,5.225924491882324,3.5030922889709477,-2.060220241546631
1513,83300.0,5.225924491882324,3.5030922889709477,-2.060220241546631
1514,83400.0,15.486347198486328,3.426522016525269,-5.015356063842773
1515,83500.0,15.486347198486328,3.426522016525269,-5.015356063842773
1516,83600.0,9.767501831054688,1.3950155973434448,-3.0221347808837886
1517,83700.0,9.767501831054688,1.3950155973434448,-3.0221347808837886
1518,83800.0,9.150154113769533,0.44745784997940063,-2.8929224014282227
1519,83900.0,9.150154113769533,0.44745784997940063,-2.8929224014282227
1520,83000.0,9.461220741271973,1.7371891736984253,-1.1198409795761108
1521,83100.0,9.461220741271973,1.7371891736984253,-1.1198409795761108
1522,83200.0,5.225924491882324,3.5030922889709477,-2.060220241546631
1523,83300.0,5.225924491882324,3.5030922889709477,-2.060220241546631
1524,83400.0,15.486347198486328,3.426522016525269,-5.015356063842773
1525,83500.0,15.486347198486328,3.426522016525269,-5.015356063842773
1526,83600.0,9.767501831054688,1.3950155973434448,-3.0221347808837886
1527,83700.0,9.767501831054688,1.3950155973434448,-3.0221347808837886
1528,83800.0,9.150154113769533,0.44745784997940063,-2.8929224014282227
1529,83900.0,9.150154113769533,0.44745784997940063,-2.8929224014282227
1530,84000.0,8.465806007385254,1.4500504732131958,-1.368694543838501
1531,84100.0,8.465806007385254,1.4500504732131958,-1.368694543838501
1532,84200.0,8.465806007385254,1.4500504732131958,-1.368694543838501
1533,84300.0,8.733802795410156,2.0817556381225586,-0.2632104754447937
1534,84400.0,8.733802795410156,2.0817556381225586,-0.2632104754447937
1535,84500.0,10.092925071716307,2.816352128982544,-0.94037926197052
1536,84600.0,10.092925071716307,2.816352128982544,-0.94037926197052
1537,84700.0,8.98265552520752,2.6608188152313232,-1.3591231107711792
1538,84800.0,8.98265552520752,2.6608188152313232,-1.3591231107711792
1539,84900.0,5.221138954162598,1.9764715433120728,-1.2179466485977173
1540,84000.0,8.465806007385254,1.4500504732131958,-1.368694543838501
1541,84100.0,8.465806007385254,1.4500504732131958,-1.368694543838501
1542,84200.0,8.465806007385254,1.4500504732131958,-1.368694543838501
1543,84300.0,8.733802795410156,2.0817556381225586,-0.2632104754447937
1544,84400.0,8.733802795410156,2.0817556381225586,-0.2632104754447937
1545,84500.0,10.092925071716307,2.816352128982544,-0.94037926197052
1546,84600.0,10.092925071716307,2.816352128982544,-0.94037926197052
1547,84700.0,8.98265552520752,2.6608188152313232,-1.3591231107711792
1548,84800.0,8.98265552520752,2.6608188152313232,-1.3591231107711792
1549,84900.0,5.221138954162598,1.9764715433120728,-1.2179466485977173
1550,85000.0,5.221138954162598,1.9764715433120728,-1.2179466485977173
1551,85100.0,15.811772346496582,2.6081764698028564,-4.5104708671569815
1552,85200.0,15.811772346496582,2.6081764698028564,-4.5104708671569815
1553,85300.0,10.63848876953125,1.1102697849273682,-3.4672000408172607
1554,85400.0,10.63848876953125,1.1102697849273682,-3.4672000408172607
1555,85500.0,10.63848876953125,1.1102697849273682,-3.4672000408172607
1556,85600.0,9.51386260986328,1.1126624345779421,-2.801995038986206
1557,85700.0,9.51386260986328,1.1126624345779421,-2.801995038986206
1558,85800.0,6.900900363922119,1.5409778356552124,-2.823530912399292
1559,85900.0,6.900900363922119,1.5409778356552124,-2.823530912399292
1560,85000.0,5.221138954162598,1.9764715433120728,-1.2179466485977173
1561,85100.0,15.811772346496582,2.6081764698028564,-4.5104708671569815
1562,85200.0,15.811772346496582,2.6081764698028564,-4.5104708671569815
1563,85300.0,10.63848876953125,1.1102697849273682,-3.4672000408172607
1564,85400.0,10.63848876953125,1.1102697849273682,-3.4672000408172607
1565,85500.0,10.63848876953125,1.1102697849273682,-3.4672000408172607
1566,85600.0,9.51386260986328,1.1126624345779421,-2.801995038986206
1567,85700.0,9.51386260986328,1.1126624345779421,-2.801995038986206
1568,85800.0,6.900900363922119,1.5409778356552124,-2.823530912399292
1569,85900.0,6.900900363922119,1.5409778356552124,-2.823530912399292
1570,86000.0,6.900900363922119,1.5409778356552124,-2.823530912399292
1571,86100.0,6.900900363922119,1.5409778356552124,-2.823530912399292
1572,86200.0,6.900900363922119,1.5409778356552124,-2.823530912399292
1573,86300.0,8.255237579345701,2.998206615447998,-1.2227323055267334
1574,86400.0,8.255237579345701,2.998206615447998,-1.2227323055267334
1575,86500.0,9.805787086486816,2.411965131759644,-1.6462620496749878
1576,86600.0,9.805787086486816,2.411965131759644,-1.6462620496749878
1577,86700.0,7.604390144348144,2.1822540760040283,-1.9621145725250244
1578,86800.0,7.604390144348144,2.1822540760040283,-1.9621145725250244
1579,86900.0,13.66301727294922,3.146562099456787,-1.4620146751403809
1580,86000.0,6.900900363922119,1.5409778356552124,-2.823530912399292
1581,86100.0,6.900900363922119,1.5409778356552124,-2.823530912399292
1582,86200.0,6.900900363922119,1.5409778356552124,-2.823530912399292
1583,86300.0,8.255237579345701,2.998206615447998,-1.2227323055267334
1584,86400.0,8.255237579345701,2.998206615447998,-1.2227323055267334
1585,86500.0,9.805787086486816,2.411965131759644,-1.6462620496749878
1586,86600.0,9.805787086486816,2.411965131759644,-1.6462620496749878
1587,86700.0,7.604390144348144,2.1822540760040283,-1.9621145725250244
1588,86800.0,7.604390144348144,2.1822540760040283,-1.9621145725250244
1589,86900.0,13.66301727294922,3.146562099456787,-1.4620146751403809
1590,87000.0,13.66301727294922,3.146562099456787,-1.4620146751403809
1591,87100.0,13.66301727294922,3.146562099456787,-1.4620146751403809
1592,87200.0,8.140382766723633,0.00957129057496786,-3.115455150604248
1593,87300.0,8.140382766723633,0.00957129057496786,-3.115455150604248
1594,87400.0,8.130810737609862,1.65583336353302,-2.9718859195709233
1595,87500.0,8.130810737609862,1.65583336353302,-2.9718859195709233
1596,87600.0,6.355337142944336,1.710868239402771,-1.8616160154342647
1597,87700.0,6.355337142944336,1.710868239402771,-1.8616160154342647
1598,87800.0,6.355337142944336,1.710868239402771,-1.8616160154342647
1599,87900.0,13.15573787689209,2.581855773925781,-3.562912940979004
