,timestamp,ax,ay,az
0,0.0,-6.4356141090393075,-4.9374423027038565,4.119822502136231
1,50.0,-6.4356141090393075,-4.9374423027038565,4.119822502136231
2,100.0,-6.4356141090393075,-4.9374423027038565,4.119822502136231
3,150.0,-6.4356141090393075,-4.9374423027038565,4.119822502136231
4,200.0,-5.944802761077881,-8.507795333862305,1.5592238903045654
5,250.0,-5.944802761077881,-8.507795333862305,1.5592238903045654
6,300.0,-5.944802761077881,-8.507795333862305,1.5592238903045654
7,350.0,-5.944802761077881,-8.507795333862305,1.5592238903045654
8,400.0,-5.009867191314697,-6.664858818054199,0.0802057534456253
9,450.0,-5.009867191314697,-6.664858818054199,0.0802057534456253
10,500.0,-5.009867191314697,-6.664858818054199,0.0802057534456253
11,550.0,2.056619167327881,-7.1197571754455575,1.4640543460845947
12,600.0,2.056619167327881,-7.1197571754455575,1.4640543460845947
13,650.0,2.056619167327881,-7.1197571754455575,1.4640543460845947
14,700.0,2.056619167327881,-7.1197571754455575,1.4640543460845947
15,750.0,-2.2236149311065674,-10.383652687072754,-0.5261258482933044
16,800.0,-2.2236149311065674,-10.383652687072754,-0.5261258482933044
17,850.0,-2.2236149311065674,-10.383652687072754,-0.5261258482933044
18,900.0,0.6177040338516235,-9.3828763961792,-0.38486793637275696
19,950.0,0.6177040338516235,-9.3828763961792,-0.38486793637275696
20,1000.0,0.6177040338516235,-9.3828763961792,-0.38486793637275696
21,1050.0,0.6177040338516235,-9.3828763961792,-0.38486793637275696
22,1100.0,0.15502455830574036,-9.794678688049316,-0.3794809579849243
23,1150.0,0.15502455830574036,-9.794678688049316,-0.3794809579849243
24,1200.0,0.15502455830574036,-9.794678688049316,-0.3794809579849243
25,1250.0,0.15502455830574036,-9.794678688049316,-0.3794809579849243
26,1300.0,1.0348936319351196,-9.5007905960083,-0.6206967830657959
27,1350.0,1.0348936319351196,-9.5007905960083,-0.6206967830657959
28,1400.0,1.0348936319351196,-9.5007905960083,-0.6206967830657959
29,1450.0,0.8415619134902954,-9.543288230895996,-1.0031704902648926
30,1500.0,0.8415619134902954,-9.543288230895996,-1.0031704902648926
31,1550.0,0.8415619134902954,-9.543288230895996,-1.0031704902648926
32,1600.0,0.8415619134902954,-9.543288230895996,-1.0031704902648926
33,1650.0,0.7529764175415039,-9.676166534423828,-1.0408791303634644
34,1700.0,0.7529764175415039,-9.676166534423828,-1.0408791303634644
35,1750.0,0.7529764175415039,-9.676166534423828,-1.0408791303634644
36,1800.0,0.7529764175415039,-9.676166534423828,-1.0408791303634644
37,1850.0,0.6063315868377686,-9.578003883361816,-0.8690952062606812
38,1900.0,0.6063315868377686,-9.578003883361816,-0.8690952062606812
39,1950.0,0.6063315868377686,-9.578003883361816,-0.8690952062606812
40,1000.0,0.6177040338516235,-9.3828763961792,-0.38486793637275696
41,1050.0,0.6177040338516235,-9.3828763961792,-0.38486793637275696
42,1100.0,0.15502455830574036,-9.794678688049316,-0.3794809579849243
43,1150.0,0.15502455830574036,-9.794678688049316,-0.3794809579849243
44,1200.0,0.15502455830574036,-9.794678688049316,-0.3794809579849243
45,1250.0,0.15502455830574036,-9.794678688049316,-0.3794809579849243
46,1300.0,1.0348936319351196,-9.5007905960083,-0.6206967830657959
47,1350.0,1.0348936319351196,-9.5007905960083,-0.6206967830657959
48,1400.0,1.0348936319351196,-9.5007905960083,-0.6206967830657959
49,1450.0,0.8415619134902954,-9.543288230895996,-1.0031704902648926
50,1500.0,0.8415619134902954,-9.543288230895996,-1.0031704902648926
51,1550.0,0.8415619134902954,-9.543288230895996,-1.0031704902648926
52,1600.0,0.8415619134902954,-9.543288230895996,-1.0031704902648926
53,1650.0,0.7529764175415039,-9.676166534423828,-1.0408791303634644
54,1700.0,0.7529764175415039,-9.676166534423828,-1.0408791303634644
55,1750.0,0.7529764175415039,-9.676166534423828,-1.0408791303634644
56,1800.0,0.7529764175415039,-9.676166534423828,-1.0408791303634644
57,1850.0,0.6063315868377686,-9.578003883361816,-0.8690952062606812
58,1900.0,0.6063315868377686,-9.578003883361816,-0.8690952062606812
59,1950.0,0.6063315868377686,-9.578003883361816,-0.8690952062606812
60,2000.0,0.6829460263252258,-9.66299819946289,-0.4578910768032074
61,2050.0,0.6829460263252258,-9.66299819946289,-0.4578910768032074
62,2100.0,0.6829460263252258,-9.66299819946289,-0.4578910768032074
63,2150.0,0.6829460263252258,-9.66299819946289,-0.4578910768032074
64,2200.0,0.061650693416595466,-9.592369079589844,-0.9050082564353944
65,2250.0,0.061650693416595466,-9.592369079589844,-0.9050082564353944
66,2300.0,0.061650693416595466,-9.592369079589844,-0.9050082564353944
67,2350.0,-0.4704606235027313,-9.61212158203125,-1.483207941055298
68,2400.0,-0.4704606235027313,-9.61212158203125,-1.483207941055298
69,2450.0,-0.4704606235027313,-9.61212158203125,-1.483207941055298
70,2500.0,-0.4704606235027313,-9.61212158203125,-1.483207941055298
71,2550.0,1.3210008144378662,-9.10574722290039,0.4489128291606903
72,2600.0,1.3210008144378662,-9.10574722290039,0.4489128291606903
73,2650.0,1.3210008144378662,-9.10574722290039,0.4489128291606903
74,2700.0,-0.6985083222389221,-8.376712799072267,-0.6799532771110535
75,2750.0,-0.6985083222389221,-8.376712799072267,-0.6799532771110535
76,2800.0,-0.6985083222389221,-8.376712799072267,-0.6799532771110535
77,2850.0,-0.6985083222389221,-8.376712799072267,-0.6799532771110535
78,2900.0,-1.0881646871566772,-14.207192420959473,5.51624059677124
79,2950.0,-1.0881646871566772,-14.207192420959473,5.51624059677124
80,2000.0,0.6829460263252258,-9.66299819946289,-0.4578910768032074
81,2050.0,0.6829460263252258,-9.66299819946289,-0.4578910768032074
82,2100.0,0.6829460263252258,-9.66299819946289,-0.4578910768032074
83,2150.0,0.6829460263252258,-9.66299819946289,-0.4578910768032074
84,2200.0,0.061650693416595466,-9.592369079589844,-0.9050082564353944
85,2250.0,0.061650693416595466,-9.592369079589844,-0.9050082564353944
86,2300.0,0.061650693416595466,-9.592369079589844,-0.9050082564353944
87,2350.0,-0.4704606235027313,-9.61212158203125,-1.483207941055298
88,2400.0,-0.4704606235027313,-9.61212158203125,-1.483207941055298
89,2450.0,-0.4704606235027313,-9.61212158203125,-1.483207941055298
90,2500.0,-0.4704606235027313,-9.61212158203125,-1.483207941055298
91,2550.0,1.3210008144378662,-9.10574722290039,0.4489128291606903
92,2600.0,1.3210008144378662,-9.10574722290039,0.4489128291606903
93,2650.0,1.3210008144378662,-9.10574722290039,0.4489128291606903
94,2700.0,-0.6985083222389221,-8.376712799072267,-0.6799532771110535
95,2750.0,-0.6985083222389221,-8.376712799072267,-0.6799532771110535
96,2800.0,-0.6985083222389221,-8.376712799072267,-0.6799532771110535
97,2850.0,-0.6985083222389221,-8.376712799072267,-0.6799532771110535
98,2900.0,-1.0881646871566772,-14.207192420959473,5.51624059677124
99,2950.0,-1.0881646871566772,-14.207192420959473,5.51624059677124
100,3000.0,-1.0881646871566772,-14.207192420959473,5.51624059677124
101,3050.0,-1.0881646871566772,-14.207192420959473,5.51624059677124
102,3100.0,0.9391255974769592,-9.452308654785156,1.986588835716248
103,3150.0,0.9391255974769592,-9.452308654785156,1.986588835716248
104,3200.0,0.9391255974769592,-9.452308654785156,1.986588835716248
105,3250.0,-2.0021512508392334,-10.24658489227295,3.403357744216919
106,3300.0,-2.0021512508392334,-10.24658489227295,3.403357744216919
107,3350.0,-2.0021512508392334,-10.24658489227295,3.403357744216919
108,3400.0,-2.0021512508392334,-10.24658489227295,3.403357744216919
109,3450.0,-0.9714473485946656,-5.936423301696777,0.8720879554748535
110,3500.0,-0.9714473485946656,-5.936423301696777,0.8720879554748535
111,3550.0,-0.9714473485946656,-5.936423301696777,0.8720879554748535
112,3600.0,-0.9714473485946656,-5.936423301696777,0.8720879554748535
113,3650.0,-3.751713991165161,-9.7605619430542,0.5841852426528931
114,3700.0,-3.751713991165161,-9.7605619430542,0.5841852426528931
115,3750.0,-3.751713991165161,-9.7605619430542,0.5841852426528931
116,3800.0,-4.216787815093993,-10.20528507232666,2.6216509342193604
117,3850.0,-4.216787815093993,-10.20528507232666,2.6216509342193604
118,3900.0,-4.216787815093993,-10.20528507232666,2.6216509342193604
119,3950.0,-4.216787815093993,-10.20528507232666,2.6216509342193604
120,3000.0,-1.0881646871566772,-14.207192420959473,5.51624059677124
121,3050.0,-1.0881646871566772,-14.207192420959473,5.51624059677124
122,3100.0,0.9391255974769592,-9.452308654785156,1.986588835716248
123,3150.0,0.9391255974769592,-9.452308654785156,1.986588835716248
124,3200.0,0.9391255974769592,-9.452308654785156,1.986588835716248
125,3250.0,-2.0021512508392334,-10.24658489227295,3.403357744216919
126,3300.0,-2.0021512508392334,-10.24658489227295,3.403357744216919
127,3350.0,-2.0021512508392334,-10.24658489227295,3.403357744216919
128,3400.0,-2.0021512508392334,-10.24658489227295,3.403357744216919
129,3450.0,-0.9714473485946656,-5.936423301696777,0.8720879554748535
130,3500.0,-0.9714473485946656,-5.936423301696777,0.8720879554748535
131,3550.0,-0.9714473485946656,-5.936423301696777,0.8720879554748535
132,3600.0,-0.9714473485946656,-5.936423301696777,0.8720879554748535
133,3650.0,-3.751713991165161,-9.7605619430542,0.5841852426528931
134,3700.0,-3.751713991165161,-9.7605619430542,0.5841852426528931
135,3750.0,-3.751713991165161,-9.7605619430542,0.5841852426528931
136,3800.0,-4.216787815093993,-10.20528507232666,2.6216509342193604
137,3850.0,-4.216787815093993,-10.20528507232666,2.6216509342193604
138,3900.0,-4.216787815093993,-10.20528507232666,2.6216509342193604
139,3950.0,-4.216787815093993,-10.20528507232666,2.6216509342193604
140,4000.0,0.30945056676864624,-8.702922821044924,-2.668337821960449
141,4050.0,0.30945056676864624,-8.702922821044924,-2.668337821960449
142,4100.0,0.30945056676864624,-8.702922821044924,-2.668337821960449
143,4150.0,-1.2258312702178955,-10.99776554107666,-0.9870096445083618
144,4200.0,-1.2258312702178955,-10.99776554107666,-0.9870096445083618
145,4250.0,-1.2258312702178955,-10.99776554107666,-0.9870096445083618
146,4300.0,-1.2258312702178955,-10.99776554107666,-0.9870096445083618
147,4350.0,-0.9989806413650512,-9.693524360656738,-1.4748282432556152
148,4400.0,-0.9989806413650512,-9.693524360656738,-1.4748282432556152
149,4450.0,-0.9989806413650512,-9.693524360656738,-1.4748282432556152
150,4500.0,-0.9989806413650512,-9.693524360656738,-1.4748282432556152
151,4550.0,-2.0356700420379643,-9.436147689819336,-0.5219359993934631
152,4600.0,-2.0356700420379643,-9.436147689819336,-0.5219359993934631
153,4650.0,-2.0356700420379643,-9.436147689819336,-0.5219359993934631
154,4700.0,-1.578976035118103,-8.747814178466799,0.5321113467216492
155,4750.0,-1.578976035118103,-8.747814178466799,0.5321113467216492
156,4800.0,-1.578976035118103,-8.747814178466799,0.5321113467216492
157,4850.0,-1.578976035118103,-8.747814178466799,0.5321113467216492
158,4900.0,-1.766920804977417,-8.474276542663574,-0.8684966564178467
159,4950.0,-1.766920804977417,-8.474276542663574,-0.8684966564178467
160,4000.0,0.30945056676864624,-8.702922821044924,-2.668337821960449
161,4050.0,0.30945056676864624,-8.702922821044924,-2.668337821960449
162,4100.0,0.30945056676864624,-8.702922821044924,-2.668337821960449
163,4150.0,-1.2258312702178955,-10.99776554107666,-0.9870096445083618
164,4200.0,-1.2258312702178955,-10.99776554107666,-0.9870096445083618
165,4250.0,-1.2258312702178955,-10.99776554107666,-0.9870096445083618
166,4300.0,-1.2258312702178955,-10.99776554107666,-0.9870096445083618
167,4350.0,-0.9989806413650512,-9.693524360656738,-1.4748282432556152
168,4400.0,-0.9989806413650512,-9.693524360656738,-1.4748282432556152
169,4450.0,-0.9989806413650512,-9.693524360656738,-1.4748282432556152
170,4500.0,-0.9989806413650512,-9.693524360656738,-1.4748282432556152
171,4550.0,-2.0356700420379643,-9.436147689819336,-0.5219359993934631
172,4600.0,-2.0356700420379643,-9.436147689819336,-0.5219359993934631
173,4650.0,-2.0356700420379643,-9.436147689819336,-0.5219359993934631
174,4700.0,-1.578976035118103,-8.747814178466799,0.5321113467216492
175,4750.0,-1.578976035118103,-8.747814178466799,0.5321113467216492
176,4800.0,-1.578976035118103,-8.747814178466799,0.5321113467216492
177,4850.0,-1.578976035118103,-8.747814178466799,0.5321113467216492
178,4900.0,-1.766920804977417,-8.474276542663574,-0.8684966564178467
179,4950.0,-1.766920804977417,-8.474276542663574,-0.8684966564178467
180,5000.0,-1.766920804977417,-8.474276542663574,-0.8684966564178467
181,5050.0,-2.9233202934265137,-8.935759544372559,1.3072341680526731
182,5100.0,-2.9233202934265137,-8.935759544372559,1.3072341680526731
183,5150.0,-2.9233202934265137,-8.935759544372559,1.3072341680526731
184,5200.0,-2.9233202934265137,-8.935759544372559,1.3072341680526731
185,5250.0,2.3295583724975586,-14.314931869506836,-0.05147533491253853
186,5300.0,2.3295583724975586,-14.314931869506836,-0.05147533491253853
187,5350.0,2.3295583724975586,-14.314931869506836,-0.05147533491253853
188,5400.0,2.3295583724975586,-14.314931869506836,-0.05147533491253853
189,5450.0,0.5596446394920349,-6.2009825706481925,0.7745242714881897
190,5500.0,0.5596446394920349,-6.2009825706481925,0.7745242714881897
191,5550.0,0.5596446394920349,-6.2009825706481925,0.7745242714881897
192,5600.0,-1.8644845485687256,-9.61451530456543,1.4754267930984497
193,5650.0,-1.8644845485687256,-9.61451530456543,1.4754267930984497
194,5700.0,-1.8644845485687256,-9.61451530456543,1.4754267930984497
195,5750.0,-1.8644845485687256,-9.61451530456543,1.4754267930984497
196,5800.0,-0.05027823522686958,-9.30686092376709,2.714426279067993
197,5850.0,-0.05027823522686958,-9.30686092376709,2.714426279067993
198,5900.0,-0.05027823522686958,-9.30686092376709,2.714426279067993
199,5950.0,-3.093308687210083,-9.13387966156006,0.14484919607639313
200,5000.0,-1.766920804977417,-8.474276542663574,-0.8684966564178467
201,5050.0,-2.9233202934265137,-8.935759544372559,1.3072341680526731
202,5100.0,-2.9233202934265137,-8.935759544372559,1.3072341680526731
203,5150.0,-2.9233202934265137,-8.935759544372559,1.3072341680526731
204,5200.0,-2.9233202934265137,-8.935759544372559,1.3072341680526731
205,5250.0,2.3295583724975586,-14.314931869506836,-0.05147533491253853
206,5300.0,2.3295583724975586,-14.314931869506836,-0.05147533491253853
207,5350.0,2.3295583724975586,-14.314931869506836,-0.05147533491253853
208,5400.0,2.3295583724975586,-14.314931869506836,-0.05147533491253853
209,5450.0,0.5596446394920349,-6.2009825706481925,0.7745242714881897
210,5500.0,0.5596446394920349,-6.2009825706481925,0.7745242714881897
211,5550.0,0.5596446394920349,-6.2009825706481925,0.7745242714881897
212,5600.0,-1.8644845485687256,-9.61451530456543,1.4754267930984497
213,5650.0,-1.8644845485687256,-9.61451530456543,1.4754267930984497
214,5700.0,-1.8644845485687256,-9.61451530456543,1.4754267930984497
215,5750.0,-1.8644845485687256,-9.61451530456543,1.4754267930984497
216,5800.0,-0.05027823522686958,-9.30686092376709,2.714426279067993
217,5850.0,-0.05027823522686958,-9.30686092376709,2.714426279067993
218,5900.0,-0.05027823522686958,-9.30686092376709,2.714426279067993
219,5950.0,-3.093308687210083,-9.13387966156006,0.14484919607639313
220,6000.0,-3.093308687210083,-9.13387966156006,0.14484919607639313
221,6050.0,-3.093308687210083,-9.13387966156006,0.14484919607639313
222,6100.0,-3.093308687210083,-9.13387966156006,0.14484919607639313
223,6150.0,-2.120664119720459,-8.833407402038574,0.4489128291606903
224,6200.0,-2.120664119720459,-8.833407402038574,0.4489128291606903
225,6250.0,-2.120664119720459,-8.833407402038574,0.4489128291606903
226,6300.0,-2.120664119720459,-8.833407402038574,0.4489128291606903
227,6350.0,-8.330026626586914,-16.550518035888672,0.6087257862091064
228,6400.0,-8.330026626586914,-16.550518035888672,0.6087257862091064
229,6450.0,-8.330026626586914,-16.550518035888672,0.6087257862091064
230,6500.0,-0.10893617570400238,-12.534244537353516,2.457648038864136
231,6550.0,-0.10893617570400238,-12.534244537353516,2.457648038864136
232,6600.0,-0.10893617570400238,-12.534244537353516,2.457648038864136
233,6650.0,-0.10893617570400238,-12.534244537353516,2.457648038864136
234,6700.0,-3.3506853580474854,-9.42597198486328,-2.5025393962860107
235,6750.0,-3.3506853580474854,-9.42597198486328,-2.5025393962860107
236,6800.0,-3.3506853580474854,-9.42597198486328,-2.5025393962860107
237,6850.0,-0.9277531504631042,-9.586383819580078,-2.4612393379211426
238,6900.0,-0.9277531504631042,-9.586383819580078,-2.4612393379211426
239,6950.0,-0.9277531504631042,-9.586383819580078,-2.4612393379211426
240,6000.0,-3.093308687210083,-9.13387966156006,0.14484919607639313
241,6050.0,-3.093308687210083,-9.13387966156006,0.14484919607639313
242,6100.0,-3.093308687210083,-9.13387966156006,0.14484919607639313
243,6150.0,-2.120664119720459,-8.833407402038574,0.4489128291606903
244,6200.0,-2.120664119720459,-8.833407402038574,0.4489128291606903
245,6250.0,-2.120664119720459,-8.833407402038574,0.4489128291606903
246,6300.0,-2.120664119720459,-8.833407402038574,0.4489128291606903
247,6350.0,-8.330026626586914,-16.550518035888672,0.6087257862091064
248,6400.0,-8.330026626586914,-16.550518035888672,0.6087257862091064
249,6450.0,-8.330026626586914,-16.550518035888672,0.6087257862091064
250,6500.0,-0.10893617570400238,-12.534244537353516,2.457648038864136
251,6550.0,-0.10893617570400238,-12.534244537353516,2.457648038864136
252,6600.0,-0.10893617570400238,-12.534244537353516,2.457648038864136
253,6650.0,-0.10893617570400238,-12.534244537353516,2.457648038864136
254,6700.0,-3.3506853580474854,-9.42597198486328,-2.5025393962860107
255,6750.0,-3.3506853580474854,-9.42597198486328,-2.5025393962860107
256,6800.0,-3.3506853580474854,-9.42597198486328,-2.5025393962860107
257,6850.0,-0.9277531504631042,-9.586383819580078,-2.4612393379211426
258,6900.0,-0.9277531504631042,-9.586383819580078,-2.4612393379211426
259,6950.0,-0.9277531504631042,-9.586383819580078,-2.4612393379211426
260,7000.0,-0.9277531504631042,-9.586383819580078,-2.4612393379211426
261,7050.0,-2.3995885848999023,-8.58620548248291,-1.1426327228546145
262,7100.0,-2.3995885848999023,-8.58620548248291,-1.1426327228546145
263,7150.0,-2.3995885848999023,-8.58620548248291,-1.1426327228546145
264,7200.0,-2.3995885848999023,-8.58620548248291,-1.1426327228546145
265,7250.0,0.4842272996902466,-8.954314231872559,-3.380014181137085
266,7300.0,0.4842272996902466,-8.954314231872559,-3.380014181137085
267,7350.0,0.4842272996902466,-8.954314231872559,-3.380014181137085
268,7400.0,-0.8930372595787048,-8.924386978149414,0.07302315533161162
269,7450.0,-0.8930372595787048,-8.924386978149414,0.07302315533161162
270,7500.0,-0.8930372595787048,-8.924386978149414,0.07302315533161162
271,7550.0,-0.8930372595787048,-8.924386978149414,0.07302315533161162
272,7600.0,-2.6803088188171387,-12.780248641967773,3.557185173034668
273,7650.0,-2.6803088188171387,-12.780248641967773,3.557185173034668
274,7700.0,-2.6803088188171387,-12.780248641967773,3.557185173034668
275,7750.0,0.0454898327589035,-8.671199798583983,2.0278887748718257
276,7800.0,0.0454898327589035,-8.671199798583983,2.0278887748718257
277,7850.0,0.0454898327589035,-8.671199798583983,2.0278887748718257
278,7900.0,0.0454898327589035,-8.671199798583983,2.0278887748718257
279,7950.0,-1.8489222526550293,-8.025962829589844,1.9093759059906008
280,7000.0,-0.9277531504631042,-9.586383819580078,-2.4612393379211426
281,7050.0,-2.3995885848999023,-8.58620548248291,-1.1426327228546145
282,7100.0,-2.3995885848999023,-8.58620548248291,-1.1426327228546145
283,7150.0,-2.3995885848999023,-8.58620548248291,-1.1426327228546145
284,7200.0,-2.3995885848999023,-8.58620548248291,-1.1426327228546145
285,7250.0,0.4842272996902466,-8.954314231872559,-3.380014181137085
286,7300.0,0.4842272996902466,-8.954314231872559,-3.380014181137085
287,7350.0,0.4842272996902466,-8.954314231872559,-3.380014181137085
288,7400.0,-0.8930372595787048,-8.924386978149414,0.07302315533161162
289,7450.0,-0.8930372595787048,-8.924386978149414,0.07302315533161162
290,7500.0,-0.8930372595787048,-8.924386978149414,0.07302315533161162
291,7550.0,-0.8930372595787048,-8.924386978149414,0.07302315533161162
292,7600.0,-2.6803088188171387,-12.780248641967773,3.557185173034668
293,7650.0,-2.6803088188171387,-12.780248641967773,3.557185173034668
294,7700.0,-2.6803088188171387,-12.780248641967773,3.557185173034668
295,7750.0,0.0454898327589035,-8.671199798583983,2.0278887748718257
296,7800.0,0.0454898327589035,-8.671199798583983,2.0278887748718257
297,7850.0,0.0454898327589035,-8.671199798583983,2.0278887748718257
298,7900.0,0.0454898327589035,-8.671199798583983,2.0278887748718257
299,7950.0,-1.8489222526550293,-8.025962829589844,1.9093759059906008
300,8000.0,-1.8489222526550293,-8.025962829589844,1.9093759059906008
301,8050.0,-1.8489222526550293,-8.025962829589844,1.9093759059906008
302,8100.0,-1.8489222526550293,-8.025962829589844,1.9093759059906008
303,8150.0,-1.392826795578003,-10.267534255981444,0.8044517636299133
304,8200.0,-1.392826795578003,-10.267534255981444,0.8044517636299133
305,8250.0,-1.392826795578003,-10.267534255981444,0.8044517636299133
306,8300.0,-2.0590133666992188,-8.808267593383789,2.2655134201049805
307,8350.0,-2.0590133666992188,-8.808267593383789,2.2655134201049805
308,8400.0,-2.0590133666992188,-8.808267593383789,2.2655134201049805
309,8450.0,-2.0590133666992188,-8.808267593383789,2.2655134201049805
310,8500.0,-3.1298201084136963,-8.240841865539549,-0.07481880486011505
311,8550.0,-3.1298201084136963,-8.240841865539549,-0.07481880486011505
312,8600.0,-3.1298201084136963,-8.240841865539549,-0.07481880486011505
313,8650.0,-3.1298201084136963,-8.240841865539549,-0.07481880486011505
314,8700.0,-3.117250680923462,-9.482834815979004,1.136048674583435
315,8750.0,-3.117250680923462,-9.482834815979004,1.136048674583435
316,8800.0,-3.117250680923462,-9.482834815979004,1.136048674583435
317,8850.0,0.4842272996902466,-13.572729110717773,-2.631826162338257
318,8900.0,0.4842272996902466,-13.572729110717773,-2.631826162338257
319,8950.0,0.4842272996902466,-13.572729110717773,-2.631826162338257
320,8000.0,-1.8489222526550293,-8.025962829589844,1.9093759059906008
321,8050.0,-1.8489222526550293,-8.025962829589844,1.9093759059906008
322,8100.0,-1.8489222526550293,-8.025962829589844,1.9093759059906008
323,8150.0,-1.392826795578003,-10.267534255981444,0.8044517636299133
324,8200.0,-1.392826795578003,-10.267534255981444,0.8044517636299133
325,8250.0,-1.392826795578003,-10.267534255981444,0.8044517636299133
326,8300.0,-2.0590133666992188,-8.808267593383789,2.2655134201049805
327,8350.0,-2.0590133666992188,-8.808267593383789,2.2655134201049805
328,8400.0,-2.0590133666992188,-8.808267593383789,2.2655134201049805
329,8450.0,-2.0590133666992188,-8.808267593383789,2.2655134201049805
330,8500.0,-3.1298201084136963,-8.240841865539549,-0.07481880486011505
331,8550.0,-3.1298201084136963,-8.240841865539549,-0.07481880486011505
332,8600.0,-3.1298201084136963,-8.240841865539549,-0.07481880486011505
333,8650.0,-3.1298201084136963,-8.240841865539549,-0.07481880486011505
334,8700.0,-3.117250680923462,-9.482834815979004,1.136048674583435
335,8750.0,-3.117250680923462,-9.482834815979004,1.136048674583435
336,8800.0,-3.117250680923462,-9.482834815979004,1.136048674583435
337,8850.0,0.4842272996902466,-13.572729110717773,-2.631826162338257
338,8900.0,0.4842272996902466,-13.572729110717773,-2.631826162338257
339,8950.0,0.4842272996902466,-13.572729110717773,-2.631826162338257
340,9000.0,0.4842272996902466,-13.572729110717773,-2.631826162338257
341,9050.0,-0.0867898091673851,-9.84615421295166,-1.6352397203445437
342,9100.0,-0.0867898091673851,-9.84615421295166,-1.6352397203445437
343,9150.0,-0.0867898091673851,-9.84615421295166,-1.6352397203445437
344,9200.0,-1.4550760984420776,-9.534908294677734,-0.9929951429367064
345,9250.0,-1.4550760984420776,-9.534908294677734,-0.9929951429367064
346,9300.0,-1.4550760984420776,-9.534908294677734,-0.9929951429367064
347,9350.0,-1.4550760984420776,-9.534908294677734,-0.9929951429367064
348,9400.0,-2.4779987335205083,-8.042721748352049,-1.0253168344497678
349,9450.0,-2.4779987335205083,-8.042721748352049,-1.0253168344497678
350,9500.0,-2.4779987335205083,-8.042721748352049,-1.0253168344497678
351,9550.0,-3.813963413238525,-8.034940719604492,0.3693056106567383
352,9600.0,-3.813963413238525,-8.034940719604492,0.3693056106567383
353,9650.0,-3.813963413238525,-8.034940719604492,0.3693056106567383
354,9700.0,-3.813963413238525,-8.034940719604492,0.3693056106567383
355,9750.0,-0.4387374520301819,-7.894880294799805,-2.0446481704711914
356,9800.0,-0.4387374520301819,-7.894880294799805,-2.0446481704711914
357,9850.0,-0.4387374520301819,-7.894880294799805,-2.0446481704711914
358,9900.0,-0.4387374520301819,-7.894880294799805,-2.0446481704711914
359,9950.0,-1.0121487379074097,-11.915343284606935,2.1817162036895748
360,9000.0,0.4842272996902466,-13.572729110717773,-2.631826162338257
361,9050.0,-0.0867898091673851,-9.84615421295166,-1.6352397203445437
362,9100.0,-0.0867898091673851,-9.84615421295166,-1.6352397203445437
363,9150.0,-0.0867898091673851,-9.84615421295166,-1.6352397203445437
364,9200.0,-1.4550760984420776,-9.534908294677734,-0.9929951429367064
365,9250.0,-1.4550760984420776,-9.534908294677734,-0.9929951429367064
366,9300.0,-1.4550760984420776,-9.534908294677734,-0.9929951429367064
367,9350.0,-1.4550760984420776,-9.534908294677734,-0.9929951429367064
368,9400.0,-2.4779987335205083,-8.042721748352049,-1.0253168344497678
369,9450.0,-2.4779987335205083,-8.042721748352049,-1.0253168344497678
370,9500.0,-2.4779987335205083,-8.042721748352049,-1.0253168344497678
371,9550.0,-3.813963413238525,-8.034940719604492,0.3693056106567383
372,9600.0,-3.813963413238525,-8.034940719604492,0.3693056106567383
373,9650.0,-3.813963413238525,-8.034940719604492,0.3693056106567383
374,9700.0,-3.813963413238525,-8.034940719604492,0.3693056106567383
375,9750.0,-0.4387374520301819,-7.894880294799805,-2.0446481704711914
376,9800.0,-0.4387374520301819,-7.894880294799805,-2.0446481704711914
377,9850.0,-0.4387374520301819,-7.894880294799805,-2.0446481704711914
378,9900.0,-0.4387374520301819,-7.894880294799805,-2.0446481704711914
379,9950.0,-1.0121487379074097,-11.915343284606935,2.1817162036895748
380,10000.0,-1.0121487379074097,-11.915343284606935,2.1817162036895748
381,10050.0,-1.0121487379074097,-11.915343284606935,2.1817162036895748
382,10100.0,-0.06464344263076782,-10.320804595947266,0.9900023937225342
383,10150.0,-0.06464344263076782,-10.320804595947266,0.9900023937225342
384,10200.0,-0.06464344263076782,-10.320804595947266,0.9900023937225342
385,10250.0,-0.06464344263076782,-10.320804595947266,0.9900023937225342
386,10300.0,-1.0253168344497678,-9.07522201538086,0.7254431247711182
387,10350.0,-1.0253168344497678,-9.07522201538086,0.7254431247711182
388,10400.0,-1.0253168344497678,-9.07522201538086,0.7254431247711182
389,10450.0,-4.169502258300781,-9.082404136657717,2.9011738300323486
390,10500.0,-4.169502258300781,-9.082404136657717,2.9011738300323486
391,10550.0,-4.169502258300781,-9.082404136657717,2.9011738300323486
392,10600.0,-4.169502258300781,-9.082404136657717,2.9011738300323486
393,10650.0,-1.5999252796173096,-7.751227855682372,1.0773907899856567
394,10700.0,-1.5999252796173096,-7.751227855682372,1.0773907899856567
395,10750.0,-1.5999252796173096,-7.751227855682372,1.0773907899856567
396,10800.0,-1.5999252796173096,-7.751227855682372,1.0773907899856567
397,10850.0,-2.5983073711395264,-9.049484252929688,0.7362170219421387
398,10900.0,-2.5983073711395264,-9.049484252929688,0.7362170219421387
399,10950.0,-2.5983073711395264,-9.049484252929688,0.7362170219421387
400,10000.0,-1.0121487379074097,-11.915343284606935,2.1817162036895748
401,10050.0,-1.0121487379074097,-11.915343284606935,2.1817162036895748
402,10100.0,-0.06464344263076782,-10.320804595947266,0.9900023937225342
403,10150.0,-0.06464344263076782,-10.320804595947266,0.9900023937225342
404,10200.0,-0.06464344263076782,-10.320804595947266,0.9900023937225342
405,10250.0,-0.06464344263076782,-10.320804595947266,0.9900023937225342
406,10300.0,-1.0253168344497678,-9.07522201538086,0.7254431247711182
407,10350.0,-1.0253168344497678,-9.07522201538086,0.7254431247711182
408,10400.0,-1.0253168344497678,-9.07522201538086,0.7254431247711182
409,10450.0,-4.169502258300781,-9.082404136657717,2.9011738300323486
410,10500.0,-4.169502258300781,-9.082404136657717,2.9011738300323486
411,10550.0,-4.169502258300781,-9.082404136657717,2.9011738300323486
412,10600.0,-4.169502258300781,-9.082404136657717,2.9011738300323486
413,10650.0,-1.5999252796173096,-7.751227855682372,1.0773907899856567
414,10700.0,-1.5999252796173096,-7.751227855682372,1.0773907899856567
415,10750.0,-1.5999252796173096,-7.751227855682372,1.0773907899856567
416,10800.0,-1.5999252796173096,-7.751227855682372,1.0773907899856567
417,10850.0,-2.5983073711395264,-9.049484252929688,0.7362170219421387
418,10900.0,-2.5983073711395264,-9.049484252929688,0.7362170219421387
419,10950.0,-2.5983073711395264,-9.049484252929688,0.7362170219421387
420,11000.0,-3.624222755432129,-9.913790702819824,1.802833914756775
421,11050.0,-3.624222755432129,-9.913790702819824,1.802833914756775
422,11100.0,-3.624222755432129,-9.913790702819824,1.802833914756775
423,11150.0,-3.624222755432129,-9.913790702819824,1.802833914756775
424,11200.0,1.1827356815338137,-8.777742385864258,-2.9454667568206787
425,11250.0,1.1827356815338137,-8.777742385864258,-2.9454667568206787
426,11300.0,1.1827356815338137,-8.777742385864258,-2.9454667568206787
427,11350.0,1.1827356815338137,-8.777742385864258,-2.9454667568206787
428,11400.0,-0.30945056676864624,-8.537723541259767,-1.9937714338302608
429,11450.0,-0.30945056676864624,-8.537723541259767,-1.9937714338302608
430,11500.0,-0.30945056676864624,-8.537723541259767,-1.9937714338302608
431,11550.0,-0.7781155705451965,-9.461286544799805,-1.0534487962722778
432,11600.0,-0.7781155705451965,-9.461286544799805,-1.0534487962722778
433,11650.0,-0.7781155705451965,-9.461286544799805,-1.0534487962722778
434,11700.0,-0.7781155705451965,-9.461286544799805,-1.0534487962722778
435,11750.0,-2.3080103397369385,-9.153033256530762,-2.1027076244354252
436,11800.0,-2.3080103397369385,-9.153033256530762,-2.1027076244354252
437,11850.0,-2.3080103397369385,-9.153033256530762,-2.1027076244354252
438,11900.0,-2.9640216827392583,-8.853757858276367,-0.9044097065925598
439,11950.0,-2.9640216827392583,-8.853757858276367,-0.9044097065925598
440,11000.0,-3.624222755432129,-9.913790702819824,1.802833914756775
441,11050.0,-3.624222755432129,-9.913790702819824,1.802833914756775
442,11100.0,-3.624222755432129,-9.913790702819824,1.802833914756775
443,11150.0,-3.624222755432129,-9.913790702819824,1.802833914756775
444,11200.0,1.1827356815338137,-8.777742385864258,-2.9454667568206787
445,11250.0,1.1827356815338137,-8.777742385864258,-2.9454667568206787
446,11300.0,1.1827356815338137,-8.777742385864258,-2.9454667568206787
447,11350.0,1.1827356815338137,-8.777742385864258,-2.9454667568206787
448,11400.0,-0.30945056676864624,-8.537723541259767,-1.9937714338302608
449,11450.0,-0.30945056676864624,-8.537723541259767,-1.9937714338302608
450,11500.0,-0.30945056676864624,-8.537723541259767,-1.9937714338302608
451,11550.0,-0.7781155705451965,-9.461286544799805,-1.0534487962722778
452,11600.0,-0.7781155705451965,-9.461286544799805,-1.0534487962722778
453,11650.0,-0.7781155705451965,-9.461286544799805,-1.0534487962722778
454,11700.0,-0.7781155705451965,-9.461286544799805,-1.0534487962722778
455,11750.0,-2.3080103397369385,-9.153033256530762,-2.1027076244354252
456,11800.0,-2.3080103397369385,-9.153033256530762,-2.1027076244354252
457,11850.0,-2.3080103397369385,-9.153033256530762,-2.1027076244354252
458,11900.0,-2.9640216827392583,-8.853757858276367,-0.9044097065925598
459,11950.0,-2.9640216827392583,-8.853757858276367,-0.9044097065925598
460,12000.0,-2.9640216827392583,-8.853757858276367,-0.9044097065925598
461,12050.0,-2.9640216827392583,-8.853757858276367,-0.9044097065925598
462,12100.0,-2.831143617630005,-9.228450775146484,0.26156654953956604
463,12150.0,-2.831143617630005,-9.228450775146484,0.26156654953956604
464,12200.0,-2.831143617630005,-9.228450775146484,0.26156654953956604
465,12250.0,-2.831143617630005,-9.228450775146484,0.26156654953956604
466,12300.0,0.19572599232196808,-11.784260749816895,1.756745457649231
467,12350.0,0.19572599232196808,-11.784260749816895,1.756745457649231
468,12400.0,0.19572599232196808,-11.784260749816895,1.756745457649231
469,12450.0,1.5071499347686768,-7.105990409851074,1.4454993009567259
470,12500.0,1.5071499347686768,-7.105990409851074,1.4454993009567259
471,12550.0,1.5071499347686768,-7.105990409851074,1.4454993009567259
472,12600.0,1.5071499347686768,-7.105990409851074,1.4454993009567259
473,12650.0,-2.9951462745666504,-9.402628898620604,1.3808557987213137
474,12700.0,-2.9951462745666504,-9.402628898620604,1.3808557987213137
475,12750.0,-2.9951462745666504,-9.402628898620604,1.3808557987213137
476,12800.0,0.13048399984836578,-8.629899978637695,1.6950948238372805
477,12850.0,0.13048399984836578,-8.629899978637695,1.6950948238372805
478,12900.0,0.13048399984836578,-8.629899978637695,1.6950948238372805
479,12950.0,0.13048399984836578,-8.629899978637695,1.6950948238372805
480,12000.0,-2.9640216827392583,-8.853757858276367,-0.9044097065925598
481,12050.0,-2.9640216827392583,-8.853757858276367,-0.9044097065925598
482,12100.0,-2.831143617630005,-9.228450775146484,0.26156654953956604
483,12150.0,-2.831143617630005,-9.228450775146484,0.26156654953956604
484,12200.0,-2.831143617630005,-9.228450775146484,0.26156654953956604
485,12250.0,-2.831143617630005,-9.228450775146484,0.26156654953956604
486,12300.0,0.19572599232196808,-11.784260749816895,1.756745457649231
487,12350.0,0.19572599232196808,-11.784260749816895,1.756745457649231
488,12400.0,0.19572599232196808,-11.784260749816895,1.756745457649231
489,12450.0,1.5071499347686768,-7.105990409851074,1.4454993009567259
490,12500.0,1.5071499347686768,-7.105990409851074,1.4454993009567259
491,12550.0,1.5071499347686768,-7.105990409851074,1.4454993009567259
492,12600.0,1.5071499347686768,-7.105990409851074,1.4454993009567259
493,12650.0,-2.9951462745666504,-9.402628898620604,1.3808557987213137
494,12700.0,-2.9951462745666504,-9.402628898620604,1.3808557987213137
495,12750.0,-2.9951462745666504,-9.402628898620604,1.3808557987213137
496,12800.0,0.13048399984836578,-8.629899978637695,1.6950948238372805
497,12850.0,0.13048399984836578,-8.629899978637695,1.6950948238372805
498,12900.0,0.13048399984836578,-8.629899978637695,1.6950948238372805
499,12950.0,0.13048399984836578,-8.629899978637695,1.6950948238372805
500,13000.0,-1.1264718770980835,-6.9665284156799325,2.5773582458496094
501,13050.0,-1.1264718770980835,-6.9665284156799325,2.5773582458496094
502,13100.0,-1.1264718770980835,-6.9665284156799325,2.5773582458496094
503,13150.0,-1.1264718770980835,-6.9665284156799325,2.5773582458496094
504,13200.0,-3.5823242664337163,-19.3792667388916,-1.1115081310272217
505,13250.0,-3.5823242664337163,-19.3792667388916,-1.1115081310272217
506,13300.0,-3.5823242664337163,-19.3792667388916,-1.1115081310272217
507,13350.0,-1.103128433227539,-8.991424560546875,-2.2679076194763184
508,13400.0,-1.103128433227539,-8.991424560546875,-2.2679076194763184
509,13450.0,-1.103128433227539,-8.991424560546875,-2.2679076194763184
510,13500.0,-1.103128433227539,-8.991424560546875,-2.2679076194763184
511,13550.0,-3.667917013168335,-9.01895809173584,-1.8034324645996092
512,13600.0,-3.667917013168335,-9.01895809173584,-1.8034324645996092
513,13650.0,-3.667917013168335,-9.01895809173584,-1.8034324645996092
514,13700.0,-3.667917013168335,-9.01895809173584,-1.8034324645996092
515,13750.0,-0.9056068062782288,-8.987833023071289,0.07661445438861847
516,13800.0,-0.9056068062782288,-8.987833023071289,0.07661445438861847
517,13850.0,-0.9056068062782288,-8.987833023071289,0.07661445438861847
518,13900.0,-2.2679076194763184,-8.567051887512207,-0.8170213103294373
519,13950.0,-2.2679076194763184,-8.567051887512207,-0.8170213103294373
520,13000.0,-1.1264718770980835,-6.9665284156799325,2.5773582458496094
521,13050.0,-1.1264718770980835,-6.9665284156799325,2.5773582458496094
522,13100.0,-1.1264718770980835,-6.9665284156799325,2.5773582458496094
523,13150.0,-1.1264718770980835,-6.9665284156799325,2.5773582458496094
524,13200.0,-3.5823242664337163,-19.3792667388916,-1.1115081310272217
525,13250.0,-3.5823242664337163,-19.3792667388916,-1.1115081310272217
526,13300.0,-3.5823242664337163,-19.3792667388916,-1.1115081310272217
527,13350.0,-1.103128433227539,-8.991424560546875,-2.2679076194763184
528,13400.0,-1.103128433227539,-8.991424560546875,-2.2679076194763184
529,13450.0,-1.103128433227539,-8.991424560546875,-2.2679076194763184
530,13500.0,-1.103128433227539,-8.991424560546875,-2.2679076194763184
531,13550.0,-3.667917013168335,-9.01895809173584,-1.8034324645996092
532,13600.0,-3.667917013168335,-9.01895809173584,-1.8034324645996092
533,13650.0,-3.667917013168335,-9.01895809173584,-1.8034324645996092
534,13700.0,-3.667917013168335,-9.01895809173584,-1.8034324645996092
535,13750.0,-0.9056068062782288,-8.987833023071289,0.07661445438861847
536,13800.0,-0.9056068062782288,-8.987833023071289,0.07661445438861847
537,13850.0,-0.9056068062782288,-8.987833023071289,0.07661445438861847
538,13900.0,-2.2679076194763184,-8.567051887512207,-0.8170213103294373
539,13950.0,-2.2679076194763184,-8.567051887512207,-0.8170213103294373
540,14000.0,-2.2679076194763184,-8.567051887512207,-0.8170213103294373
541,14050.0,-2.2679076194763184,-8.567051887512207,-0.8170213103294373
542,14100.0,-2.2673089504241943,-7.184999465942383,-0.5776011347770691
543,14150.0,-2.2673089504241943,-7.184999465942383,-0.5776011347770691
544,14200.0,-2.2673089504241943,-7.184999465942383,-0.5776011347770691
545,14250.0,1.215057373046875,-15.224129676818848,2.4205379486083984
546,14300.0,1.215057373046875,-15.224129676818848,2.4205379486083984
547,14350.0,1.215057373046875,-15.224129676818848,2.4205379486083984
548,14400.0,1.215057373046875,-15.224129676818848,2.4205379486083984
549,14450.0,0.13407529890537262,-7.273584842681885,1.049857497215271
550,14500.0,0.13407529890537262,-7.273584842681885,1.049857497215271
551,14550.0,0.13407529890537262,-7.273584842681885,1.049857497215271
552,14600.0,-2.454056739807129,-9.081207275390623,3.3022027015686035
553,14650.0,-2.454056739807129,-9.081207275390623,3.3022027015686035
554,14700.0,-2.454056739807129,-9.081207275390623,3.3022027015686035
555,14750.0,-2.454056739807129,-9.081207275390623,3.3022027015686035
556,14800.0,-1.4317326545715332,-8.798690795898438,1.3557167053222656
557,14850.0,-1.4317326545715332,-8.798690795898438,1.3557167053222656
558,14900.0,-1.4317326545715332,-8.798690795898438,1.3557167053222656
559,14950.0,-1.4317326545715332,-8.798690795898438,1.3557167053222656
560,14000.0,-2.2679076194763184,-8.567051887512207,-0.8170213103294373
561,14050.0,-2.2679076194763184,-8.567051887512207,-0.8170213103294373
562,14100.0,-2.2673089504241943,-7.184999465942383,-0.5776011347770691
563,14150.0,-2.2673089504241943,-7.184999465942383,-0.5776011347770691
564,14200.0,-2.2673089504241943,-7.184999465942383,-0.5776011347770691
565,14250.0,1.215057373046875,-15.224129676818848,2.4205379486083984
566,14300.0,1.215057373046875,-15.224129676818848,2.4205379486083984
567,14350.0,1.215057373046875,-15.224129676818848,2.4205379486083984
568,14400.0,1.215057373046875,-15.224129676818848,2.4205379486083984
569,14450.0,0.13407529890537262,-7.273584842681885,1.049857497215271
570,14500.0,0.13407529890537262,-7.273584842681885,1.049857497215271
571,14550.0,0.13407529890537262,-7.273584842681885,1.049857497215271
572,14600.0,-2.454056739807129,-9.081207275390623,3.3022027015686035
573,14650.0,-2.454056739807129,-9.081207275390623,3.3022027015686035
574,14700.0,-2.454056739807129,-9.081207275390623,3.3022027015686035
575,14750.0,-2.454056739807129,-9.081207275390623,3.3022027015686035
576,14800.0,-1.4317326545715332,-8.798690795898438,1.3557167053222656
577,14850.0,-1.4317326545715332,-8.798690795898438,1.3557167053222656
578,14900.0,-1.4317326545715332,-8.798690795898438,1.3557167053222656
579,14950.0,-1.4317326545715332,-8.798690795898438,1.3557167053222656
580,15000.0,-0.5704185366630554,-8.955511093139648,-0.37529110908508295
581,15050.0,-0.5704185366630554,-8.955511093139648,-0.37529110908508295
582,15100.0,-0.5704185366630554,-8.955511093139648,-0.37529110908508295
583,15150.0,-0.706289529800415,-7.816470146179199,-1.6400281190872192
584,15200.0,-0.706289529800415,-7.816470146179199,-1.6400281190872192
585,15250.0,-0.706289529800415,-7.816470146179199,-1.6400281190872192
586,15300.0,-0.706289529800415,-7.816470146179199,-1.6400281190872192
587,15350.0,1.057040095329285,-11.25454330444336,6.537367820739746
588,15400.0,1.057040095329285,-11.25454330444336,6.537367820739746
589,15450.0,1.057040095329285,-11.25454330444336,6.537367820739746
590,15500.0,2.6653449535369877,-8.916605949401855,-3.1495723724365234
591,15550.0,2.6653449535369877,-8.916605949401855,-3.1495723724365234
592,15600.0,2.6653449535369877,-8.916605949401855,-3.1495723724365234
593,15650.0,2.6653449535369877,-8.916605949401855,-3.1495723724365234
594,15700.0,-1.8997989892959597,-9.947309494018556,-1.368884801864624
595,15750.0,-1.8997989892959597,-9.947309494018556,-1.368884801864624
596,15800.0,-1.8997989892959597,-9.947309494018556,-1.368884801864624
597,15850.0,-1.8997989892959597,-9.947309494018556,-1.368884801864624
598,15900.0,-0.33758243918418884,-9.332598686218262,-0.9139865040779114
599,15950.0,-0.33758243918418884,-9.332598686218262,-0.9139865040779114
600,15000.0,-0.5704185366630554,-8.955511093139648,-0.37529110908508295
601,15050.0,-0.5704185366630554,-8.955511093139648,-0.37529110908508295
602,15100.0,-0.5704185366630554,-8.955511093139648,-0.37529110908508295
603,15150.0,-0.706289529800415,-7.816470146179199,-1.6400281190872192
604,15200.0,-0.706289529800415,-7.816470146179199,-1.6400281190872192
605,15250.0,-0.706289529800415,-7.816470146179199,-1.6400281190872192
606,15300.0,-0.706289529800415,-7.816470146179199,-1.6400281190872192
607,15350.0,1.057040095329285,-11.25454330444336,6.537367820739746
608,15400.0,1.057040095329285,-11.25454330444336,6.537367820739746
609,15450.0,1.057040095329285,-11.25454330444336,6.537367820739746
610,15500.0,2.6653449535369877,-8.916605949401855,-3.1495723724365234
611,15550.0,2.6653449535369877,-8.916605949401855,-3.1495723724365234
612,15600.0,2.6653449535369877,-8.916605949401855,-3.1495723724365234
613,15650.0,2.6653449535369877,-8.916605949401855,-3.1495723724365234
614,15700.0,-1.8997989892959597,-9.947309494018556,-1.368884801864624
615,15750.0,-1.8997989892959597,-9.947309494018556,-1.368884801864624
616,15800.0,-1.8997989892959597,-9.947309494018556,-1.368884801864624
617,15850.0,-1.8997989892959597,-9.947309494018556,-1.368884801864624
618,15900.0,-0.33758243918418884,-9.332598686218262,-0.9139865040779114
619,15950.0,-0.33758243918418884,-9.332598686218262,-0.9139865040779114
620,16000.0,-0.33758243918418884,-9.332598686218262,-0.9139865040779114
621,16050.0,-3.0735564231872563,-8.223484039306639,0.545877993106842
622,16100.0,-3.0735564231872563,-8.223484039306639,0.545877993106842
623,16150.0,-3.0735564231872563,-8.223484039306639,0.545877993106842
624,16200.0,-3.0735564231872563,-8.223484039306639,0.545877993106842
625,16250.0,-2.3726539611816406,-7.8487915992736825,-1.1779472827911377
626,16300.0,-2.3726539611816406,-7.8487915992736825,-1.1779472827911377
627,16350.0,-2.3726539611816406,-7.8487915992736825,-1.1779472827911377
628,16400.0,-6.5499372482299805,-12.418724060058596,3.1058781147003174
629,16450.0,-6.5499372482299805,-12.418724060058596,3.1058781147003174
630,16500.0,-6.5499372482299805,-12.418724060058596,3.1058781147003174
631,16550.0,-6.5499372482299805,-12.418724060058596,3.1058781147003174
632,16600.0,0.9385270476341248,-7.508815288543701,-0.4740519225597382
633,16650.0,0.9385270476341248,-7.508815288543701,-0.4740519225597382
634,16700.0,0.9385270476341248,-7.508815288543701,-0.4740519225597382
635,16750.0,0.9385270476341248,-7.508815288543701,-0.4740519225597382
636,16800.0,2.782062292098999,-10.556633949279783,5.54317569732666
637,16850.0,2.782062292098999,-10.556633949279783,5.54317569732666
638,16900.0,2.782062292098999,-10.556633949279783,5.54317569732666
639,16950.0,-0.4129997789859772,-7.3472065925598145,-3.646369218826294
640,16000.0,-0.33758243918418884,-9.332598686218262,-0.9139865040779114
641,16050.0,-3.0735564231872563,-8.223484039306639,0.545877993106842
642,16100.0,-3.0735564231872563,-8.223484039306639,0.545877993106842
643,16150.0,-3.0735564231872563,-8.223484039306639,0.545877993106842
644,16200.0,-3.0735564231872563,-8.223484039306639,0.545877993106842
645,16250.0,-2.3726539611816406,-7.8487915992736825,-1.1779472827911377
646,16300.0,-2.3726539611816406,-7.8487915992736825,-1.1779472827911377
647,16350.0,-2.3726539611816406,-7.8487915992736825,-1.1779472827911377
648,16400.0,-6.5499372482299805,-12.418724060058596,3.1058781147003174
649,16450.0,-6.5499372482299805,-12.418724060058596,3.1058781147003174
650,16500.0,-6.5499372482299805,-12.418724060058596,3.1058781147003174
651,16550.0,-6.5499372482299805,-12.418724060058596,3.1058781147003174
652,16600.0,0.9385270476341248,-7.508815288543701,-0.4740519225597382
653,16650.0,0.9385270476341248,-7.508815288543701,-0.4740519225597382
654,16700.0,0.9385270476341248,-7.508815288543701,-0.4740519225597382
655,16750.0,0.9385270476341248,-7.508815288543701,-0.4740519225597382
656,16800.0,2.782062292098999,-10.556633949279783,5.54317569732666
657,16850.0,2.782062292098999,-10.556633949279783,5.54317569732666
658,16900.0,2.782062292098999,-10.556633949279783,5.54317569732666
659,16950.0,-0.4129997789859772,-7.3472065925598145,-3.646369218826294
660,17000.0,-0.4129997789859772,-7.3472065925598145,-3.646369218826294
661,17050.0,-0.4129997789859772,-7.3472065925598145,-3.646369218826294
662,17100.0,-0.4129997789859772,-7.3472065925598145,-3.646369218826294
663,17150.0,-0.517746090888977,-3.745130062103272,-1.6304513216018677
664,17200.0,-0.517746090888977,-3.745130062103272,-1.6304513216018677
665,17250.0,-0.517746090888977,-3.745130062103272,-1.6304513216018677
666,17300.0,2.169146776199341,-10.113107681274414,-10.983400344848633
667,17350.0,2.169146776199341,-10.113107681274414,-10.983400344848633
668,17400.0,2.169146776199341,-10.113107681274414,-10.983400344848633
669,17450.0,2.169146776199341,-10.113107681274414,-10.983400344848633
670,17500.0,0.4566939771175385,-6.86597204208374,4.710591793060303
671,17550.0,0.4566939771175385,-6.86597204208374,4.710591793060303
672,17600.0,0.4566939771175385,-6.86597204208374,4.710591793060303
673,17650.0,0.4566939771175385,-6.86597204208374,4.710591793060303
674,17700.0,0.5650315880775452,-10.974422454833984,3.2537200450897217
675,17750.0,0.5650315880775452,-10.974422454833984,3.2537200450897217
676,17800.0,0.5650315880775452,-10.974422454833984,3.2537200450897217
677,17850.0,-2.1775264739990234,-9.491812705993652,-0.5135562419891357
678,17900.0,-2.1775264739990234,-9.491812705993652,-0.5135562419891357
679,17950.0,-2.1775264739990234,-9.491812705993652,-0.5135562419891357
680,17000.0,-0.4129997789859772,-7.3472065925598145,-3.646369218826294
681,17050.0,-0.4129997789859772,-7.3472065925598145,-3.646369218826294
682,17100.0,-0.4129997789859772,-7.3472065925598145,-3.646369218826294
683,17150.0,-0.517746090888977,-3.745130062103272,-1.6304513216018677
684,17200.0,-0.517746090888977,-3.745130062103272,-1.6304513216018677
685,17250.0,-0.517746090888977,-3.745130062103272,-1.6304513216018677
686,17300.0,2.169146776199341,-10.113107681274414,-10.983400344848633
687,17350.0,2.169146776199341,-10.113107681274414,-10.983400344848633
688,17400.0,2.169146776199341,-10.113107681274414,-10.983400344848633
689,17450.0,2.169146776199341,-10.113107681274414,-10.983400344848633
690,17500.0,0.4566939771175385,-6.86597204208374,4.710591793060303
691,17550.0,0.4566939771175385,-6.86597204208374,4.710591793060303
692,17600.0,0.4566939771175385,-6.86597204208374,4.710591793060303
693,17650.0,0.4566939771175385,-6.86597204208374,4.710591793060303
694,17700.0,0.5650315880775452,-10.974422454833984,3.2537200450897217
695,17750.0,0.5650315880775452,-10.974422454833984,3.2537200450897217
696,17800.0,0.5650315880775452,-10.974422454833984,3.2537200450897217
697,17850.0,-2.1775264739990234,-9.491812705993652,-0.5135562419891357
698,17900.0,-2.1775264739990234,-9.491812705993652,-0.5135562419891357
699,17950.0,-2.1775264739990234,-9.491812705993652,-0.5135562419891357
700,18000.0,-2.1775264739990234,-9.491812705993652,-0.5135562419891357
701,18050.0,-0.29388827085494995,-9.560646057128906,-0.14484919607639313
702,18100.0,-0.29388827085494995,-9.560646057128906,-0.14484919607639313
703,18150.0,-0.29388827085494995,-9.560646057128906,-0.14484919607639313
704,18200.0,0.07481880486011505,-8.167220115661621,-1.8483237028121948
705,18250.0,0.07481880486011505,-8.167220115661621,-1.8483237028121948
706,18300.0,0.07481880486011505,-8.167220115661621,-1.8483237028121948
707,18350.0,0.07481880486011505,-8.167220115661621,-1.8483237028121948
708,18400.0,0.07481880486011505,-8.167220115661621,-1.8483237028121948
709,18450.0,3.9372646808624263,-8.216899871826174,1.4233529567718506
710,18500.0,3.9372646808624263,-8.216899871826174,1.4233529567718506
711,18550.0,3.9372646808624263,-8.216899871826174,1.4233529567718506
712,18600.0,-6.800729751586914,-8.374319076538086,-5.0445828437805185
713,18650.0,-6.800729751586914,-8.374319076538086,-5.0445828437805185
714,18700.0,-6.800729751586914,-8.374319076538086,-5.0445828437805185
715,18750.0,2.3564929962158203,-18.407819747924805,4.885967254638672
716,18800.0,2.3564929962158203,-18.407819747924805,4.885967254638672
717,18850.0,2.3564929962158203,-18.407819747924805,4.885967254638672
718,18900.0,2.3564929962158203,-18.407819747924805,4.885967254638672
719,18950.0,-2.2619221210479736,-10.653000831604004,-1.6089035272598269
720,18000.0,-2.1775264739990234,-9.491812705993652,-0.5135562419891357
721,18050.0,-0.29388827085494995,-9.560646057128906,-0.14484919607639313
722,18100.0,-0.29388827085494995,-9.560646057128906,-0.14484919607639313
723,18150.0,-0.29388827085494995,-9.560646057128906,-0.14484919607639313
724,18200.0,0.07481880486011505,-8.167220115661621,-1.8483237028121948
725,18250.0,0.07481880486011505,-8.167220115661621,-1.8483237028121948
726,18300.0,0.07481880486011505,-8.167220115661621,-1.8483237028121948
727,18350.0,0.07481880486011505,-8.167220115661621,-1.8483237028121948
728,18400.0,0.07481880486011505,-8.167220115661621,-1.8483237028121948
729,18450.0,3.9372646808624263,-8.216899871826174,1.4233529567718506
730,18500.0,3.9372646808624263,-8.216899871826174,1.4233529567718506
731,18550.0,3.9372646808624263,-8.216899871826174,1.4233529567718506
732,18600.0,-6.800729751586914,-8.374319076538086,-5.0445828437805185
733,18650.0,-6.800729751586914,-8.374319076538086,-5.0445828437805185
734,18700.0,-6.800729751586914,-8.374319076538086,-5.0445828437805185
735,18750.0,2.3564929962158203,-18.407819747924805,4.885967254638672
736,18800.0,2.3564929962158203,-18.407819747924805,4.885967254638672
737,18850.0,2.3564929962158203,-18.407819747924805,4.885967254638672
738,18900.0,2.3564929962158203,-18.407819747924805,4.885967254638672
739,18950.0,-2.2619221210479736,-10.653000831604004,-1.6089035272598269
740,19000.0,-2.2619221210479736,-10.653000831604004,-1.6089035272598269
741,19050.0,-2.2619221210479736,-10.653000831604004,-1.6089035272598269
742,19100.0,-1.2270283699035645,-9.747393608093262,-3.7762546539306636
743,19150.0,-1.2270283699035645,-9.747393608093262,-3.7762546539306636
744,19200.0,-1.2270283699035645,-9.747393608093262,-3.7762546539306636
745,19250.0,-1.2270283699035645,-9.747393608093262,-3.7762546539306636
746,19300.0,-1.646013617515564,-9.555258750915527,-1.0767922401428225
747,19350.0,-1.646013617515564,-9.555258750915527,-1.0767922401428225
748,19400.0,-1.646013617515564,-9.555258750915527,-1.0767922401428225
749,19450.0,-1.646013617515564,-9.555258750915527,-1.0767922401428225
750,19500.0,-0.25498247146606445,-10.131064414978027,-1.7735048532485962
751,19550.0,-0.25498247146606445,-10.131064414978027,-1.7735048532485962
752,19600.0,-0.25498247146606445,-10.131064414978027,-1.7735048532485962
753,19650.0,-0.3800795078277588,-10.29087734222412,-0.6189011335372925
754,19700.0,-0.3800795078277588,-10.29087734222412,-0.6189011335372925
755,19750.0,-0.3800795078277588,-10.29087734222412,-0.6189011335372925
756,19800.0,-0.3800795078277588,-10.29087734222412,-0.6189011335372925
757,19850.0,1.6041151285171509,-7.873930931091309,-0.851138710975647
758,19900.0,1.6041151285171509,-7.873930931091309,-0.851138710975647
759,19950.0,1.6041151285171509,-7.873930931091309,-0.851138710975647
760,19000.0,-2.2619221210479736,-10.653000831604004,-1.6089035272598269
761,19050.0,-2.2619221210479736,-10.653000831604004,-1.6089035272598269
762,19100.0,-1.2270283699035645,-9.747393608093262,-3.7762546539306636
763,19150.0,-1.2270283699035645,-9.747393608093262,-3.7762546539306636
764,19200.0,-1.2270283699035645,-9.747393608093262,-3.7762546539306636
765,19250.0,-1.2270283699035645,-9.747393608093262,-3.7762546539306636
766,19300.0,-1.646013617515564,-9.555258750915527,-1.0767922401428225
767,19350.0,-1.646013617515564,-9.555258750915527,-1.0767922401428225
768,19400.0,-1.646013617515564,-9.555258750915527,-1.0767922401428225
769,19450.0,-1.646013617515564,-9.555258750915527,-1.0767922401428225
770,19500.0,-0.25498247146606445,-10.131064414978027,-1.7735048532485962
771,19550.0,-0.25498247146606445,-10.131064414978027,-1.7735048532485962
772,19600.0,-0.25498247146606445,-10.131064414978027,-1.7735048532485962
773,19650.0,-0.3800795078277588,-10.29087734222412,-0.6189011335372925
774,19700.0,-0.3800795078277588,-10.29087734222412,-0.6189011335372925
775,19750.0,-0.3800795078277588,-10.29087734222412,-0.6189011335372925
776,19800.0,-0.3800795078277588,-10.29087734222412,-0.6189011335372925
777,19850.0,1.6041151285171509,-7.873930931091309,-0.851138710975647
778,19900.0,1.6041151285171509,-7.873930931091309,-0.851138710975647
779,19950.0,1.6041151285171509,-7.873930931091309,-0.851138710975647
780,20000.0,-1.9829975366592407,-11.59332275390625,6.142324447631836
781,20050.0,-1.9829975366592407,-11.59332275390625,6.142324447631836
782,20100.0,-1.9829975366592407,-11.59332275390625,6.142324447631836
783,20150.0,-1.9829975366592407,-11.59332275390625,6.142324447631836
784,20200.0,-3.2740707397460938,-10.10891819000244,1.7040730714797974
785,20250.0,-3.2740707397460938,-10.10891819000244,1.7040730714797974
786,20300.0,-3.2740707397460938,-10.10891819000244,1.7040730714797974
787,20350.0,-3.2740707397460938,-10.10891819000244,1.7040730714797974
788,20400.0,-1.6759412288665771,-7.529764175415039,0.4351461529731751
789,20450.0,-1.6759412288665771,-7.529764175415039,0.4351461529731751
790,20500.0,-1.6759412288665771,-7.529764175415039,0.4351461529731751
791,20550.0,1.840542554855347,-9.369708061218262,1.8058266639709477
792,20600.0,1.840542554855347,-9.369708061218262,1.8058266639709477
793,20650.0,1.840542554855347,-9.369708061218262,1.8058266639709477
794,20700.0,1.840542554855347,-9.369708061218262,1.8058266639709477
795,20750.0,0.8020575642585754,-6.866570472717285,1.0516531467437744
796,20800.0,0.8020575642585754,-6.866570472717285,1.0516531467437744
797,20850.0,0.8020575642585754,-6.866570472717285,1.0516531467437744
798,20900.0,-6.622960567474365,-15.162479400634766,8.640673637390138
799,20950.0,-6.622960567474365,-15.162479400634766,8.640673637390138
800,20000.0,-1.9829975366592407,-11.59332275390625,6.142324447631836
801,20050.0,-1.9829975366592407,-11.59332275390625,6.142324447631836
802,20100.0,-1.9829975366592407,-11.59332275390625,6.142324447631836
803,20150.0,-1.9829975366592407,-11.59332275390625,6.142324447631836
804,20200.0,-3.2740707397460938,-10.10891819000244,1.7040730714797974
805,20250.0,-3.2740707397460938,-10.10891819000244,1.7040730714797974
806,20300.0,-3.2740707397460938,-10.10891819000244,1.7040730714797974
807,20350.0,-3.2740707397460938,-10.10891819000244,1.7040730714797974
808,20400.0,-1.6759412288665771,-7.529764175415039,0.4351461529731751
809,20450.0,-1.6759412288665771,-7.529764175415039,0.4351461529731751
810,20500.0,-1.6759412288665771,-7.529764175415039,0.4351461529731751
811,20550.0,1.840542554855347,-9.369708061218262,1.8058266639709477
812,20600.0,1.840542554855347,-9.369708061218262,1.8058266639709477
813,20650.0,1.840542554855347,-9.369708061218262,1.8058266639709477
814,20700.0,1.840542554855347,-9.369708061218262,1.8058266639709477
815,20750.0,0.8020575642585754,-6.866570472717285,1.0516531467437744
816,20800.0,0.8020575642585754,-6.866570472717285,1.0516531467437744
817,20850.0,0.8020575642585754,-6.866570472717285,1.0516531467437744
818,20900.0,-6.622960567474365,-15.162479400634766,8.640673637390138
819,20950.0,-6.622960567474365,-15.162479400634766,8.640673637390138
820,21000.0,-6.622960567474365,-15.162479400634766,8.640673637390138
821,21050.0,-6.622960567474365,-15.162479400634766,8.640673637390138
822,21100.0,-3.137601375579834,-8.507197380065918,-1.313219666481018
823,21150.0,-3.137601375579834,-8.507197380065918,-1.313219666481018
824,21200.0,-3.137601375579834,-8.507197380065918,-1.313219666481018
825,21250.0,-3.137601375579834,-8.507197380065918,-1.313219666481018
826,21300.0,-1.5759832859039309,-9.460687637329102,-2.7778725624084477
827,21350.0,-1.5759832859039309,-9.460687637329102,-2.7778725624084477
828,21400.0,-1.5759832859039309,-9.460687637329102,-2.7778725624084477
829,21450.0,-1.4395138025283811,-5.609015941619873,-0.8720879554748535
830,21500.0,-1.4395138025283811,-5.609015941619873,-0.8720879554748535
831,21550.0,-1.4395138025283811,-5.609015941619873,-0.8720879554748535
832,21600.0,-1.4395138025283811,-5.609015941619873,-0.8720879554748535
833,21650.0,-5.9956793785095215,-16.584035873413086,1.8596961498260496
834,21700.0,-5.9956793785095215,-16.584035873413086,1.8596961498260496
835,21750.0,-5.9956793785095215,-16.584035873413086,1.8596961498260496
836,21800.0,-5.9956793785095215,-16.584035873413086,1.8596961498260496
837,21850.0,-0.7787141203880309,-8.107365608215332,-0.11552023142576218
838,21900.0,-0.7787141203880309,-8.107365608215332,-0.11552023142576218
839,21950.0,-0.7787141203880309,-8.107365608215332,-0.11552023142576218
840,21000.0,-6.622960567474365,-15.162479400634766,8.640673637390138
841,21050.0,-6.622960567474365,-15.162479400634766,8.640673637390138
842,21100.0,-3.137601375579834,-8.507197380065918,-1.313219666481018
843,21150.0,-3.137601375579834,-8.507197380065918,-1.313219666481018
844,21200.0,-3.137601375579834,-8.507197380065918,-1.313219666481018
845,21250.0,-3.137601375579834,-8.507197380065918,-1.313219666481018
846,21300.0,-1.5759832859039309,-9.460687637329102,-2.7778725624084477
847,21350.0,-1.5759832859039309,-9.460687637329102,-2.7778725624084477
848,21400.0,-1.5759832859039309,-9.460687637329102,-2.7778725624084477
849,21450.0,-1.4395138025283811,-5.609015941619873,-0.8720879554748535
850,21500.0,-1.4395138025283811,-5.609015941619873,-0.8720879554748535
851,21550.0,-1.4395138025283811,-5.609015941619873,-0.8720879554748535
852,21600.0,-1.4395138025283811,-5.609015941619873,-0.8720879554748535
853,21650.0,-5.9956793785095215,-16.584035873413086,1.8596961498260496
854,21700.0,-5.9956793785095215,-16.584035873413086,1.8596961498260496
855,21750.0,-5.9956793785095215,-16.584035873413086,1.8596961498260496
856,21800.0,-5.9956793785095215,-16.584035873413086,1.8596961498260496
857,21850.0,-0.7787141203880309,-8.107365608215332,-0.11552023142576218
858,21900.0,-0.7787141203880309,-8.107365608215332,-0.11552023142576218
859,21950.0,-0.7787141203880309,-8.107365608215332,-0.11552023142576218
860,22000.0,2.473809003829956,-10.214861869812012,-0.7882909178733826
861,22050.0,2.473809003829956,-10.214861869812012,-0.7882909178733826
862,22100.0,2.473809003829956,-10.214861869812012,-0.7882909178733826
863,22150.0,2.473809003829956,-10.214861869812012,-0.7882909178733826
864,22200.0,0.3627215623855591,-7.8056960105896,-0.09696517139673233
865,22250.0,0.3627215623855591,-7.8056960105896,-0.09696517139673233
866,22300.0,0.3627215623855591,-7.8056960105896,-0.09696517139673233
867,22350.0,-1.6262614727020264,-8.736441612243652,-0.10534487664699554
868,22400.0,-1.6262614727020264,-8.736441612243652,-0.10534487664699554
869,22450.0,-1.6262614727020264,-8.736441612243652,-0.10534487664699554
870,22500.0,-1.6262614727020264,-8.736441612243652,-0.10534487664699554
871,22550.0,0.7649474143981934,-6.955155849456787,1.7842788696289065
872,22600.0,0.7649474143981934,-6.955155849456787,1.7842788696289065
873,22650.0,0.7649474143981934,-6.955155849456787,1.7842788696289065
874,22700.0,0.7649474143981934,-6.955155849456787,1.7842788696289065
875,22750.0,2.0254945755004883,-13.168108940124512,-3.666121244430542
876,22800.0,2.0254945755004883,-13.168108940124512,-3.666121244430542
877,22850.0,2.0254945755004883,-13.168108940124512,-3.666121244430542
878,22900.0,-2.09672212600708,-8.728660583496094,0.7463923692703247
879,22950.0,-2.09672212600708,-8.728660583496094,0.7463923692703247
880,22000.0,2.473809003829956,-10.214861869812012,-0.7882909178733826
881,22050.0,2.473809003829956,-10.214861869812012,-0.7882909178733826
882,22100.0,2.473809003829956,-10.214861869812012,-0.7882909178733826
883,22150.0,2.473809003829956,-10.214861869812012,-0.7882909178733826
884,22200.0,0.3627215623855591,-7.8056960105896,-0.09696517139673233
885,22250.0,0.3627215623855591,-7.8056960105896,-0.09696517139673233
886,22300.0,0.3627215623855591,-7.8056960105896,-0.09696517139673233
887,22350.0,-1.6262614727020264,-8.736441612243652,-0.10534487664699554
888,22400.0,-1.6262614727020264,-8.736441612243652,-0.10534487664699554
889,22450.0,-1.6262614727020264,-8.736441612243652,-0.10534487664699554
890,22500.0,-1.6262614727020264,-8.736441612243652,-0.10534487664699554
891,22550.0,0.7649474143981934,-6.955155849456787,1.7842788696289065
892,22600.0,0.7649474143981934,-6.955155849456787,1.7842788696289065
893,22650.0,0.7649474143981934,-6.955155849456787,1.7842788696289065
894,22700.0,0.7649474143981934,-6.955155849456787,1.7842788696289065
895,22750.0,2.0254945755004883,-13.168108940124512,-3.666121244430542
896,22800.0,2.0254945755004883,-13.168108940124512,-3.666121244430542
897,22850.0,2.0254945755004883,-13.168108940124512,-3.666121244430542
898,22900.0,-2.09672212600708,-8.728660583496094,0.7463923692703247
899,22950.0,-2.09672212600708,-8.728660583496094,0.7463923692703247
900,23000.0,-2.09672212600708,-8.728660583496094,0.7463923692703247
901,23050.0,-2.09672212600708,-8.728660583496094,0.7463923692703247
902,23100.0,-4.524442672729492,-8.169614791870117,-4.544793605804443
903,23150.0,-4.524442672729492,-8.169614791870117,-4.544793605804443
904,23200.0,-4.524442672729492,-8.169614791870117,-4.544793605804443
905,23250.0,-4.721964359283447,-11.815983772277832,-4.050390720367432
906,23300.0,-4.721964359283447,-11.815983772277832,-4.050390720367432
907,23350.0,-4.721964359283447,-11.815983772277832,-4.050390720367432
908,23400.0,-4.721964359283447,-11.815983772277832,-4.050390720367432
909,23450.0,-0.8218097090721129,-9.229647636413574,-0.10773907601833344
910,23500.0,-0.8218097090721129,-9.229647636413574,-0.10773907601833344
911,23550.0,-0.8218097090721129,-9.229647636413574,-0.10773907601833344
912,23600.0,-0.8218097090721129,-9.229647636413574,-0.10773907601833344
913,23650.0,-0.8062474131584167,-8.117541313171388,-1.8052281141281128
914,23700.0,-0.8062474131584167,-8.117541313171388,-1.8052281141281128
915,23750.0,-0.8062474131584167,-8.117541313171388,-1.8052281141281128
916,23800.0,-4.271255970001222,-7.628525257110597,-0.4399345517158508
917,23850.0,-4.271255970001222,-7.628525257110597,-0.4399345517158508
918,23900.0,-4.271255970001222,-7.628525257110597,-0.4399345517158508
919,23950.0,-4.271255970001222,-7.628525257110597,-0.4399345517158508
920,23000.0,-2.09672212600708,-8.728660583496094,0.7463923692703247
921,23050.0,-2.09672212600708,-8.728660583496094,0.7463923692703247
922,23100.0,-4.524442672729492,-8.169614791870117,-4.544793605804443
923,23150.0,-4.524442672729492,-8.169614791870117,-4.544793605804443
924,23200.0,-4.524442672729492,-8.169614791870117,-4.544793605804443
925,23250.0,-4.721964359283447,-11.815983772277832,-4.050390720367432
926,23300.0,-4.721964359283447,-11.815983772277832,-4.050390720367432
927,23350.0,-4.721964359283447,-11.815983772277832,-4.050390720367432
928,23400.0,-4.721964359283447,-11.815983772277832,-4.050390720367432
929,23450.0,-0.8218097090721129,-9.229647636413574,-0.10773907601833344
930,23500.0,-0.8218097090721129,-9.229647636413574,-0.10773907601833344
931,23550.0,-0.8218097090721129,-9.229647636413574,-0.10773907601833344
932,23600.0,-0.8218097090721129,-9.229647636413574,-0.10773907601833344
933,23650.0,-0.8062474131584167,-8.117541313171388,-1.8052281141281128
934,23700.0,-0.8062474131584167,-8.117541313171388,-1.8052281141281128
935,23750.0,-0.8062474131584167,-8.117541313171388,-1.8052281141281128
936,23800.0,-4.271255970001222,-7.628525257110597,-0.4399345517158508
937,23850.0,-4.271255970001222,-7.628525257110597,-0.4399345517158508
938,23900.0,-4.271255970001222,-7.628525257110597,-0.4399345517158508
939,23950.0,-4.271255970001222,-7.628525257110597,-0.4399345517158508
940,24000.0,0.9032126069068908,-16.163854598999027,2.416347980499268
941,24050.0,0.9032126069068908,-16.163854598999027,2.416347980499268
942,24100.0,0.9032126069068908,-16.163854598999027,2.416347980499268
943,24150.0,1.3162124156951904,-6.357802391052246,0.4578910768032074
944,24200.0,1.3162124156951904,-6.357802391052246,0.4578910768032074
945,24250.0,1.3162124156951904,-6.357802391052246,0.4578910768032074
946,24300.0,1.3162124156951904,-6.357802391052246,0.4578910768032074
947,24350.0,-0.009576806798577309,-9.730634689331056,3.5260605812072754
948,24400.0,-0.009576806798577309,-9.730634689331056,3.5260605812072754
949,24450.0,-0.009576806798577309,-9.730634689331056,3.5260605812072754
950,24500.0,-0.8505401611328125,-8.868123054504395,1.2018892765045166
951,24550.0,-0.8505401611328125,-8.868123054504395,1.2018892765045166
952,24600.0,-0.8505401611328125,-8.868123054504395,1.2018892765045166
953,24650.0,-0.8505401611328125,-8.868123054504395,1.2018892765045166
954,24700.0,-0.6536170840263367,-8.608950614929201,1.9734207391738887
955,24750.0,-0.6536170840263367,-8.608950614929201,1.9734207391738887
956,24800.0,-0.6536170840263367,-8.608950614929201,1.9734207391738887
957,24850.0,-0.6536170840263367,-8.608950614929201,1.9734207391738887
958,24900.0,-1.2958617210388184,-7.42561674118042,0.706289529800415
959,24950.0,-1.2958617210388184,-7.42561674118042,0.706289529800415
960,24000.0,0.9032126069068908,-16.163854598999027,2.416347980499268
961,24050.0,0.9032126069068908,-16.163854598999027,2.416347980499268
962,24100.0,0.9032126069068908,-16.163854598999027,2.416347980499268
963,24150.0,1.3162124156951904,-6.357802391052246,0.4578910768032074
964,24200.0,1.3162124156951904,-6.357802391052246,0.4578910768032074
965,24250.0,1.3162124156951904,-6.357802391052246,0.4578910768032074
966,24300.0,1.3162124156951904,-6.357802391052246,0.4578910768032074
967,24350.0,-0.009576806798577309,-9.730634689331056,3.5260605812072754
968,24400.0,-0.009576806798577309,-9.730634689331056,3.5260605812072754
969,24450.0,-0.009576806798577309,-9.730634689331056,3.5260605812072754
970,24500.0,-0.8505401611328125,-8.868123054504395,1.2018892765045166
971,24550.0,-0.8505401611328125,-8.868123054504395,1.2018892765045166
972,24600.0,-0.8505401611328125,-8.868123054504395,1.2018892765045166
973,24650.0,-0.8505401611328125,-8.868123054504395,1.2018892765045166
974,24700.0,-0.6536170840263367,-8.608950614929201,1.9734207391738887
975,24750.0,-0.6536170840263367,-8.608950614929201,1.9734207391738887
976,24800.0,-0.6536170840263367,-8.608950614929201,1.9734207391738887
977,24850.0,-0.6536170840263367,-8.608950614929201,1.9734207391738887
978,24900.0,-1.2958617210388184,-7.42561674118042,0.706289529800415
979,24950.0,-1.2958617210388184,-7.42561674118042,0.706289529800415
980,25000.0,-1.2958617210388184,-7.42561674118042,0.706289529800415
981,25050.0,-7.762001991271973,-13.736133575439453,-3.958812475204468
982,25100.0,-7.762001991271973,-13.736133575439453,-3.958812475204468
983,25150.0,-7.762001991271973,-13.736133575439453,-3.958812475204468
984,25200.0,-7.762001991271973,-13.736133575439453,-3.958812475204468
985,25250.0,0.6841431260108948,-12.574945449829102,-6.670246124267577
986,25300.0,0.6841431260108948,-12.574945449829102,-6.670246124267577
987,25350.0,0.6841431260108948,-12.574945449829102,-6.670246124267577
988,25400.0,0.3998316824436188,-9.787496566772461,-2.0009541511535645
989,25450.0,0.3998316824436188,-9.787496566772461,-2.0009541511535645
990,25500.0,0.3998316824436188,-9.787496566772461,-2.0009541511535645
991,25550.0,0.3998316824436188,-9.787496566772461,-2.0009541511535645
992,25600.0,-1.9506758451461792,-9.673771858215332,-2.3056161403656006
993,25650.0,-1.9506758451461792,-9.673771858215332,-2.3056161403656006
994,25700.0,-1.9506758451461792,-9.673771858215332,-2.3056161403656006
995,25750.0,-1.9506758451461792,-9.673771858215332,-2.3056161403656006
996,25800.0,-0.4800374507904053,-8.83939266204834,-0.03711012750864029
997,25850.0,-0.4800374507904053,-8.83939266204834,-0.03711012750864029
998,25900.0,-0.4800374507904053,-8.83939266204834,-0.03711012750864029
999,25950.0,-2.078166961669922,-7.724293231964111,-0.6416460275650024
1000,25000.0,-1.2958617210388184,-7.42561674118042,0.706289529800415
1001,25050.0,-7.762001991271973,-13.736133575439453,-3.958812475204468
1002,25100.0,-7.762001991271973,-13.736133575439453,-3.958812475204468
1003,25150.0,-7.762001991271973,-13.736133575439453,-3.958812475204468
1004,25200.0,-7.762001991271973,-13.736133575439453,-3.958812475204468
1005,25250.0,0.6841431260108948,-12.574945449829102,-6.670246124267577
1006,25300.0,0.6841431260108948,-12.574945449829102,-6.670246124267577
1007,25350.0,0.6841431260108948,-12.574945449829102,-6.670246124267577
1008,25400.0,0.3998316824436188,-9.787496566772461,-2.0009541511535645
1009,25450.0,0.3998316824436188,-9.787496566772461,-2.0009541511535645
1010,25500.0,0.3998316824436188,-9.787496566772461,-2.0009541511535645
1011,25550.0,0.3998316824436188,-9.787496566772461,-2.0009541511535645
1012,25600.0,-1.9506758451461792,-9.673771858215332,-2.3056161403656006
1013,25650.0,-1.9506758451461792,-9.673771858215332,-2.3056161403656006
1014,25700.0,-1.9506758451461792,-9.673771858215332,-2.3056161403656006
1015,25750.0,-1.9506758451461792,-9.673771858215332,-2.3056161403656006
1016,25800.0,-0.4800374507904053,-8.83939266204834,-0.03711012750864029
1017,25850.0,-0.4800374507904053,-8.83939266204834,-0.03711012750864029
1018,25900.0,-0.4800374507904053,-8.83939266204834,-0.03711012750864029
1019,25950.0,-2.078166961669922,-7.724293231964111,-0.6416460275650024
1020,26000.0,-2.078166961669922,-7.724293231964111,-0.6416460275650024
1021,26050.0,-2.078166961669922,-7.724293231964111,-0.6416460275650024
1022,26100.0,-2.078166961669922,-7.724293231964111,-0.6416460275650024
1023,26150.0,-3.699041604995728,-15.174449920654295,0.8194155097007751
1024,26200.0,-3.699041604995728,-15.174449920654295,0.8194155097007751
1025,26250.0,-3.699041604995728,-15.174449920654295,0.8194155097007751
1026,26300.0,-3.699041604995728,-15.174449920654295,0.8194155097007751
1027,26350.0,-0.8954314589500427,-6.9940619468688965,0.20290859043598172
1028,26400.0,-0.8954314589500427,-6.9940619468688965,0.20290859043598172
1029,26450.0,-0.8954314589500427,-6.9940619468688965,0.20290859043598172
1030,26500.0,-1.2348095178604126,-9.978434562683104,2.1326351165771484
1031,26550.0,-1.2348095178604126,-9.978434562683104,2.1326351165771484
1032,26600.0,-1.2348095178604126,-9.978434562683104,2.1326351165771484
1033,26650.0,-1.2348095178604126,-9.978434562683104,2.1326351165771484
1034,26700.0,-1.3593080043792725,-8.568249702453612,0.2711433470249176
1035,26750.0,-1.3593080043792725,-8.568249702453612,0.2711433470249176
1036,26800.0,-1.3593080043792725,-8.568249702453612,0.2711433470249176
1037,26850.0,1.6777368783950806,-7.457938194274902,-1.0432734489440918
1038,26900.0,1.6777368783950806,-7.457938194274902,-1.0432734489440918
1039,26950.0,1.6777368783950806,-7.457938194274902,-1.0432734489440918
1040,26000.0,-2.078166961669922,-7.724293231964111,-0.6416460275650024
1041,26050.0,-2.078166961669922,-7.724293231964111,-0.6416460275650024
1042,26100.0,-2.078166961669922,-7.724293231964111,-0.6416460275650024
1043,26150.0,-3.699041604995728,-15.174449920654295,0.8194155097007751
1044,26200.0,-3.699041604995728,-15.174449920654295,0.8194155097007751
1045,26250.0,-3.699041604995728,-15.174449920654295,0.8194155097007751
1046,26300.0,-3.699041604995728,-15.174449920654295,0.8194155097007751
1047,26350.0,-0.8954314589500427,-6.9940619468688965,0.20290859043598172
1048,26400.0,-0.8954314589500427,-6.9940619468688965,0.20290859043598172
1049,26450.0,-0.8954314589500427,-6.9940619468688965,0.20290859043598172
1050,26500.0,-1.2348095178604126,-9.978434562683104,2.1326351165771484
1051,26550.0,-1.2348095178604126,-9.978434562683104,2.1326351165771484
1052,26600.0,-1.2348095178604126,-9.978434562683104,2.1326351165771484
1053,26650.0,-1.2348095178604126,-9.978434562683104,2.1326351165771484
1054,26700.0,-1.3593080043792725,-8.568249702453612,0.2711433470249176
1055,26750.0,-1.3593080043792725,-8.568249702453612,0.2711433470249176
1056,26800.0,-1.3593080043792725,-8.568249702453612,0.2711433470249176
1057,26850.0,1.6777368783950806,-7.457938194274902,-1.0432734489440918
1058,26900.0,1.6777368783950806,-7.457938194274902,-1.0432734489440918
1059,26950.0,1.6777368783950806,-7.457938194274902,-1.0432734489440918
1060,27000.0,1.6777368783950806,-7.457938194274902,-1.0432734489440918
1061,27050.0,0.5267243981361389,-7.7763671875,0.812831461429596
1062,27100.0,0.5267243981361389,-7.7763671875,0.812831461429596
1063,27150.0,0.5267243981361389,-7.7763671875,0.812831461429596
1064,27200.0,0.5267243981361389,-7.7763671875,0.812831461429596
1065,27250.0,1.3796586990356443,-6.739078998565674,-3.0855274200439453
1066,27300.0,1.3796586990356443,-6.739078998565674,-3.0855274200439453
1067,27350.0,1.3796586990356443,-6.739078998565674,-3.0855274200439453
1068,27400.0,-2.8371291160583496,-9.909002304077148,-1.4419080018997192
1069,27450.0,-2.8371291160583496,-9.909002304077148,-1.4419080018997192
1070,27500.0,-2.8371291160583496,-9.909002304077148,-1.4419080018997192
1071,27550.0,-2.8371291160583496,-9.909002304077148,-1.4419080018997192
1072,27600.0,0.18974047899246216,-9.531316757202148,-2.713827610015869
1073,27650.0,0.18974047899246216,-9.531316757202148,-2.713827610015869
1074,27700.0,0.18974047899246216,-9.531316757202148,-2.713827610015869
1075,27750.0,-2.2703018188476562,-9.007585525512695,-1.4257471561431885
1076,27800.0,-2.2703018188476562,-9.007585525512695,-1.4257471561431885
1077,27850.0,-2.2703018188476562,-9.007585525512695,-1.4257471561431885
1078,27900.0,-2.2703018188476562,-9.007585525512695,-1.4257471561431885
1079,27950.0,-0.9894038438796996,-8.861538887023926,-0.8254010081291199
1080,27000.0,1.6777368783950806,-7.457938194274902,-1.0432734489440918
1081,27050.0,0.5267243981361389,-7.7763671875,0.812831461429596
1082,27100.0,0.5267243981361389,-7.7763671875,0.812831461429596
1083,27150.0,0.5267243981361389,-7.7763671875,0.812831461429596
1084,27200.0,0.5267243981361389,-7.7763671875,0.812831461429596
1085,27250.0,1.3796586990356443,-6.739078998565674,-3.0855274200439453
1086,27300.0,1.3796586990356443,-6.739078998565674,-3.0855274200439453
1087,27350.0,1.3796586990356443,-6.739078998565674,-3.0855274200439453
1088,27400.0,-2.8371291160583496,-9.909002304077148,-1.4419080018997192
1089,27450.0,-2.8371291160583496,-9.909002304077148,-1.4419080018997192
1090,27500.0,-2.8371291160583496,-9.909002304077148,-1.4419080018997192
1091,27550.0,-2.8371291160583496,-9.909002304077148,-1.4419080018997192
1092,27600.0,0.18974047899246216,-9.531316757202148,-2.713827610015869
1093,27650.0,0.18974047899246216,-9.531316757202148,-2.713827610015869
1094,27700.0,0.18974047899246216,-9.531316757202148,-2.713827610015869
1095,27750.0,-2.2703018188476562,-9.007585525512695,-1.4257471561431885
1096,27800.0,-2.2703018188476562,-9.007585525512695,-1.4257471561431885
1097,27850.0,-2.2703018188476562,-9.007585525512695,-1.4257471561431885
1098,27900.0,-2.2703018188476562,-9.007585525512695,-1.4257471561431885
1099,27950.0,-0.9894038438796996,-8.861538887023926,-0.8254010081291199
1100,28000.0,-0.9894038438796996,-8.861538887023926,-0.8254010081291199
1101,28050.0,-0.9894038438796996,-8.861538887023926,-0.8254010081291199
1102,28100.0,-0.9894038438796996,-8.861538887023926,-0.8254010081291199
1103,28150.0,-0.8631097078323364,-7.980473041534424,-2.167949676513672
1104,28200.0,-0.8631097078323364,-7.980473041534424,-2.167949676513672
1105,28250.0,-0.8631097078323364,-7.980473041534424,-2.167949676513672
1106,28300.0,-1.7405846118927002,-7.021595001220702,0.12988543510437012
1107,28350.0,-1.7405846118927002,-7.021595001220702,0.12988543510437012
1108,28400.0,-1.7405846118927002,-7.021595001220702,0.12988543510437012
1109,28450.0,-1.7405846118927002,-7.021595001220702,0.12988543510437012
1110,28500.0,0.6973112225532532,-16.803705215454098,-0.7751228213310242
1111,28550.0,0.6973112225532532,-16.803705215454098,-0.7751228213310242
1112,28600.0,0.6973112225532532,-16.803705215454098,-0.7751228213310242
1113,28650.0,3.421314239501953,-5.2439002990722665,1.9416975975036619
1114,28700.0,3.421314239501953,-5.2439002990722665,1.9416975975036619
1115,28750.0,3.421314239501953,-5.2439002990722665,1.9416975975036619
1116,28800.0,3.421314239501953,-5.2439002990722665,1.9416975975036619
1117,28850.0,-6.794146060943604,-13.2896146774292,6.214748859405518
1118,28900.0,-6.794146060943604,-13.2896146774292,6.214748859405518
1119,28950.0,-6.794146060943604,-13.2896146774292,6.214748859405518
1120,28000.0,-0.9894038438796996,-8.861538887023926,-0.8254010081291199
1121,28050.0,-0.9894038438796996,-8.861538887023926,-0.8254010081291199
1122,28100.0,-0.9894038438796996,-8.861538887023926,-0.8254010081291199
1123,28150.0,-0.8631097078323364,-7.980473041534424,-2.167949676513672
1124,28200.0,-0.8631097078323364,-7.980473041534424,-2.167949676513672
1125,28250.0,-0.8631097078323364,-7.980473041534424,-2.167949676513672
1126,28300.0,-1.7405846118927002,-7.021595001220702,0.12988543510437012
1127,28350.0,-1.7405846118927002,-7.021595001220702,0.12988543510437012
1128,28400.0,-1.7405846118927002,-7.021595001220702,0.12988543510437012
1129,28450.0,-1.7405846118927002,-7.021595001220702,0.12988543510437012
1130,28500.0,0.6973112225532532,-16.803705215454098,-0.7751228213310242
1131,28550.0,0.6973112225532532,-16.803705215454098,-0.7751228213310242
1132,28600.0,0.6973112225532532,-16.803705215454098,-0.7751228213310242
1133,28650.0,3.421314239501953,-5.2439002990722665,1.9416975975036619
1134,28700.0,3.421314239501953,-5.2439002990722665,1.9416975975036619
1135,28750.0,3.421314239501953,-5.2439002990722665,1.9416975975036619
1136,28800.0,3.421314239501953,-5.2439002990722665,1.9416975975036619
1137,28850.0,-6.794146060943604,-13.2896146774292,6.214748859405518
1138,28900.0,-6.794146060943604,-13.2896146774292,6.214748859405518
1139,28950.0,-6.794146060943604,-13.2896146774292,6.214748859405518
1140,29000.0,-6.794146060943604,-13.2896146774292,6.214748859405518
1141,29050.0,-1.7220295667648315,-8.409633636474611,1.1911153793334959
1142,29100.0,-1.7220295667648315,-8.409633636474611,1.1911153793334959
1143,29150.0,-1.7220295667648315,-8.409633636474611,1.1911153793334959
1144,29200.0,-1.7220295667648315,-8.409633636474611,1.1911153793334959
1145,29250.0,1.522712230682373,-8.682572364807129,2.3953988552093506
1146,29300.0,1.522712230682373,-8.682572364807129,2.3953988552093506
1147,29350.0,1.522712230682373,-8.682572364807129,2.3953988552093506
1148,29400.0,-2.6007015705108643,-7.8039002418518075,0.8882488012313843
1149,29450.0,-2.6007015705108643,-7.8039002418518075,0.8882488012313843
1150,29500.0,-2.6007015705108643,-7.8039002418518075,0.8882488012313843
1151,29550.0,-2.3122003078460693,-6.837840080261231,0.1191115379333496
1152,29600.0,-2.3122003078460693,-6.837840080261231,0.1191115379333496
1153,29650.0,-2.3122003078460693,-6.837840080261231,0.1191115379333496
1154,29700.0,-2.3122003078460693,-6.837840080261231,0.1191115379333496
1155,29750.0,-2.8532898426055913,-9.771934509277344,-2.270900249481201
1156,29800.0,-2.8532898426055913,-9.771934509277344,-2.270900249481201
1157,29850.0,-2.8532898426055913,-9.771934509277344,-2.270900249481201
1158,29900.0,-2.8532898426055913,-9.771934509277344,-2.270900249481201
1159,29950.0,-4.155735492706299,-10.089764595031738,-1.8884265422821045
1160,29000.0,-6.794146060943604,-13.2896146774292,6.214748859405518
1161,29050.0,-1.7220295667648315,-8.409633636474611,1.1911153793334959
1162,29100.0,-1.7220295667648315,-8.409633636474611,1.1911153793334959
1163,29150.0,-1.7220295667648315,-8.409633636474611,1.1911153793334959
1164,29200.0,-1.7220295667648315,-8.409633636474611,1.1911153793334959
1165,29250.0,1.522712230682373,-8.682572364807129,2.3953988552093506
1166,29300.0,1.522712230682373,-8.682572364807129,2.3953988552093506
1167,29350.0,1.522712230682373,-8.682572364807129,2.3953988552093506
1168,29400.0,-2.6007015705108643,-7.8039002418518075,0.8882488012313843
1169,29450.0,-2.6007015705108643,-7.8039002418518075,0.8882488012313843
1170,29500.0,-2.6007015705108643,-7.8039002418518075,0.8882488012313843
1171,29550.0,-2.3122003078460693,-6.837840080261231,0.1191115379333496
1172,29600.0,-2.3122003078460693,-6.837840080261231,0.1191115379333496
1173,29650.0,-2.3122003078460693,-6.837840080261231,0.1191115379333496
1174,29700.0,-2.3122003078460693,-6.837840080261231,0.1191115379333496
1175,29750.0,-2.8532898426055913,-9.771934509277344,-2.270900249481201
1176,29800.0,-2.8532898426055913,-9.771934509277344,-2.270900249481201
1177,29850.0,-2.8532898426055913,-9.771934509277344,-2.270900249481201
1178,29900.0,-2.8532898426055913,-9.771934509277344,-2.270900249481201
1179,29950.0,-4.155735492706299,-10.089764595031738,-1.8884265422821045
1180,30000.0,-4.155735492706299,-10.089764595031738,-1.8884265422821045
1181,30050.0,-4.155735492706299,-10.089764595031738,-1.8884265422821045
1182,30100.0,0.4088099300861359,-9.63187313079834,-0.2711433470249176
1183,30150.0,0.4088099300861359,-9.63187313079834,-0.2711433470249176
1184,30200.0,0.4088099300861359,-9.63187313079834,-0.2711433470249176
1185,30250.0,0.4088099300861359,-9.63187313079834,-0.2711433470249176
1186,30300.0,-3.1226375102996826,-8.099584579467772,1.4616601467132568
1187,30350.0,-3.1226375102996826,-8.099584579467772,1.4616601467132568
1188,30400.0,-3.1226375102996826,-8.099584579467772,1.4616601467132568
1189,30450.0,-3.1226375102996826,-8.099584579467772,1.4616601467132568
1190,30500.0,-2.784456491470337,-7.0988078117370605,-1.7369933128356934
1191,30550.0,-2.784456491470337,-7.0988078117370605,-1.7369933128356934
1192,30600.0,-2.784456491470337,-7.0988078117370605,-1.7369933128356934
1193,30650.0,-1.2653355598449707,-14.942811012268065,1.4000093936920166
1194,30700.0,-1.2653355598449707,-14.942811012268065,1.4000093936920166
1195,30750.0,-1.2653355598449707,-14.942811012268065,1.4000093936920166
1196,30800.0,-1.2653355598449707,-14.942811012268065,1.4000093936920166
1197,30850.0,-1.3102269172668457,-9.970054626464844,-0.828393816947937
1198,30900.0,-1.3102269172668457,-9.970054626464844,-0.828393816947937
1199,30950.0,-1.3102269172668457,-9.970054626464844,-0.828393816947937
1200,30000.0,-4.155735492706299,-10.089764595031738,-1.8884265422821045
1201,30050.0,-4.155735492706299,-10.089764595031738,-1.8884265422821045
1202,30100.0,0.4088099300861359,-9.63187313079834,-0.2711433470249176
1203,30150.0,0.4088099300861359,-9.63187313079834,-0.2711433470249176
1204,30200.0,0.4088099300861359,-9.63187313079834,-0.2711433470249176
1205,30250.0,0.4088099300861359,-9.63187313079834,-0.2711433470249176
1206,30300.0,-3.1226375102996826,-8.099584579467772,1.4616601467132568
1207,30350.0,-3.1226375102996826,-8.099584579467772,1.4616601467132568
1208,30400.0,-3.1226375102996826,-8.099584579467772,1.4616601467132568
1209,30450.0,-3.1226375102996826,-8.099584579467772,1.4616601467132568
1210,30500.0,-2.784456491470337,-7.0988078117370605,-1.7369933128356934
1211,30550.0,-2.784456491470337,-7.0988078117370605,-1.7369933128356934
1212,30600.0,-2.784456491470337,-7.0988078117370605,-1.7369933128356934
1213,30650.0,-1.2653355598449707,-14.942811012268065,1.4000093936920166
1214,30700.0,-1.2653355598449707,-14.942811012268065,1.4000093936920166
1215,30750.0,-1.2653355598449707,-14.942811012268065,1.4000093936920166
1216,30800.0,-1.2653355598449707,-14.942811012268065,1.4000093936920166
1217,30850.0,-1.3102269172668457,-9.970054626464844,-0.828393816947937
1218,30900.0,-1.3102269172668457,-9.970054626464844,-0.828393816947937
1219,30950.0,-1.3102269172668457,-9.970054626464844,-0.828393816947937
1220,31000.0,4.139574527740479,-8.96269416809082,-1.7298107147216797
1221,31050.0,4.139574527740479,-8.96269416809082,-1.7298107147216797
1222,31100.0,4.139574527740479,-8.96269416809082,-1.7298107147216797
1223,31150.0,4.139574527740479,-8.96269416809082,-1.7298107147216797
1224,31200.0,1.909974455833435,-3.1112651824951167,-5.7520694732666025
1225,31250.0,1.909974455833435,-3.1112651824951167,-5.7520694732666025
1226,31300.0,1.909974455833435,-3.1112651824951167,-5.7520694732666025
1227,31350.0,1.1773487329483032,-6.4266357421875,-2.145803213119507
1228,31400.0,1.1773487329483032,-6.4266357421875,-2.145803213119507
1229,31450.0,1.1773487329483032,-6.4266357421875,-2.145803213119507
1230,31500.0,1.1773487329483032,-6.4266357421875,-2.145803213119507
1231,31550.0,-4.346673011779785,-12.600683212280273,1.9698294401168823
1232,31600.0,-4.346673011779785,-12.600683212280273,1.9698294401168823
1233,31650.0,-4.346673011779785,-12.600683212280273,1.9698294401168823
1234,31700.0,-4.346673011779785,-12.600683212280273,1.9698294401168823
1235,31750.0,-3.687070608139038,-7.39748477935791,1.499967336654663
1236,31800.0,-3.687070608139038,-7.39748477935791,1.499967336654663
1237,31850.0,-3.687070608139038,-7.39748477935791,1.499967336654663
1238,31900.0,-4.4077253341674805,-9.662399291992188,-1.0684125423431396
1239,31950.0,-4.4077253341674805,-9.662399291992188,-1.0684125423431396
1240,31000.0,4.139574527740479,-8.96269416809082,-1.7298107147216797
1241,31050.0,4.139574527740479,-8.96269416809082,-1.7298107147216797
1242,31100.0,4.139574527740479,-8.96269416809082,-1.7298107147216797
1243,31150.0,4.139574527740479,-8.96269416809082,-1.7298107147216797
1244,31200.0,1.909974455833435,-3.1112651824951167,-5.7520694732666025
1245,31250.0,1.909974455833435,-3.1112651824951167,-5.7520694732666025
1246,31300.0,1.909974455833435,-3.1112651824951167,-5.7520694732666025
1247,31350.0,1.1773487329483032,-6.4266357421875,-2.145803213119507
1248,31400.0,1.1773487329483032,-6.4266357421875,-2.145803213119507
1249,31450.0,1.1773487329483032,-6.4266357421875,-2.145803213119507
1250,31500.0,1.1773487329483032,-6.4266357421875,-2.145803213119507
1251,31550.0,-4.346673011779785,-12.600683212280273,1.9698294401168823
1252,31600.0,-4.346673011779785,-12.600683212280273,1.9698294401168823
1253,31650.0,-4.346673011779785,-12.600683212280273,1.9698294401168823
1254,31700.0,-4.346673011779785,-12.600683212280273,1.9698294401168823
1255,31750.0,-3.687070608139038,-7.39748477935791,1.499967336654663
1256,31800.0,-3.687070608139038,-7.39748477935791,1.499967336654663
1257,31850.0,-3.687070608139038,-7.39748477935791,1.499967336654663
1258,31900.0,-4.4077253341674805,-9.662399291992188,-1.0684125423431396
1259,31950.0,-4.4077253341674805,-9.662399291992188,-1.0684125423431396
1260,32000.0,-4.4077253341674805,-9.662399291992188,-1.0684125423431396
1261,32050.0,-4.4077253341674805,-9.662399291992188,-1.0684125423431396
1262,32100.0,-2.169146776199341,-10.091560363769533,-3.842095136642456
1263,32150.0,-2.169146776199341,-10.091560363769533,-3.842095136642456
1264,32200.0,-2.169146776199341,-10.091560363769533,-3.842095136642456
1265,32250.0,-2.169146776199341,-10.091560363769533,-3.842095136642456
1266,32300.0,-4.63397741317749,-7.496245384216309,-1.41257905960083
1267,32350.0,-4.63397741317749,-7.496245384216309,-1.41257905960083
1268,32400.0,-4.63397741317749,-7.496245384216309,-1.41257905960083
1269,32450.0,-4.63397741317749,-7.496245384216309,-1.41257905960083
1270,32500.0,-2.5228900909423833,-6.65288782119751,-1.6388310194015503
1271,32550.0,-2.5228900909423833,-6.65288782119751,-1.6388310194015503
1272,32600.0,-2.5228900909423833,-6.65288782119751,-1.6388310194015503
1273,32650.0,-2.4606409072875977,-13.286622047424315,0.7386112213134766
1274,32700.0,-2.4606409072875977,-13.286622047424315,0.7386112213134766
1275,32750.0,-2.4606409072875977,-13.286622047424315,0.7386112213134766
1276,32800.0,0.9738415479660034,-9.44871711730957,-1.0576386451721191
1277,32850.0,0.9738415479660034,-9.44871711730957,-1.0576386451721191
1278,32900.0,0.9738415479660034,-9.44871711730957,-1.0576386451721191
1279,32950.0,0.9738415479660034,-9.44871711730957,-1.0576386451721191
1280,32000.0,-4.4077253341674805,-9.662399291992188,-1.0684125423431396
1281,32050.0,-4.4077253341674805,-9.662399291992188,-1.0684125423431396
1282,32100.0,-2.169146776199341,-10.091560363769533,-3.842095136642456
1283,32150.0,-2.169146776199341,-10.091560363769533,-3.842095136642456
1284,32200.0,-2.169146776199341,-10.091560363769533,-3.842095136642456
1285,32250.0,-2.169146776199341,-10.091560363769533,-3.842095136642456
1286,32300.0,-4.63397741317749,-7.496245384216309,-1.41257905960083
1287,32350.0,-4.63397741317749,-7.496245384216309,-1.41257905960083
1288,32400.0,-4.63397741317749,-7.496245384216309,-1.41257905960083
1289,32450.0,-4.63397741317749,-7.496245384216309,-1.41257905960083
1290,32500.0,-2.5228900909423833,-6.65288782119751,-1.6388310194015503
1291,32550.0,-2.5228900909423833,-6.65288782119751,-1.6388310194015503
1292,32600.0,-2.5228900909423833,-6.65288782119751,-1.6388310194015503
1293,32650.0,-2.4606409072875977,-13.286622047424315,0.7386112213134766
1294,32700.0,-2.4606409072875977,-13.286622047424315,0.7386112213134766
1295,32750.0,-2.4606409072875977,-13.286622047424315,0.7386112213134766
1296,32800.0,0.9738415479660034,-9.44871711730957,-1.0576386451721191
1297,32850.0,0.9738415479660034,-9.44871711730957,-1.0576386451721191
1298,32900.0,0.9738415479660034,-9.44871711730957,-1.0576386451721191
1299,32950.0,0.9738415479660034,-9.44871711730957,-1.0576386451721191
1300,33000.0,4.473566055297852,-11.007342338562012,3.5853171348571777
1301,33050.0,4.473566055297852,-11.007342338562012,3.5853171348571777
1302,33100.0,4.473566055297852,-11.007342338562012,3.5853171348571777
1303,33150.0,4.473566055297852,-11.007342338562012,3.5853171348571777
1304,33200.0,-1.3090298175811768,-7.314286231994629,1.1994950771331787
1305,33250.0,-1.3090298175811768,-7.314286231994629,1.1994950771331787
1306,33300.0,-1.3090298175811768,-7.314286231994629,1.1994950771331787
1307,33350.0,1.40180504322052,-5.410297393798828,1.1994950771331787
1308,33400.0,1.40180504322052,-5.410297393798828,1.1994950771331787
1309,33450.0,1.40180504322052,-5.410297393798828,1.1994950771331787
1310,33500.0,1.40180504322052,-5.410297393798828,1.1994950771331787
1311,33550.0,-10.826580047607422,-19.608510971069336,12.447454452514648
1312,33600.0,-10.826580047607422,-19.608510971069336,12.447454452514648
1313,33650.0,-10.826580047607422,-19.608510971069336,12.447454452514648
1314,33700.0,-0.7942764163017273,-7.189787864685059,1.9704279899597168
1315,33750.0,-0.7942764163017273,-7.189787864685059,1.9704279899597168
1316,33800.0,-0.7942764163017273,-7.189787864685059,1.9704279899597168
1317,33850.0,-0.7942764163017273,-7.189787864685059,1.9704279899597168
1318,33900.0,-0.4459200799465179,-10.492588996887207,-3.0107085704803467
1319,33950.0,-0.4459200799465179,-10.492588996887207,-3.0107085704803467
1320,33000.0,4.473566055297852,-11.007342338562012,3.5853171348571777
1321,33050.0,4.473566055297852,-11.007342338562012,3.5853171348571777
1322,33100.0,4.473566055297852,-11.007342338562012,3.5853171348571777
1323,33150.0,4.473566055297852,-11.007342338562012,3.5853171348571777
1324,33200.0,-1.3090298175811768,-7.314286231994629,1.1994950771331787
1325,33250.0,-1.3090298175811768,-7.314286231994629,1.1994950771331787
1326,33300.0,-1.3090298175811768,-7.314286231994629,1.1994950771331787
1327,33350.0,1.40180504322052,-5.410297393798828,1.1994950771331787
1328,33400.0,1.40180504322052,-5.410297393798828,1.1994950771331787
1329,33450.0,1.40180504322052,-5.410297393798828,1.1994950771331787
1330,33500.0,1.40180504322052,-5.410297393798828,1.1994950771331787
1331,33550.0,-10.826580047607422,-19.608510971069336,12.447454452514648
1332,33600.0,-10.826580047607422,-19.608510971069336,12.447454452514648
1333,33650.0,-10.826580047607422,-19.608510971069336,12.447454452514648
1334,33700.0,-0.7942764163017273,-7.189787864685059,1.9704279899597168
1335,33750.0,-0.7942764163017273,-7.189787864685059,1.9704279899597168
1336,33800.0,-0.7942764163017273,-7.189787864685059,1.9704279899597168
1337,33850.0,-0.7942764163017273,-7.189787864685059,1.9704279899597168
1338,33900.0,-0.4459200799465179,-10.492588996887207,-3.0107085704803467
1339,33950.0,-0.4459200799465179,-10.492588996887207,-3.0107085704803467
1340,34000.0,-0.4459200799465179,-10.492588996887207,-3.0107085704803467
1341,34050.0,-0.4459200799465179,-10.492588996887207,-3.0107085704803467
1342,34100.0,-1.2545616626739502,-11.48618221282959,-0.6380547285079956
1343,34150.0,-1.2545616626739502,-11.48618221282959,-0.6380547285079956
1344,34200.0,-1.2545616626739502,-11.48618221282959,-0.6380547285079956
1345,34250.0,1.1192892789840698,-12.023680686950685,-2.6821043491363525
1346,34300.0,1.1192892789840698,-12.023680686950685,-2.6821043491363525
1347,34350.0,1.1192892789840698,-12.023680686950685,-2.6821043491363525
1348,34400.0,1.1192892789840698,-12.023680686950685,-2.6821043491363525
1349,34450.0,3.7936124801635738,-7.956530570983888,2.674921751022339
1350,34500.0,3.7936124801635738,-7.956530570983888,2.674921751022339
1351,34550.0,3.7936124801635738,-7.956530570983888,2.674921751022339
1352,34600.0,-2.3295583724975586,-2.692279815673828,-0.7302315235137941
1353,34650.0,-2.3295583724975586,-2.692279815673828,-0.7302315235137941
1354,34700.0,-2.3295583724975586,-2.692279815673828,-0.7302315235137941
1355,34750.0,-2.3295583724975586,-2.692279815673828,-0.7302315235137941
1356,34800.0,6.672640323638916,-7.2005615234375,-2.4217350482940674
1357,34850.0,6.672640323638916,-7.2005615234375,-2.4217350482940674
1358,34900.0,6.672640323638916,-7.2005615234375,-2.4217350482940674
1359,34950.0,6.672640323638916,-7.2005615234375,-2.4217350482940674
1360,34000.0,-0.4459200799465179,-10.492588996887207,-3.0107085704803467
1361,34050.0,-0.4459200799465179,-10.492588996887207,-3.0107085704803467
1362,34100.0,-1.2545616626739502,-11.48618221282959,-0.6380547285079956
1363,34150.0,-1.2545616626739502,-11.48618221282959,-0.6380547285079956
1364,34200.0,-1.2545616626739502,-11.48618221282959,-0.6380547285079956
1365,34250.0,1.1192892789840698,-12.023680686950685,-2.6821043491363525
1366,34300.0,1.1192892789840698,-12.023680686950685,-2.6821043491363525
1367,34350.0,1.1192892789840698,-12.023680686950685,-2.6821043491363525
1368,34400.0,1.1192892789840698,-12.023680686950685,-2.6821043491363525
1369,34450.0,3.7936124801635738,-7.956530570983888,2.674921751022339
1370,34500.0,3.7936124801635738,-7.956530570983888,2.674921751022339
1371,34550.0,3.7936124801635738,-7.956530570983888,2.674921751022339
1372,34600.0,-2.3295583724975586,-2.692279815673828,-0.7302315235137941
1373,34650.0,-2.3295583724975586,-2.692279815673828,-0.7302315235137941
1374,34700.0,-2.3295583724975586,-2.692279815673828,-0.7302315235137941
1375,34750.0,-2.3295583724975586,-2.692279815673828,-0.7302315235137941
1376,34800.0,6.672640323638916,-7.2005615234375,-2.4217350482940674
1377,34850.0,6.672640323638916,-7.2005615234375,-2.4217350482940674
1378,34900.0,6.672640323638916,-7.2005615234375,-2.4217350482940674
1379,34950.0,6.672640323638916,-7.2005615234375,-2.4217350482940674
1380,35000.0,-1.8590975999832156,-10.255562782287598,-2.293645143508911
1381,35050.0,-1.8590975999832156,-10.255562782287598,-2.293645143508911
1382,35100.0,-1.8590975999832156,-10.255562782287598,-2.293645143508911
1383,35150.0,1.0630255937576294,-8.695740699768066,-1.5843629837036133
1384,35200.0,1.0630255937576294,-8.695740699768066,-1.5843629837036133
1385,35250.0,1.0630255937576294,-8.695740699768066,-1.5843629837036133
1386,35300.0,1.0630255937576294,-8.695740699768066,-1.5843629837036133
1387,35350.0,-0.4620809257030487,-9.988011360168457,-1.0438719987869265
1388,35400.0,-0.4620809257030487,-9.988011360168457,-1.0438719987869265
1389,35450.0,-0.4620809257030487,-9.988011360168457,-1.0438719987869265
1390,35500.0,-0.9343371987342834,-10.453084945678713,-2.1254525184631348
1391,35550.0,-0.9343371987342834,-10.453084945678713,-2.1254525184631348
1392,35600.0,-0.9343371987342834,-10.453084945678713,-2.1254525184631348
1393,35650.0,-0.9343371987342834,-10.453084945678713,-2.1254525184631348
1394,35700.0,0.9983820915222168,-10.967239379882812,-1.2994530200958252
1395,35750.0,0.9983820915222168,-10.967239379882812,-1.2994530200958252
1396,35800.0,0.9983820915222168,-10.967239379882812,-1.2994530200958252
1397,35850.0,0.9983820915222168,-10.967239379882812,-1.2994530200958252
1398,35900.0,-0.18794482946395874,-8.73225212097168,0.2693476974964142
1399,35950.0,-0.18794482946395874,-8.73225212097168,0.2693476974964142
1400,35000.0,-1.8590975999832156,-10.255562782287598,-2.293645143508911
1401,35050.0,-1.8590975999832156,-10.255562782287598,-2.293645143508911
1402,35100.0,-1.8590975999832156,-10.255562782287598,-2.293645143508911
1403,35150.0,1.0630255937576294,-8.695740699768066,-1.5843629837036133
1404,35200.0,1.0630255937576294,-8.695740699768066,-1.5843629837036133
1405,35250.0,1.0630255937576294,-8.695740699768066,-1.5843629837036133
1406,35300.0,1.0630255937576294,-8.695740699768066,-1.5843629837036133
1407,35350.0,-0.4620809257030487,-9.988011360168457,-1.0438719987869265
1408,35400.0,-0.4620809257030487,-9.988011360168457,-1.0438719987869265
1409,35450.0,-0.4620809257030487,-9.988011360168457,-1.0438719987869265
1410,35500.0,-0.9343371987342834,-10.453084945678713,-2.1254525184631348
1411,35550.0,-0.9343371987342834,-10.453084945678713,-2.1254525184631348
1412,35600.0,-0.9343371987342834,-10.453084945678713,-2.1254525184631348
1413,35650.0,-0.9343371987342834,-10.453084945678713,-2.1254525184631348
1414,35700.0,0.9983820915222168,-10.967239379882812,-1.2994530200958252
1415,35750.0,0.9983820915222168,-10.967239379882812,-1.2994530200958252
1416,35800.0,0.9983820915222168,-10.967239379882812,-1.2994530200958252
1417,35850.0,0.9983820915222168,-10.967239379882812,-1.2994530200958252
1418,35900.0,-0.18794482946395874,-8.73225212097168,0.2693476974964142
1419,35950.0,-0.18794482946395874,-8.73225212097168,0.2693476974964142
1420,36000.0,-0.18794482946395874,-8.73225212097168,0.2693476974964142
1421,36050.0,-2.3349452018737797,-8.081028938293457,2.364872694015503
1422,36100.0,-2.3349452018737797,-8.081028938293457,2.364872694015503
1423,36150.0,-2.3349452018737797,-8.081028938293457,2.364872694015503
1424,36200.0,-2.3349452018737797,-8.081028938293457,2.364872694015503
1425,36250.0,-3.646369218826294,-10.994174003601074,2.9640216827392583
1426,36300.0,-3.646369218826294,-10.994174003601074,2.9640216827392583
1427,36350.0,-3.646369218826294,-10.994174003601074,2.9640216827392583
1428,36400.0,-3.646369218826294,-10.994174003601074,2.9640216827392583
1429,36450.0,-6.754641532897949,-15.204378128051758,5.079897403717041
1430,36500.0,-6.754641532897949,-15.204378128051758,5.079897403717041
1431,36550.0,-6.754641532897949,-15.204378128051758,5.079897403717041
1432,36600.0,-1.4000093936920166,-9.37509536743164,0.8469488620758057
1433,36650.0,-1.4000093936920166,-9.37509536743164,0.8469488620758057
1434,36700.0,-1.4000093936920166,-9.37509536743164,0.8469488620758057
1435,36750.0,-1.4000093936920166,-9.37509536743164,0.8469488620758057
1436,36800.0,-0.5764040350914001,-10.137648582458496,-0.3890577852725983
1437,36850.0,-0.5764040350914001,-10.137648582458496,-0.3890577852725983
1438,36900.0,-0.5764040350914001,-10.137648582458496,-0.3890577852725983
1439,36950.0,-1.4586673974990845,-9.67077922821045,-0.3812766075134277
1440,36000.0,-0.18794482946395874,-8.73225212097168,0.2693476974964142
1441,36050.0,-2.3349452018737797,-8.081028938293457,2.364872694015503
1442,36100.0,-2.3349452018737797,-8.081028938293457,2.364872694015503
1443,36150.0,-2.3349452018737797,-8.081028938293457,2.364872694015503
1444,36200.0,-2.3349452018737797,-8.081028938293457,2.364872694015503
1445,36250.0,-3.646369218826294,-10.994174003601074,2.9640216827392583
1446,36300.0,-3.646369218826294,-10.994174003601074,2.9640216827392583
1447,36350.0,-3.646369218826294,-10.994174003601074,2.9640216827392583
1448,36400.0,-3.646369218826294,-10.994174003601074,2.9640216827392583
1449,36450.0,-6.754641532897949,-15.204378128051758,5.079897403717041
1450,36500.0,-6.754641532897949,-15.204378128051758,5.079897403717041
1451,36550.0,-6.754641532897949,-15.204378128051758,5.079897403717041
1452,36600.0,-1.4000093936920166,-9.37509536743164,0.8469488620758057
1453,36650.0,-1.4000093936920166,-9.37509536743164,0.8469488620758057
1454,36700.0,-1.4000093936920166,-9.37509536743164,0.8469488620758057
1455,36750.0,-1.4000093936920166,-9.37509536743164,0.8469488620758057
1456,36800.0,-0.5764040350914001,-10.137648582458496,-0.3890577852725983
1457,36850.0,-0.5764040350914001,-10.137648582458496,-0.3890577852725983
1458,36900.0,-0.5764040350914001,-10.137648582458496,-0.3890577852725983
1459,36950.0,-1.4586673974990845,-9.67077922821045,-0.3812766075134277
1460,37000.0,-1.4586673974990845,-9.67077922821045,-0.3812766075134277
1461,37050.0,-1.4586673974990845,-9.67077922821045,-0.3812766075134277
1462,37100.0,-1.4586673974990845,-9.67077922821045,-0.3812766075134277
1463,37150.0,0.93254154920578,-10.102932929992676,4.568735599517822
1464,37200.0,0.93254154920578,-10.102932929992676,4.568735599517822
1465,37250.0,0.93254154920578,-10.102932929992676,4.568735599517822
1466,37300.0,-1.0205284357070925,-7.781754016876222,0.7793126702308655
1467,37350.0,-1.0205284357070925,-7.781754016876222,0.7793126702308655
1468,37400.0,-1.0205284357070925,-7.781754016876222,0.7793126702308655
1469,37450.0,-1.0205284357070925,-7.781754016876222,0.7793126702308655
1470,37500.0,1.0791864395141602,-9.943717956542967,0.05027823522686958
1471,37550.0,1.0791864395141602,-9.943717956542967,0.05027823522686958
1472,37600.0,1.0791864395141602,-9.943717956542967,0.05027823522686958
1473,37650.0,1.0791864395141602,-9.943717956542967,0.05027823522686958
1474,37700.0,0.788889467716217,-5.181052684783936,0.7589619159698486
1475,37750.0,0.788889467716217,-5.181052684783936,0.7589619159698486
1476,37800.0,0.788889467716217,-5.181052684783936,0.7589619159698486
1477,37850.0,1.1378443241119385,-7.353790283203125,-0.7284358739852905
1478,37900.0,1.1378443241119385,-7.353790283203125,-0.7284358739852905
1479,37950.0,1.1378443241119385,-7.353790283203125,-0.7284358739852905
1480,37000.0,-1.4586673974990845,-9.67077922821045,-0.3812766075134277
1481,37050.0,-1.4586673974990845,-9.67077922821045,-0.3812766075134277
1482,37100.0,-1.4586673974990845,-9.67077922821045,-0.3812766075134277
1483,37150.0,0.93254154920578,-10.102932929992676,4.568735599517822
1484,37200.0,0.93254154920578,-10.102932929992676,4.568735599517822
1485,37250.0,0.93254154920578,-10.102932929992676,4.568735599517822
1486,37300.0,-1.0205284357070925,-7.781754016876222,0.7793126702308655
1487,37350.0,-1.0205284357070925,-7.781754016876222,0.7793126702308655
1488,37400.0,-1.0205284357070925,-7.781754016876222,0.7793126702308655
1489,37450.0,-1.0205284357070925,-7.781754016876222,0.7793126702308655
1490,37500.0,1.0791864395141602,-9.943717956542967,0.05027823522686958
1491,37550.0,1.0791864395141602,-9.943717956542967,0.05027823522686958
1492,37600.0,1.0791864395141602,-9.943717956542967,0.05027823522686958
1493,37650.0,1.0791864395141602,-9.943717956542967,0.05027823522686958
1494,37700.0,0.788889467716217,-5.181052684783936,0.7589619159698486
1495,37750.0,0.788889467716217,-5.181052684783936,0.7589619159698486
1496,37800.0,0.788889467716217,-5.181052684783936,0.7589619159698486
1497,37850.0,1.1378443241119385,-7.353790283203125,-0.7284358739852905
1498,37900.0,1.1378443241119385,-7.353790283203125,-0.7284358739852905
1499,37950.0,1.1378443241119385,-7.353790283203125,-0.7284358739852905
1500,38000.0,1.1378443241119385,-7.353790283203125,-0.7284358739852905
1501,38050.0,-4.869806289672852,-19.608510971069336,-0.8684966564178467
1502,38100.0,-4.869806289672852,-19.608510971069336,-0.8684966564178467
1503,38150.0,-4.869806289672852,-19.608510971069336,-0.8684966564178467
1504,38200.0,3.1453824043273926,-6.446388244628906,1.4305355548858645
1505,38250.0,3.1453824043273926,-6.446388244628906,1.4305355548858645
1506,38300.0,3.1453824043273926,-6.446388244628906,1.4305355548858645
1507,38350.0,3.1453824043273926,-6.446388244628906,1.4305355548858645
1508,38400.0,-2.008136749267578,-9.305065155029297,-1.0199298858642578
1509,38450.0,-2.008136749267578,-9.305065155029297,-1.0199298858642578
1510,38500.0,-2.008136749267578,-9.305065155029297,-1.0199298858642578
1511,38550.0,-2.008136749267578,-9.305065155029297,-1.0199298858642578
1512,38600.0,-1.1330559253692627,-9.657610893249512,0.3926490843296051
1513,38650.0,-1.1330559253692627,-9.657610893249512,0.3926490843296051
1514,38700.0,-1.1330559253692627,-9.657610893249512,0.3926490843296051
1515,38750.0,2.381632089614868,-6.634931564331055,-2.6880898475646973
1516,38800.0,2.381632089614868,-6.634931564331055,-2.6880898475646973
1517,38850.0,2.381632089614868,-6.634931564331055,-2.6880898475646973
1518,38900.0,2.381632089614868,-6.634931564331055,-2.6880898475646973
1519,38950.0,-3.445854902267456,-8.668207168579103,1.566406488418579
1520,38000.0,1.1378443241119385,-7.353790283203125,-0.7284358739852905
1521,38050.0,-4.869806289672852,-19.608510971069336,-0.8684966564178467
1522,38100.0,-4.869806289672852,-19.608510971069336,-0.8684966564178467
1523,38150.0,-4.869806289672852,-19.608510971069336,-0.8684966564178467
1524,38200.0,3.1453824043273926,-6.446388244628906,1.4305355548858645
1525,38250.0,3.1453824043273926,-6.446388244628906,1.4305355548858645
1526,38300.0,3.1453824043273926,-6.446388244628906,1.4305355548858645
1527,38350.0,3.1453824043273926,-6.446388244628906,1.4305355548858645
1528,38400.0,-2.008136749267578,-9.305065155029297,-1.0199298858642578
1529,38450.0,-2.008136749267578,-9.305065155029297,-1.0199298858642578
1530,38500.0,-2.008136749267578,-9.305065155029297,-1.0199298858642578
1531,38550.0,-2.008136749267578,-9.305065155029297,-1.0199298858642578
1532,38600.0,-1.1330559253692627,-9.657610893249512,0.3926490843296051
1533,38650.0,-1.1330559253692627,-9.657610893249512,0.3926490843296051
1534,38700.0,-1.1330559253692627,-9.657610893249512,0.3926490843296051
1535,38750.0,2.381632089614868,-6.634931564331055,-2.6880898475646973
1536,38800.0,2.381632089614868,-6.634931564331055,-2.6880898475646973
1537,38850.0,2.381632089614868,-6.634931564331055,-2.6880898475646973
1538,38900.0,2.381632089614868,-6.634931564331055,-2.6880898475646973
1539,38950.0,-3.445854902267456,-8.668207168579103,1.566406488418579
1540,39000.0,-3.445854902267456,-8.668207168579103,1.566406488418579
1541,39050.0,-3.445854902267456,-8.668207168579103,1.566406488418579
1542,39100.0,-0.8625111579895021,-9.45410442352295,0.18076223134994507
1543,39150.0,-0.8625111579895021,-9.45410442352295,0.18076223134994507
1544,39200.0,-0.8625111579895021,-9.45410442352295,0.18076223134994507
1545,39250.0,-0.8625111579895021,-9.45410442352295,0.18076223134994507
1546,39300.0,1.7441759109497068,-8.577826499938965,0.2711433470249176
1547,39350.0,1.7441759109497068,-8.577826499938965,0.2711433470249176
1548,39400.0,1.7441759109497068,-8.577826499938965,0.2711433470249176
1549,39450.0,1.7441759109497068,-8.577826499938965,0.2711433470249176
1550,39500.0,0.0867898091673851,-8.632294654846191,-1.7729063034057615
1551,39550.0,0.0867898091673851,-8.632294654846191,-1.7729063034057615
1552,39600.0,0.0867898091673851,-8.632294654846191,-1.7729063034057615
1553,39650.0,-4.478952884674072,-15.168464660644533,4.3801918029785165
1554,39700.0,-4.478952884674072,-15.168464660644533,4.3801918029785165
1555,39750.0,-4.478952884674072,-15.168464660644533,4.3801918029785165
1556,39800.0,-4.478952884674072,-15.168464660644533,4.3801918029785165
1557,39850.0,-2.963423252105713,-13.425485610961914,-1.4891934394836426
1558,39900.0,-2.963423252105713,-13.425485610961914,-1.4891934394836426
1559,39950.0,-2.963423252105713,-13.425485610961914,-1.4891934394836426
1560,39000.0,-3.445854902267456,-8.668207168579103,1.566406488418579
1561,39050.0,-3.445854902267456,-8.668207168579103,1.566406488418579
1562,39100.0,-0.8625111579895021,-9.45410442352295,0.18076223134994507
1563,39150.0,-0.8625111579895021,-9.45410442352295,0.18076223134994507
1564,39200.0,-0.8625111579895021,-9.45410442352295,0.18076223134994507
1565,39250.0,-0.8625111579895021,-9.45410442352295,0.18076223134994507
1566,39300.0,1.7441759109497068,-8.577826499938965,0.2711433470249176
1567,39350.0,1.7441759109497068,-8.577826499938965,0.2711433470249176
1568,39400.0,1.7441759109497068,-8.577826499938965,0.2711433470249176
1569,39450.0,1.7441759109497068,-8.577826499938965,0.2711433470249176
1570,39500.0,0.0867898091673851,-8.632294654846191,-1.7729063034057615
1571,39550.0,0.0867898091673851,-8.632294654846191,-1.7729063034057615
1572,39600.0,0.0867898091673851,-8.632294654846191,-1.7729063034057615
1573,39650.0,-4.478952884674072,-15.168464660644533,4.3801918029785165
1574,39700.0,-4.478952884674072,-15.168464660644533,4.3801918029785165
1575,39750.0,-4.478952884674072,-15.168464660644533,4.3801918029785165
1576,39800.0,-4.478952884674072,-15.168464660644533,4.3801918029785165
1577,39850.0,-2.963423252105713,-13.425485610961914,-1.4891934394836426
1578,39900.0,-2.963423252105713,-13.425485610961914,-1.4891934394836426
1579,39950.0,-2.963423252105713,-13.425485610961914,-1.4891934394836426
1580,40000.0,-2.6186580657958984,-9.436147689819336,-0.475847601890564
1581,40050.0,-2.6186580657958984,-9.436147689819336,-0.475847601890564
1582,40100.0,-2.6186580657958984,-9.436147689819336,-0.475847601890564
1583,40150.0,-2.6186580657958984,-9.436147689819336,-0.475847601890564
1584,40200.0,-1.4879963397979736,-7.969698905944824,-0.2364274114370346
1585,40250.0,-1.4879963397979736,-7.969698905944824,-0.2364274114370346
1586,40300.0,-1.4879963397979736,-7.969698905944824,-0.2364274114370346
1587,40350.0,-1.4879963397979736,-7.969698905944824,-0.2364274114370346
1588,40400.0,-3.3937809467315674,-5.098452568054199,1.6519991159439087
1589,40450.0,-3.3937809467315674,-5.098452568054199,1.6519991159439087
1590,40500.0,-3.3937809467315674,-5.098452568054199,1.6519991159439087
1591,40550.0,-1.4784195423126218,-13.69962215423584,1.0624270439147951
1592,40600.0,-1.4784195423126218,-13.69962215423584,1.0624270439147951
1593,40650.0,-1.4784195423126218,-13.69962215423584,1.0624270439147951
1594,40700.0,-1.4784195423126218,-13.69962215423584,1.0624270439147951
1595,40750.0,2.6479871273040767,-7.043741226196289,-0.5404910445213318
1596,40800.0,2.6479871273040767,-7.043741226196289,-0.5404910445213318
1597,40850.0,2.6479871273040767,-7.043741226196289,-0.5404910445213318
1598,40900.0,0.21009120345115664,-7.248445510864258,-2.0368671417236333
1599,40950.0,0.21009120345115664,-7.248445510864258,-2.0368671417236333
1600,40000.0,-2.6186580657958984,-9.436147689819336,-0.475847601890564
1601,40050.0,-2.6186580657958984,-9.436147689819336,-0.475847601890564
1602,40100.0,-2.6186580657958984,-9.436147689819336,-0.475847601890564
1603,40150.0,-2.6186580657958984,-9.436147689819336,-0.475847601890564
1604,40200.0,-1.4879963397979736,-7.969698905944824,-0.2364274114370346
1605,40250.0,-1.4879963397979736,-7.969698905944824,-0.2364274114370346
1606,40300.0,-1.4879963397979736,-7.969698905944824,-0.2364274114370346
1607,40350.0,-1.4879963397979736,-7.969698905944824,-0.2364274114370346
1608,40400.0,-3.3937809467315674,-5.098452568054199,1.6519991159439087
1609,40450.0,-3.3937809467315674,-5.098452568054199,1.6519991159439087
1610,40500.0,-3.3937809467315674,-5.098452568054199,1.6519991159439087
1611,40550.0,-1.4784195423126218,-13.69962215423584,1.0624270439147951
1612,40600.0,-1.4784195423126218,-13.69962215423584,1.0624270439147951
1613,40650.0,-1.4784195423126218,-13.69962215423584,1.0624270439147951
1614,40700.0,-1.4784195423126218,-13.69962215423584,1.0624270439147951
1615,40750.0,2.6479871273040767,-7.043741226196289,-0.5404910445213318
1616,40800.0,2.6479871273040767,-7.043741226196289,-0.5404910445213318
1617,40850.0,2.6479871273040767,-7.043741226196289,-0.5404910445213318
1618,40900.0,0.21009120345115664,-7.248445510864258,-2.0368671417236333
1619,40950.0,0.21009120345115664,-7.248445510864258,-2.0368671417236333
1620,41000.0,0.21009120345115664,-7.248445510864258,-2.0368671417236333
1621,41050.0,0.21009120345115664,-7.248445510864258,-2.0368671417236333
1622,41100.0,-9.63067626953125,-18.27733612060547,6.097433090209961
1623,41150.0,-9.63067626953125,-18.27733612060547,6.097433090209961
1624,41200.0,-9.63067626953125,-18.27733612060547,6.097433090209961
1625,41250.0,-9.63067626953125,-18.27733612060547,6.097433090209961
1626,41300.0,2.4450783729553223,-10.273519515991213,-2.569576978683472
1627,41350.0,2.4450783729553223,-10.273519515991213,-2.569576978683472
1628,41400.0,2.4450783729553223,-10.273519515991213,-2.569576978683472
1629,41450.0,-2.0063409805297847,-10.010157585144043,-0.6494272351264954
1630,41500.0,-2.0063409805297847,-10.010157585144043,-0.6494272351264954
1631,41550.0,-2.0063409805297847,-10.010157585144043,-0.6494272351264954
1632,41600.0,-2.0063409805297847,-10.010157585144043,-0.6494272351264954
1633,41650.0,0.3483563363552093,-9.831789016723633,-1.125873327255249
1634,41700.0,0.3483563363552093,-9.831789016723633,-1.125873327255249
1635,41750.0,0.3483563363552093,-9.831789016723633,-1.125873327255249
1636,41800.0,-1.3515268564224243,-9.773730278015137,-1.7244237661361694
1637,41850.0,-1.3515268564224243,-9.773730278015137,-1.7244237661361694
1638,41900.0,-1.3515268564224243,-9.773730278015137,-1.7244237661361694
1639,41950.0,-1.3515268564224243,-9.773730278015137,-1.7244237661361694
1640,41000.0,0.21009120345115664,-7.248445510864258,-2.0368671417236333
1641,41050.0,0.21009120345115664,-7.248445510864258,-2.0368671417236333
1642,41100.0,-9.63067626953125,-18.27733612060547,6.097433090209961
1643,41150.0,-9.63067626953125,-18.27733612060547,6.097433090209961
1644,41200.0,-9.63067626953125,-18.27733612060547,6.097433090209961
1645,41250.0,-9.63067626953125,-18.27733612060547,6.097433090209961
1646,41300.0,2.4450783729553223,-10.273519515991213,-2.569576978683472
1647,41350.0,2.4450783729553223,-10.273519515991213,-2.569576978683472
1648,41400.0,2.4450783729553223,-10.273519515991213,-2.569576978683472
1649,41450.0,-2.0063409805297847,-10.010157585144043,-0.6494272351264954
1650,41500.0,-2.0063409805297847,-10.010157585144043,-0.6494272351264954
1651,41550.0,-2.0063409805297847,-10.010157585144043,-0.6494272351264954
1652,41600.0,-2.0063409805297847,-10.010157585144043,-0.6494272351264954
1653,41650.0,0.3483563363552093,-9.831789016723633,-1.125873327255249
1654,41700.0,0.3483563363552093,-9.831789016723633,-1.125873327255249
1655,41750.0,0.3483563363552093,-9.831789016723633,-1.125873327255249
1656,41800.0,-1.3515268564224243,-9.773730278015137,-1.7244237661361694
1657,41850.0,-1.3515268564224243,-9.773730278015137,-1.7244237661361694
1658,41900.0,-1.3515268564224243,-9.773730278015137,-1.7244237661361694
1659,41950.0,-1.3515268564224243,-9.773730278015137,-1.7244237661361694
1660,42000.0,-1.195903778076172,-9.50498104095459,-1.4203602075576782
1661,42050.0,-1.195903778076172,-9.50498104095459,-1.4203602075576782
1662,42100.0,-1.195903778076172,-9.50498104095459,-1.4203602075576782
1663,42150.0,-1.195903778076172,-9.50498104095459,-1.4203602075576782
1664,42200.0,-0.7104793787002563,-9.473258018493652,-0.8379706144332886
1665,42250.0,-0.7104793787002563,-9.473258018493652,-0.8379706144332886
1666,42300.0,-0.7104793787002563,-9.473258018493652,-0.8379706144332886
1667,42350.0,-2.410961151123047,-9.730634689331056,-1.300650119781494
1668,42400.0,-2.410961151123047,-9.730634689331056,-1.300650119781494
1669,42450.0,-2.410961151123047,-9.730634689331056,-1.300650119781494
1670,42500.0,-2.410961151123047,-9.730634689331056,-1.300650119781494
1671,42550.0,0.5764040350914001,-9.032724380493164,-0.7930793166160583
1672,42600.0,0.5764040350914001,-9.032724380493164,-0.7930793166160583
1673,42650.0,0.5764040350914001,-9.032724380493164,-0.7930793166160583
1674,42700.0,0.5764040350914001,-9.032724380493164,-0.7930793166160583
1675,42750.0,-0.6153098344802856,-8.916605949401855,0.12449848651885985
1676,42800.0,-0.6153098344802856,-8.916605949401855,0.12449848651885985
1677,42850.0,-0.6153098344802856,-8.916605949401855,0.12449848651885985
1678,42900.0,-1.8920178413391116,-10.041281700134276,-1.714846968650818
1679,42950.0,-1.8920178413391116,-10.041281700134276,-1.714846968650818
1680,42000.0,-1.195903778076172,-9.50498104095459,-1.4203602075576782
1681,42050.0,-1.195903778076172,-9.50498104095459,-1.4203602075576782
1682,42100.0,-1.195903778076172,-9.50498104095459,-1.4203602075576782
1683,42150.0,-1.195903778076172,-9.50498104095459,-1.4203602075576782
1684,42200.0,-0.7104793787002563,-9.473258018493652,-0.8379706144332886
1685,42250.0,-0.7104793787002563,-9.473258018493652,-0.8379706144332886
1686,42300.0,-0.7104793787002563,-9.473258018493652,-0.8379706144332886
1687,42350.0,-2.410961151123047,-9.730634689331056,-1.300650119781494
1688,42400.0,-2.410961151123047,-9.730634689331056,-1.300650119781494
1689,42450.0,-2.410961151123047,-9.730634689331056,-1.300650119781494
1690,42500.0,-2.410961151123047,-9.730634689331056,-1.300650119781494
1691,42550.0,0.5764040350914001,-9.032724380493164,-0.7930793166160583
1692,42600.0,0.5764040350914001,-9.032724380493164,-0.7930793166160583
1693,42650.0,0.5764040350914001,-9.032724380493164,-0.7930793166160583
1694,42700.0,0.5764040350914001,-9.032724380493164,-0.7930793166160583
1695,42750.0,-0.6153098344802856,-8.916605949401855,0.12449848651885985
1696,42800.0,-0.6153098344802856,-8.916605949401855,0.12449848651885985
1697,42850.0,-0.6153098344802856,-8.916605949401855,0.12449848651885985
1698,42900.0,-1.8920178413391116,-10.041281700134276,-1.714846968650818
1699,42950.0,-1.8920178413391116,-10.041281700134276,-1.714846968650818
1700,43000.0,-1.8920178413391116,-10.041281700134276,-1.714846968650818
1701,43050.0,-1.8920178413391116,-10.041281700134276,-1.714846968650818
1702,43100.0,-0.4195838570594788,-12.702437400817873,1.9650410413742063
1703,43150.0,-0.4195838570594788,-12.702437400817873,1.9650410413742063
1704,43200.0,-0.4195838570594788,-12.702437400817873,1.9650410413742063
1705,43250.0,-3.728370666503906,-9.419387817382812,1.928529500961304
1706,43300.0,-3.728370666503906,-9.419387817382812,1.928529500961304
1707,43350.0,-3.728370666503906,-9.419387817382812,1.928529500961304
1708,43400.0,-3.728370666503906,-9.419387817382812,1.928529500961304
1709,43450.0,-3.2088289260864262,-7.95832633972168,2.0877439975738525
1710,43500.0,-3.2088289260864262,-7.95832633972168,2.0877439975738525
1711,43550.0,-3.2088289260864262,-7.95832633972168,2.0877439975738525
1712,43600.0,-2.075174331665039,-9.12729549407959,-0.35374331474304205
